"trial_type","trial_index","time_elapsed","internal_node_id","subject_id","task","startTime","totalTime","fairMachine","unfairMachine","view_history","rt","event","trial","time","trialtype","success","stimulus","key_press","roundsLeft","chosen","pFairMachWin","pUnfairMachWin","pTrialWin","outcome","animation_sequence","responses"
"pavlovia","0","2","0.0-0.0","63d80cb1ba40ad04c1edd4db","bdp_lott","Sun Mar 26 2023 15:51:54 GMT-0700 (Pacific Daylight Time)","339034","red","green","","","","","","","","","","","","","","","","",""
"instructions","1","3865","0.0-1.0","63d80cb1ba40ad04c1edd4db","bdp_lott","Sun Mar 26 2023 15:51:54 GMT-0700 (Pacific Daylight Time)","339034","red","green","[{""page_index"":0,""viewing_time"":3863}]","3863","","","","","","","","","","","","","","",""
"","","","","63d80cb1ba40ad04c1edd4db","bdp_lott","Sun Mar 26 2023 15:51:54 GMT-0700 (Pacific Daylight Time)","339034","red","green","","","fullscreenenter","2","8471","fullscreenenter","","","","","","","","","","",""
"fullscreen","2","9467","0.0-2.0","63d80cb1ba40ad04c1edd4db","bdp_lott","Sun Mar 26 2023 15:51:54 GMT-0700 (Pacific Daylight Time)","339034","red","green","","","","","","","true","","","","","","","","","",""
"instructions","3","89037","0.0-4.0","63d80cb1ba40ad04c1edd4db","bdp_lott","Sun Mar 26 2023 15:51:54 GMT-0700 (Pacific Daylight Time)","339034","red","green","[{""page_index"":0,""viewing_time"":79569}]","79569","","","","","","","","","","","","","","",""
"image-keyboard-response","4","89810","0.0-5.0-1.0","63d80cb1ba40ad04c1edd4db","bdp_lott","Sun Mar 26 2023 15:51:54 GMT-0700 (Pacific Daylight Time)","339034","red","green","","770","","","","choice","","img/red_ll/initchoose11.jpg","1","225","green","0.5","0.5","0.5","w","",""
"animation","5","90418","0.0-5.0-2.0","63d80cb1ba40ad04c1edd4db","bdp_lott","Sun Mar 26 2023 15:51:54 GMT-0700 (Pacific Daylight Time)","339034","red","green","","","","","","","","","","225","","","","","","[{""stimulus"":""img/green_wl/1.jpg"",""time"":54},{""stimulus"":""img/green_wl/2.jpg"",""time"":106},{""stimulus"":""img/green_wl/3.jpg"",""time"":160},{""stimulus"":""img/green_wl/4.jpg"",""time"":207},{""stimulus"":""img/green_wl/5.jpg"",""time"":254},{""stimulus"":""img/green_wl/6.jpg"",""time"":303},{""stimulus"":""img/green_wl/7.jpg"",""time"":358},{""stimulus"":""img/green_wl/8.jpg"",""time"":410},{""stimulus"":""img/green_wl/9.jpg"",""time"":458},{""stimulus"":""img/green_wl/10.jpg"",""time"":506},{""stimulus"":""img/green_wl/11.jpg"",""time"":559}]","[]"
"image-keyboard-response","6","92118","0.0-5.0-1.1","63d80cb1ba40ad04c1edd4db","bdp_lott","Sun Mar 26 2023 15:51:54 GMT-0700 (Pacific Daylight Time)","339034","red","green","","1699","","","","choice","","img/green_wl/choose11.jpg","2","224","red","0.5","0.5","0.5","w","",""
"animation","7","92722","0.0-5.0-2.1","63d80cb1ba40ad04c1edd4db","bdp_lott","Sun Mar 26 2023 15:51:54 GMT-0700 (Pacific Daylight Time)","339034","red","green","","","","","","","","","","224","","","","","","[{""stimulus"":""img/red_ww/1.jpg"",""time"":60},{""stimulus"":""img/red_ww/2.jpg"",""time"":108},{""stimulus"":""img/red_ww/3.jpg"",""time"":156},{""stimulus"":""img/red_ww/4.jpg"",""time"":204},{""stimulus"":""img/red_ww/5.jpg"",""time"":259},{""stimulus"":""img/red_ww/6.jpg"",""time"":311},{""stimulus"":""img/red_ww/7.jpg"",""time"":358},{""stimulus"":""img/red_ww/8.jpg"",""time"":402},{""stimulus"":""img/red_ww/9.jpg"",""time"":460},{""stimulus"":""img/red_ww/10.jpg"",""time"":508},{""stimulus"":""img/red_ww/11.jpg"",""time"":556}]","[]"
"image-keyboard-response","8","94423","0.0-5.0-1.2","63d80cb1ba40ad04c1edd4db","bdp_lott","Sun Mar 26 2023 15:51:54 GMT-0700 (Pacific Daylight Time)","339034","red","green","","1699","","","","choice","","img/red_ww/choose11.jpg","2","223","red","0.5","0.5","0.5","l","",""
"animation","9","95026","0.0-5.0-2.2","63d80cb1ba40ad04c1edd4db","bdp_lott","Sun Mar 26 2023 15:51:54 GMT-0700 (Pacific Daylight Time)","339034","red","green","","","","","","","","","","223","","","","","","[{""stimulus"":""img/red_wl/1.jpg"",""time"":59},{""stimulus"":""img/red_wl/2.jpg"",""time"":107},{""stimulus"":""img/red_wl/3.jpg"",""time"":155},{""stimulus"":""img/red_wl/4.jpg"",""time"":203},{""stimulus"":""img/red_wl/5.jpg"",""time"":262},{""stimulus"":""img/red_wl/6.jpg"",""time"":310},{""stimulus"":""img/red_wl/7.jpg"",""time"":355},{""stimulus"":""img/red_wl/8.jpg"",""time"":405},{""stimulus"":""img/red_wl/9.jpg"",""time"":460},{""stimulus"":""img/red_wl/10.jpg"",""time"":504},{""stimulus"":""img/red_wl/11.jpg"",""time"":555}]","[]"
"image-keyboard-response","10","96054","0.0-5.0-1.3","63d80cb1ba40ad04c1edd4db","bdp_lott","Sun Mar 26 2023 15:51:54 GMT-0700 (Pacific Daylight Time)","339034","red","green","","1026","","","","choice","","img/red_wl/choose11.jpg","1","222","green","0.5","0.5","0.5","l","",""
"animation","11","96658","0.0-5.0-2.3","63d80cb1ba40ad04c1edd4db","bdp_lott","Sun Mar 26 2023 15:51:54 GMT-0700 (Pacific Daylight Time)","339034","red","green","","","","","","","","","","222","","","","","","[{""stimulus"":""img/green_ll/1.jpg"",""time"":60},{""stimulus"":""img/green_ll/2.jpg"",""time"":102},{""stimulus"":""img/green_ll/3.jpg"",""time"":156},{""stimulus"":""img/green_ll/4.jpg"",""time"":203},{""stimulus"":""img/green_ll/5.jpg"",""time"":263},{""stimulus"":""img/green_ll/6.jpg"",""time"":311},{""stimulus"":""img/green_ll/7.jpg"",""time"":358},{""stimulus"":""img/green_ll/8.jpg"",""time"":407},{""stimulus"":""img/green_ll/9.jpg"",""time"":460},{""stimulus"":""img/green_ll/10.jpg"",""time"":508},{""stimulus"":""img/green_ll/11.jpg"",""time"":557}]","[]"
"image-keyboard-response","12","97902","0.0-5.0-1.4","63d80cb1ba40ad04c1edd4db","bdp_lott","Sun Mar 26 2023 15:51:54 GMT-0700 (Pacific Daylight Time)","339034","red","green","","1243","","","","choice","","img/green_ll/choose11.jpg","2","221","red","0.5","0.5","0.5","w","",""
"animation","13","98509","0.0-5.0-2.4","63d80cb1ba40ad04c1edd4db","bdp_lott","Sun Mar 26 2023 15:51:54 GMT-0700 (Pacific Daylight Time)","339034","red","green","","","","","","","","","","221","","","","","","[{""stimulus"":""img/red_lw/1.jpg"",""time"":58},{""stimulus"":""img/red_lw/2.jpg"",""time"":106},{""stimulus"":""img/red_lw/3.jpg"",""time"":154},{""stimulus"":""img/red_lw/4.jpg"",""time"":207},{""stimulus"":""img/red_lw/5.jpg"",""time"":260},{""stimulus"":""img/red_lw/6.jpg"",""time"":308},{""stimulus"":""img/red_lw/7.jpg"",""time"":356},{""stimulus"":""img/red_lw/8.jpg"",""time"":404},{""stimulus"":""img/red_lw/9.jpg"",""time"":463},{""stimulus"":""img/red_lw/10.jpg"",""time"":511},{""stimulus"":""img/red_lw/11.jpg"",""time"":557}]","[]"
"image-keyboard-response","14","99484","0.0-5.0-1.5","63d80cb1ba40ad04c1edd4db","bdp_lott","Sun Mar 26 2023 15:51:54 GMT-0700 (Pacific Daylight Time)","339034","red","green","","975","","","","choice","","img/red_lw/choose11.jpg","2","220","red","0.5","0.5","0.5","l","",""
"animation","15","100093","0.0-5.0-2.5","63d80cb1ba40ad04c1edd4db","bdp_lott","Sun Mar 26 2023 15:51:54 GMT-0700 (Pacific Daylight Time)","339034","red","green","","","","","","","","","","220","","","","","","[{""stimulus"":""img/red_ll/1.jpg"",""time"":54},{""stimulus"":""img/red_ll/2.jpg"",""time"":113},{""stimulus"":""img/red_ll/3.jpg"",""time"":158},{""stimulus"":""img/red_ll/4.jpg"",""time"":209},{""stimulus"":""img/red_ll/5.jpg"",""time"":252},{""stimulus"":""img/red_ll/6.jpg"",""time"":310},{""stimulus"":""img/red_ll/7.jpg"",""time"":358},{""stimulus"":""img/red_ll/8.jpg"",""time"":406},{""stimulus"":""img/red_ll/9.jpg"",""time"":454},{""stimulus"":""img/red_ll/10.jpg"",""time"":513},{""stimulus"":""img/red_ll/11.jpg"",""time"":561}]","[]"
"image-keyboard-response","16","100714","0.0-5.0-1.6","63d80cb1ba40ad04c1edd4db","bdp_lott","Sun Mar 26 2023 15:51:54 GMT-0700 (Pacific Daylight Time)","339034","red","green","","620","","","","choice","","img/red_ll/choose11.jpg","1","219","green","0.5","0.5","0.5","w","",""
"animation","17","101324","0.0-5.0-2.6","63d80cb1ba40ad04c1edd4db","bdp_lott","Sun Mar 26 2023 15:51:54 GMT-0700 (Pacific Daylight Time)","339034","red","green","","","","","","","","","","219","","","","","","[{""stimulus"":""img/green_wl/1.jpg"",""time"":55},{""stimulus"":""img/green_wl/2.jpg"",""time"":103},{""stimulus"":""img/green_wl/3.jpg"",""time"":162},{""stimulus"":""img/green_wl/4.jpg"",""time"":210},{""stimulus"":""img/green_wl/5.jpg"",""time"":258},{""stimulus"":""img/green_wl/6.jpg"",""time"":306},{""stimulus"":""img/green_wl/7.jpg"",""time"":359},{""stimulus"":""img/green_wl/8.jpg"",""time"":407},{""stimulus"":""img/green_wl/9.jpg"",""time"":455},{""stimulus"":""img/green_wl/10.jpg"",""time"":503},{""stimulus"":""img/green_wl/11.jpg"",""time"":558}]","[]"
"image-keyboard-response","18","102101","0.0-5.0-1.7","63d80cb1ba40ad04c1edd4db","bdp_lott","Sun Mar 26 2023 15:51:54 GMT-0700 (Pacific Daylight Time)","339034","red","green","","776","","","","choice","","img/green_wl/choose11.jpg","1","218","green","0.5","0.5","0.5","w","",""
"animation","19","102706","0.0-5.0-2.7","63d80cb1ba40ad04c1edd4db","bdp_lott","Sun Mar 26 2023 15:51:54 GMT-0700 (Pacific Daylight Time)","339034","red","green","","","","","","","","","","218","","","","","","[{""stimulus"":""img/green_wl/1.jpg"",""time"":60},{""stimulus"":""img/green_wl/2.jpg"",""time"":108},{""stimulus"":""img/green_wl/3.jpg"",""time"":157},{""stimulus"":""img/green_wl/4.jpg"",""time"":203},{""stimulus"":""img/green_wl/5.jpg"",""time"":252},{""stimulus"":""img/green_wl/6.jpg"",""time"":310},{""stimulus"":""img/green_wl/7.jpg"",""time"":355},{""stimulus"":""img/green_wl/8.jpg"",""time"":407},{""stimulus"":""img/green_wl/9.jpg"",""time"":460},{""stimulus"":""img/green_wl/10.jpg"",""time"":508},{""stimulus"":""img/green_wl/11.jpg"",""time"":556}]","[]"
"image-keyboard-response","20","103484","0.0-5.0-1.8","63d80cb1ba40ad04c1edd4db","bdp_lott","Sun Mar 26 2023 15:51:54 GMT-0700 (Pacific Daylight Time)","339034","red","green","","777","","","","choice","","img/green_wl/choose11.jpg","1","217","green","0.5","0.5","0.5","l","",""
"animation","21","104089","0.0-5.0-2.8","63d80cb1ba40ad04c1edd4db","bdp_lott","Sun Mar 26 2023 15:51:54 GMT-0700 (Pacific Daylight Time)","339034","red","green","","","","","","","","","","217","","","","","","[{""stimulus"":""img/green_ll/1.jpg"",""time"":57},{""stimulus"":""img/green_ll/2.jpg"",""time"":113},{""stimulus"":""img/green_ll/3.jpg"",""time"":161},{""stimulus"":""img/green_ll/4.jpg"",""time"":204},{""stimulus"":""img/green_ll/5.jpg"",""time"":256},{""stimulus"":""img/green_ll/6.jpg"",""time"":310},{""stimulus"":""img/green_ll/7.jpg"",""time"":358},{""stimulus"":""img/green_ll/8.jpg"",""time"":406},{""stimulus"":""img/green_ll/9.jpg"",""time"":454},{""stimulus"":""img/green_ll/10.jpg"",""time"":513},{""stimulus"":""img/green_ll/11.jpg"",""time"":561}]","[]"
"image-keyboard-response","22","105086","0.0-5.0-1.9","63d80cb1ba40ad04c1edd4db","bdp_lott","Sun Mar 26 2023 15:51:54 GMT-0700 (Pacific Daylight Time)","339034","red","green","","996","","","","choice","","img/green_ll/choose11.jpg","2","216","red","0.5","0.5","0.5","l","",""
"animation","23","105688","0.0-5.0-2.9","63d80cb1ba40ad04c1edd4db","bdp_lott","Sun Mar 26 2023 15:51:54 GMT-0700 (Pacific Daylight Time)","339034","red","green","","","","","","","","","","216","","","","","","[{""stimulus"":""img/red_ll/1.jpg"",""time"":58},{""stimulus"":""img/red_ll/2.jpg"",""time"":106},{""stimulus"":""img/red_ll/3.jpg"",""time"":152},{""stimulus"":""img/red_ll/4.jpg"",""time"":204},{""stimulus"":""img/red_ll/5.jpg"",""time"":260},{""stimulus"":""img/red_ll/6.jpg"",""time"":308},{""stimulus"":""img/red_ll/7.jpg"",""time"":356},{""stimulus"":""img/red_ll/8.jpg"",""time"":404},{""stimulus"":""img/red_ll/9.jpg"",""time"":462},{""stimulus"":""img/red_ll/10.jpg"",""time"":508},{""stimulus"":""img/red_ll/11.jpg"",""time"":555}]","[]"
"image-keyboard-response","24","106094","0.0-5.0-1.10","63d80cb1ba40ad04c1edd4db","bdp_lott","Sun Mar 26 2023 15:51:54 GMT-0700 (Pacific Daylight Time)","339034","red","green","","406","","","","choice","","img/red_ll/choose11.jpg","1","215","green","0.5","0.5","0.5","l","",""
"animation","25","106696","0.0-5.0-2.10","63d80cb1ba40ad04c1edd4db","bdp_lott","Sun Mar 26 2023 15:51:54 GMT-0700 (Pacific Daylight Time)","339034","red","green","","","","","","","","","","215","","","","","","[{""stimulus"":""img/green_ll/1.jpg"",""time"":63},{""stimulus"":""img/green_ll/2.jpg"",""time"":111},{""stimulus"":""img/green_ll/3.jpg"",""time"":152},{""stimulus"":""img/green_ll/4.jpg"",""time"":202},{""stimulus"":""img/green_ll/5.jpg"",""time"":255},{""stimulus"":""img/green_ll/6.jpg"",""time"":308},{""stimulus"":""img/green_ll/7.jpg"",""time"":356},{""stimulus"":""img/green_ll/8.jpg"",""time"":404},{""stimulus"":""img/green_ll/9.jpg"",""time"":463},{""stimulus"":""img/green_ll/10.jpg"",""time"":510},{""stimulus"":""img/green_ll/11.jpg"",""time"":559}]","[]"
"image-keyboard-response","26","107630","0.0-5.0-1.11","63d80cb1ba40ad04c1edd4db","bdp_lott","Sun Mar 26 2023 15:51:54 GMT-0700 (Pacific Daylight Time)","339034","red","green","","933","","","","choice","","img/green_ll/choose11.jpg","2","214","red","0.5","0.5","0.5","l","",""
"animation","27","108231","0.0-5.0-2.11","63d80cb1ba40ad04c1edd4db","bdp_lott","Sun Mar 26 2023 15:51:54 GMT-0700 (Pacific Daylight Time)","339034","red","green","","","","","","","","","","214","","","","","","[{""stimulus"":""img/red_ll/1.jpg"",""time"":62},{""stimulus"":""img/red_ll/2.jpg"",""time"":110},{""stimulus"":""img/red_ll/3.jpg"",""time"":154},{""stimulus"":""img/red_ll/4.jpg"",""time"":207},{""stimulus"":""img/red_ll/5.jpg"",""time"":259},{""stimulus"":""img/red_ll/6.jpg"",""time"":308},{""stimulus"":""img/red_ll/7.jpg"",""time"":356},{""stimulus"":""img/red_ll/8.jpg"",""time"":404},{""stimulus"":""img/red_ll/9.jpg"",""time"":463},{""stimulus"":""img/red_ll/10.jpg"",""time"":511},{""stimulus"":""img/red_ll/11.jpg"",""time"":556}]","[]"
"image-keyboard-response","28","108757","0.0-5.0-1.12","63d80cb1ba40ad04c1edd4db","bdp_lott","Sun Mar 26 2023 15:51:54 GMT-0700 (Pacific Daylight Time)","339034","red","green","","526","","","","choice","","img/red_ll/choose11.jpg","1","213","green","0.5","0.5","0.5","w","",""
"animation","29","109362","0.0-5.0-2.12","63d80cb1ba40ad04c1edd4db","bdp_lott","Sun Mar 26 2023 15:51:54 GMT-0700 (Pacific Daylight Time)","339034","red","green","","","","","","","","","","213","","","","","","[{""stimulus"":""img/green_wl/1.jpg"",""time"":60},{""stimulus"":""img/green_wl/2.jpg"",""time"":109},{""stimulus"":""img/green_wl/3.jpg"",""time"":155},{""stimulus"":""img/green_wl/4.jpg"",""time"":204},{""stimulus"":""img/green_wl/5.jpg"",""time"":262},{""stimulus"":""img/green_wl/6.jpg"",""time"":307},{""stimulus"":""img/green_wl/7.jpg"",""time"":356},{""stimulus"":""img/green_wl/8.jpg"",""time"":402},{""stimulus"":""img/green_wl/9.jpg"",""time"":460},{""stimulus"":""img/green_wl/10.jpg"",""time"":508},{""stimulus"":""img/green_wl/11.jpg"",""time"":556}]","[]"
"image-keyboard-response","30","110038","0.0-5.0-1.13","63d80cb1ba40ad04c1edd4db","bdp_lott","Sun Mar 26 2023 15:51:54 GMT-0700 (Pacific Daylight Time)","339034","red","green","","676","","","","choice","","img/green_wl/choose11.jpg","1","212","green","0.5","0.5","0.5","w","",""
"animation","31","110642","0.0-5.0-2.13","63d80cb1ba40ad04c1edd4db","bdp_lott","Sun Mar 26 2023 15:51:54 GMT-0700 (Pacific Daylight Time)","339034","red","green","","","","","","","","","","212","","","","","","[{""stimulus"":""img/green_wl/1.jpg"",""time"":59},{""stimulus"":""img/green_wl/2.jpg"",""time"":107},{""stimulus"":""img/green_wl/3.jpg"",""time"":155},{""stimulus"":""img/green_wl/4.jpg"",""time"":203},{""stimulus"":""img/green_wl/5.jpg"",""time"":261},{""stimulus"":""img/green_wl/6.jpg"",""time"":309},{""stimulus"":""img/green_wl/7.jpg"",""time"":352},{""stimulus"":""img/green_wl/8.jpg"",""time"":405},{""stimulus"":""img/green_wl/9.jpg"",""time"":459},{""stimulus"":""img/green_wl/10.jpg"",""time"":507},{""stimulus"":""img/green_wl/11.jpg"",""time"":553}]","[]"
"image-keyboard-response","32","111135","0.0-5.0-1.14","63d80cb1ba40ad04c1edd4db","bdp_lott","Sun Mar 26 2023 15:51:54 GMT-0700 (Pacific Daylight Time)","339034","red","green","","493","","","","choice","","img/green_wl/choose11.jpg","1","211","green","0.5","0.5","0.5","l","",""
"animation","33","111745","0.0-5.0-2.14","63d80cb1ba40ad04c1edd4db","bdp_lott","Sun Mar 26 2023 15:51:54 GMT-0700 (Pacific Daylight Time)","339034","red","green","","","","","","","","","","211","","","","","","[{""stimulus"":""img/green_ll/1.jpg"",""time"":61},{""stimulus"":""img/green_ll/2.jpg"",""time"":109},{""stimulus"":""img/green_ll/3.jpg"",""time"":158},{""stimulus"":""img/green_ll/4.jpg"",""time"":211},{""stimulus"":""img/green_ll/5.jpg"",""time"":253},{""stimulus"":""img/green_ll/6.jpg"",""time"":308},{""stimulus"":""img/green_ll/7.jpg"",""time"":355},{""stimulus"":""img/green_ll/8.jpg"",""time"":413},{""stimulus"":""img/green_ll/9.jpg"",""time"":461},{""stimulus"":""img/green_ll/10.jpg"",""time"":509},{""stimulus"":""img/green_ll/11.jpg"",""time"":553}]","[]"
"image-keyboard-response","34","112428","0.0-5.0-1.15","63d80cb1ba40ad04c1edd4db","bdp_lott","Sun Mar 26 2023 15:51:54 GMT-0700 (Pacific Daylight Time)","339034","red","green","","682","","","","choice","","img/green_ll/choose11.jpg","2","210","red","0.5","0.5","0.5","l","",""
"animation","35","113036","0.0-5.0-2.15","63d80cb1ba40ad04c1edd4db","bdp_lott","Sun Mar 26 2023 15:51:54 GMT-0700 (Pacific Daylight Time)","339034","red","green","","","","","","","","","","210","","","","","","[{""stimulus"":""img/red_ll/1.jpg"",""time"":54},{""stimulus"":""img/red_ll/2.jpg"",""time"":112},{""stimulus"":""img/red_ll/3.jpg"",""time"":152},{""stimulus"":""img/red_ll/4.jpg"",""time"":208},{""stimulus"":""img/red_ll/5.jpg"",""time"":256},{""stimulus"":""img/red_ll/6.jpg"",""time"":310},{""stimulus"":""img/red_ll/7.jpg"",""time"":357},{""stimulus"":""img/red_ll/8.jpg"",""time"":405},{""stimulus"":""img/red_ll/9.jpg"",""time"":454},{""stimulus"":""img/red_ll/10.jpg"",""time"":512},{""stimulus"":""img/red_ll/11.jpg"",""time"":556}]","[]"
"image-keyboard-response","36","113938","0.0-5.0-1.16","63d80cb1ba40ad04c1edd4db","bdp_lott","Sun Mar 26 2023 15:51:54 GMT-0700 (Pacific Daylight Time)","339034","red","green","","901","","","","choice","","img/red_ll/choose11.jpg","2","209","red","0.5","0.5","0.5","w","",""
"animation","37","114545","0.0-5.0-2.16","63d80cb1ba40ad04c1edd4db","bdp_lott","Sun Mar 26 2023 15:51:54 GMT-0700 (Pacific Daylight Time)","339034","red","green","","","","","","","","","","209","","","","","","[{""stimulus"":""img/red_lw/1.jpg"",""time"":58},{""stimulus"":""img/red_lw/2.jpg"",""time"":106},{""stimulus"":""img/red_lw/3.jpg"",""time"":160},{""stimulus"":""img/red_lw/4.jpg"",""time"":208},{""stimulus"":""img/red_lw/5.jpg"",""time"":256},{""stimulus"":""img/red_lw/6.jpg"",""time"":304},{""stimulus"":""img/red_lw/7.jpg"",""time"":362},{""stimulus"":""img/red_lw/8.jpg"",""time"":410},{""stimulus"":""img/red_lw/9.jpg"",""time"":458},{""stimulus"":""img/red_lw/10.jpg"",""time"":506},{""stimulus"":""img/red_lw/11.jpg"",""time"":559}]","[]"
"image-keyboard-response","38","115568","0.0-5.0-1.17","63d80cb1ba40ad04c1edd4db","bdp_lott","Sun Mar 26 2023 15:51:54 GMT-0700 (Pacific Daylight Time)","339034","red","green","","1022","","","","choice","","img/red_lw/choose11.jpg","2","208","red","0.5","0.5","0.5","l","",""
"animation","39","116177","0.0-5.0-2.17","63d80cb1ba40ad04c1edd4db","bdp_lott","Sun Mar 26 2023 15:51:54 GMT-0700 (Pacific Daylight Time)","339034","red","green","","","","","","","","","","208","","","","","","[{""stimulus"":""img/red_ll/1.jpg"",""time"":55},{""stimulus"":""img/red_ll/2.jpg"",""time"":108},{""stimulus"":""img/red_ll/3.jpg"",""time"":156},{""stimulus"":""img/red_ll/4.jpg"",""time"":209},{""stimulus"":""img/red_ll/5.jpg"",""time"":257},{""stimulus"":""img/red_ll/6.jpg"",""time"":305},{""stimulus"":""img/red_ll/7.jpg"",""time"":354},{""stimulus"":""img/red_ll/8.jpg"",""time"":412},{""stimulus"":""img/red_ll/9.jpg"",""time"":460},{""stimulus"":""img/red_ll/10.jpg"",""time"":503},{""stimulus"":""img/red_ll/11.jpg"",""time"":556}]","[]"
"image-keyboard-response","40","116787","0.0-5.0-1.18","63d80cb1ba40ad04c1edd4db","bdp_lott","Sun Mar 26 2023 15:51:54 GMT-0700 (Pacific Daylight Time)","339034","red","green","","609","","","","choice","","img/red_ll/choose11.jpg","2","207","red","0.5","0.5","0.5","w","",""
"animation","41","117393","0.0-5.0-2.18","63d80cb1ba40ad04c1edd4db","bdp_lott","Sun Mar 26 2023 15:51:54 GMT-0700 (Pacific Daylight Time)","339034","red","green","","","","","","","","","","207","","","","","","[{""stimulus"":""img/red_lw/1.jpg"",""time"":57},{""stimulus"":""img/red_lw/2.jpg"",""time"":105},{""stimulus"":""img/red_lw/3.jpg"",""time"":156},{""stimulus"":""img/red_lw/4.jpg"",""time"":206},{""stimulus"":""img/red_lw/5.jpg"",""time"":255},{""stimulus"":""img/red_lw/6.jpg"",""time"":313},{""stimulus"":""img/red_lw/7.jpg"",""time"":358},{""stimulus"":""img/red_lw/8.jpg"",""time"":409},{""stimulus"":""img/red_lw/9.jpg"",""time"":457},{""stimulus"":""img/red_lw/10.jpg"",""time"":505},{""stimulus"":""img/red_lw/11.jpg"",""time"":559}]","[]"
"image-keyboard-response","42","118283","0.0-5.0-1.19","63d80cb1ba40ad04c1edd4db","bdp_lott","Sun Mar 26 2023 15:51:54 GMT-0700 (Pacific Daylight Time)","339034","red","green","","889","","","","choice","","img/red_lw/choose11.jpg","2","206","red","0.5","0.5","0.5","l","",""
"animation","43","118892","0.0-5.0-2.19","63d80cb1ba40ad04c1edd4db","bdp_lott","Sun Mar 26 2023 15:51:54 GMT-0700 (Pacific Daylight Time)","339034","red","green","","","","","","","","","","206","","","","","","[{""stimulus"":""img/red_ll/1.jpg"",""time"":55},{""stimulus"":""img/red_ll/2.jpg"",""time"":113},{""stimulus"":""img/red_ll/3.jpg"",""time"":152},{""stimulus"":""img/red_ll/4.jpg"",""time"":204},{""stimulus"":""img/red_ll/5.jpg"",""time"":253},{""stimulus"":""img/red_ll/6.jpg"",""time"":310},{""stimulus"":""img/red_ll/7.jpg"",""time"":358},{""stimulus"":""img/red_ll/8.jpg"",""time"":406},{""stimulus"":""img/red_ll/9.jpg"",""time"":454},{""stimulus"":""img/red_ll/10.jpg"",""time"":513},{""stimulus"":""img/red_ll/11.jpg"",""time"":557}]","[]"
"image-keyboard-response","44","119527","0.0-5.0-1.20","63d80cb1ba40ad04c1edd4db","bdp_lott","Sun Mar 26 2023 15:51:54 GMT-0700 (Pacific Daylight Time)","339034","red","green","","635","","","","choice","","img/red_ll/choose11.jpg","2","205","red","0.5","0.5","0.5","l","",""
"animation","45","120139","0.0-5.0-2.20","63d80cb1ba40ad04c1edd4db","bdp_lott","Sun Mar 26 2023 15:51:54 GMT-0700 (Pacific Daylight Time)","339034","red","green","","","","","","","","","","205","","","","","","[{""stimulus"":""img/red_ll/1.jpg"",""time"":59},{""stimulus"":""img/red_ll/2.jpg"",""time"":107},{""stimulus"":""img/red_ll/3.jpg"",""time"":154},{""stimulus"":""img/red_ll/4.jpg"",""time"":213},{""stimulus"":""img/red_ll/5.jpg"",""time"":257},{""stimulus"":""img/red_ll/6.jpg"",""time"":305},{""stimulus"":""img/red_ll/7.jpg"",""time"":356},{""stimulus"":""img/red_ll/8.jpg"",""time"":410},{""stimulus"":""img/red_ll/9.jpg"",""time"":458},{""stimulus"":""img/red_ll/10.jpg"",""time"":506},{""stimulus"":""img/red_ll/11.jpg"",""time"":554}]","[]"
"image-keyboard-response","46","120648","0.0-5.0-1.21","63d80cb1ba40ad04c1edd4db","bdp_lott","Sun Mar 26 2023 15:51:54 GMT-0700 (Pacific Daylight Time)","339034","red","green","","508","","","","choice","","img/red_ll/choose11.jpg","2","204","red","0.5","0.5","0.5","w","",""
"animation","47","121260","0.0-5.0-2.21","63d80cb1ba40ad04c1edd4db","bdp_lott","Sun Mar 26 2023 15:51:54 GMT-0700 (Pacific Daylight Time)","339034","red","green","","","","","","","","","","204","","","","","","[{""stimulus"":""img/red_lw/1.jpg"",""time"":57},{""stimulus"":""img/red_lw/2.jpg"",""time"":104},{""stimulus"":""img/red_lw/3.jpg"",""time"":163},{""stimulus"":""img/red_lw/4.jpg"",""time"":207},{""stimulus"":""img/red_lw/5.jpg"",""time"":259},{""stimulus"":""img/red_lw/6.jpg"",""time"":307},{""stimulus"":""img/red_lw/7.jpg"",""time"":360},{""stimulus"":""img/red_lw/8.jpg"",""time"":408},{""stimulus"":""img/red_lw/9.jpg"",""time"":456},{""stimulus"":""img/red_lw/10.jpg"",""time"":503},{""stimulus"":""img/red_lw/11.jpg"",""time"":558}]","[]"
"image-keyboard-response","48","121921","0.0-5.0-1.22","63d80cb1ba40ad04c1edd4db","bdp_lott","Sun Mar 26 2023 15:51:54 GMT-0700 (Pacific Daylight Time)","339034","red","green","","661","","","","choice","","img/red_lw/choose11.jpg","1","203","green","0.5","0.5","0.5","l","",""
"animation","49","122529","0.0-5.0-2.22","63d80cb1ba40ad04c1edd4db","bdp_lott","Sun Mar 26 2023 15:51:54 GMT-0700 (Pacific Daylight Time)","339034","red","green","","","","","","","","","","203","","","","","","[{""stimulus"":""img/green_lw/1.jpg"",""time"":59},{""stimulus"":""img/green_lw/2.jpg"",""time"":107},{""stimulus"":""img/green_lw/3.jpg"",""time"":160},{""stimulus"":""img/green_lw/4.jpg"",""time"":209},{""stimulus"":""img/green_lw/5.jpg"",""time"":251},{""stimulus"":""img/green_lw/6.jpg"",""time"":304},{""stimulus"":""img/green_lw/7.jpg"",""time"":363},{""stimulus"":""img/green_lw/8.jpg"",""time"":411},{""stimulus"":""img/green_lw/9.jpg"",""time"":455},{""stimulus"":""img/green_lw/10.jpg"",""time"":503},{""stimulus"":""img/green_lw/11.jpg"",""time"":560}]","[]"
"image-keyboard-response","50","122975","0.0-5.0-1.23","63d80cb1ba40ad04c1edd4db","bdp_lott","Sun Mar 26 2023 15:51:54 GMT-0700 (Pacific Daylight Time)","339034","red","green","","446","","","","choice","","img/green_lw/choose11.jpg","1","202","green","0.5","0.5","0.5","l","",""
"animation","51","123584","0.0-5.0-2.23","63d80cb1ba40ad04c1edd4db","bdp_lott","Sun Mar 26 2023 15:51:54 GMT-0700 (Pacific Daylight Time)","339034","red","green","","","","","","","","","","202","","","","","","[{""stimulus"":""img/green_lw/1.jpg"",""time"":60},{""stimulus"":""img/green_lw/2.jpg"",""time"":108},{""stimulus"":""img/green_lw/3.jpg"",""time"":156},{""stimulus"":""img/green_lw/4.jpg"",""time"":209},{""stimulus"":""img/green_lw/5.jpg"",""time"":257},{""stimulus"":""img/green_lw/6.jpg"",""time"":305},{""stimulus"":""img/green_lw/7.jpg"",""time"":353},{""stimulus"":""img/green_lw/8.jpg"",""time"":412},{""stimulus"":""img/green_lw/9.jpg"",""time"":460},{""stimulus"":""img/green_lw/10.jpg"",""time"":504},{""stimulus"":""img/green_lw/11.jpg"",""time"":554}]","[]"
"image-keyboard-response","52","123976","0.0-5.0-1.24","63d80cb1ba40ad04c1edd4db","bdp_lott","Sun Mar 26 2023 15:51:54 GMT-0700 (Pacific Daylight Time)","339034","red","green","","391","","","","choice","","img/green_lw/choose11.jpg","1","201","green","0.5","0.5","0.5","l","",""
"animation","53","124588","0.0-5.0-2.24","63d80cb1ba40ad04c1edd4db","bdp_lott","Sun Mar 26 2023 15:51:54 GMT-0700 (Pacific Daylight Time)","339034","red","green","","","","","","","","","","201","","","","","","[{""stimulus"":""img/green_lw/1.jpg"",""time"":57},{""stimulus"":""img/green_lw/2.jpg"",""time"":105},{""stimulus"":""img/green_lw/3.jpg"",""time"":153},{""stimulus"":""img/green_lw/4.jpg"",""time"":212},{""stimulus"":""img/green_lw/5.jpg"",""time"":255},{""stimulus"":""img/green_lw/6.jpg"",""time"":303},{""stimulus"":""img/green_lw/7.jpg"",""time"":356},{""stimulus"":""img/green_lw/8.jpg"",""time"":409},{""stimulus"":""img/green_lw/9.jpg"",""time"":457},{""stimulus"":""img/green_lw/10.jpg"",""time"":505},{""stimulus"":""img/green_lw/11.jpg"",""time"":553}]","[]"
"image-keyboard-response","54","124999","0.0-5.0-1.25","63d80cb1ba40ad04c1edd4db","bdp_lott","Sun Mar 26 2023 15:51:54 GMT-0700 (Pacific Daylight Time)","339034","red","green","","410","","","","choice","","img/green_lw/choose11.jpg","2","200","red","0.5","0.5","0.5","l","",""
"animation","55","125611","0.0-5.0-2.25","63d80cb1ba40ad04c1edd4db","bdp_lott","Sun Mar 26 2023 15:51:54 GMT-0700 (Pacific Daylight Time)","339034","red","green","","","","","","","","","","200","","","","","","[{""stimulus"":""img/red_ll/1.jpg"",""time"":59},{""stimulus"":""img/red_ll/2.jpg"",""time"":106},{""stimulus"":""img/red_ll/3.jpg"",""time"":154},{""stimulus"":""img/red_ll/4.jpg"",""time"":213},{""stimulus"":""img/red_ll/5.jpg"",""time"":256},{""stimulus"":""img/red_ll/6.jpg"",""time"":309},{""stimulus"":""img/red_ll/7.jpg"",""time"":352},{""stimulus"":""img/red_ll/8.jpg"",""time"":410},{""stimulus"":""img/red_ll/9.jpg"",""time"":457},{""stimulus"":""img/red_ll/10.jpg"",""time"":506},{""stimulus"":""img/red_ll/11.jpg"",""time"":554}]","[]"
"image-keyboard-response","56","126241","0.0-5.0-1.26","63d80cb1ba40ad04c1edd4db","bdp_lott","Sun Mar 26 2023 15:51:54 GMT-0700 (Pacific Daylight Time)","339034","red","green","","629","","","","choice","","img/red_ll/choose11.jpg","1","199","green","0.5","0.5","0.5","l","",""
"animation","57","126849","0.0-5.0-2.26","63d80cb1ba40ad04c1edd4db","bdp_lott","Sun Mar 26 2023 15:51:54 GMT-0700 (Pacific Daylight Time)","339034","red","green","","","","","","","","","","199","","","","","","[{""stimulus"":""img/green_ll/1.jpg"",""time"":59},{""stimulus"":""img/green_ll/2.jpg"",""time"":102},{""stimulus"":""img/green_ll/3.jpg"",""time"":160},{""stimulus"":""img/green_ll/4.jpg"",""time"":208},{""stimulus"":""img/green_ll/5.jpg"",""time"":256},{""stimulus"":""img/green_ll/6.jpg"",""time"":304},{""stimulus"":""img/green_ll/7.jpg"",""time"":362},{""stimulus"":""img/green_ll/8.jpg"",""time"":411},{""stimulus"":""img/green_ll/9.jpg"",""time"":459},{""stimulus"":""img/green_ll/10.jpg"",""time"":507},{""stimulus"":""img/green_ll/11.jpg"",""time"":560}]","[]"
"image-keyboard-response","58","127291","0.0-5.0-1.27","63d80cb1ba40ad04c1edd4db","bdp_lott","Sun Mar 26 2023 15:51:54 GMT-0700 (Pacific Daylight Time)","339034","red","green","","442","","","","choice","","img/green_ll/choose11.jpg","1","198","green","0.5","0.5","0.5","l","",""
"animation","59","127900","0.0-5.0-2.27","63d80cb1ba40ad04c1edd4db","bdp_lott","Sun Mar 26 2023 15:51:54 GMT-0700 (Pacific Daylight Time)","339034","red","green","","","","","","","","","","198","","","","","","[{""stimulus"":""img/green_ll/1.jpg"",""time"":54},{""stimulus"":""img/green_ll/2.jpg"",""time"":113},{""stimulus"":""img/green_ll/3.jpg"",""time"":155},{""stimulus"":""img/green_ll/4.jpg"",""time"":209},{""stimulus"":""img/green_ll/5.jpg"",""time"":256},{""stimulus"":""img/green_ll/6.jpg"",""time"":310},{""stimulus"":""img/green_ll/7.jpg"",""time"":358},{""stimulus"":""img/green_ll/8.jpg"",""time"":406},{""stimulus"":""img/green_ll/9.jpg"",""time"":454},{""stimulus"":""img/green_ll/10.jpg"",""time"":513},{""stimulus"":""img/green_ll/11.jpg"",""time"":556}]","[]"
"image-keyboard-response","60","128409","0.0-5.0-1.28","63d80cb1ba40ad04c1edd4db","bdp_lott","Sun Mar 26 2023 15:51:54 GMT-0700 (Pacific Daylight Time)","339034","red","green","","509","","","","choice","","img/green_ll/choose11.jpg","2","197","red","0.5","0.5","0.5","w","",""
"animation","61","129014","0.0-5.0-2.28","63d80cb1ba40ad04c1edd4db","bdp_lott","Sun Mar 26 2023 15:51:54 GMT-0700 (Pacific Daylight Time)","339034","red","green","","","","","","","","","","197","","","","","","[{""stimulus"":""img/red_lw/1.jpg"",""time"":56},{""stimulus"":""img/red_lw/2.jpg"",""time"":103},{""stimulus"":""img/red_lw/3.jpg"",""time"":159},{""stimulus"":""img/red_lw/4.jpg"",""time"":211},{""stimulus"":""img/red_lw/5.jpg"",""time"":259},{""stimulus"":""img/red_lw/6.jpg"",""time"":302},{""stimulus"":""img/red_lw/7.jpg"",""time"":360},{""stimulus"":""img/red_lw/8.jpg"",""time"":408},{""stimulus"":""img/red_lw/9.jpg"",""time"":456},{""stimulus"":""img/red_lw/10.jpg"",""time"":504},{""stimulus"":""img/red_lw/11.jpg"",""time"":563}]","[]"
"image-keyboard-response","62","129363","0.0-5.0-1.29","63d80cb1ba40ad04c1edd4db","bdp_lott","Sun Mar 26 2023 15:51:54 GMT-0700 (Pacific Daylight Time)","339034","red","green","","348","","","","choice","","img/red_lw/choose11.jpg","2","196","red","0.5","0.5","0.5","w","",""
"animation","63","129969","0.0-5.0-2.29","63d80cb1ba40ad04c1edd4db","bdp_lott","Sun Mar 26 2023 15:51:54 GMT-0700 (Pacific Daylight Time)","339034","red","green","","","","","","","","","","196","","","","","","[{""stimulus"":""img/red_lw/1.jpg"",""time"":52},{""stimulus"":""img/red_lw/2.jpg"",""time"":110},{""stimulus"":""img/red_lw/3.jpg"",""time"":158},{""stimulus"":""img/red_lw/4.jpg"",""time"":206},{""stimulus"":""img/red_lw/5.jpg"",""time"":254},{""stimulus"":""img/red_lw/6.jpg"",""time"":313},{""stimulus"":""img/red_lw/7.jpg"",""time"":357},{""stimulus"":""img/red_lw/8.jpg"",""time"":409},{""stimulus"":""img/red_lw/9.jpg"",""time"":457},{""stimulus"":""img/red_lw/10.jpg"",""time"":510},{""stimulus"":""img/red_lw/11.jpg"",""time"":557}]","[]"
"image-keyboard-response","64","130457","0.0-5.0-1.30","63d80cb1ba40ad04c1edd4db","bdp_lott","Sun Mar 26 2023 15:51:54 GMT-0700 (Pacific Daylight Time)","339034","red","green","","487","","","","choice","","img/red_lw/choose11.jpg","2","195","red","0.5","0.5","0.5","w","",""
"animation","65","131068","0.0-5.0-2.30","63d80cb1ba40ad04c1edd4db","bdp_lott","Sun Mar 26 2023 15:51:54 GMT-0700 (Pacific Daylight Time)","339034","red","green","","","","","","","","","","195","","","","","","[{""stimulus"":""img/red_lw/1.jpg"",""time"":55},{""stimulus"":""img/red_lw/2.jpg"",""time"":103},{""stimulus"":""img/red_lw/3.jpg"",""time"":162},{""stimulus"":""img/red_lw/4.jpg"",""time"":205},{""stimulus"":""img/red_lw/5.jpg"",""time"":258},{""stimulus"":""img/red_lw/6.jpg"",""time"":306},{""stimulus"":""img/red_lw/7.jpg"",""time"":359},{""stimulus"":""img/red_lw/8.jpg"",""time"":407},{""stimulus"":""img/red_lw/9.jpg"",""time"":455},{""stimulus"":""img/red_lw/10.jpg"",""time"":503},{""stimulus"":""img/red_lw/11.jpg"",""time"":562}]","[]"
"image-keyboard-response","66","131475","0.0-5.0-1.31","63d80cb1ba40ad04c1edd4db","bdp_lott","Sun Mar 26 2023 15:51:54 GMT-0700 (Pacific Daylight Time)","339034","red","green","","407","","","","choice","","img/red_lw/choose11.jpg","2","194","red","0.5","0.5","0.5","w","",""
"animation","67","132081","0.0-5.0-2.31","63d80cb1ba40ad04c1edd4db","bdp_lott","Sun Mar 26 2023 15:51:54 GMT-0700 (Pacific Daylight Time)","339034","red","green","","","","","","","","","","194","","","","","","[{""stimulus"":""img/red_lw/1.jpg"",""time"":57},{""stimulus"":""img/red_lw/2.jpg"",""time"":110},{""stimulus"":""img/red_lw/3.jpg"",""time"":158},{""stimulus"":""img/red_lw/4.jpg"",""time"":206},{""stimulus"":""img/red_lw/5.jpg"",""time"":254},{""stimulus"":""img/red_lw/6.jpg"",""time"":313},{""stimulus"":""img/red_lw/7.jpg"",""time"":355},{""stimulus"":""img/red_lw/8.jpg"",""time"":403},{""stimulus"":""img/red_lw/9.jpg"",""time"":452},{""stimulus"":""img/red_lw/10.jpg"",""time"":510},{""stimulus"":""img/red_lw/11.jpg"",""time"":558}]","[]"
"image-keyboard-response","68","132454","0.0-5.0-1.32","63d80cb1ba40ad04c1edd4db","bdp_lott","Sun Mar 26 2023 15:51:54 GMT-0700 (Pacific Daylight Time)","339034","red","green","","373","","","","choice","","img/red_lw/choose11.jpg","2","193","red","0.5","0.5","0.5","l","",""
"animation","69","133067","0.0-5.0-2.32","63d80cb1ba40ad04c1edd4db","bdp_lott","Sun Mar 26 2023 15:51:54 GMT-0700 (Pacific Daylight Time)","339034","red","green","","","","","","","","","","193","","","","","","[{""stimulus"":""img/red_ll/1.jpg"",""time"":58},{""stimulus"":""img/red_ll/2.jpg"",""time"":107},{""stimulus"":""img/red_ll/3.jpg"",""time"":154},{""stimulus"":""img/red_ll/4.jpg"",""time"":209},{""stimulus"":""img/red_ll/5.jpg"",""time"":257},{""stimulus"":""img/red_ll/6.jpg"",""time"":305},{""stimulus"":""img/red_ll/7.jpg"",""time"":357},{""stimulus"":""img/red_ll/8.jpg"",""time"":411},{""stimulus"":""img/red_ll/9.jpg"",""time"":458},{""stimulus"":""img/red_ll/10.jpg"",""time"":507},{""stimulus"":""img/red_ll/11.jpg"",""time"":555}]","[]"
"image-keyboard-response","70","133957","0.0-5.0-1.33","63d80cb1ba40ad04c1edd4db","bdp_lott","Sun Mar 26 2023 15:51:54 GMT-0700 (Pacific Daylight Time)","339034","red","green","","889","","","","choice","","img/red_ll/choose11.jpg","2","192","red","0.5","0.5","0.5","l","",""
"animation","71","134561","0.0-5.0-2.33","63d80cb1ba40ad04c1edd4db","bdp_lott","Sun Mar 26 2023 15:51:54 GMT-0700 (Pacific Daylight Time)","339034","red","green","","","","","","","","","","192","","","","","","[{""stimulus"":""img/red_ll/1.jpg"",""time"":60},{""stimulus"":""img/red_ll/2.jpg"",""time"":108},{""stimulus"":""img/red_ll/3.jpg"",""time"":156},{""stimulus"":""img/red_ll/4.jpg"",""time"":204},{""stimulus"":""img/red_ll/5.jpg"",""time"":262},{""stimulus"":""img/red_ll/6.jpg"",""time"":307},{""stimulus"":""img/red_ll/7.jpg"",""time"":358},{""stimulus"":""img/red_ll/8.jpg"",""time"":404},{""stimulus"":""img/red_ll/9.jpg"",""time"":460},{""stimulus"":""img/red_ll/10.jpg"",""time"":508},{""stimulus"":""img/red_ll/11.jpg"",""time"":556}]","[]"
"image-keyboard-response","72","134895","0.0-5.0-1.34","63d80cb1ba40ad04c1edd4db","bdp_lott","Sun Mar 26 2023 15:51:54 GMT-0700 (Pacific Daylight Time)","339034","red","green","","334","","","","choice","","img/red_ll/choose11.jpg","2","191","red","0.5","0.5","0.5","l","",""
"animation","73","135504","0.0-5.0-2.34","63d80cb1ba40ad04c1edd4db","bdp_lott","Sun Mar 26 2023 15:51:54 GMT-0700 (Pacific Daylight Time)","339034","red","green","","","","","","","","","","191","","","","","","[{""stimulus"":""img/red_ll/1.jpg"",""time"":60},{""stimulus"":""img/red_ll/2.jpg"",""time"":107},{""stimulus"":""img/red_ll/3.jpg"",""time"":155},{""stimulus"":""img/red_ll/4.jpg"",""time"":209},{""stimulus"":""img/red_ll/5.jpg"",""time"":257},{""stimulus"":""img/red_ll/6.jpg"",""time"":303},{""stimulus"":""img/red_ll/7.jpg"",""time"":353},{""stimulus"":""img/red_ll/8.jpg"",""time"":411},{""stimulus"":""img/red_ll/9.jpg"",""time"":455},{""stimulus"":""img/red_ll/10.jpg"",""time"":507},{""stimulus"":""img/red_ll/11.jpg"",""time"":551}]","[]"
"image-keyboard-response","74","136072","0.0-5.0-1.35","63d80cb1ba40ad04c1edd4db","bdp_lott","Sun Mar 26 2023 15:51:54 GMT-0700 (Pacific Daylight Time)","339034","red","green","","567","","","","choice","","img/red_ll/choose11.jpg","2","190","red","0.5","0.5","0.5","l","",""
"animation","75","136683","0.0-5.0-2.35","63d80cb1ba40ad04c1edd4db","bdp_lott","Sun Mar 26 2023 15:51:54 GMT-0700 (Pacific Daylight Time)","339034","red","green","","","","","","","","","","190","","","","","","[{""stimulus"":""img/red_ll/1.jpg"",""time"":57},{""stimulus"":""img/red_ll/2.jpg"",""time"":104},{""stimulus"":""img/red_ll/3.jpg"",""time"":159},{""stimulus"":""img/red_ll/4.jpg"",""time"":211},{""stimulus"":""img/red_ll/5.jpg"",""time"":254},{""stimulus"":""img/red_ll/6.jpg"",""time"":303},{""stimulus"":""img/red_ll/7.jpg"",""time"":360},{""stimulus"":""img/red_ll/8.jpg"",""time"":408},{""stimulus"":""img/red_ll/9.jpg"",""time"":457},{""stimulus"":""img/red_ll/10.jpg"",""time"":504},{""stimulus"":""img/red_ll/11.jpg"",""time"":558}]","[]"
"image-keyboard-response","76","137039","0.0-5.0-1.36","63d80cb1ba40ad04c1edd4db","bdp_lott","Sun Mar 26 2023 15:51:54 GMT-0700 (Pacific Daylight Time)","339034","red","green","","355","","","","choice","","img/red_ll/choose11.jpg","2","189","red","0.5","0.5","0.5","l","",""
"animation","77","137643","0.0-5.0-2.36","63d80cb1ba40ad04c1edd4db","bdp_lott","Sun Mar 26 2023 15:51:54 GMT-0700 (Pacific Daylight Time)","339034","red","green","","","","","","","","","","189","","","","","","[{""stimulus"":""img/red_ll/1.jpg"",""time"":60},{""stimulus"":""img/red_ll/2.jpg"",""time"":104},{""stimulus"":""img/red_ll/3.jpg"",""time"":152},{""stimulus"":""img/red_ll/4.jpg"",""time"":210},{""stimulus"":""img/red_ll/5.jpg"",""time"":258},{""stimulus"":""img/red_ll/6.jpg"",""time"":306},{""stimulus"":""img/red_ll/7.jpg"",""time"":353},{""stimulus"":""img/red_ll/8.jpg"",""time"":412},{""stimulus"":""img/red_ll/9.jpg"",""time"":460},{""stimulus"":""img/red_ll/10.jpg"",""time"":504},{""stimulus"":""img/red_ll/11.jpg"",""time"":552}]","[]"
"image-keyboard-response","78","137972","0.0-5.0-1.37","63d80cb1ba40ad04c1edd4db","bdp_lott","Sun Mar 26 2023 15:51:54 GMT-0700 (Pacific Daylight Time)","339034","red","green","","328","","","","choice","","img/red_ll/choose11.jpg","1","188","green","0.5","0.5","0.5","w","",""
"animation","79","138576","0.0-5.0-2.37","63d80cb1ba40ad04c1edd4db","bdp_lott","Sun Mar 26 2023 15:51:54 GMT-0700 (Pacific Daylight Time)","339034","red","green","","","","","","","","","","188","","","","","","[{""stimulus"":""img/green_wl/1.jpg"",""time"":59},{""stimulus"":""img/green_wl/2.jpg"",""time"":108},{""stimulus"":""img/green_wl/3.jpg"",""time"":156},{""stimulus"":""img/green_wl/4.jpg"",""time"":204},{""stimulus"":""img/green_wl/5.jpg"",""time"":258},{""stimulus"":""img/green_wl/6.jpg"",""time"":310},{""stimulus"":""img/green_wl/7.jpg"",""time"":358},{""stimulus"":""img/green_wl/8.jpg"",""time"":404},{""stimulus"":""img/green_wl/9.jpg"",""time"":460},{""stimulus"":""img/green_wl/10.jpg"",""time"":508},{""stimulus"":""img/green_wl/11.jpg"",""time"":555}]","[]"
"image-keyboard-response","80","139159","0.0-5.0-1.38","63d80cb1ba40ad04c1edd4db","bdp_lott","Sun Mar 26 2023 15:51:54 GMT-0700 (Pacific Daylight Time)","339034","red","green","","582","","","","choice","","img/green_wl/choose11.jpg","1","187","green","0.5","0.5","0.5","l","",""
"animation","81","139771","0.0-5.0-2.38","63d80cb1ba40ad04c1edd4db","bdp_lott","Sun Mar 26 2023 15:51:54 GMT-0700 (Pacific Daylight Time)","339034","red","green","","","","","","","","","","187","","","","","","[{""stimulus"":""img/green_ll/1.jpg"",""time"":57},{""stimulus"":""img/green_ll/2.jpg"",""time"":104},{""stimulus"":""img/green_ll/3.jpg"",""time"":152},{""stimulus"":""img/green_ll/4.jpg"",""time"":201},{""stimulus"":""img/green_ll/5.jpg"",""time"":256},{""stimulus"":""img/green_ll/6.jpg"",""time"":303},{""stimulus"":""img/green_ll/7.jpg"",""time"":355},{""stimulus"":""img/green_ll/8.jpg"",""time"":408},{""stimulus"":""img/green_ll/9.jpg"",""time"":457},{""stimulus"":""img/green_ll/10.jpg"",""time"":504},{""stimulus"":""img/green_ll/11.jpg"",""time"":553}]","[]"
"image-keyboard-response","82","140395","0.0-5.0-1.39","63d80cb1ba40ad04c1edd4db","bdp_lott","Sun Mar 26 2023 15:51:54 GMT-0700 (Pacific Daylight Time)","339034","red","green","","622","","","","choice","","img/green_ll/choose11.jpg","1","186","green","0.5","0.5","0.5","l","",""
"animation","83","141003","0.0-5.0-2.39","63d80cb1ba40ad04c1edd4db","bdp_lott","Sun Mar 26 2023 15:51:54 GMT-0700 (Pacific Daylight Time)","339034","red","green","","","","","","","","","","186","","","","","","[{""stimulus"":""img/green_ll/1.jpg"",""time"":52},{""stimulus"":""img/green_ll/2.jpg"",""time"":112},{""stimulus"":""img/green_ll/3.jpg"",""time"":160},{""stimulus"":""img/green_ll/4.jpg"",""time"":208},{""stimulus"":""img/green_ll/5.jpg"",""time"":256},{""stimulus"":""img/green_ll/6.jpg"",""time"":309},{""stimulus"":""img/green_ll/7.jpg"",""time"":358},{""stimulus"":""img/green_ll/8.jpg"",""time"":405},{""stimulus"":""img/green_ll/9.jpg"",""time"":453},{""stimulus"":""img/green_ll/10.jpg"",""time"":512},{""stimulus"":""img/green_ll/11.jpg"",""time"":560}]","[]"
"image-keyboard-response","84","141440","0.0-5.0-1.40","63d80cb1ba40ad04c1edd4db","bdp_lott","Sun Mar 26 2023 15:51:54 GMT-0700 (Pacific Daylight Time)","339034","red","green","","436","","","","choice","","img/green_ll/choose11.jpg","1","185","green","0.5","0.5","0.5","w","",""
"animation","85","142048","0.0-5.0-2.40","63d80cb1ba40ad04c1edd4db","bdp_lott","Sun Mar 26 2023 15:51:54 GMT-0700 (Pacific Daylight Time)","339034","red","green","","","","","","","","","","185","","","","","","[{""stimulus"":""img/green_wl/1.jpg"",""time"":56},{""stimulus"":""img/green_wl/2.jpg"",""time"":102},{""stimulus"":""img/green_wl/3.jpg"",""time"":154},{""stimulus"":""img/green_wl/4.jpg"",""time"":208},{""stimulus"":""img/green_wl/5.jpg"",""time"":257},{""stimulus"":""img/green_wl/6.jpg"",""time"":305},{""stimulus"":""img/green_wl/7.jpg"",""time"":363},{""stimulus"":""img/green_wl/8.jpg"",""time"":401},{""stimulus"":""img/green_wl/9.jpg"",""time"":454},{""stimulus"":""img/green_wl/10.jpg"",""time"":503},{""stimulus"":""img/green_wl/11.jpg"",""time"":561}]","[]"
"image-keyboard-response","86","142462","0.0-5.0-1.41","63d80cb1ba40ad04c1edd4db","bdp_lott","Sun Mar 26 2023 15:51:54 GMT-0700 (Pacific Daylight Time)","339034","red","green","","413","","","","choice","","img/green_wl/choose11.jpg","1","184","green","0.5","0.5","0.5","w","",""
"animation","87","143072","0.0-5.0-2.41","63d80cb1ba40ad04c1edd4db","bdp_lott","Sun Mar 26 2023 15:51:54 GMT-0700 (Pacific Daylight Time)","339034","red","green","","","","","","","","","","184","","","","","","[{""stimulus"":""img/green_wl/1.jpg"",""time"":61},{""stimulus"":""img/green_wl/2.jpg"",""time"":109},{""stimulus"":""img/green_wl/3.jpg"",""time"":157},{""stimulus"":""img/green_wl/4.jpg"",""time"":210},{""stimulus"":""img/green_wl/5.jpg"",""time"":258},{""stimulus"":""img/green_wl/6.jpg"",""time"":307},{""stimulus"":""img/green_wl/7.jpg"",""time"":355},{""stimulus"":""img/green_wl/8.jpg"",""time"":408},{""stimulus"":""img/green_wl/9.jpg"",""time"":461},{""stimulus"":""img/green_wl/10.jpg"",""time"":509},{""stimulus"":""img/green_wl/11.jpg"",""time"":557}]","[]"
"image-keyboard-response","88","143611","0.0-5.0-1.42","63d80cb1ba40ad04c1edd4db","bdp_lott","Sun Mar 26 2023 15:51:54 GMT-0700 (Pacific Daylight Time)","339034","red","green","","538","","","","choice","","img/green_wl/choose11.jpg","1","183","green","0.5","0.5","0.5","w","",""
"animation","89","144219","0.0-5.0-2.42","63d80cb1ba40ad04c1edd4db","bdp_lott","Sun Mar 26 2023 15:51:54 GMT-0700 (Pacific Daylight Time)","339034","red","green","","","","","","","","","","183","","","","","","[{""stimulus"":""img/green_wl/1.jpg"",""time"":63},{""stimulus"":""img/green_wl/2.jpg"",""time"":107},{""stimulus"":""img/green_wl/3.jpg"",""time"":159},{""stimulus"":""img/green_wl/4.jpg"",""time"":207},{""stimulus"":""img/green_wl/5.jpg"",""time"":260},{""stimulus"":""img/green_wl/6.jpg"",""time"":311},{""stimulus"":""img/green_wl/7.jpg"",""time"":356},{""stimulus"":""img/green_wl/8.jpg"",""time"":404},{""stimulus"":""img/green_wl/9.jpg"",""time"":463},{""stimulus"":""img/green_wl/10.jpg"",""time"":511},{""stimulus"":""img/green_wl/11.jpg"",""time"":559}]","[]"
"image-keyboard-response","90","144893","0.0-5.0-1.43","63d80cb1ba40ad04c1edd4db","bdp_lott","Sun Mar 26 2023 15:51:54 GMT-0700 (Pacific Daylight Time)","339034","red","green","","673","","","","choice","","img/green_wl/choose11.jpg","1","182","green","0.5","0.5","0.5","l","",""
"animation","91","145499","0.0-5.0-2.43","63d80cb1ba40ad04c1edd4db","bdp_lott","Sun Mar 26 2023 15:51:54 GMT-0700 (Pacific Daylight Time)","339034","red","green","","","","","","","","","","182","","","","","","[{""stimulus"":""img/green_ll/1.jpg"",""time"":52},{""stimulus"":""img/green_ll/2.jpg"",""time"":110},{""stimulus"":""img/green_ll/3.jpg"",""time"":158},{""stimulus"":""img/green_ll/4.jpg"",""time"":206},{""stimulus"":""img/green_ll/5.jpg"",""time"":259},{""stimulus"":""img/green_ll/6.jpg"",""time"":307},{""stimulus"":""img/green_ll/7.jpg"",""time"":356},{""stimulus"":""img/green_ll/8.jpg"",""time"":403},{""stimulus"":""img/green_ll/9.jpg"",""time"":462},{""stimulus"":""img/green_ll/10.jpg"",""time"":510},{""stimulus"":""img/green_ll/11.jpg"",""time"":558}]","[]"
"image-keyboard-response","92","146192","0.0-5.0-1.44","63d80cb1ba40ad04c1edd4db","bdp_lott","Sun Mar 26 2023 15:51:54 GMT-0700 (Pacific Daylight Time)","339034","red","green","","692","","","","choice","","img/green_ll/choose11.jpg","1","181","green","0.5","0.5","0.5","l","",""
"animation","93","146800","0.0-5.0-2.44","63d80cb1ba40ad04c1edd4db","bdp_lott","Sun Mar 26 2023 15:51:54 GMT-0700 (Pacific Daylight Time)","339034","red","green","","","","","","","","","","181","","","","","","[{""stimulus"":""img/green_ll/1.jpg"",""time"":59},{""stimulus"":""img/green_ll/2.jpg"",""time"":107},{""stimulus"":""img/green_ll/3.jpg"",""time"":160},{""stimulus"":""img/green_ll/4.jpg"",""time"":208},{""stimulus"":""img/green_ll/5.jpg"",""time"":256},{""stimulus"":""img/green_ll/6.jpg"",""time"":304},{""stimulus"":""img/green_ll/7.jpg"",""time"":358},{""stimulus"":""img/green_ll/8.jpg"",""time"":411},{""stimulus"":""img/green_ll/9.jpg"",""time"":455},{""stimulus"":""img/green_ll/10.jpg"",""time"":507},{""stimulus"":""img/green_ll/11.jpg"",""time"":560}]","[]"
"image-keyboard-response","94","147321","0.0-5.0-1.45","63d80cb1ba40ad04c1edd4db","bdp_lott","Sun Mar 26 2023 15:51:54 GMT-0700 (Pacific Daylight Time)","339034","red","green","","520","","","","choice","","img/green_ll/choose11.jpg","1","180","green","0.5","0.5","0.5","l","",""
"animation","95","147927","0.0-5.0-2.45","63d80cb1ba40ad04c1edd4db","bdp_lott","Sun Mar 26 2023 15:51:54 GMT-0700 (Pacific Daylight Time)","339034","red","green","","","","","","","","","","180","","","","","","[{""stimulus"":""img/green_ll/1.jpg"",""time"":55},{""stimulus"":""img/green_ll/2.jpg"",""time"":103},{""stimulus"":""img/green_ll/3.jpg"",""time"":162},{""stimulus"":""img/green_ll/4.jpg"",""time"":210},{""stimulus"":""img/green_ll/5.jpg"",""time"":253},{""stimulus"":""img/green_ll/6.jpg"",""time"":306},{""stimulus"":""img/green_ll/7.jpg"",""time"":359},{""stimulus"":""img/green_ll/8.jpg"",""time"":407},{""stimulus"":""img/green_ll/9.jpg"",""time"":455},{""stimulus"":""img/green_ll/10.jpg"",""time"":503},{""stimulus"":""img/green_ll/11.jpg"",""time"":562}]","[]"
"image-keyboard-response","96","148350","0.0-5.0-1.46","63d80cb1ba40ad04c1edd4db","bdp_lott","Sun Mar 26 2023 15:51:54 GMT-0700 (Pacific Daylight Time)","339034","red","green","","423","","","","choice","","img/green_ll/choose11.jpg","1","179","green","0.5","0.5","0.5","l","",""
"animation","97","148962","0.0-5.0-2.46","63d80cb1ba40ad04c1edd4db","bdp_lott","Sun Mar 26 2023 15:51:54 GMT-0700 (Pacific Daylight Time)","339034","red","green","","","","","","","","","","179","","","","","","[{""stimulus"":""img/green_ll/1.jpg"",""time"":61},{""stimulus"":""img/green_ll/2.jpg"",""time"":106},{""stimulus"":""img/green_ll/3.jpg"",""time"":157},{""stimulus"":""img/green_ll/4.jpg"",""time"":212},{""stimulus"":""img/green_ll/5.jpg"",""time"":258},{""stimulus"":""img/green_ll/6.jpg"",""time"":306},{""stimulus"":""img/green_ll/7.jpg"",""time"":354},{""stimulus"":""img/green_ll/8.jpg"",""time"":408},{""stimulus"":""img/green_ll/9.jpg"",""time"":461},{""stimulus"":""img/green_ll/10.jpg"",""time"":504},{""stimulus"":""img/green_ll/11.jpg"",""time"":557}]","[]"
"image-keyboard-response","98","149372","0.0-5.0-1.47","63d80cb1ba40ad04c1edd4db","bdp_lott","Sun Mar 26 2023 15:51:54 GMT-0700 (Pacific Daylight Time)","339034","red","green","","409","","","","choice","","img/green_ll/choose11.jpg","1","178","green","0.5","0.5","0.5","w","",""
"animation","99","149979","0.0-5.0-2.47","63d80cb1ba40ad04c1edd4db","bdp_lott","Sun Mar 26 2023 15:51:54 GMT-0700 (Pacific Daylight Time)","339034","red","green","","","","","","","","","","178","","","","","","[{""stimulus"":""img/green_wl/1.jpg"",""time"":58},{""stimulus"":""img/green_wl/2.jpg"",""time"":110},{""stimulus"":""img/green_wl/3.jpg"",""time"":152},{""stimulus"":""img/green_wl/4.jpg"",""time"":206},{""stimulus"":""img/green_wl/5.jpg"",""time"":259},{""stimulus"":""img/green_wl/6.jpg"",""time"":307},{""stimulus"":""img/green_wl/7.jpg"",""time"":355},{""stimulus"":""img/green_wl/8.jpg"",""time"":403},{""stimulus"":""img/green_wl/9.jpg"",""time"":462},{""stimulus"":""img/green_wl/10.jpg"",""time"":510},{""stimulus"":""img/green_wl/11.jpg"",""time"":558}]","[]"
"image-keyboard-response","100","150566","0.0-5.0-1.48","63d80cb1ba40ad04c1edd4db","bdp_lott","Sun Mar 26 2023 15:51:54 GMT-0700 (Pacific Daylight Time)","339034","red","green","","587","","","","choice","","img/green_wl/choose11.jpg","1","177","green","0.5","0.5","0.5","l","",""
"animation","101","151179","0.0-5.0-2.48","63d80cb1ba40ad04c1edd4db","bdp_lott","Sun Mar 26 2023 15:51:54 GMT-0700 (Pacific Daylight Time)","339034","red","green","","","","","","","","","","177","","","","","","[{""stimulus"":""img/green_ll/1.jpg"",""time"":58},{""stimulus"":""img/green_ll/2.jpg"",""time"":106},{""stimulus"":""img/green_ll/3.jpg"",""time"":154},{""stimulus"":""img/green_ll/4.jpg"",""time"":213},{""stimulus"":""img/green_ll/5.jpg"",""time"":261},{""stimulus"":""img/green_ll/6.jpg"",""time"":309},{""stimulus"":""img/green_ll/7.jpg"",""time"":357},{""stimulus"":""img/green_ll/8.jpg"",""time"":410},{""stimulus"":""img/green_ll/9.jpg"",""time"":458},{""stimulus"":""img/green_ll/10.jpg"",""time"":506},{""stimulus"":""img/green_ll/11.jpg"",""time"":554}]","[]"
"image-keyboard-response","102","151734","0.0-5.0-1.49","63d80cb1ba40ad04c1edd4db","bdp_lott","Sun Mar 26 2023 15:51:54 GMT-0700 (Pacific Daylight Time)","339034","red","green","","555","","","","choice","","img/green_ll/choose11.jpg","1","176","green","0.5","0.5","0.5","w","",""
"animation","103","152346","0.0-5.0-2.49","63d80cb1ba40ad04c1edd4db","bdp_lott","Sun Mar 26 2023 15:51:54 GMT-0700 (Pacific Daylight Time)","339034","red","green","","","","","","","","","","176","","","","","","[{""stimulus"":""img/green_wl/1.jpg"",""time"":58},{""stimulus"":""img/green_wl/2.jpg"",""time"":106},{""stimulus"":""img/green_wl/3.jpg"",""time"":154},{""stimulus"":""img/green_wl/4.jpg"",""time"":213},{""stimulus"":""img/green_wl/5.jpg"",""time"":256},{""stimulus"":""img/green_wl/6.jpg"",""time"":304},{""stimulus"":""img/green_wl/7.jpg"",""time"":353},{""stimulus"":""img/green_wl/8.jpg"",""time"":410},{""stimulus"":""img/green_wl/9.jpg"",""time"":458},{""stimulus"":""img/green_wl/10.jpg"",""time"":506},{""stimulus"":""img/green_wl/11.jpg"",""time"":554}]","[]"
"image-keyboard-response","104","153004","0.0-5.0-1.50","63d80cb1ba40ad04c1edd4db","bdp_lott","Sun Mar 26 2023 15:51:54 GMT-0700 (Pacific Daylight Time)","339034","red","green","","657","","","","choice","","img/green_wl/choose11.jpg","1","175","green","0.5","0.5","0.5","w","",""
"animation","105","153610","0.0-5.0-2.50","63d80cb1ba40ad04c1edd4db","bdp_lott","Sun Mar 26 2023 15:51:54 GMT-0700 (Pacific Daylight Time)","339034","red","green","","","","","","","","","","175","","","","","","[{""stimulus"":""img/green_wl/1.jpg"",""time"":52},{""stimulus"":""img/green_wl/2.jpg"",""time"":105},{""stimulus"":""img/green_wl/3.jpg"",""time"":154},{""stimulus"":""img/green_wl/4.jpg"",""time"":206},{""stimulus"":""img/green_wl/5.jpg"",""time"":254},{""stimulus"":""img/green_wl/6.jpg"",""time"":307},{""stimulus"":""img/green_wl/7.jpg"",""time"":356},{""stimulus"":""img/green_wl/8.jpg"",""time"":402},{""stimulus"":""img/green_wl/9.jpg"",""time"":462},{""stimulus"":""img/green_wl/10.jpg"",""time"":510},{""stimulus"":""img/green_wl/11.jpg"",""time"":553}]","[]"
"image-keyboard-response","106","154195","0.0-5.0-1.51","63d80cb1ba40ad04c1edd4db","bdp_lott","Sun Mar 26 2023 15:51:54 GMT-0700 (Pacific Daylight Time)","339034","red","green","","584","","","","choice","","img/green_wl/choose11.jpg","1","174","green","0.5","0.5","0.5","w","",""
"animation","107","154800","0.0-5.0-2.51","63d80cb1ba40ad04c1edd4db","bdp_lott","Sun Mar 26 2023 15:51:54 GMT-0700 (Pacific Daylight Time)","339034","red","green","","","","","","","","","","174","","","","","","[{""stimulus"":""img/green_wl/1.jpg"",""time"":56},{""stimulus"":""img/green_wl/2.jpg"",""time"":109},{""stimulus"":""img/green_wl/3.jpg"",""time"":157},{""stimulus"":""img/green_wl/4.jpg"",""time"":205},{""stimulus"":""img/green_wl/5.jpg"",""time"":251},{""stimulus"":""img/green_wl/6.jpg"",""time"":312},{""stimulus"":""img/green_wl/7.jpg"",""time"":356},{""stimulus"":""img/green_wl/8.jpg"",""time"":408},{""stimulus"":""img/green_wl/9.jpg"",""time"":456},{""stimulus"":""img/green_wl/10.jpg"",""time"":509},{""stimulus"":""img/green_wl/11.jpg"",""time"":557}]","[]"
"image-keyboard-response","108","155330","0.0-5.0-1.52","63d80cb1ba40ad04c1edd4db","bdp_lott","Sun Mar 26 2023 15:51:54 GMT-0700 (Pacific Daylight Time)","339034","red","green","","529","","","","choice","","img/green_wl/choose11.jpg","1","173","green","0.5","0.5","0.5","l","",""
"animation","109","155936","0.0-5.0-2.52","63d80cb1ba40ad04c1edd4db","bdp_lott","Sun Mar 26 2023 15:51:54 GMT-0700 (Pacific Daylight Time)","339034","red","green","","","","","","","","","","173","","","","","","[{""stimulus"":""img/green_ll/1.jpg"",""time"":57},{""stimulus"":""img/green_ll/2.jpg"",""time"":110},{""stimulus"":""img/green_ll/3.jpg"",""time"":157},{""stimulus"":""img/green_ll/4.jpg"",""time"":208},{""stimulus"":""img/green_ll/5.jpg"",""time"":254},{""stimulus"":""img/green_ll/6.jpg"",""time"":310},{""stimulus"":""img/green_ll/7.jpg"",""time"":361},{""stimulus"":""img/green_ll/8.jpg"",""time"":409},{""stimulus"":""img/green_ll/9.jpg"",""time"":457},{""stimulus"":""img/green_ll/10.jpg"",""time"":510},{""stimulus"":""img/green_ll/11.jpg"",""time"":557}]","[]"
"image-keyboard-response","110","156794","0.0-5.0-1.53","63d80cb1ba40ad04c1edd4db","bdp_lott","Sun Mar 26 2023 15:51:54 GMT-0700 (Pacific Daylight Time)","339034","red","green","","858","","","","choice","","img/green_ll/choose11.jpg","1","172","green","0.5","0.5","0.5","l","",""
"animation","111","157402","0.0-5.0-2.53","63d80cb1ba40ad04c1edd4db","bdp_lott","Sun Mar 26 2023 15:51:54 GMT-0700 (Pacific Daylight Time)","339034","red","green","","","","","","","","","","172","","","","","","[{""stimulus"":""img/green_ll/1.jpg"",""time"":54},{""stimulus"":""img/green_ll/2.jpg"",""time"":102},{""stimulus"":""img/green_ll/3.jpg"",""time"":160},{""stimulus"":""img/green_ll/4.jpg"",""time"":204},{""stimulus"":""img/green_ll/5.jpg"",""time"":253},{""stimulus"":""img/green_ll/6.jpg"",""time"":310},{""stimulus"":""img/green_ll/7.jpg"",""time"":357},{""stimulus"":""img/green_ll/8.jpg"",""time"":406},{""stimulus"":""img/green_ll/9.jpg"",""time"":452},{""stimulus"":""img/green_ll/10.jpg"",""time"":508},{""stimulus"":""img/green_ll/11.jpg"",""time"":561}]","[]"
"image-keyboard-response","112","158070","0.0-5.0-1.54","63d80cb1ba40ad04c1edd4db","bdp_lott","Sun Mar 26 2023 15:51:54 GMT-0700 (Pacific Daylight Time)","339034","red","green","","666","","","","choice","","img/green_ll/choose11.jpg","1","171","green","0.5","0.5","0.5","w","",""
"animation","113","158682","0.0-5.0-2.54","63d80cb1ba40ad04c1edd4db","bdp_lott","Sun Mar 26 2023 15:51:54 GMT-0700 (Pacific Daylight Time)","339034","red","green","","","","","","","","","","171","","","","","","[{""stimulus"":""img/green_wl/1.jpg"",""time"":60},{""stimulus"":""img/green_wl/2.jpg"",""time"":105},{""stimulus"":""img/green_wl/3.jpg"",""time"":153},{""stimulus"":""img/green_wl/4.jpg"",""time"":212},{""stimulus"":""img/green_wl/5.jpg"",""time"":260},{""stimulus"":""img/green_wl/6.jpg"",""time"":304},{""stimulus"":""img/green_wl/7.jpg"",""time"":356},{""stimulus"":""img/green_wl/8.jpg"",""time"":410},{""stimulus"":""img/green_wl/9.jpg"",""time"":458},{""stimulus"":""img/green_wl/10.jpg"",""time"":506},{""stimulus"":""img/green_wl/11.jpg"",""time"":553}]","[]"
"image-keyboard-response","114","159236","0.0-5.0-1.55","63d80cb1ba40ad04c1edd4db","bdp_lott","Sun Mar 26 2023 15:51:54 GMT-0700 (Pacific Daylight Time)","339034","red","green","","553","","","","choice","","img/green_wl/choose11.jpg","1","170","green","0.5","0.5","0.5","l","",""
"animation","115","159839","0.0-5.0-2.55","63d80cb1ba40ad04c1edd4db","bdp_lott","Sun Mar 26 2023 15:51:54 GMT-0700 (Pacific Daylight Time)","339034","red","green","","","","","","","","","","170","","","","","","[{""stimulus"":""img/green_ll/1.jpg"",""time"":60},{""stimulus"":""img/green_ll/2.jpg"",""time"":108},{""stimulus"":""img/green_ll/3.jpg"",""time"":156},{""stimulus"":""img/green_ll/4.jpg"",""time"":204},{""stimulus"":""img/green_ll/5.jpg"",""time"":252},{""stimulus"":""img/green_ll/6.jpg"",""time"":306},{""stimulus"":""img/green_ll/7.jpg"",""time"":358},{""stimulus"":""img/green_ll/8.jpg"",""time"":402},{""stimulus"":""img/green_ll/9.jpg"",""time"":460},{""stimulus"":""img/green_ll/10.jpg"",""time"":508},{""stimulus"":""img/green_ll/11.jpg"",""time"":556}]","[]"
"image-keyboard-response","116","160341","0.0-5.0-1.56","63d80cb1ba40ad04c1edd4db","bdp_lott","Sun Mar 26 2023 15:51:54 GMT-0700 (Pacific Daylight Time)","339034","red","green","","500","","","","choice","","img/green_ll/choose11.jpg","1","169","green","0.5","0.5","0.5","l","",""
"animation","117","160944","0.0-5.0-2.56","63d80cb1ba40ad04c1edd4db","bdp_lott","Sun Mar 26 2023 15:51:54 GMT-0700 (Pacific Daylight Time)","339034","red","green","","","","","","","","","","169","","","","","","[{""stimulus"":""img/green_ll/1.jpg"",""time"":59},{""stimulus"":""img/green_ll/2.jpg"",""time"":107},{""stimulus"":""img/green_ll/3.jpg"",""time"":155},{""stimulus"":""img/green_ll/4.jpg"",""time"":203},{""stimulus"":""img/green_ll/5.jpg"",""time"":258},{""stimulus"":""img/green_ll/6.jpg"",""time"":309},{""stimulus"":""img/green_ll/7.jpg"",""time"":353},{""stimulus"":""img/green_ll/8.jpg"",""time"":405},{""stimulus"":""img/green_ll/9.jpg"",""time"":458},{""stimulus"":""img/green_ll/10.jpg"",""time"":507},{""stimulus"":""img/green_ll/11.jpg"",""time"":555}]","[]"
"image-keyboard-response","118","161737","0.0-5.0-1.57","63d80cb1ba40ad04c1edd4db","bdp_lott","Sun Mar 26 2023 15:51:54 GMT-0700 (Pacific Daylight Time)","339034","red","green","","792","","","","choice","","img/green_ll/choose11.jpg","2","168","red","0.5","0.5","0.5","w","",""
"animation","119","162346","0.0-5.0-2.57","63d80cb1ba40ad04c1edd4db","bdp_lott","Sun Mar 26 2023 15:51:54 GMT-0700 (Pacific Daylight Time)","339034","red","green","","","","","","","","","","168","","","","","","[{""stimulus"":""img/red_lw/1.jpg"",""time"":55},{""stimulus"":""img/red_lw/2.jpg"",""time"":114},{""stimulus"":""img/red_lw/3.jpg"",""time"":161},{""stimulus"":""img/red_lw/4.jpg"",""time"":206},{""stimulus"":""img/red_lw/5.jpg"",""time"":253},{""stimulus"":""img/red_lw/6.jpg"",""time"":310},{""stimulus"":""img/red_lw/7.jpg"",""time"":359},{""stimulus"":""img/red_lw/8.jpg"",""time"":406},{""stimulus"":""img/red_lw/9.jpg"",""time"":455},{""stimulus"":""img/red_lw/10.jpg"",""time"":513},{""stimulus"":""img/red_lw/11.jpg"",""time"":561}]","[]"
"image-keyboard-response","120","162941","0.0-5.0-1.58","63d80cb1ba40ad04c1edd4db","bdp_lott","Sun Mar 26 2023 15:51:54 GMT-0700 (Pacific Daylight Time)","339034","red","green","","594","","","","choice","","img/red_lw/choose11.jpg","2","167","red","0.5","0.5","0.5","w","",""
"animation","121","163551","0.0-5.0-2.58","63d80cb1ba40ad04c1edd4db","bdp_lott","Sun Mar 26 2023 15:51:54 GMT-0700 (Pacific Daylight Time)","339034","red","green","","","","","","","","","","167","","","","","","[{""stimulus"":""img/red_lw/1.jpg"",""time"":58},{""stimulus"":""img/red_lw/2.jpg"",""time"":109},{""stimulus"":""img/red_lw/3.jpg"",""time"":157},{""stimulus"":""img/red_lw/4.jpg"",""time"":210},{""stimulus"":""img/red_lw/5.jpg"",""time"":259},{""stimulus"":""img/red_lw/6.jpg"",""time"":305},{""stimulus"":""img/red_lw/7.jpg"",""time"":353},{""stimulus"":""img/red_lw/8.jpg"",""time"":413},{""stimulus"":""img/red_lw/9.jpg"",""time"":457},{""stimulus"":""img/red_lw/10.jpg"",""time"":509},{""stimulus"":""img/red_lw/11.jpg"",""time"":558}]","[]"
"image-keyboard-response","122","164086","0.0-5.0-1.59","63d80cb1ba40ad04c1edd4db","bdp_lott","Sun Mar 26 2023 15:51:54 GMT-0700 (Pacific Daylight Time)","339034","red","green","","534","","","","choice","","img/red_lw/choose11.jpg","2","166","red","0.5","0.5","0.5","l","",""
"animation","123","164693","0.0-5.0-2.59","63d80cb1ba40ad04c1edd4db","bdp_lott","Sun Mar 26 2023 15:51:54 GMT-0700 (Pacific Daylight Time)","339034","red","green","","","","","","","","","","166","","","","","","[{""stimulus"":""img/red_ll/1.jpg"",""time"":57},{""stimulus"":""img/red_ll/2.jpg"",""time"":105},{""stimulus"":""img/red_ll/3.jpg"",""time"":153},{""stimulus"":""img/red_ll/4.jpg"",""time"":211},{""stimulus"":""img/red_ll/5.jpg"",""time"":259},{""stimulus"":""img/red_ll/6.jpg"",""time"":303},{""stimulus"":""img/red_ll/7.jpg"",""time"":352},{""stimulus"":""img/red_ll/8.jpg"",""time"":409},{""stimulus"":""img/red_ll/9.jpg"",""time"":456},{""stimulus"":""img/red_ll/10.jpg"",""time"":504},{""stimulus"":""img/red_ll/11.jpg"",""time"":552}]","[]"
"image-keyboard-response","124","165209","0.0-5.0-1.60","63d80cb1ba40ad04c1edd4db","bdp_lott","Sun Mar 26 2023 15:51:54 GMT-0700 (Pacific Daylight Time)","339034","red","green","","515","","","","choice","","img/red_ll/choose11.jpg","2","165","red","0.5","0.5","0.5","l","",""
"animation","125","165818","0.0-5.0-2.60","63d80cb1ba40ad04c1edd4db","bdp_lott","Sun Mar 26 2023 15:51:54 GMT-0700 (Pacific Daylight Time)","339034","red","green","","","","","","","","","","165","","","","","","[{""stimulus"":""img/red_ll/1.jpg"",""time"":55},{""stimulus"":""img/red_ll/2.jpg"",""time"":102},{""stimulus"":""img/red_ll/3.jpg"",""time"":151},{""stimulus"":""img/red_ll/4.jpg"",""time"":209},{""stimulus"":""img/red_ll/5.jpg"",""time"":257},{""stimulus"":""img/red_ll/6.jpg"",""time"":305},{""stimulus"":""img/red_ll/7.jpg"",""time"":359},{""stimulus"":""img/red_ll/8.jpg"",""time"":406},{""stimulus"":""img/red_ll/9.jpg"",""time"":453},{""stimulus"":""img/red_ll/10.jpg"",""time"":503},{""stimulus"":""img/red_ll/11.jpg"",""time"":561}]","[]"
"image-keyboard-response","126","166192","0.0-5.0-1.61","63d80cb1ba40ad04c1edd4db","bdp_lott","Sun Mar 26 2023 15:51:54 GMT-0700 (Pacific Daylight Time)","339034","red","green","","373","","","","choice","","img/red_ll/choose11.jpg","2","164","red","0.5","0.5","0.5","w","",""
"animation","127","166799","0.0-5.0-2.61","63d80cb1ba40ad04c1edd4db","bdp_lott","Sun Mar 26 2023 15:51:54 GMT-0700 (Pacific Daylight Time)","339034","red","green","","","","","","","","","","164","","","","","","[{""stimulus"":""img/red_lw/1.jpg"",""time"":57},{""stimulus"":""img/red_lw/2.jpg"",""time"":105},{""stimulus"":""img/red_lw/3.jpg"",""time"":158},{""stimulus"":""img/red_lw/4.jpg"",""time"":206},{""stimulus"":""img/red_lw/5.jpg"",""time"":254},{""stimulus"":""img/red_lw/6.jpg"",""time"":301},{""stimulus"":""img/red_lw/7.jpg"",""time"":362},{""stimulus"":""img/red_lw/8.jpg"",""time"":409},{""stimulus"":""img/red_lw/9.jpg"",""time"":453},{""stimulus"":""img/red_lw/10.jpg"",""time"":505},{""stimulus"":""img/red_lw/11.jpg"",""time"":558}]","[]"
"image-keyboard-response","128","167353","0.0-5.0-1.62","63d80cb1ba40ad04c1edd4db","bdp_lott","Sun Mar 26 2023 15:51:54 GMT-0700 (Pacific Daylight Time)","339034","red","green","","553","","","","choice","","img/red_lw/choose11.jpg","2","163","red","0.5","0.5","0.5","l","",""
"animation","129","167959","0.0-5.0-2.62","63d80cb1ba40ad04c1edd4db","bdp_lott","Sun Mar 26 2023 15:51:54 GMT-0700 (Pacific Daylight Time)","339034","red","green","","","","","","","","","","163","","","","","","[{""stimulus"":""img/red_ll/1.jpg"",""time"":54},{""stimulus"":""img/red_ll/2.jpg"",""time"":113},{""stimulus"":""img/red_ll/3.jpg"",""time"":161},{""stimulus"":""img/red_ll/4.jpg"",""time"":209},{""stimulus"":""img/red_ll/5.jpg"",""time"":253},{""stimulus"":""img/red_ll/6.jpg"",""time"":310},{""stimulus"":""img/red_ll/7.jpg"",""time"":359},{""stimulus"":""img/red_ll/8.jpg"",""time"":406},{""stimulus"":""img/red_ll/9.jpg"",""time"":455},{""stimulus"":""img/red_ll/10.jpg"",""time"":502},{""stimulus"":""img/red_ll/11.jpg"",""time"":561}]","[]"
"image-keyboard-response","130","168384","0.0-5.0-1.63","63d80cb1ba40ad04c1edd4db","bdp_lott","Sun Mar 26 2023 15:51:54 GMT-0700 (Pacific Daylight Time)","339034","red","green","","424","","","","choice","","img/red_ll/choose11.jpg","2","162","red","0.5","0.5","0.5","w","",""
"animation","131","168986","0.0-5.0-2.63","63d80cb1ba40ad04c1edd4db","bdp_lott","Sun Mar 26 2023 15:51:54 GMT-0700 (Pacific Daylight Time)","339034","red","green","","","","","","","","","","162","","","","","","[{""stimulus"":""img/red_lw/1.jpg"",""time"":57},{""stimulus"":""img/red_lw/2.jpg"",""time"":100},{""stimulus"":""img/red_lw/3.jpg"",""time"":158},{""stimulus"":""img/red_lw/4.jpg"",""time"":207},{""stimulus"":""img/red_lw/5.jpg"",""time"":255},{""stimulus"":""img/red_lw/6.jpg"",""time"":301},{""stimulus"":""img/red_lw/7.jpg"",""time"":357},{""stimulus"":""img/red_lw/8.jpg"",""time"":409},{""stimulus"":""img/red_lw/9.jpg"",""time"":457},{""stimulus"":""img/red_lw/10.jpg"",""time"":505},{""stimulus"":""img/red_lw/11.jpg"",""time"":559}]","[]"
"image-keyboard-response","132","169613","0.0-5.0-1.64","63d80cb1ba40ad04c1edd4db","bdp_lott","Sun Mar 26 2023 15:51:54 GMT-0700 (Pacific Daylight Time)","339034","red","green","","626","","","","choice","","img/red_lw/choose11.jpg","2","161","red","0.5","0.5","0.5","w","",""
"animation","133","170223","0.0-5.0-2.64","63d80cb1ba40ad04c1edd4db","bdp_lott","Sun Mar 26 2023 15:51:54 GMT-0700 (Pacific Daylight Time)","339034","red","green","","","","","","","","","","161","","","","","","[{""stimulus"":""img/red_lw/1.jpg"",""time"":60},{""stimulus"":""img/red_lw/2.jpg"",""time"":109},{""stimulus"":""img/red_lw/3.jpg"",""time"":157},{""stimulus"":""img/red_lw/4.jpg"",""time"":210},{""stimulus"":""img/red_lw/5.jpg"",""time"":258},{""stimulus"":""img/red_lw/6.jpg"",""time"":306},{""stimulus"":""img/red_lw/7.jpg"",""time"":355},{""stimulus"":""img/red_lw/8.jpg"",""time"":413},{""stimulus"":""img/red_lw/9.jpg"",""time"":461},{""stimulus"":""img/red_lw/10.jpg"",""time"":509},{""stimulus"":""img/red_lw/11.jpg"",""time"":557}]","[]"
"image-keyboard-response","134","170713","0.0-5.0-1.65","63d80cb1ba40ad04c1edd4db","bdp_lott","Sun Mar 26 2023 15:51:54 GMT-0700 (Pacific Daylight Time)","339034","red","green","","489","","","","choice","","img/red_lw/choose11.jpg","2","160","red","0.5","0.5","0.5","l","",""
"animation","135","171321","0.0-5.0-2.65","63d80cb1ba40ad04c1edd4db","bdp_lott","Sun Mar 26 2023 15:51:54 GMT-0700 (Pacific Daylight Time)","339034","red","green","","","","","","","","","","160","","","","","","[{""stimulus"":""img/red_ll/1.jpg"",""time"":54},{""stimulus"":""img/red_ll/2.jpg"",""time"":113},{""stimulus"":""img/red_ll/3.jpg"",""time"":161},{""stimulus"":""img/red_ll/4.jpg"",""time"":204},{""stimulus"":""img/red_ll/5.jpg"",""time"":257},{""stimulus"":""img/red_ll/6.jpg"",""time"":310},{""stimulus"":""img/red_ll/7.jpg"",""time"":358},{""stimulus"":""img/red_ll/8.jpg"",""time"":406},{""stimulus"":""img/red_ll/9.jpg"",""time"":454},{""stimulus"":""img/red_ll/10.jpg"",""time"":513},{""stimulus"":""img/red_ll/11.jpg"",""time"":559}]","[]"
"image-keyboard-response","136","171775","0.0-5.0-1.66","63d80cb1ba40ad04c1edd4db","bdp_lott","Sun Mar 26 2023 15:51:54 GMT-0700 (Pacific Daylight Time)","339034","red","green","","453","","","","choice","","img/red_ll/choose11.jpg","2","159","red","0.5","0.5","0.5","l","",""
"animation","137","172383","0.0-5.0-2.66","63d80cb1ba40ad04c1edd4db","bdp_lott","Sun Mar 26 2023 15:51:54 GMT-0700 (Pacific Daylight Time)","339034","red","green","","","","","","","","","","159","","","","","","[{""stimulus"":""img/red_ll/1.jpg"",""time"":59},{""stimulus"":""img/red_ll/2.jpg"",""time"":102},{""stimulus"":""img/red_ll/3.jpg"",""time"":161},{""stimulus"":""img/red_ll/4.jpg"",""time"":208},{""stimulus"":""img/red_ll/5.jpg"",""time"":256},{""stimulus"":""img/red_ll/6.jpg"",""time"":305},{""stimulus"":""img/red_ll/7.jpg"",""time"":358},{""stimulus"":""img/red_ll/8.jpg"",""time"":406},{""stimulus"":""img/red_ll/9.jpg"",""time"":459},{""stimulus"":""img/red_ll/10.jpg"",""time"":507},{""stimulus"":""img/red_ll/11.jpg"",""time"":560}]","[]"
"image-keyboard-response","138","172787","0.0-5.0-1.67","63d80cb1ba40ad04c1edd4db","bdp_lott","Sun Mar 26 2023 15:51:54 GMT-0700 (Pacific Daylight Time)","339034","red","green","","402","","","","choice","","img/red_ll/choose11.jpg","2","158","red","0.5","0.5","0.5","l","",""
"animation","139","173391","0.0-5.0-2.67","63d80cb1ba40ad04c1edd4db","bdp_lott","Sun Mar 26 2023 15:51:54 GMT-0700 (Pacific Daylight Time)","339034","red","green","","","","","","","","","","158","","","","","","[{""stimulus"":""img/red_ll/1.jpg"",""time"":60},{""stimulus"":""img/red_ll/2.jpg"",""time"":108},{""stimulus"":""img/red_ll/3.jpg"",""time"":156},{""stimulus"":""img/red_ll/4.jpg"",""time"":204},{""stimulus"":""img/red_ll/5.jpg"",""time"":263},{""stimulus"":""img/red_ll/6.jpg"",""time"":306},{""stimulus"":""img/red_ll/7.jpg"",""time"":354},{""stimulus"":""img/red_ll/8.jpg"",""time"":407},{""stimulus"":""img/red_ll/9.jpg"",""time"":460},{""stimulus"":""img/red_ll/10.jpg"",""time"":508},{""stimulus"":""img/red_ll/11.jpg"",""time"":556}]","[]"
"image-keyboard-response","140","173783","0.0-5.0-1.68","63d80cb1ba40ad04c1edd4db","bdp_lott","Sun Mar 26 2023 15:51:54 GMT-0700 (Pacific Daylight Time)","339034","red","green","","391","","","","choice","","img/red_ll/choose11.jpg","2","157","red","0.5","0.5","0.5","w","",""
"animation","141","174394","0.0-5.0-2.68","63d80cb1ba40ad04c1edd4db","bdp_lott","Sun Mar 26 2023 15:51:54 GMT-0700 (Pacific Daylight Time)","339034","red","green","","","","","","","","","","157","","","","","","[{""stimulus"":""img/red_lw/1.jpg"",""time"":55},{""stimulus"":""img/red_lw/2.jpg"",""time"":103},{""stimulus"":""img/red_lw/3.jpg"",""time"":162},{""stimulus"":""img/red_lw/4.jpg"",""time"":210},{""stimulus"":""img/red_lw/5.jpg"",""time"":258},{""stimulus"":""img/red_lw/6.jpg"",""time"":306},{""stimulus"":""img/red_lw/7.jpg"",""time"":359},{""stimulus"":""img/red_lw/8.jpg"",""time"":407},{""stimulus"":""img/red_lw/9.jpg"",""time"":455},{""stimulus"":""img/red_lw/10.jpg"",""time"":503},{""stimulus"":""img/red_lw/11.jpg"",""time"":562}]","[]"
"image-keyboard-response","142","175052","0.0-5.0-1.69","63d80cb1ba40ad04c1edd4db","bdp_lott","Sun Mar 26 2023 15:51:54 GMT-0700 (Pacific Daylight Time)","339034","red","green","","658","","","","choice","","img/red_lw/choose11.jpg","2","156","red","0.5","0.5","0.5","l","",""
"animation","143","175655","0.0-5.0-2.69","63d80cb1ba40ad04c1edd4db","bdp_lott","Sun Mar 26 2023 15:51:54 GMT-0700 (Pacific Daylight Time)","339034","red","green","","","","","","","","","","156","","","","","","[{""stimulus"":""img/red_ll/1.jpg"",""time"":62},{""stimulus"":""img/red_ll/2.jpg"",""time"":110},{""stimulus"":""img/red_ll/3.jpg"",""time"":158},{""stimulus"":""img/red_ll/4.jpg"",""time"":206},{""stimulus"":""img/red_ll/5.jpg"",""time"":260},{""stimulus"":""img/red_ll/6.jpg"",""time"":307},{""stimulus"":""img/red_ll/7.jpg"",""time"":355},{""stimulus"":""img/red_ll/8.jpg"",""time"":404},{""stimulus"":""img/red_ll/9.jpg"",""time"":462},{""stimulus"":""img/red_ll/10.jpg"",""time"":510},{""stimulus"":""img/red_ll/11.jpg"",""time"":558}]","[]"
"image-keyboard-response","144","176085","0.0-5.0-1.70","63d80cb1ba40ad04c1edd4db","bdp_lott","Sun Mar 26 2023 15:51:54 GMT-0700 (Pacific Daylight Time)","339034","red","green","","430","","","","choice","","img/red_ll/choose11.jpg","2","155","red","0.5","0.5","0.5","w","",""
"animation","145","176698","0.0-5.0-2.70","63d80cb1ba40ad04c1edd4db","bdp_lott","Sun Mar 26 2023 15:51:54 GMT-0700 (Pacific Daylight Time)","339034","red","green","","","","","","","","","","155","","","","","","[{""stimulus"":""img/red_lw/1.jpg"",""time"":58},{""stimulus"":""img/red_lw/2.jpg"",""time"":107},{""stimulus"":""img/red_lw/3.jpg"",""time"":154},{""stimulus"":""img/red_lw/4.jpg"",""time"":210},{""stimulus"":""img/red_lw/5.jpg"",""time"":261},{""stimulus"":""img/red_lw/6.jpg"",""time"":309},{""stimulus"":""img/red_lw/7.jpg"",""time"":352},{""stimulus"":""img/red_lw/8.jpg"",""time"":410},{""stimulus"":""img/red_lw/9.jpg"",""time"":458},{""stimulus"":""img/red_lw/10.jpg"",""time"":506},{""stimulus"":""img/red_lw/11.jpg"",""time"":554}]","[]"
"image-keyboard-response","146","177319","0.0-5.0-1.71","63d80cb1ba40ad04c1edd4db","bdp_lott","Sun Mar 26 2023 15:51:54 GMT-0700 (Pacific Daylight Time)","339034","red","green","","621","","","","choice","","img/red_lw/choose11.jpg","2","154","red","0.5","0.5","0.5","l","",""
"animation","147","177930","0.0-5.0-2.71","63d80cb1ba40ad04c1edd4db","bdp_lott","Sun Mar 26 2023 15:51:54 GMT-0700 (Pacific Daylight Time)","339034","red","green","","","","","","","","","","154","","","","","","[{""stimulus"":""img/red_ll/1.jpg"",""time"":56},{""stimulus"":""img/red_ll/2.jpg"",""time"":104},{""stimulus"":""img/red_ll/3.jpg"",""time"":158},{""stimulus"":""img/red_ll/4.jpg"",""time"":207},{""stimulus"":""img/red_ll/5.jpg"",""time"":259},{""stimulus"":""img/red_ll/6.jpg"",""time"":302},{""stimulus"":""img/red_ll/7.jpg"",""time"":360},{""stimulus"":""img/red_ll/8.jpg"",""time"":408},{""stimulus"":""img/red_ll/9.jpg"",""time"":456},{""stimulus"":""img/red_ll/10.jpg"",""time"":504},{""stimulus"":""img/red_ll/11.jpg"",""time"":558}]","[]"
"image-keyboard-response","148","178325","0.0-5.0-1.72","63d80cb1ba40ad04c1edd4db","bdp_lott","Sun Mar 26 2023 15:51:54 GMT-0700 (Pacific Daylight Time)","339034","red","green","","394","","","","choice","","img/red_ll/choose11.jpg","2","153","red","0.5","0.5","0.5","l","",""
"animation","149","178938","0.0-5.0-2.72","63d80cb1ba40ad04c1edd4db","bdp_lott","Sun Mar 26 2023 15:51:54 GMT-0700 (Pacific Daylight Time)","339034","red","green","","","","","","","","","","153","","","","","","[{""stimulus"":""img/red_ll/1.jpg"",""time"":57},{""stimulus"":""img/red_ll/2.jpg"",""time"":105},{""stimulus"":""img/red_ll/3.jpg"",""time"":153},{""stimulus"":""img/red_ll/4.jpg"",""time"":212},{""stimulus"":""img/red_ll/5.jpg"",""time"":260},{""stimulus"":""img/red_ll/6.jpg"",""time"":303},{""stimulus"":""img/red_ll/7.jpg"",""time"":355},{""stimulus"":""img/red_ll/8.jpg"",""time"":409},{""stimulus"":""img/red_ll/9.jpg"",""time"":457},{""stimulus"":""img/red_ll/10.jpg"",""time"":505},{""stimulus"":""img/red_ll/11.jpg"",""time"":553}]","[]"
"image-keyboard-response","150","179322","0.0-5.0-1.73","63d80cb1ba40ad04c1edd4db","bdp_lott","Sun Mar 26 2023 15:51:54 GMT-0700 (Pacific Daylight Time)","339034","red","green","","384","","","","choice","","img/red_ll/choose11.jpg","2","152","red","0.5","0.5","0.5","w","",""
"animation","151","179929","0.0-5.0-2.73","63d80cb1ba40ad04c1edd4db","bdp_lott","Sun Mar 26 2023 15:51:54 GMT-0700 (Pacific Daylight Time)","339034","red","green","","","","","","","","","","152","","","","","","[{""stimulus"":""img/red_lw/1.jpg"",""time"":53},{""stimulus"":""img/red_lw/2.jpg"",""time"":112},{""stimulus"":""img/red_lw/3.jpg"",""time"":160},{""stimulus"":""img/red_lw/4.jpg"",""time"":203},{""stimulus"":""img/red_lw/5.jpg"",""time"":256},{""stimulus"":""img/red_lw/6.jpg"",""time"":308},{""stimulus"":""img/red_lw/7.jpg"",""time"":357},{""stimulus"":""img/red_lw/8.jpg"",""time"":405},{""stimulus"":""img/red_lw/9.jpg"",""time"":453},{""stimulus"":""img/red_lw/10.jpg"",""time"":511},{""stimulus"":""img/red_lw/11.jpg"",""time"":560}]","[]"
"image-keyboard-response","152","180673","0.0-5.0-1.74","63d80cb1ba40ad04c1edd4db","bdp_lott","Sun Mar 26 2023 15:51:54 GMT-0700 (Pacific Daylight Time)","339034","red","green","","743","","","","choice","","img/red_lw/choose11.jpg","2","151","red","0.5","0.5","0.5","l","",""
"animation","153","181279","0.0-5.0-2.74","63d80cb1ba40ad04c1edd4db","bdp_lott","Sun Mar 26 2023 15:51:54 GMT-0700 (Pacific Daylight Time)","339034","red","green","","","","","","","","","","151","","","","","","[{""stimulus"":""img/red_ll/1.jpg"",""time"":56},{""stimulus"":""img/red_ll/2.jpg"",""time"":109},{""stimulus"":""img/red_ll/3.jpg"",""time"":157},{""stimulus"":""img/red_ll/4.jpg"",""time"":205},{""stimulus"":""img/red_ll/5.jpg"",""time"":253},{""stimulus"":""img/red_ll/6.jpg"",""time"":312},{""stimulus"":""img/red_ll/7.jpg"",""time"":360},{""stimulus"":""img/red_ll/8.jpg"",""time"":403},{""stimulus"":""img/red_ll/9.jpg"",""time"":456},{""stimulus"":""img/red_ll/10.jpg"",""time"":509},{""stimulus"":""img/red_ll/11.jpg"",""time"":557}]","[]"
"image-keyboard-response","154","181676","0.0-5.0-1.75","63d80cb1ba40ad04c1edd4db","bdp_lott","Sun Mar 26 2023 15:51:54 GMT-0700 (Pacific Daylight Time)","339034","red","green","","396","","","","choice","","img/red_ll/choose11.jpg","2","150","red","0.5","0.5","0.5","l","",""
"animation","155","182276","0.0-5.0-2.75","63d80cb1ba40ad04c1edd4db","bdp_lott","Sun Mar 26 2023 15:51:54 GMT-0700 (Pacific Daylight Time)","339034","red","green","","","","","","","","","","150","","","","","","[{""stimulus"":""img/red_ll/1.jpg"",""time"":62},{""stimulus"":""img/red_ll/2.jpg"",""time"":110},{""stimulus"":""img/red_ll/3.jpg"",""time"":157},{""stimulus"":""img/red_ll/4.jpg"",""time"":205},{""stimulus"":""img/red_ll/5.jpg"",""time"":259},{""stimulus"":""img/red_ll/6.jpg"",""time"":306},{""stimulus"":""img/red_ll/7.jpg"",""time"":355},{""stimulus"":""img/red_ll/8.jpg"",""time"":403},{""stimulus"":""img/red_ll/9.jpg"",""time"":458},{""stimulus"":""img/red_ll/10.jpg"",""time"":509},{""stimulus"":""img/red_ll/11.jpg"",""time"":557}]","[]"
"image-keyboard-response","156","182616","0.0-5.0-1.76","63d80cb1ba40ad04c1edd4db","bdp_lott","Sun Mar 26 2023 15:51:54 GMT-0700 (Pacific Daylight Time)","339034","red","green","","339","","","","choice","","img/red_ll/choose11.jpg","2","149","red","0.5","0.1","0.5","l","",""
"animation","157","183221","0.0-5.0-2.76","63d80cb1ba40ad04c1edd4db","bdp_lott","Sun Mar 26 2023 15:51:54 GMT-0700 (Pacific Daylight Time)","339034","red","green","","","","","","","","","","149","","","","","","[{""stimulus"":""img/red_ll/1.jpg"",""time"":55},{""stimulus"":""img/red_ll/2.jpg"",""time"":103},{""stimulus"":""img/red_ll/3.jpg"",""time"":161},{""stimulus"":""img/red_ll/4.jpg"",""time"":210},{""stimulus"":""img/red_ll/5.jpg"",""time"":258},{""stimulus"":""img/red_ll/6.jpg"",""time"":305},{""stimulus"":""img/red_ll/7.jpg"",""time"":359},{""stimulus"":""img/red_ll/8.jpg"",""time"":407},{""stimulus"":""img/red_ll/9.jpg"",""time"":455},{""stimulus"":""img/red_ll/10.jpg"",""time"":503},{""stimulus"":""img/red_ll/11.jpg"",""time"":562}]","[]"
"image-keyboard-response","158","183546","0.0-5.0-1.77","63d80cb1ba40ad04c1edd4db","bdp_lott","Sun Mar 26 2023 15:51:54 GMT-0700 (Pacific Daylight Time)","339034","red","green","","323","","","","choice","","img/red_ll/choose11.jpg","2","148","red","0.5","0.1","0.5","l","",""
"animation","159","184148","0.0-5.0-2.77","63d80cb1ba40ad04c1edd4db","bdp_lott","Sun Mar 26 2023 15:51:54 GMT-0700 (Pacific Daylight Time)","339034","red","green","","","","","","","","","","148","","","","","","[{""stimulus"":""img/red_ll/1.jpg"",""time"":53},{""stimulus"":""img/red_ll/2.jpg"",""time"":111},{""stimulus"":""img/red_ll/3.jpg"",""time"":160},{""stimulus"":""img/red_ll/4.jpg"",""time"":203},{""stimulus"":""img/red_ll/5.jpg"",""time"":256},{""stimulus"":""img/red_ll/6.jpg"",""time"":309},{""stimulus"":""img/red_ll/7.jpg"",""time"":357},{""stimulus"":""img/red_ll/8.jpg"",""time"":405},{""stimulus"":""img/red_ll/9.jpg"",""time"":455},{""stimulus"":""img/red_ll/10.jpg"",""time"":511},{""stimulus"":""img/red_ll/11.jpg"",""time"":559}]","[]"
"image-keyboard-response","160","184540","0.0-5.0-1.78","63d80cb1ba40ad04c1edd4db","bdp_lott","Sun Mar 26 2023 15:51:54 GMT-0700 (Pacific Daylight Time)","339034","red","green","","391","","","","choice","","img/red_ll/choose11.jpg","2","147","red","0.5","0.1","0.5","l","",""
"animation","161","185145","0.0-5.0-2.78","63d80cb1ba40ad04c1edd4db","bdp_lott","Sun Mar 26 2023 15:51:54 GMT-0700 (Pacific Daylight Time)","339034","red","green","","","","","","","","","","147","","","","","","[{""stimulus"":""img/red_ll/1.jpg"",""time"":60},{""stimulus"":""img/red_ll/2.jpg"",""time"":109},{""stimulus"":""img/red_ll/3.jpg"",""time"":157},{""stimulus"":""img/red_ll/4.jpg"",""time"":205},{""stimulus"":""img/red_ll/5.jpg"",""time"":259},{""stimulus"":""img/red_ll/6.jpg"",""time"":307},{""stimulus"":""img/red_ll/7.jpg"",""time"":356},{""stimulus"":""img/red_ll/8.jpg"",""time"":403},{""stimulus"":""img/red_ll/9.jpg"",""time"":461},{""stimulus"":""img/red_ll/10.jpg"",""time"":510},{""stimulus"":""img/red_ll/11.jpg"",""time"":558}]","[]"
"image-keyboard-response","162","185542","0.0-5.0-1.79","63d80cb1ba40ad04c1edd4db","bdp_lott","Sun Mar 26 2023 15:51:54 GMT-0700 (Pacific Daylight Time)","339034","red","green","","396","","","","choice","","img/red_ll/choose11.jpg","1","146","green","0.5","0.1","0.1","l","",""
"animation","163","186154","0.0-5.0-2.79","63d80cb1ba40ad04c1edd4db","bdp_lott","Sun Mar 26 2023 15:51:54 GMT-0700 (Pacific Daylight Time)","339034","red","green","","","","","","","","","","146","","","","","","[{""stimulus"":""img/green_ll/1.jpg"",""time"":56},{""stimulus"":""img/green_ll/2.jpg"",""time"":104},{""stimulus"":""img/green_ll/3.jpg"",""time"":159},{""stimulus"":""img/green_ll/4.jpg"",""time"":211},{""stimulus"":""img/green_ll/5.jpg"",""time"":253},{""stimulus"":""img/green_ll/6.jpg"",""time"":307},{""stimulus"":""img/green_ll/7.jpg"",""time"":359},{""stimulus"":""img/green_ll/8.jpg"",""time"":408},{""stimulus"":""img/green_ll/9.jpg"",""time"":458},{""stimulus"":""img/green_ll/10.jpg"",""time"":506},{""stimulus"":""img/green_ll/11.jpg"",""time"":563}]","[]"
"image-keyboard-response","164","186602","0.0-5.0-1.80","63d80cb1ba40ad04c1edd4db","bdp_lott","Sun Mar 26 2023 15:51:54 GMT-0700 (Pacific Daylight Time)","339034","red","green","","447","","","","choice","","img/green_ll/choose11.jpg","1","145","green","0.5","0.1","0.1","l","",""
"animation","165","187204","0.0-5.0-2.80","63d80cb1ba40ad04c1edd4db","bdp_lott","Sun Mar 26 2023 15:51:54 GMT-0700 (Pacific Daylight Time)","339034","red","green","","","","","","","","","","145","","","","","","[{""stimulus"":""img/green_ll/1.jpg"",""time"":53},{""stimulus"":""img/green_ll/2.jpg"",""time"":108},{""stimulus"":""img/green_ll/3.jpg"",""time"":160},{""stimulus"":""img/green_ll/4.jpg"",""time"":207},{""stimulus"":""img/green_ll/5.jpg"",""time"":261},{""stimulus"":""img/green_ll/6.jpg"",""time"":309},{""stimulus"":""img/green_ll/7.jpg"",""time"":357},{""stimulus"":""img/green_ll/8.jpg"",""time"":405},{""stimulus"":""img/green_ll/9.jpg"",""time"":459},{""stimulus"":""img/green_ll/10.jpg"",""time"":511},{""stimulus"":""img/green_ll/11.jpg"",""time"":554}]","[]"
"image-keyboard-response","166","187597","0.0-5.0-1.81","63d80cb1ba40ad04c1edd4db","bdp_lott","Sun Mar 26 2023 15:51:54 GMT-0700 (Pacific Daylight Time)","339034","red","green","","392","","","","choice","","img/green_ll/choose11.jpg","1","144","green","0.5","0.1","0.1","w","",""
"animation","167","188206","0.0-5.0-2.81","63d80cb1ba40ad04c1edd4db","bdp_lott","Sun Mar 26 2023 15:51:54 GMT-0700 (Pacific Daylight Time)","339034","red","green","","","","","","","","","","144","","","","","","[{""stimulus"":""img/green_wl/1.jpg"",""time"":59},{""stimulus"":""img/green_wl/2.jpg"",""time"":107},{""stimulus"":""img/green_wl/3.jpg"",""time"":155},{""stimulus"":""img/green_wl/4.jpg"",""time"":209},{""stimulus"":""img/green_wl/5.jpg"",""time"":251},{""stimulus"":""img/green_wl/6.jpg"",""time"":305},{""stimulus"":""img/green_wl/7.jpg"",""time"":353},{""stimulus"":""img/green_wl/8.jpg"",""time"":411},{""stimulus"":""img/green_wl/9.jpg"",""time"":456},{""stimulus"":""img/green_wl/10.jpg"",""time"":507},{""stimulus"":""img/green_wl/11.jpg"",""time"":555}]","[]"
"image-keyboard-response","168","188590","0.0-5.0-1.82","63d80cb1ba40ad04c1edd4db","bdp_lott","Sun Mar 26 2023 15:51:54 GMT-0700 (Pacific Daylight Time)","339034","red","green","","383","","","","choice","","img/green_wl/choose11.jpg","1","143","green","0.5","0.1","0.1","l","",""
"animation","169","189199","0.0-5.0-2.82","63d80cb1ba40ad04c1edd4db","bdp_lott","Sun Mar 26 2023 15:51:54 GMT-0700 (Pacific Daylight Time)","339034","red","green","","","","","","","","","","143","","","","","","[{""stimulus"":""img/green_ll/1.jpg"",""time"":55},{""stimulus"":""img/green_ll/2.jpg"",""time"":106},{""stimulus"":""img/green_ll/3.jpg"",""time"":155},{""stimulus"":""img/green_ll/4.jpg"",""time"":207},{""stimulus"":""img/green_ll/5.jpg"",""time"":256},{""stimulus"":""img/green_ll/6.jpg"",""time"":303},{""stimulus"":""img/green_ll/7.jpg"",""time"":359},{""stimulus"":""img/green_ll/8.jpg"",""time"":410},{""stimulus"":""img/green_ll/9.jpg"",""time"":458},{""stimulus"":""img/green_ll/10.jpg"",""time"":502},{""stimulus"":""img/green_ll/11.jpg"",""time"":560}]","[]"
"image-keyboard-response","170","189628","0.0-5.0-1.83","63d80cb1ba40ad04c1edd4db","bdp_lott","Sun Mar 26 2023 15:51:54 GMT-0700 (Pacific Daylight Time)","339034","red","green","","428","","","","choice","","img/green_ll/choose11.jpg","1","142","green","0.5","0.1","0.1","l","",""
"animation","171","190238","0.0-5.0-2.83","63d80cb1ba40ad04c1edd4db","bdp_lott","Sun Mar 26 2023 15:51:54 GMT-0700 (Pacific Daylight Time)","339034","red","green","","","","","","","","","","142","","","","","","[{""stimulus"":""img/green_ll/1.jpg"",""time"":61},{""stimulus"":""img/green_ll/2.jpg"",""time"":108},{""stimulus"":""img/green_ll/3.jpg"",""time"":156},{""stimulus"":""img/green_ll/4.jpg"",""time"":210},{""stimulus"":""img/green_ll/5.jpg"",""time"":258},{""stimulus"":""img/green_ll/6.jpg"",""time"":305},{""stimulus"":""img/green_ll/7.jpg"",""time"":354},{""stimulus"":""img/green_ll/8.jpg"",""time"":412},{""stimulus"":""img/green_ll/9.jpg"",""time"":460},{""stimulus"":""img/green_ll/10.jpg"",""time"":508},{""stimulus"":""img/green_ll/11.jpg"",""time"":556}]","[]"
"image-keyboard-response","172","190552","0.0-5.0-1.84","63d80cb1ba40ad04c1edd4db","bdp_lott","Sun Mar 26 2023 15:51:54 GMT-0700 (Pacific Daylight Time)","339034","red","green","","313","","","","choice","","img/green_ll/choose11.jpg","1","141","green","0.5","0.1","0.1","l","",""
"animation","173","191157","0.0-5.0-2.84","63d80cb1ba40ad04c1edd4db","bdp_lott","Sun Mar 26 2023 15:51:54 GMT-0700 (Pacific Daylight Time)","339034","red","green","","","","","","","","","","141","","","","","","[{""stimulus"":""img/green_ll/1.jpg"",""time"":54},{""stimulus"":""img/green_ll/2.jpg"",""time"":112},{""stimulus"":""img/green_ll/3.jpg"",""time"":160},{""stimulus"":""img/green_ll/4.jpg"",""time"":207},{""stimulus"":""img/green_ll/5.jpg"",""time"":256},{""stimulus"":""img/green_ll/6.jpg"",""time"":302},{""stimulus"":""img/green_ll/7.jpg"",""time"":357},{""stimulus"":""img/green_ll/8.jpg"",""time"":405},{""stimulus"":""img/green_ll/9.jpg"",""time"":453},{""stimulus"":""img/green_ll/10.jpg"",""time"":507},{""stimulus"":""img/green_ll/11.jpg"",""time"":556}]","[]"
"image-keyboard-response","174","191569","0.0-5.0-1.85","63d80cb1ba40ad04c1edd4db","bdp_lott","Sun Mar 26 2023 15:51:54 GMT-0700 (Pacific Daylight Time)","339034","red","green","","411","","","","choice","","img/green_ll/choose11.jpg","1","140","green","0.5","0.1","0.1","l","",""
"animation","175","192174","0.0-5.0-2.85","63d80cb1ba40ad04c1edd4db","bdp_lott","Sun Mar 26 2023 15:51:54 GMT-0700 (Pacific Daylight Time)","339034","red","green","","","","","","","","","","140","","","","","","[{""stimulus"":""img/green_ll/1.jpg"",""time"":56},{""stimulus"":""img/green_ll/2.jpg"",""time"":109},{""stimulus"":""img/green_ll/3.jpg"",""time"":157},{""stimulus"":""img/green_ll/4.jpg"",""time"":205},{""stimulus"":""img/green_ll/5.jpg"",""time"":254},{""stimulus"":""img/green_ll/6.jpg"",""time"":308},{""stimulus"":""img/green_ll/7.jpg"",""time"":360},{""stimulus"":""img/green_ll/8.jpg"",""time"":408},{""stimulus"":""img/green_ll/9.jpg"",""time"":456},{""stimulus"":""img/green_ll/10.jpg"",""time"":510},{""stimulus"":""img/green_ll/11.jpg"",""time"":558}]","[]"
"image-keyboard-response","176","192523","0.0-5.0-1.86","63d80cb1ba40ad04c1edd4db","bdp_lott","Sun Mar 26 2023 15:51:54 GMT-0700 (Pacific Daylight Time)","339034","red","green","","348","","","","choice","","img/green_ll/choose11.jpg","1","139","green","0.5","0.1","0.1","l","",""
"animation","177","193125","0.0-5.0-2.86","63d80cb1ba40ad04c1edd4db","bdp_lott","Sun Mar 26 2023 15:51:54 GMT-0700 (Pacific Daylight Time)","339034","red","green","","","","","","","","","","139","","","","","","[{""stimulus"":""img/green_ll/1.jpg"",""time"":59},{""stimulus"":""img/green_ll/2.jpg"",""time"":110},{""stimulus"":""img/green_ll/3.jpg"",""time"":153},{""stimulus"":""img/green_ll/4.jpg"",""time"":206},{""stimulus"":""img/green_ll/5.jpg"",""time"":259},{""stimulus"":""img/green_ll/6.jpg"",""time"":307},{""stimulus"":""img/green_ll/7.jpg"",""time"":355},{""stimulus"":""img/green_ll/8.jpg"",""time"":403},{""stimulus"":""img/green_ll/9.jpg"",""time"":462},{""stimulus"":""img/green_ll/10.jpg"",""time"":510},{""stimulus"":""img/green_ll/11.jpg"",""time"":556}]","[]"
"image-keyboard-response","178","193512","0.0-5.0-1.87","63d80cb1ba40ad04c1edd4db","bdp_lott","Sun Mar 26 2023 15:51:54 GMT-0700 (Pacific Daylight Time)","339034","red","green","","386","","","","choice","","img/green_ll/choose11.jpg","1","138","green","0.5","0.1","0.1","l","",""
"animation","179","194121","0.0-5.0-2.87","63d80cb1ba40ad04c1edd4db","bdp_lott","Sun Mar 26 2023 15:51:54 GMT-0700 (Pacific Daylight Time)","339034","red","green","","","","","","","","","","138","","","","","","[{""stimulus"":""img/green_ll/1.jpg"",""time"":54},{""stimulus"":""img/green_ll/2.jpg"",""time"":113},{""stimulus"":""img/green_ll/3.jpg"",""time"":156},{""stimulus"":""img/green_ll/4.jpg"",""time"":209},{""stimulus"":""img/green_ll/5.jpg"",""time"":257},{""stimulus"":""img/green_ll/6.jpg"",""time"":310},{""stimulus"":""img/green_ll/7.jpg"",""time"":358},{""stimulus"":""img/green_ll/8.jpg"",""time"":409},{""stimulus"":""img/green_ll/9.jpg"",""time"":454},{""stimulus"":""img/green_ll/10.jpg"",""time"":513},{""stimulus"":""img/green_ll/11.jpg"",""time"":561}]","[]"
"image-keyboard-response","180","194459","0.0-5.0-1.88","63d80cb1ba40ad04c1edd4db","bdp_lott","Sun Mar 26 2023 15:51:54 GMT-0700 (Pacific Daylight Time)","339034","red","green","","337","","","","choice","","img/green_ll/choose11.jpg","2","137","red","0.5","0.1","0.5","w","",""
"animation","181","195070","0.0-5.0-2.88","63d80cb1ba40ad04c1edd4db","bdp_lott","Sun Mar 26 2023 15:51:54 GMT-0700 (Pacific Daylight Time)","339034","red","green","","","","","","","","","","137","","","","","","[{""stimulus"":""img/red_lw/1.jpg"",""time"":62},{""stimulus"":""img/red_lw/2.jpg"",""time"":109},{""stimulus"":""img/red_lw/3.jpg"",""time"":157},{""stimulus"":""img/red_lw/4.jpg"",""time"":210},{""stimulus"":""img/red_lw/5.jpg"",""time"":258},{""stimulus"":""img/red_lw/6.jpg"",""time"":306},{""stimulus"":""img/red_lw/7.jpg"",""time"":354},{""stimulus"":""img/red_lw/8.jpg"",""time"":413},{""stimulus"":""img/red_lw/9.jpg"",""time"":461},{""stimulus"":""img/red_lw/10.jpg"",""time"":509},{""stimulus"":""img/red_lw/11.jpg"",""time"":557}]","[]"
"image-keyboard-response","182","195752","0.0-5.0-1.89","63d80cb1ba40ad04c1edd4db","bdp_lott","Sun Mar 26 2023 15:51:54 GMT-0700 (Pacific Daylight Time)","339034","red","green","","681","","","","choice","","img/red_lw/choose11.jpg","2","136","red","0.5","0.1","0.5","w","",""
"animation","183","196356","0.0-5.0-2.89","63d80cb1ba40ad04c1edd4db","bdp_lott","Sun Mar 26 2023 15:51:54 GMT-0700 (Pacific Daylight Time)","339034","red","green","","","","","","","","","","136","","","","","","[{""stimulus"":""img/red_lw/1.jpg"",""time"":53},{""stimulus"":""img/red_lw/2.jpg"",""time"":112},{""stimulus"":""img/red_lw/3.jpg"",""time"":160},{""stimulus"":""img/red_lw/4.jpg"",""time"":203},{""stimulus"":""img/red_lw/5.jpg"",""time"":256},{""stimulus"":""img/red_lw/6.jpg"",""time"":310},{""stimulus"":""img/red_lw/7.jpg"",""time"":357},{""stimulus"":""img/red_lw/8.jpg"",""time"":405},{""stimulus"":""img/red_lw/9.jpg"",""time"":453},{""stimulus"":""img/red_lw/10.jpg"",""time"":512},{""stimulus"":""img/red_lw/11.jpg"",""time"":556}]","[]"
"image-keyboard-response","184","196761","0.0-5.0-1.90","63d80cb1ba40ad04c1edd4db","bdp_lott","Sun Mar 26 2023 15:51:54 GMT-0700 (Pacific Daylight Time)","339034","red","green","","405","","","","choice","","img/red_lw/choose11.jpg","2","135","red","0.5","0.1","0.5","w","",""
"animation","185","197365","0.0-5.0-2.90","63d80cb1ba40ad04c1edd4db","bdp_lott","Sun Mar 26 2023 15:51:54 GMT-0700 (Pacific Daylight Time)","339034","red","green","","","","","","","","","","135","","","","","","[{""stimulus"":""img/red_lw/1.jpg"",""time"":53},{""stimulus"":""img/red_lw/2.jpg"",""time"":112},{""stimulus"":""img/red_lw/3.jpg"",""time"":157},{""stimulus"":""img/red_lw/4.jpg"",""time"":208},{""stimulus"":""img/red_lw/5.jpg"",""time"":256},{""stimulus"":""img/red_lw/6.jpg"",""time"":309},{""stimulus"":""img/red_lw/7.jpg"",""time"":357},{""stimulus"":""img/red_lw/8.jpg"",""time"":406},{""stimulus"":""img/red_lw/9.jpg"",""time"":453},{""stimulus"":""img/red_lw/10.jpg"",""time"":512},{""stimulus"":""img/red_lw/11.jpg"",""time"":559}]","[]"
"image-keyboard-response","186","197759","0.0-5.0-1.91","63d80cb1ba40ad04c1edd4db","bdp_lott","Sun Mar 26 2023 15:51:54 GMT-0700 (Pacific Daylight Time)","339034","red","green","","393","","","","choice","","img/red_lw/choose11.jpg","2","134","red","0.5","0.1","0.5","l","",""
"animation","187","198364","0.0-5.0-2.91","63d80cb1ba40ad04c1edd4db","bdp_lott","Sun Mar 26 2023 15:51:54 GMT-0700 (Pacific Daylight Time)","339034","red","green","","","","","","","","","","134","","","","","","[{""stimulus"":""img/red_ll/1.jpg"",""time"":57},{""stimulus"":""img/red_ll/2.jpg"",""time"":100},{""stimulus"":""img/red_ll/3.jpg"",""time"":159},{""stimulus"":""img/red_ll/4.jpg"",""time"":206},{""stimulus"":""img/red_ll/5.jpg"",""time"":254},{""stimulus"":""img/red_ll/6.jpg"",""time"":311},{""stimulus"":""img/red_ll/7.jpg"",""time"":361},{""stimulus"":""img/red_ll/8.jpg"",""time"":404},{""stimulus"":""img/red_ll/9.jpg"",""time"":457},{""stimulus"":""img/red_ll/10.jpg"",""time"":500},{""stimulus"":""img/red_ll/11.jpg"",""time"":558}]","[]"
"image-keyboard-response","188","198836","0.0-5.0-1.92","63d80cb1ba40ad04c1edd4db","bdp_lott","Sun Mar 26 2023 15:51:54 GMT-0700 (Pacific Daylight Time)","339034","red","green","","472","","","","choice","","img/red_ll/choose11.jpg","2","133","red","0.5","0.1","0.5","l","",""
"animation","189","199444","0.0-5.0-2.92","63d80cb1ba40ad04c1edd4db","bdp_lott","Sun Mar 26 2023 15:51:54 GMT-0700 (Pacific Daylight Time)","339034","red","green","","","","","","","","","","133","","","","","","[{""stimulus"":""img/red_ll/1.jpg"",""time"":58},{""stimulus"":""img/red_ll/2.jpg"",""time"":106},{""stimulus"":""img/red_ll/3.jpg"",""time"":154},{""stimulus"":""img/red_ll/4.jpg"",""time"":212},{""stimulus"":""img/red_ll/5.jpg"",""time"":261},{""stimulus"":""img/red_ll/6.jpg"",""time"":309},{""stimulus"":""img/red_ll/7.jpg"",""time"":357},{""stimulus"":""img/red_ll/8.jpg"",""time"":405},{""stimulus"":""img/red_ll/9.jpg"",""time"":458},{""stimulus"":""img/red_ll/10.jpg"",""time"":506},{""stimulus"":""img/red_ll/11.jpg"",""time"":554}]","[]"
"image-keyboard-response","190","199771","0.0-5.0-1.93","63d80cb1ba40ad04c1edd4db","bdp_lott","Sun Mar 26 2023 15:51:54 GMT-0700 (Pacific Daylight Time)","339034","red","green","","327","","","","choice","","img/red_ll/choose11.jpg","2","132","red","0.5","0.1","0.5","w","",""
"animation","191","200382","0.0-5.0-2.93","63d80cb1ba40ad04c1edd4db","bdp_lott","Sun Mar 26 2023 15:51:54 GMT-0700 (Pacific Daylight Time)","339034","red","green","","","","","","","","","","132","","","","","","[{""stimulus"":""img/red_lw/1.jpg"",""time"":64},{""stimulus"":""img/red_lw/2.jpg"",""time"":110},{""stimulus"":""img/red_lw/3.jpg"",""time"":156},{""stimulus"":""img/red_lw/4.jpg"",""time"":210},{""stimulus"":""img/red_lw/5.jpg"",""time"":259},{""stimulus"":""img/red_lw/6.jpg"",""time"":307},{""stimulus"":""img/red_lw/7.jpg"",""time"":355},{""stimulus"":""img/red_lw/8.jpg"",""time"":414},{""stimulus"":""img/red_lw/9.jpg"",""time"":462},{""stimulus"":""img/red_lw/10.jpg"",""time"":510},{""stimulus"":""img/red_lw/11.jpg"",""time"":558}]","[]"
