"trial_type","trial_index","time_elapsed","internal_node_id","subject_id","task","startTime","totalTime","fairMachine","unfairMachine","view_history","rt","event","trial","time","trialtype","success","stimulus","key_press","roundsLeft","chosen","pFairMachWin","pUnfairMachWin","pTrialWin","outcome","animation_sequence","responses"
"pavlovia","0","4","0.0-0.0","63bc9e8cd8106f8d94c636d4","bdp_lott","Sun Mar 26 2023 17:10:11 GMT-0400 (Eastern Daylight Time)","321786","red","green","","","","","","","","","","","","","","","","",""
"instructions","1","5084","0.0-1.0","63bc9e8cd8106f8d94c636d4","bdp_lott","Sun Mar 26 2023 17:10:11 GMT-0400 (Eastern Daylight Time)","321786","red","green","[{""page_index"":0,""viewing_time"":5078}]","5079","","","","","","","","","","","","","","",""
"","","","","63bc9e8cd8106f8d94c636d4","bdp_lott","Sun Mar 26 2023 17:10:11 GMT-0400 (Eastern Daylight Time)","321786","red","green","","","fullscreenenter","2","9274","fullscreenenter","","","","","","","","","","",""
"fullscreen","2","10186","0.0-2.0","63bc9e8cd8106f8d94c636d4","bdp_lott","Sun Mar 26 2023 17:10:11 GMT-0400 (Eastern Daylight Time)","321786","red","green","","","","","","","true","","","","","","","","","",""
"instructions","3","70168","0.0-4.0","63bc9e8cd8106f8d94c636d4","bdp_lott","Sun Mar 26 2023 17:10:11 GMT-0400 (Eastern Daylight Time)","321786","red","green","[{""page_index"":0,""viewing_time"":59981}]","59981","","","","","","","","","","","","","","",""
"image-keyboard-response","4","72308","0.0-5.0-1.0","63bc9e8cd8106f8d94c636d4","bdp_lott","Sun Mar 26 2023 17:10:11 GMT-0400 (Eastern Daylight Time)","321786","red","green","","2139","","","","choice","","img/red_ll/initchoose11.jpg","1","225","green","0.5","0.5","0.5","l","",""
"animation","5","72919","0.0-5.0-2.0","63bc9e8cd8106f8d94c636d4","bdp_lott","Sun Mar 26 2023 17:10:11 GMT-0400 (Eastern Daylight Time)","321786","red","green","","","","","","","","","","225","","","","","","[{""stimulus"":""img/green_ll/1.jpg"",""time"":51},{""stimulus"":""img/green_ll/2.jpg"",""time"":101},{""stimulus"":""img/green_ll/3.jpg"",""time"":152},{""stimulus"":""img/green_ll/4.jpg"",""time"":203},{""stimulus"":""img/green_ll/5.jpg"",""time"":254},{""stimulus"":""img/green_ll/6.jpg"",""time"":304},{""stimulus"":""img/green_ll/7.jpg"",""time"":355},{""stimulus"":""img/green_ll/8.jpg"",""time"":406},{""stimulus"":""img/green_ll/9.jpg"",""time"":457},{""stimulus"":""img/green_ll/10.jpg"",""time"":508},{""stimulus"":""img/green_ll/11.jpg"",""time"":559}]","[]"
"image-keyboard-response","6","74673","0.0-5.0-1.1","63bc9e8cd8106f8d94c636d4","bdp_lott","Sun Mar 26 2023 17:10:11 GMT-0400 (Eastern Daylight Time)","321786","red","green","","1753","","","","choice","","img/green_ll/choose11.jpg","2","224","red","0.5","0.5","0.5","w","",""
"animation","7","75284","0.0-5.0-2.1","63bc9e8cd8106f8d94c636d4","bdp_lott","Sun Mar 26 2023 17:10:11 GMT-0400 (Eastern Daylight Time)","321786","red","green","","","","","","","","","","224","","","","","","[{""stimulus"":""img/red_lw/1.jpg"",""time"":51},{""stimulus"":""img/red_lw/2.jpg"",""time"":102},{""stimulus"":""img/red_lw/3.jpg"",""time"":153},{""stimulus"":""img/red_lw/4.jpg"",""time"":203},{""stimulus"":""img/red_lw/5.jpg"",""time"":254},{""stimulus"":""img/red_lw/6.jpg"",""time"":305},{""stimulus"":""img/red_lw/7.jpg"",""time"":357},{""stimulus"":""img/red_lw/8.jpg"",""time"":408},{""stimulus"":""img/red_lw/9.jpg"",""time"":459},{""stimulus"":""img/red_lw/10.jpg"",""time"":509},{""stimulus"":""img/red_lw/11.jpg"",""time"":559}]","[]"
"image-keyboard-response","8","76939","0.0-5.0-1.2","63bc9e8cd8106f8d94c636d4","bdp_lott","Sun Mar 26 2023 17:10:11 GMT-0400 (Eastern Daylight Time)","321786","red","green","","1654","","","","choice","","img/red_lw/choose11.jpg","2","223","red","0.5","0.5","0.5","w","",""
"animation","9","77547","0.0-5.0-2.2","63bc9e8cd8106f8d94c636d4","bdp_lott","Sun Mar 26 2023 17:10:11 GMT-0400 (Eastern Daylight Time)","321786","red","green","","","","","","","","","","223","","","","","","[{""stimulus"":""img/red_lw/1.jpg"",""time"":50},{""stimulus"":""img/red_lw/2.jpg"",""time"":100},{""stimulus"":""img/red_lw/3.jpg"",""time"":151},{""stimulus"":""img/red_lw/4.jpg"",""time"":201},{""stimulus"":""img/red_lw/5.jpg"",""time"":252},{""stimulus"":""img/red_lw/6.jpg"",""time"":303},{""stimulus"":""img/red_lw/7.jpg"",""time"":354},{""stimulus"":""img/red_lw/8.jpg"",""time"":405},{""stimulus"":""img/red_lw/9.jpg"",""time"":455},{""stimulus"":""img/red_lw/10.jpg"",""time"":506},{""stimulus"":""img/red_lw/11.jpg"",""time"":556}]","[]"
"image-keyboard-response","10","78594","0.0-5.0-1.3","63bc9e8cd8106f8d94c636d4","bdp_lott","Sun Mar 26 2023 17:10:11 GMT-0400 (Eastern Daylight Time)","321786","red","green","","1046","","","","choice","","img/red_lw/choose11.jpg","2","222","red","0.5","0.5","0.5","l","",""
"animation","11","79203","0.0-5.0-2.3","63bc9e8cd8106f8d94c636d4","bdp_lott","Sun Mar 26 2023 17:10:11 GMT-0400 (Eastern Daylight Time)","321786","red","green","","","","","","","","","","222","","","","","","[{""stimulus"":""img/red_ll/1.jpg"",""time"":51},{""stimulus"":""img/red_ll/2.jpg"",""time"":102},{""stimulus"":""img/red_ll/3.jpg"",""time"":152},{""stimulus"":""img/red_ll/4.jpg"",""time"":203},{""stimulus"":""img/red_ll/5.jpg"",""time"":253},{""stimulus"":""img/red_ll/6.jpg"",""time"":305},{""stimulus"":""img/red_ll/7.jpg"",""time"":355},{""stimulus"":""img/red_ll/8.jpg"",""time"":406},{""stimulus"":""img/red_ll/9.jpg"",""time"":457},{""stimulus"":""img/red_ll/10.jpg"",""time"":508},{""stimulus"":""img/red_ll/11.jpg"",""time"":559}]","[]"
"image-keyboard-response","12","79625","0.0-5.0-1.4","63bc9e8cd8106f8d94c636d4","bdp_lott","Sun Mar 26 2023 17:10:11 GMT-0400 (Eastern Daylight Time)","321786","red","green","","421","","","","choice","","img/red_ll/choose11.jpg","1","221","green","0.5","0.5","0.5","w","",""
"animation","13","80236","0.0-5.0-2.4","63bc9e8cd8106f8d94c636d4","bdp_lott","Sun Mar 26 2023 17:10:11 GMT-0400 (Eastern Daylight Time)","321786","red","green","","","","","","","","","","221","","","","","","[{""stimulus"":""img/green_wl/1.jpg"",""time"":50},{""stimulus"":""img/green_wl/2.jpg"",""time"":101},{""stimulus"":""img/green_wl/3.jpg"",""time"":153},{""stimulus"":""img/green_wl/4.jpg"",""time"":203},{""stimulus"":""img/green_wl/5.jpg"",""time"":253},{""stimulus"":""img/green_wl/6.jpg"",""time"":303},{""stimulus"":""img/green_wl/7.jpg"",""time"":354},{""stimulus"":""img/green_wl/8.jpg"",""time"":405},{""stimulus"":""img/green_wl/9.jpg"",""time"":456},{""stimulus"":""img/green_wl/10.jpg"",""time"":507},{""stimulus"":""img/green_wl/11.jpg"",""time"":559}]","[]"
"image-keyboard-response","14","80818","0.0-5.0-1.5","63bc9e8cd8106f8d94c636d4","bdp_lott","Sun Mar 26 2023 17:10:11 GMT-0400 (Eastern Daylight Time)","321786","red","green","","581","","","","choice","","img/green_wl/choose11.jpg","1","220","green","0.5","0.5","0.5","l","",""
"animation","15","81425","0.0-5.0-2.5","63bc9e8cd8106f8d94c636d4","bdp_lott","Sun Mar 26 2023 17:10:11 GMT-0400 (Eastern Daylight Time)","321786","red","green","","","","","","","","","","220","","","","","","[{""stimulus"":""img/green_ll/1.jpg"",""time"":52},{""stimulus"":""img/green_ll/2.jpg"",""time"":102},{""stimulus"":""img/green_ll/3.jpg"",""time"":152},{""stimulus"":""img/green_ll/4.jpg"",""time"":202},{""stimulus"":""img/green_ll/5.jpg"",""time"":253},{""stimulus"":""img/green_ll/6.jpg"",""time"":304},{""stimulus"":""img/green_ll/7.jpg"",""time"":354},{""stimulus"":""img/green_ll/8.jpg"",""time"":405},{""stimulus"":""img/green_ll/9.jpg"",""time"":456},{""stimulus"":""img/green_ll/10.jpg"",""time"":507},{""stimulus"":""img/green_ll/11.jpg"",""time"":557}]","[]"
"image-keyboard-response","16","81799","0.0-5.0-1.6","63bc9e8cd8106f8d94c636d4","bdp_lott","Sun Mar 26 2023 17:10:11 GMT-0400 (Eastern Daylight Time)","321786","red","green","","373","","","","choice","","img/green_ll/choose11.jpg","2","219","red","0.5","0.5","0.5","l","",""
"animation","17","82410","0.0-5.0-2.6","63bc9e8cd8106f8d94c636d4","bdp_lott","Sun Mar 26 2023 17:10:11 GMT-0400 (Eastern Daylight Time)","321786","red","green","","","","","","","","","","219","","","","","","[{""stimulus"":""img/red_ll/1.jpg"",""time"":51},{""stimulus"":""img/red_ll/2.jpg"",""time"":102},{""stimulus"":""img/red_ll/3.jpg"",""time"":152},{""stimulus"":""img/red_ll/4.jpg"",""time"":204},{""stimulus"":""img/red_ll/5.jpg"",""time"":255},{""stimulus"":""img/red_ll/6.jpg"",""time"":305},{""stimulus"":""img/red_ll/7.jpg"",""time"":356},{""stimulus"":""img/red_ll/8.jpg"",""time"":407},{""stimulus"":""img/red_ll/9.jpg"",""time"":458},{""stimulus"":""img/red_ll/10.jpg"",""time"":508},{""stimulus"":""img/red_ll/11.jpg"",""time"":559}]","[]"
"image-keyboard-response","18","82792","0.0-5.0-1.7","63bc9e8cd8106f8d94c636d4","bdp_lott","Sun Mar 26 2023 17:10:11 GMT-0400 (Eastern Daylight Time)","321786","red","green","","380","","","","choice","","img/red_ll/choose11.jpg","1","218","green","0.5","0.5","0.5","w","",""
"animation","19","83402","0.0-5.0-2.7","63bc9e8cd8106f8d94c636d4","bdp_lott","Sun Mar 26 2023 17:10:11 GMT-0400 (Eastern Daylight Time)","321786","red","green","","","","","","","","","","218","","","","","","[{""stimulus"":""img/green_wl/1.jpg"",""time"":50},{""stimulus"":""img/green_wl/2.jpg"",""time"":100},{""stimulus"":""img/green_wl/3.jpg"",""time"":151},{""stimulus"":""img/green_wl/4.jpg"",""time"":202},{""stimulus"":""img/green_wl/5.jpg"",""time"":253},{""stimulus"":""img/green_wl/6.jpg"",""time"":303},{""stimulus"":""img/green_wl/7.jpg"",""time"":354},{""stimulus"":""img/green_wl/8.jpg"",""time"":404},{""stimulus"":""img/green_wl/9.jpg"",""time"":455},{""stimulus"":""img/green_wl/10.jpg"",""time"":506},{""stimulus"":""img/green_wl/11.jpg"",""time"":558}]","[]"
"image-keyboard-response","20","84643","0.0-5.0-1.8","63bc9e8cd8106f8d94c636d4","bdp_lott","Sun Mar 26 2023 17:10:11 GMT-0400 (Eastern Daylight Time)","321786","red","green","","1241","","","","choice","","img/green_wl/choose11.jpg","1","217","green","0.5","0.5","0.5","l","",""
"animation","21","85249","0.0-5.0-2.8","63bc9e8cd8106f8d94c636d4","bdp_lott","Sun Mar 26 2023 17:10:11 GMT-0400 (Eastern Daylight Time)","321786","red","green","","","","","","","","","","217","","","","","","[{""stimulus"":""img/green_ll/1.jpg"",""time"":50},{""stimulus"":""img/green_ll/2.jpg"",""time"":101},{""stimulus"":""img/green_ll/3.jpg"",""time"":151},{""stimulus"":""img/green_ll/4.jpg"",""time"":202},{""stimulus"":""img/green_ll/5.jpg"",""time"":252},{""stimulus"":""img/green_ll/6.jpg"",""time"":303},{""stimulus"":""img/green_ll/7.jpg"",""time"":353},{""stimulus"":""img/green_ll/8.jpg"",""time"":403},{""stimulus"":""img/green_ll/9.jpg"",""time"":453},{""stimulus"":""img/green_ll/10.jpg"",""time"":504},{""stimulus"":""img/green_ll/11.jpg"",""time"":555}]","[]"
"image-keyboard-response","22","85939","0.0-5.0-1.9","63bc9e8cd8106f8d94c636d4","bdp_lott","Sun Mar 26 2023 17:10:11 GMT-0400 (Eastern Daylight Time)","321786","red","green","","690","","","","choice","","img/green_ll/choose11.jpg","2","216","red","0.5","0.5","0.5","l","",""
"animation","23","86547","0.0-5.0-2.9","63bc9e8cd8106f8d94c636d4","bdp_lott","Sun Mar 26 2023 17:10:11 GMT-0400 (Eastern Daylight Time)","321786","red","green","","","","","","","","","","216","","","","","","[{""stimulus"":""img/red_ll/1.jpg"",""time"":50},{""stimulus"":""img/red_ll/2.jpg"",""time"":101},{""stimulus"":""img/red_ll/3.jpg"",""time"":152},{""stimulus"":""img/red_ll/4.jpg"",""time"":203},{""stimulus"":""img/red_ll/5.jpg"",""time"":254},{""stimulus"":""img/red_ll/6.jpg"",""time"":305},{""stimulus"":""img/red_ll/7.jpg"",""time"":356},{""stimulus"":""img/red_ll/8.jpg"",""time"":407},{""stimulus"":""img/red_ll/9.jpg"",""time"":457},{""stimulus"":""img/red_ll/10.jpg"",""time"":507},{""stimulus"":""img/red_ll/11.jpg"",""time"":558}]","[]"
"image-keyboard-response","24","86902","0.0-5.0-1.10","63bc9e8cd8106f8d94c636d4","bdp_lott","Sun Mar 26 2023 17:10:11 GMT-0400 (Eastern Daylight Time)","321786","red","green","","354","","","","choice","","img/red_ll/choose11.jpg","2","215","red","0.5","0.5","0.5","l","",""
"animation","25","87512","0.0-5.0-2.10","63bc9e8cd8106f8d94c636d4","bdp_lott","Sun Mar 26 2023 17:10:11 GMT-0400 (Eastern Daylight Time)","321786","red","green","","","","","","","","","","215","","","","","","[{""stimulus"":""img/red_ll/1.jpg"",""time"":52},{""stimulus"":""img/red_ll/2.jpg"",""time"":102},{""stimulus"":""img/red_ll/3.jpg"",""time"":154},{""stimulus"":""img/red_ll/4.jpg"",""time"":204},{""stimulus"":""img/red_ll/5.jpg"",""time"":254},{""stimulus"":""img/red_ll/6.jpg"",""time"":305},{""stimulus"":""img/red_ll/7.jpg"",""time"":356},{""stimulus"":""img/red_ll/8.jpg"",""time"":407},{""stimulus"":""img/red_ll/9.jpg"",""time"":458},{""stimulus"":""img/red_ll/10.jpg"",""time"":509},{""stimulus"":""img/red_ll/11.jpg"",""time"":559}]","[]"
"image-keyboard-response","26","87852","0.0-5.0-1.11","63bc9e8cd8106f8d94c636d4","bdp_lott","Sun Mar 26 2023 17:10:11 GMT-0400 (Eastern Daylight Time)","321786","red","green","","338","","","","choice","","img/red_ll/choose11.jpg","2","214","red","0.5","0.5","0.5","w","",""
"animation","27","88462","0.0-5.0-2.11","63bc9e8cd8106f8d94c636d4","bdp_lott","Sun Mar 26 2023 17:10:11 GMT-0400 (Eastern Daylight Time)","321786","red","green","","","","","","","","","","214","","","","","","[{""stimulus"":""img/red_lw/1.jpg"",""time"":51},{""stimulus"":""img/red_lw/2.jpg"",""time"":102},{""stimulus"":""img/red_lw/3.jpg"",""time"":153},{""stimulus"":""img/red_lw/4.jpg"",""time"":204},{""stimulus"":""img/red_lw/5.jpg"",""time"":255},{""stimulus"":""img/red_lw/6.jpg"",""time"":305},{""stimulus"":""img/red_lw/7.jpg"",""time"":357},{""stimulus"":""img/red_lw/8.jpg"",""time"":408},{""stimulus"":""img/red_lw/9.jpg"",""time"":459},{""stimulus"":""img/red_lw/10.jpg"",""time"":510},{""stimulus"":""img/red_lw/11.jpg"",""time"":560}]","[]"
"image-keyboard-response","28","90596","0.0-5.0-1.12","63bc9e8cd8106f8d94c636d4","bdp_lott","Sun Mar 26 2023 17:10:11 GMT-0400 (Eastern Daylight Time)","321786","red","green","","2133","","","","choice","","img/red_lw/choose11.jpg","1","213","green","0.5","0.5","0.5","w","",""
"animation","29","91206","0.0-5.0-2.12","63bc9e8cd8106f8d94c636d4","bdp_lott","Sun Mar 26 2023 17:10:11 GMT-0400 (Eastern Daylight Time)","321786","red","green","","","","","","","","","","213","","","","","","[{""stimulus"":""img/green_ww/1.jpg"",""time"":50},{""stimulus"":""img/green_ww/2.jpg"",""time"":100},{""stimulus"":""img/green_ww/3.jpg"",""time"":151},{""stimulus"":""img/green_ww/4.jpg"",""time"":201},{""stimulus"":""img/green_ww/5.jpg"",""time"":252},{""stimulus"":""img/green_ww/6.jpg"",""time"":303},{""stimulus"":""img/green_ww/7.jpg"",""time"":354},{""stimulus"":""img/green_ww/8.jpg"",""time"":405},{""stimulus"":""img/green_ww/9.jpg"",""time"":456},{""stimulus"":""img/green_ww/10.jpg"",""time"":507},{""stimulus"":""img/green_ww/11.jpg"",""time"":559}]","[]"
"image-keyboard-response","30","91393","0.0-5.0-1.13","63bc9e8cd8106f8d94c636d4","bdp_lott","Sun Mar 26 2023 17:10:11 GMT-0400 (Eastern Daylight Time)","321786","red","green","","186","","","","choice","","img/green_ww/choose11.jpg","1","212","green","0.5","0.5","0.5","l","",""
"animation","31","92002","0.0-5.0-2.13","63bc9e8cd8106f8d94c636d4","bdp_lott","Sun Mar 26 2023 17:10:11 GMT-0400 (Eastern Daylight Time)","321786","red","green","","","","","","","","","","212","","","","","","[{""stimulus"":""img/green_lw/1.jpg"",""time"":51},{""stimulus"":""img/green_lw/2.jpg"",""time"":102},{""stimulus"":""img/green_lw/3.jpg"",""time"":153},{""stimulus"":""img/green_lw/4.jpg"",""time"":203},{""stimulus"":""img/green_lw/5.jpg"",""time"":253},{""stimulus"":""img/green_lw/6.jpg"",""time"":303},{""stimulus"":""img/green_lw/7.jpg"",""time"":354},{""stimulus"":""img/green_lw/8.jpg"",""time"":406},{""stimulus"":""img/green_lw/9.jpg"",""time"":456},{""stimulus"":""img/green_lw/10.jpg"",""time"":507},{""stimulus"":""img/green_lw/11.jpg"",""time"":558}]","[]"
"image-keyboard-response","32","92475","0.0-5.0-1.14","63bc9e8cd8106f8d94c636d4","bdp_lott","Sun Mar 26 2023 17:10:11 GMT-0400 (Eastern Daylight Time)","321786","red","green","","472","","","","choice","","img/green_lw/choose11.jpg","1","211","green","0.5","0.5","0.5","l","",""
"animation","33","93087","0.0-5.0-2.14","63bc9e8cd8106f8d94c636d4","bdp_lott","Sun Mar 26 2023 17:10:11 GMT-0400 (Eastern Daylight Time)","321786","red","green","","","","","","","","","","211","","","","","","[{""stimulus"":""img/green_lw/1.jpg"",""time"":51},{""stimulus"":""img/green_lw/2.jpg"",""time"":102},{""stimulus"":""img/green_lw/3.jpg"",""time"":153},{""stimulus"":""img/green_lw/4.jpg"",""time"":204},{""stimulus"":""img/green_lw/5.jpg"",""time"":255},{""stimulus"":""img/green_lw/6.jpg"",""time"":306},{""stimulus"":""img/green_lw/7.jpg"",""time"":357},{""stimulus"":""img/green_lw/8.jpg"",""time"":408},{""stimulus"":""img/green_lw/9.jpg"",""time"":459},{""stimulus"":""img/green_lw/10.jpg"",""time"":510},{""stimulus"":""img/green_lw/11.jpg"",""time"":561}]","[]"
"image-keyboard-response","34","93702","0.0-5.0-1.15","63bc9e8cd8106f8d94c636d4","bdp_lott","Sun Mar 26 2023 17:10:11 GMT-0400 (Eastern Daylight Time)","321786","red","green","","614","","","","choice","","img/green_lw/choose11.jpg","2","210","red","0.5","0.5","0.5","l","",""
"animation","35","94314","0.0-5.0-2.15","63bc9e8cd8106f8d94c636d4","bdp_lott","Sun Mar 26 2023 17:10:11 GMT-0400 (Eastern Daylight Time)","321786","red","green","","","","","","","","","","210","","","","","","[{""stimulus"":""img/red_ll/1.jpg"",""time"":51},{""stimulus"":""img/red_ll/2.jpg"",""time"":102},{""stimulus"":""img/red_ll/3.jpg"",""time"":153},{""stimulus"":""img/red_ll/4.jpg"",""time"":204},{""stimulus"":""img/red_ll/5.jpg"",""time"":254},{""stimulus"":""img/red_ll/6.jpg"",""time"":305},{""stimulus"":""img/red_ll/7.jpg"",""time"":357},{""stimulus"":""img/red_ll/8.jpg"",""time"":408},{""stimulus"":""img/red_ll/9.jpg"",""time"":459},{""stimulus"":""img/red_ll/10.jpg"",""time"":510},{""stimulus"":""img/red_ll/11.jpg"",""time"":561}]","[]"
"image-keyboard-response","36","94659","0.0-5.0-1.16","63bc9e8cd8106f8d94c636d4","bdp_lott","Sun Mar 26 2023 17:10:11 GMT-0400 (Eastern Daylight Time)","321786","red","green","","344","","","","choice","","img/red_ll/choose11.jpg","2","209","red","0.5","0.5","0.5","l","",""
"animation","37","95271","0.0-5.0-2.16","63bc9e8cd8106f8d94c636d4","bdp_lott","Sun Mar 26 2023 17:10:11 GMT-0400 (Eastern Daylight Time)","321786","red","green","","","","","","","","","","209","","","","","","[{""stimulus"":""img/red_ll/1.jpg"",""time"":52},{""stimulus"":""img/red_ll/2.jpg"",""time"":103},{""stimulus"":""img/red_ll/3.jpg"",""time"":154},{""stimulus"":""img/red_ll/4.jpg"",""time"":204},{""stimulus"":""img/red_ll/5.jpg"",""time"":256},{""stimulus"":""img/red_ll/6.jpg"",""time"":306},{""stimulus"":""img/red_ll/7.jpg"",""time"":357},{""stimulus"":""img/red_ll/8.jpg"",""time"":408},{""stimulus"":""img/red_ll/9.jpg"",""time"":460},{""stimulus"":""img/red_ll/10.jpg"",""time"":510},{""stimulus"":""img/red_ll/11.jpg"",""time"":561}]","[]"
"image-keyboard-response","38","95511","0.0-5.0-1.17","63bc9e8cd8106f8d94c636d4","bdp_lott","Sun Mar 26 2023 17:10:11 GMT-0400 (Eastern Daylight Time)","321786","red","green","","240","","","","choice","","img/red_ll/choose11.jpg","2","208","red","0.5","0.5","0.5","w","",""
"animation","39","96124","0.0-5.0-2.17","63bc9e8cd8106f8d94c636d4","bdp_lott","Sun Mar 26 2023 17:10:11 GMT-0400 (Eastern Daylight Time)","321786","red","green","","","","","","","","","","208","","","","","","[{""stimulus"":""img/red_lw/1.jpg"",""time"":51},{""stimulus"":""img/red_lw/2.jpg"",""time"":102},{""stimulus"":""img/red_lw/3.jpg"",""time"":153},{""stimulus"":""img/red_lw/4.jpg"",""time"":205},{""stimulus"":""img/red_lw/5.jpg"",""time"":256},{""stimulus"":""img/red_lw/6.jpg"",""time"":306},{""stimulus"":""img/red_lw/7.jpg"",""time"":358},{""stimulus"":""img/red_lw/8.jpg"",""time"":409},{""stimulus"":""img/red_lw/9.jpg"",""time"":460},{""stimulus"":""img/red_lw/10.jpg"",""time"":511},{""stimulus"":""img/red_lw/11.jpg"",""time"":561}]","[]"
"image-keyboard-response","40","96707","0.0-5.0-1.18","63bc9e8cd8106f8d94c636d4","bdp_lott","Sun Mar 26 2023 17:10:11 GMT-0400 (Eastern Daylight Time)","321786","red","green","","582","","","","choice","","img/red_lw/choose11.jpg","1","207","green","0.5","0.5","0.5","l","",""
"animation","41","97318","0.0-5.0-2.18","63bc9e8cd8106f8d94c636d4","bdp_lott","Sun Mar 26 2023 17:10:11 GMT-0400 (Eastern Daylight Time)","321786","red","green","","","","","","","","","","207","","","","","","[{""stimulus"":""img/green_lw/1.jpg"",""time"":52},{""stimulus"":""img/green_lw/2.jpg"",""time"":102},{""stimulus"":""img/green_lw/3.jpg"",""time"":153},{""stimulus"":""img/green_lw/4.jpg"",""time"":204},{""stimulus"":""img/green_lw/5.jpg"",""time"":255},{""stimulus"":""img/green_lw/6.jpg"",""time"":305},{""stimulus"":""img/green_lw/7.jpg"",""time"":355},{""stimulus"":""img/green_lw/8.jpg"",""time"":407},{""stimulus"":""img/green_lw/9.jpg"",""time"":458},{""stimulus"":""img/green_lw/10.jpg"",""time"":509},{""stimulus"":""img/green_lw/11.jpg"",""time"":560}]","[]"
"image-keyboard-response","42","98078","0.0-5.0-1.19","63bc9e8cd8106f8d94c636d4","bdp_lott","Sun Mar 26 2023 17:10:11 GMT-0400 (Eastern Daylight Time)","321786","red","green","","759","","","","choice","","img/green_lw/choose11.jpg","1","206","green","0.5","0.5","0.5","w","",""
"animation","43","98688","0.0-5.0-2.19","63bc9e8cd8106f8d94c636d4","bdp_lott","Sun Mar 26 2023 17:10:11 GMT-0400 (Eastern Daylight Time)","321786","red","green","","","","","","","","","","206","","","","","","[{""stimulus"":""img/green_ww/1.jpg"",""time"":50},{""stimulus"":""img/green_ww/2.jpg"",""time"":101},{""stimulus"":""img/green_ww/3.jpg"",""time"":151},{""stimulus"":""img/green_ww/4.jpg"",""time"":203},{""stimulus"":""img/green_ww/5.jpg"",""time"":253},{""stimulus"":""img/green_ww/6.jpg"",""time"":304},{""stimulus"":""img/green_ww/7.jpg"",""time"":355},{""stimulus"":""img/green_ww/8.jpg"",""time"":406},{""stimulus"":""img/green_ww/9.jpg"",""time"":457},{""stimulus"":""img/green_ww/10.jpg"",""time"":508},{""stimulus"":""img/green_ww/11.jpg"",""time"":559}]","[]"
"image-keyboard-response","44","99066","0.0-5.0-1.20","63bc9e8cd8106f8d94c636d4","bdp_lott","Sun Mar 26 2023 17:10:11 GMT-0400 (Eastern Daylight Time)","321786","red","green","","375","","","","choice","","img/green_ww/choose11.jpg","1","205","green","0.5","0.5","0.5","l","",""
"animation","45","99676","0.0-5.0-2.20","63bc9e8cd8106f8d94c636d4","bdp_lott","Sun Mar 26 2023 17:10:11 GMT-0400 (Eastern Daylight Time)","321786","red","green","","","","","","","","","","205","","","","","","[{""stimulus"":""img/green_lw/1.jpg"",""time"":52},{""stimulus"":""img/green_lw/2.jpg"",""time"":103},{""stimulus"":""img/green_lw/3.jpg"",""time"":153},{""stimulus"":""img/green_lw/4.jpg"",""time"":203},{""stimulus"":""img/green_lw/5.jpg"",""time"":254},{""stimulus"":""img/green_lw/6.jpg"",""time"":305},{""stimulus"":""img/green_lw/7.jpg"",""time"":355},{""stimulus"":""img/green_lw/8.jpg"",""time"":406},{""stimulus"":""img/green_lw/9.jpg"",""time"":457},{""stimulus"":""img/green_lw/10.jpg"",""time"":508},{""stimulus"":""img/green_lw/11.jpg"",""time"":559}]","[]"
"image-keyboard-response","46","100184","0.0-5.0-1.21","63bc9e8cd8106f8d94c636d4","bdp_lott","Sun Mar 26 2023 17:10:11 GMT-0400 (Eastern Daylight Time)","321786","red","green","","507","","","","choice","","img/green_lw/choose11.jpg","1","204","green","0.5","0.5","0.5","l","",""
"animation","47","100794","0.0-5.0-2.21","63bc9e8cd8106f8d94c636d4","bdp_lott","Sun Mar 26 2023 17:10:11 GMT-0400 (Eastern Daylight Time)","321786","red","green","","","","","","","","","","204","","","","","","[{""stimulus"":""img/green_lw/1.jpg"",""time"":51},{""stimulus"":""img/green_lw/2.jpg"",""time"":102},{""stimulus"":""img/green_lw/3.jpg"",""time"":152},{""stimulus"":""img/green_lw/4.jpg"",""time"":203},{""stimulus"":""img/green_lw/5.jpg"",""time"":254},{""stimulus"":""img/green_lw/6.jpg"",""time"":305},{""stimulus"":""img/green_lw/7.jpg"",""time"":355},{""stimulus"":""img/green_lw/8.jpg"",""time"":406},{""stimulus"":""img/green_lw/9.jpg"",""time"":457},{""stimulus"":""img/green_lw/10.jpg"",""time"":508},{""stimulus"":""img/green_lw/11.jpg"",""time"":559}]","[]"
"image-keyboard-response","48","101280","0.0-5.0-1.22","63bc9e8cd8106f8d94c636d4","bdp_lott","Sun Mar 26 2023 17:10:11 GMT-0400 (Eastern Daylight Time)","321786","red","green","","485","","","","choice","","img/green_lw/choose11.jpg","1","203","green","0.5","0.5","0.5","w","",""
"animation","49","101888","0.0-5.0-2.22","63bc9e8cd8106f8d94c636d4","bdp_lott","Sun Mar 26 2023 17:10:11 GMT-0400 (Eastern Daylight Time)","321786","red","green","","","","","","","","","","203","","","","","","[{""stimulus"":""img/green_ww/1.jpg"",""time"":50},{""stimulus"":""img/green_ww/2.jpg"",""time"":100},{""stimulus"":""img/green_ww/3.jpg"",""time"":151},{""stimulus"":""img/green_ww/4.jpg"",""time"":201},{""stimulus"":""img/green_ww/5.jpg"",""time"":252},{""stimulus"":""img/green_ww/6.jpg"",""time"":303},{""stimulus"":""img/green_ww/7.jpg"",""time"":354},{""stimulus"":""img/green_ww/8.jpg"",""time"":405},{""stimulus"":""img/green_ww/9.jpg"",""time"":455},{""stimulus"":""img/green_ww/10.jpg"",""time"":506},{""stimulus"":""img/green_ww/11.jpg"",""time"":557}]","[]"
"image-keyboard-response","50","103730","0.0-5.0-1.23","63bc9e8cd8106f8d94c636d4","bdp_lott","Sun Mar 26 2023 17:10:11 GMT-0400 (Eastern Daylight Time)","321786","red","green","","1841","","","","choice","","img/green_ww/choose11.jpg","2","202","red","0.5","0.5","0.5","w","",""
"animation","51","104338","0.0-5.0-2.23","63bc9e8cd8106f8d94c636d4","bdp_lott","Sun Mar 26 2023 17:10:11 GMT-0400 (Eastern Daylight Time)","321786","red","green","","","","","","","","","","202","","","","","","[{""stimulus"":""img/red_ww/1.jpg"",""time"":50},{""stimulus"":""img/red_ww/2.jpg"",""time"":101},{""stimulus"":""img/red_ww/3.jpg"",""time"":152},{""stimulus"":""img/red_ww/4.jpg"",""time"":203},{""stimulus"":""img/red_ww/5.jpg"",""time"":254},{""stimulus"":""img/red_ww/6.jpg"",""time"":305},{""stimulus"":""img/red_ww/7.jpg"",""time"":356},{""stimulus"":""img/red_ww/8.jpg"",""time"":406},{""stimulus"":""img/red_ww/9.jpg"",""time"":456},{""stimulus"":""img/red_ww/10.jpg"",""time"":506},{""stimulus"":""img/red_ww/11.jpg"",""time"":557}]","[]"
"image-keyboard-response","52","104517","0.0-5.0-1.24","63bc9e8cd8106f8d94c636d4","bdp_lott","Sun Mar 26 2023 17:10:11 GMT-0400 (Eastern Daylight Time)","321786","red","green","","179","","","","choice","","img/red_ww/choose11.jpg","2","201","red","0.5","0.5","0.5","w","",""
"animation","53","105127","0.0-5.0-2.24","63bc9e8cd8106f8d94c636d4","bdp_lott","Sun Mar 26 2023 17:10:11 GMT-0400 (Eastern Daylight Time)","321786","red","green","","","","","","","","","","201","","","","","","[{""stimulus"":""img/red_ww/1.jpg"",""time"":51},{""stimulus"":""img/red_ww/2.jpg"",""time"":101},{""stimulus"":""img/red_ww/3.jpg"",""time"":151},{""stimulus"":""img/red_ww/4.jpg"",""time"":203},{""stimulus"":""img/red_ww/5.jpg"",""time"":253},{""stimulus"":""img/red_ww/6.jpg"",""time"":304},{""stimulus"":""img/red_ww/7.jpg"",""time"":354},{""stimulus"":""img/red_ww/8.jpg"",""time"":405},{""stimulus"":""img/red_ww/9.jpg"",""time"":456},{""stimulus"":""img/red_ww/10.jpg"",""time"":506},{""stimulus"":""img/red_ww/11.jpg"",""time"":557}]","[]"
"image-keyboard-response","54","105568","0.0-5.0-1.25","63bc9e8cd8106f8d94c636d4","bdp_lott","Sun Mar 26 2023 17:10:11 GMT-0400 (Eastern Daylight Time)","321786","red","green","","441","","","","choice","","img/red_ww/choose11.jpg","2","200","red","0.5","0.5","0.5","l","",""
"animation","55","106177","0.0-5.0-2.25","63bc9e8cd8106f8d94c636d4","bdp_lott","Sun Mar 26 2023 17:10:11 GMT-0400 (Eastern Daylight Time)","321786","red","green","","","","","","","","","","200","","","","","","[{""stimulus"":""img/red_wl/1.jpg"",""time"":51},{""stimulus"":""img/red_wl/2.jpg"",""time"":101},{""stimulus"":""img/red_wl/3.jpg"",""time"":152},{""stimulus"":""img/red_wl/4.jpg"",""time"":202},{""stimulus"":""img/red_wl/5.jpg"",""time"":253},{""stimulus"":""img/red_wl/6.jpg"",""time"":304},{""stimulus"":""img/red_wl/7.jpg"",""time"":354},{""stimulus"":""img/red_wl/8.jpg"",""time"":405},{""stimulus"":""img/red_wl/9.jpg"",""time"":456},{""stimulus"":""img/red_wl/10.jpg"",""time"":507},{""stimulus"":""img/red_wl/11.jpg"",""time"":558}]","[]"
"image-keyboard-response","56","106832","0.0-5.0-1.26","63bc9e8cd8106f8d94c636d4","bdp_lott","Sun Mar 26 2023 17:10:11 GMT-0400 (Eastern Daylight Time)","321786","red","green","","655","","","","choice","","img/red_wl/choose11.jpg","2","199","red","0.5","0.5","0.5","l","",""
"animation","57","107439","0.0-5.0-2.26","63bc9e8cd8106f8d94c636d4","bdp_lott","Sun Mar 26 2023 17:10:11 GMT-0400 (Eastern Daylight Time)","321786","red","green","","","","","","","","","","199","","","","","","[{""stimulus"":""img/red_wl/1.jpg"",""time"":52},{""stimulus"":""img/red_wl/2.jpg"",""time"":103},{""stimulus"":""img/red_wl/3.jpg"",""time"":153},{""stimulus"":""img/red_wl/4.jpg"",""time"":203},{""stimulus"":""img/red_wl/5.jpg"",""time"":255},{""stimulus"":""img/red_wl/6.jpg"",""time"":305},{""stimulus"":""img/red_wl/7.jpg"",""time"":355},{""stimulus"":""img/red_wl/8.jpg"",""time"":406},{""stimulus"":""img/red_wl/9.jpg"",""time"":456},{""stimulus"":""img/red_wl/10.jpg"",""time"":506},{""stimulus"":""img/red_wl/11.jpg"",""time"":557}]","[]"
"image-keyboard-response","58","107769","0.0-5.0-1.27","63bc9e8cd8106f8d94c636d4","bdp_lott","Sun Mar 26 2023 17:10:11 GMT-0400 (Eastern Daylight Time)","321786","red","green","","328","","","","choice","","img/red_wl/choose11.jpg","2","198","red","0.5","0.5","0.5","w","",""
"animation","59","108380","0.0-5.0-2.27","63bc9e8cd8106f8d94c636d4","bdp_lott","Sun Mar 26 2023 17:10:11 GMT-0400 (Eastern Daylight Time)","321786","red","green","","","","","","","","","","198","","","","","","[{""stimulus"":""img/red_ww/1.jpg"",""time"":51},{""stimulus"":""img/red_ww/2.jpg"",""time"":101},{""stimulus"":""img/red_ww/3.jpg"",""time"":152},{""stimulus"":""img/red_ww/4.jpg"",""time"":202},{""stimulus"":""img/red_ww/5.jpg"",""time"":253},{""stimulus"":""img/red_ww/6.jpg"",""time"":304},{""stimulus"":""img/red_ww/7.jpg"",""time"":355},{""stimulus"":""img/red_ww/8.jpg"",""time"":407},{""stimulus"":""img/red_ww/9.jpg"",""time"":458},{""stimulus"":""img/red_ww/10.jpg"",""time"":509},{""stimulus"":""img/red_ww/11.jpg"",""time"":560}]","[]"
"image-keyboard-response","60","108678","0.0-5.0-1.28","63bc9e8cd8106f8d94c636d4","bdp_lott","Sun Mar 26 2023 17:10:11 GMT-0400 (Eastern Daylight Time)","321786","red","green","","298","","","","choice","","img/red_ww/choose11.jpg","2","197","red","0.5","0.5","0.5","l","",""
"animation","61","109287","0.0-5.0-2.28","63bc9e8cd8106f8d94c636d4","bdp_lott","Sun Mar 26 2023 17:10:11 GMT-0400 (Eastern Daylight Time)","321786","red","green","","","","","","","","","","197","","","","","","[{""stimulus"":""img/red_wl/1.jpg"",""time"":51},{""stimulus"":""img/red_wl/2.jpg"",""time"":101},{""stimulus"":""img/red_wl/3.jpg"",""time"":151},{""stimulus"":""img/red_wl/4.jpg"",""time"":202},{""stimulus"":""img/red_wl/5.jpg"",""time"":253},{""stimulus"":""img/red_wl/6.jpg"",""time"":304},{""stimulus"":""img/red_wl/7.jpg"",""time"":355},{""stimulus"":""img/red_wl/8.jpg"",""time"":406},{""stimulus"":""img/red_wl/9.jpg"",""time"":457},{""stimulus"":""img/red_wl/10.jpg"",""time"":508},{""stimulus"":""img/red_wl/11.jpg"",""time"":558}]","[]"
"image-keyboard-response","62","109686","0.0-5.0-1.29","63bc9e8cd8106f8d94c636d4","bdp_lott","Sun Mar 26 2023 17:10:11 GMT-0400 (Eastern Daylight Time)","321786","red","green","","399","","","","choice","","img/red_wl/choose11.jpg","2","196","red","0.5","0.5","0.5","l","",""
"animation","63","110299","0.0-5.0-2.29","63bc9e8cd8106f8d94c636d4","bdp_lott","Sun Mar 26 2023 17:10:11 GMT-0400 (Eastern Daylight Time)","321786","red","green","","","","","","","","","","196","","","","","","[{""stimulus"":""img/red_wl/1.jpg"",""time"":51},{""stimulus"":""img/red_wl/2.jpg"",""time"":101},{""stimulus"":""img/red_wl/3.jpg"",""time"":151},{""stimulus"":""img/red_wl/4.jpg"",""time"":202},{""stimulus"":""img/red_wl/5.jpg"",""time"":252},{""stimulus"":""img/red_wl/6.jpg"",""time"":303},{""stimulus"":""img/red_wl/7.jpg"",""time"":353},{""stimulus"":""img/red_wl/8.jpg"",""time"":405},{""stimulus"":""img/red_wl/9.jpg"",""time"":455},{""stimulus"":""img/red_wl/10.jpg"",""time"":506},{""stimulus"":""img/red_wl/11.jpg"",""time"":558}]","[]"
"image-keyboard-response","64","110849","0.0-5.0-1.30","63bc9e8cd8106f8d94c636d4","bdp_lott","Sun Mar 26 2023 17:10:11 GMT-0400 (Eastern Daylight Time)","321786","red","green","","550","","","","choice","","img/red_wl/choose11.jpg","1","195","green","0.5","0.5","0.5","l","",""
"animation","65","111457","0.0-5.0-2.30","63bc9e8cd8106f8d94c636d4","bdp_lott","Sun Mar 26 2023 17:10:11 GMT-0400 (Eastern Daylight Time)","321786","red","green","","","","","","","","","","195","","","","","","[{""stimulus"":""img/green_ll/1.jpg"",""time"":51},{""stimulus"":""img/green_ll/2.jpg"",""time"":102},{""stimulus"":""img/green_ll/3.jpg"",""time"":152},{""stimulus"":""img/green_ll/4.jpg"",""time"":203},{""stimulus"":""img/green_ll/5.jpg"",""time"":254},{""stimulus"":""img/green_ll/6.jpg"",""time"":305},{""stimulus"":""img/green_ll/7.jpg"",""time"":355},{""stimulus"":""img/green_ll/8.jpg"",""time"":406},{""stimulus"":""img/green_ll/9.jpg"",""time"":456},{""stimulus"":""img/green_ll/10.jpg"",""time"":507},{""stimulus"":""img/green_ll/11.jpg"",""time"":557}]","[]"
"image-keyboard-response","66","111775","0.0-5.0-1.31","63bc9e8cd8106f8d94c636d4","bdp_lott","Sun Mar 26 2023 17:10:11 GMT-0400 (Eastern Daylight Time)","321786","red","green","","317","","","","choice","","img/green_ll/choose11.jpg","1","194","green","0.5","0.5","0.5","l","",""
"animation","67","112387","0.0-5.0-2.31","63bc9e8cd8106f8d94c636d4","bdp_lott","Sun Mar 26 2023 17:10:11 GMT-0400 (Eastern Daylight Time)","321786","red","green","","","","","","","","","","194","","","","","","[{""stimulus"":""img/green_ll/1.jpg"",""time"":51},{""stimulus"":""img/green_ll/2.jpg"",""time"":102},{""stimulus"":""img/green_ll/3.jpg"",""time"":152},{""stimulus"":""img/green_ll/4.jpg"",""time"":202},{""stimulus"":""img/green_ll/5.jpg"",""time"":252},{""stimulus"":""img/green_ll/6.jpg"",""time"":304},{""stimulus"":""img/green_ll/7.jpg"",""time"":355},{""stimulus"":""img/green_ll/8.jpg"",""time"":406},{""stimulus"":""img/green_ll/9.jpg"",""time"":457},{""stimulus"":""img/green_ll/10.jpg"",""time"":508},{""stimulus"":""img/green_ll/11.jpg"",""time"":559}]","[]"
"image-keyboard-response","68","112611","0.0-5.0-1.32","63bc9e8cd8106f8d94c636d4","bdp_lott","Sun Mar 26 2023 17:10:11 GMT-0400 (Eastern Daylight Time)","321786","red","green","","224","","","","choice","","img/green_ll/choose11.jpg","1","193","green","0.5","0.5","0.5","l","",""
"animation","69","113218","0.0-5.0-2.32","63bc9e8cd8106f8d94c636d4","bdp_lott","Sun Mar 26 2023 17:10:11 GMT-0400 (Eastern Daylight Time)","321786","red","green","","","","","","","","","","193","","","","","","[{""stimulus"":""img/green_ll/1.jpg"",""time"":50},{""stimulus"":""img/green_ll/2.jpg"",""time"":100},{""stimulus"":""img/green_ll/3.jpg"",""time"":151},{""stimulus"":""img/green_ll/4.jpg"",""time"":202},{""stimulus"":""img/green_ll/5.jpg"",""time"":252},{""stimulus"":""img/green_ll/6.jpg"",""time"":302},{""stimulus"":""img/green_ll/7.jpg"",""time"":353},{""stimulus"":""img/green_ll/8.jpg"",""time"":404},{""stimulus"":""img/green_ll/9.jpg"",""time"":454},{""stimulus"":""img/green_ll/10.jpg"",""time"":505},{""stimulus"":""img/green_ll/11.jpg"",""time"":556}]","[]"
"image-keyboard-response","70","113631","0.0-5.0-1.33","63bc9e8cd8106f8d94c636d4","bdp_lott","Sun Mar 26 2023 17:10:11 GMT-0400 (Eastern Daylight Time)","321786","red","green","","413","","","","choice","","img/green_ll/choose11.jpg","2","192","red","0.5","0.5","0.5","w","",""
"animation","71","114240","0.0-5.0-2.33","63bc9e8cd8106f8d94c636d4","bdp_lott","Sun Mar 26 2023 17:10:11 GMT-0400 (Eastern Daylight Time)","321786","red","green","","","","","","","","","","192","","","","","","[{""stimulus"":""img/red_lw/1.jpg"",""time"":51},{""stimulus"":""img/red_lw/2.jpg"",""time"":102},{""stimulus"":""img/red_lw/3.jpg"",""time"":153},{""stimulus"":""img/red_lw/4.jpg"",""time"":204},{""stimulus"":""img/red_lw/5.jpg"",""time"":254},{""stimulus"":""img/red_lw/6.jpg"",""time"":304},{""stimulus"":""img/red_lw/7.jpg"",""time"":356},{""stimulus"":""img/red_lw/8.jpg"",""time"":406},{""stimulus"":""img/red_lw/9.jpg"",""time"":456},{""stimulus"":""img/red_lw/10.jpg"",""time"":507},{""stimulus"":""img/red_lw/11.jpg"",""time"":559}]","[]"
"image-keyboard-response","72","114433","0.0-5.0-1.34","63bc9e8cd8106f8d94c636d4","bdp_lott","Sun Mar 26 2023 17:10:11 GMT-0400 (Eastern Daylight Time)","321786","red","green","","192","","","","choice","","img/red_lw/choose11.jpg","2","191","red","0.5","0.5","0.5","w","",""
"animation","73","115042","0.0-5.0-2.34","63bc9e8cd8106f8d94c636d4","bdp_lott","Sun Mar 26 2023 17:10:11 GMT-0400 (Eastern Daylight Time)","321786","red","green","","","","","","","","","","191","","","","","","[{""stimulus"":""img/red_lw/1.jpg"",""time"":51},{""stimulus"":""img/red_lw/2.jpg"",""time"":101},{""stimulus"":""img/red_lw/3.jpg"",""time"":152},{""stimulus"":""img/red_lw/4.jpg"",""time"":202},{""stimulus"":""img/red_lw/5.jpg"",""time"":253},{""stimulus"":""img/red_lw/6.jpg"",""time"":304},{""stimulus"":""img/red_lw/7.jpg"",""time"":355},{""stimulus"":""img/red_lw/8.jpg"",""time"":406},{""stimulus"":""img/red_lw/9.jpg"",""time"":457},{""stimulus"":""img/red_lw/10.jpg"",""time"":507},{""stimulus"":""img/red_lw/11.jpg"",""time"":558}]","[]"
"image-keyboard-response","74","115547","0.0-5.0-1.35","63bc9e8cd8106f8d94c636d4","bdp_lott","Sun Mar 26 2023 17:10:11 GMT-0400 (Eastern Daylight Time)","321786","red","green","","503","","","","choice","","img/red_lw/choose11.jpg","2","190","red","0.5","0.5","0.5","l","",""
"animation","75","116156","0.0-5.0-2.35","63bc9e8cd8106f8d94c636d4","bdp_lott","Sun Mar 26 2023 17:10:11 GMT-0400 (Eastern Daylight Time)","321786","red","green","","","","","","","","","","190","","","","","","[{""stimulus"":""img/red_ll/1.jpg"",""time"":51},{""stimulus"":""img/red_ll/2.jpg"",""time"":102},{""stimulus"":""img/red_ll/3.jpg"",""time"":154},{""stimulus"":""img/red_ll/4.jpg"",""time"":205},{""stimulus"":""img/red_ll/5.jpg"",""time"":256},{""stimulus"":""img/red_ll/6.jpg"",""time"":307},{""stimulus"":""img/red_ll/7.jpg"",""time"":357},{""stimulus"":""img/red_ll/8.jpg"",""time"":408},{""stimulus"":""img/red_ll/9.jpg"",""time"":459},{""stimulus"":""img/red_ll/10.jpg"",""time"":509},{""stimulus"":""img/red_ll/11.jpg"",""time"":559}]","[]"
"image-keyboard-response","76","116682","0.0-5.0-1.36","63bc9e8cd8106f8d94c636d4","bdp_lott","Sun Mar 26 2023 17:10:11 GMT-0400 (Eastern Daylight Time)","321786","red","green","","525","","","","choice","","img/red_ll/choose11.jpg","1","189","green","0.5","0.5","0.5","w","",""
"animation","77","117292","0.0-5.0-2.36","63bc9e8cd8106f8d94c636d4","bdp_lott","Sun Mar 26 2023 17:10:11 GMT-0400 (Eastern Daylight Time)","321786","red","green","","","","","","","","","","189","","","","","","[{""stimulus"":""img/green_wl/1.jpg"",""time"":51},{""stimulus"":""img/green_wl/2.jpg"",""time"":103},{""stimulus"":""img/green_wl/3.jpg"",""time"":154},{""stimulus"":""img/green_wl/4.jpg"",""time"":205},{""stimulus"":""img/green_wl/5.jpg"",""time"":256},{""stimulus"":""img/green_wl/6.jpg"",""time"":307},{""stimulus"":""img/green_wl/7.jpg"",""time"":357},{""stimulus"":""img/green_wl/8.jpg"",""time"":408},{""stimulus"":""img/green_wl/9.jpg"",""time"":458},{""stimulus"":""img/green_wl/10.jpg"",""time"":509},{""stimulus"":""img/green_wl/11.jpg"",""time"":560}]","[]"
"image-keyboard-response","78","117605","0.0-5.0-1.37","63bc9e8cd8106f8d94c636d4","bdp_lott","Sun Mar 26 2023 17:10:11 GMT-0400 (Eastern Daylight Time)","321786","red","green","","312","","","","choice","","img/green_wl/choose11.jpg","1","188","green","0.5","0.5","0.5","w","",""
"animation","79","118213","0.0-5.0-2.37","63bc9e8cd8106f8d94c636d4","bdp_lott","Sun Mar 26 2023 17:10:11 GMT-0400 (Eastern Daylight Time)","321786","red","green","","","","","","","","","","188","","","","","","[{""stimulus"":""img/green_wl/1.jpg"",""time"":51},{""stimulus"":""img/green_wl/2.jpg"",""time"":102},{""stimulus"":""img/green_wl/3.jpg"",""time"":153},{""stimulus"":""img/green_wl/4.jpg"",""time"":204},{""stimulus"":""img/green_wl/5.jpg"",""time"":254},{""stimulus"":""img/green_wl/6.jpg"",""time"":305},{""stimulus"":""img/green_wl/7.jpg"",""time"":355},{""stimulus"":""img/green_wl/8.jpg"",""time"":406},{""stimulus"":""img/green_wl/9.jpg"",""time"":456},{""stimulus"":""img/green_wl/10.jpg"",""time"":507},{""stimulus"":""img/green_wl/11.jpg"",""time"":558}]","[]"
"image-keyboard-response","80","119188","0.0-5.0-1.38","63bc9e8cd8106f8d94c636d4","bdp_lott","Sun Mar 26 2023 17:10:11 GMT-0400 (Eastern Daylight Time)","321786","red","green","","975","","","","choice","","img/green_wl/choose11.jpg","2","187","red","0.5","0.5","0.5","l","",""
"animation","81","119800","0.0-5.0-2.38","63bc9e8cd8106f8d94c636d4","bdp_lott","Sun Mar 26 2023 17:10:11 GMT-0400 (Eastern Daylight Time)","321786","red","green","","","","","","","","","","187","","","","","","[{""stimulus"":""img/red_wl/1.jpg"",""time"":51},{""stimulus"":""img/red_wl/2.jpg"",""time"":102},{""stimulus"":""img/red_wl/3.jpg"",""time"":155},{""stimulus"":""img/red_wl/4.jpg"",""time"":205},{""stimulus"":""img/red_wl/5.jpg"",""time"":257},{""stimulus"":""img/red_wl/6.jpg"",""time"":307},{""stimulus"":""img/red_wl/7.jpg"",""time"":358},{""stimulus"":""img/red_wl/8.jpg"",""time"":408},{""stimulus"":""img/red_wl/9.jpg"",""time"":460},{""stimulus"":""img/red_wl/10.jpg"",""time"":511},{""stimulus"":""img/red_wl/11.jpg"",""time"":561}]","[]"
"image-keyboard-response","82","120146","0.0-5.0-1.39","63bc9e8cd8106f8d94c636d4","bdp_lott","Sun Mar 26 2023 17:10:11 GMT-0400 (Eastern Daylight Time)","321786","red","green","","346","","","","choice","","img/red_wl/choose11.jpg","2","186","red","0.5","0.5","0.5","w","",""
"animation","83","120761","0.0-5.0-2.39","63bc9e8cd8106f8d94c636d4","bdp_lott","Sun Mar 26 2023 17:10:11 GMT-0400 (Eastern Daylight Time)","321786","red","green","","","","","","","","","","186","","","","","","[{""stimulus"":""img/red_ww/1.jpg"",""time"":51},{""stimulus"":""img/red_ww/2.jpg"",""time"":102},{""stimulus"":""img/red_ww/3.jpg"",""time"":157},{""stimulus"":""img/red_ww/4.jpg"",""time"":208},{""stimulus"":""img/red_ww/5.jpg"",""time"":259},{""stimulus"":""img/red_ww/6.jpg"",""time"":309},{""stimulus"":""img/red_ww/7.jpg"",""time"":359},{""stimulus"":""img/red_ww/8.jpg"",""time"":411},{""stimulus"":""img/red_ww/9.jpg"",""time"":461},{""stimulus"":""img/red_ww/10.jpg"",""time"":512},{""stimulus"":""img/red_ww/11.jpg"",""time"":563}]","[]"
"image-keyboard-response","84","121549","0.0-5.0-1.40","63bc9e8cd8106f8d94c636d4","bdp_lott","Sun Mar 26 2023 17:10:11 GMT-0400 (Eastern Daylight Time)","321786","red","green","","787","","","","choice","","img/red_ww/choose11.jpg","2","185","red","0.5","0.5","0.5","l","",""
"animation","85","122158","0.0-5.0-2.40","63bc9e8cd8106f8d94c636d4","bdp_lott","Sun Mar 26 2023 17:10:11 GMT-0400 (Eastern Daylight Time)","321786","red","green","","","","","","","","","","185","","","","","","[{""stimulus"":""img/red_wl/1.jpg"",""time"":50},{""stimulus"":""img/red_wl/2.jpg"",""time"":100},{""stimulus"":""img/red_wl/3.jpg"",""time"":152},{""stimulus"":""img/red_wl/4.jpg"",""time"":203},{""stimulus"":""img/red_wl/5.jpg"",""time"":254},{""stimulus"":""img/red_wl/6.jpg"",""time"":305},{""stimulus"":""img/red_wl/7.jpg"",""time"":356},{""stimulus"":""img/red_wl/8.jpg"",""time"":406},{""stimulus"":""img/red_wl/9.jpg"",""time"":456},{""stimulus"":""img/red_wl/10.jpg"",""time"":507},{""stimulus"":""img/red_wl/11.jpg"",""time"":558}]","[]"
"image-keyboard-response","86","122574","0.0-5.0-1.41","63bc9e8cd8106f8d94c636d4","bdp_lott","Sun Mar 26 2023 17:10:11 GMT-0400 (Eastern Daylight Time)","321786","red","green","","416","","","","choice","","img/red_wl/choose11.jpg","1","184","green","0.5","0.5","0.5","w","",""
"animation","87","123182","0.0-5.0-2.41","63bc9e8cd8106f8d94c636d4","bdp_lott","Sun Mar 26 2023 17:10:11 GMT-0400 (Eastern Daylight Time)","321786","red","green","","","","","","","","","","184","","","","","","[{""stimulus"":""img/green_wl/1.jpg"",""time"":51},{""stimulus"":""img/green_wl/2.jpg"",""time"":102},{""stimulus"":""img/green_wl/3.jpg"",""time"":153},{""stimulus"":""img/green_wl/4.jpg"",""time"":204},{""stimulus"":""img/green_wl/5.jpg"",""time"":254},{""stimulus"":""img/green_wl/6.jpg"",""time"":304},{""stimulus"":""img/green_wl/7.jpg"",""time"":355},{""stimulus"":""img/green_wl/8.jpg"",""time"":405},{""stimulus"":""img/green_wl/9.jpg"",""time"":456},{""stimulus"":""img/green_wl/10.jpg"",""time"":506},{""stimulus"":""img/green_wl/11.jpg"",""time"":557}]","[]"
"image-keyboard-response","88","123482","0.0-5.0-1.42","63bc9e8cd8106f8d94c636d4","bdp_lott","Sun Mar 26 2023 17:10:11 GMT-0400 (Eastern Daylight Time)","321786","red","green","","300","","","","choice","","img/green_wl/choose11.jpg","1","183","green","0.5","0.5","0.5","l","",""
"animation","89","124092","0.0-5.0-2.42","63bc9e8cd8106f8d94c636d4","bdp_lott","Sun Mar 26 2023 17:10:11 GMT-0400 (Eastern Daylight Time)","321786","red","green","","","","","","","","","","183","","","","","","[{""stimulus"":""img/green_ll/1.jpg"",""time"":51},{""stimulus"":""img/green_ll/2.jpg"",""time"":102},{""stimulus"":""img/green_ll/3.jpg"",""time"":152},{""stimulus"":""img/green_ll/4.jpg"",""time"":203},{""stimulus"":""img/green_ll/5.jpg"",""time"":254},{""stimulus"":""img/green_ll/6.jpg"",""time"":305},{""stimulus"":""img/green_ll/7.jpg"",""time"":356},{""stimulus"":""img/green_ll/8.jpg"",""time"":406},{""stimulus"":""img/green_ll/9.jpg"",""time"":456},{""stimulus"":""img/green_ll/10.jpg"",""time"":508},{""stimulus"":""img/green_ll/11.jpg"",""time"":559}]","[]"
"image-keyboard-response","90","124510","0.0-5.0-1.43","63bc9e8cd8106f8d94c636d4","bdp_lott","Sun Mar 26 2023 17:10:11 GMT-0400 (Eastern Daylight Time)","321786","red","green","","418","","","","choice","","img/green_ll/choose11.jpg","1","182","green","0.5","0.5","0.5","w","",""
"animation","91","125123","0.0-5.0-2.43","63bc9e8cd8106f8d94c636d4","bdp_lott","Sun Mar 26 2023 17:10:11 GMT-0400 (Eastern Daylight Time)","321786","red","green","","","","","","","","","","182","","","","","","[{""stimulus"":""img/green_wl/1.jpg"",""time"":51},{""stimulus"":""img/green_wl/2.jpg"",""time"":102},{""stimulus"":""img/green_wl/3.jpg"",""time"":153},{""stimulus"":""img/green_wl/4.jpg"",""time"":204},{""stimulus"":""img/green_wl/5.jpg"",""time"":255},{""stimulus"":""img/green_wl/6.jpg"",""time"":306},{""stimulus"":""img/green_wl/7.jpg"",""time"":357},{""stimulus"":""img/green_wl/8.jpg"",""time"":407},{""stimulus"":""img/green_wl/9.jpg"",""time"":459},{""stimulus"":""img/green_wl/10.jpg"",""time"":510},{""stimulus"":""img/green_wl/11.jpg"",""time"":561}]","[]"
"image-keyboard-response","92","126372","0.0-5.0-1.44","63bc9e8cd8106f8d94c636d4","bdp_lott","Sun Mar 26 2023 17:10:11 GMT-0400 (Eastern Daylight Time)","321786","red","green","","1249","","","","choice","","img/green_wl/choose11.jpg","2","181","red","0.5","0.5","0.5","l","",""
"animation","93","126978","0.0-5.0-2.44","63bc9e8cd8106f8d94c636d4","bdp_lott","Sun Mar 26 2023 17:10:11 GMT-0400 (Eastern Daylight Time)","321786","red","green","","","","","","","","","","181","","","","","","[{""stimulus"":""img/red_wl/1.jpg"",""time"":50},{""stimulus"":""img/red_wl/2.jpg"",""time"":101},{""stimulus"":""img/red_wl/3.jpg"",""time"":151},{""stimulus"":""img/red_wl/4.jpg"",""time"":202},{""stimulus"":""img/red_wl/5.jpg"",""time"":253},{""stimulus"":""img/red_wl/6.jpg"",""time"":303},{""stimulus"":""img/red_wl/7.jpg"",""time"":354},{""stimulus"":""img/red_wl/8.jpg"",""time"":405},{""stimulus"":""img/red_wl/9.jpg"",""time"":456},{""stimulus"":""img/red_wl/10.jpg"",""time"":506},{""stimulus"":""img/red_wl/11.jpg"",""time"":556}]","[]"
"image-keyboard-response","94","127203","0.0-5.0-1.45","63bc9e8cd8106f8d94c636d4","bdp_lott","Sun Mar 26 2023 17:10:11 GMT-0400 (Eastern Daylight Time)","321786","red","green","","224","","","","choice","","img/red_wl/choose11.jpg","2","180","red","0.5","0.5","0.5","w","",""
"animation","95","127812","0.0-5.0-2.45","63bc9e8cd8106f8d94c636d4","bdp_lott","Sun Mar 26 2023 17:10:11 GMT-0400 (Eastern Daylight Time)","321786","red","green","","","","","","","","","","180","","","","","","[{""stimulus"":""img/red_ww/1.jpg"",""time"":51},{""stimulus"":""img/red_ww/2.jpg"",""time"":101},{""stimulus"":""img/red_ww/3.jpg"",""time"":151},{""stimulus"":""img/red_ww/4.jpg"",""time"":202},{""stimulus"":""img/red_ww/5.jpg"",""time"":253},{""stimulus"":""img/red_ww/6.jpg"",""time"":303},{""stimulus"":""img/red_ww/7.jpg"",""time"":354},{""stimulus"":""img/red_ww/8.jpg"",""time"":405},{""stimulus"":""img/red_ww/9.jpg"",""time"":457},{""stimulus"":""img/red_ww/10.jpg"",""time"":507},{""stimulus"":""img/red_ww/11.jpg"",""time"":557}]","[]"
"image-keyboard-response","96","128091","0.0-5.0-1.46","63bc9e8cd8106f8d94c636d4","bdp_lott","Sun Mar 26 2023 17:10:11 GMT-0400 (Eastern Daylight Time)","321786","red","green","","279","","","","choice","","img/red_ww/choose11.jpg","2","179","red","0.5","0.5","0.5","l","",""
"animation","97","128698","0.0-5.0-2.46","63bc9e8cd8106f8d94c636d4","bdp_lott","Sun Mar 26 2023 17:10:11 GMT-0400 (Eastern Daylight Time)","321786","red","green","","","","","","","","","","179","","","","","","[{""stimulus"":""img/red_wl/1.jpg"",""time"":51},{""stimulus"":""img/red_wl/2.jpg"",""time"":102},{""stimulus"":""img/red_wl/3.jpg"",""time"":152},{""stimulus"":""img/red_wl/4.jpg"",""time"":202},{""stimulus"":""img/red_wl/5.jpg"",""time"":253},{""stimulus"":""img/red_wl/6.jpg"",""time"":303},{""stimulus"":""img/red_wl/7.jpg"",""time"":354},{""stimulus"":""img/red_wl/8.jpg"",""time"":405},{""stimulus"":""img/red_wl/9.jpg"",""time"":456},{""stimulus"":""img/red_wl/10.jpg"",""time"":506},{""stimulus"":""img/red_wl/11.jpg"",""time"":556}]","[]"
"image-keyboard-response","98","129159","0.0-5.0-1.47","63bc9e8cd8106f8d94c636d4","bdp_lott","Sun Mar 26 2023 17:10:11 GMT-0400 (Eastern Daylight Time)","321786","red","green","","461","","","","choice","","img/red_wl/choose11.jpg","2","178","red","0.5","0.5","0.5","l","",""
"animation","99","129768","0.0-5.0-2.47","63bc9e8cd8106f8d94c636d4","bdp_lott","Sun Mar 26 2023 17:10:11 GMT-0400 (Eastern Daylight Time)","321786","red","green","","","","","","","","","","178","","","","","","[{""stimulus"":""img/red_wl/1.jpg"",""time"":51},{""stimulus"":""img/red_wl/2.jpg"",""time"":101},{""stimulus"":""img/red_wl/3.jpg"",""time"":151},{""stimulus"":""img/red_wl/4.jpg"",""time"":202},{""stimulus"":""img/red_wl/5.jpg"",""time"":254},{""stimulus"":""img/red_wl/6.jpg"",""time"":304},{""stimulus"":""img/red_wl/7.jpg"",""time"":355},{""stimulus"":""img/red_wl/8.jpg"",""time"":405},{""stimulus"":""img/red_wl/9.jpg"",""time"":455},{""stimulus"":""img/red_wl/10.jpg"",""time"":505},{""stimulus"":""img/red_wl/11.jpg"",""time"":557}]","[]"
"image-keyboard-response","100","130199","0.0-5.0-1.48","63bc9e8cd8106f8d94c636d4","bdp_lott","Sun Mar 26 2023 17:10:11 GMT-0400 (Eastern Daylight Time)","321786","red","green","","431","","","","choice","","img/red_wl/choose11.jpg","2","177","red","0.5","0.5","0.5","l","",""
"animation","101","130812","0.0-5.0-2.48","63bc9e8cd8106f8d94c636d4","bdp_lott","Sun Mar 26 2023 17:10:11 GMT-0400 (Eastern Daylight Time)","321786","red","green","","","","","","","","","","177","","","","","","[{""stimulus"":""img/red_wl/1.jpg"",""time"":52},{""stimulus"":""img/red_wl/2.jpg"",""time"":103},{""stimulus"":""img/red_wl/3.jpg"",""time"":154},{""stimulus"":""img/red_wl/4.jpg"",""time"":205},{""stimulus"":""img/red_wl/5.jpg"",""time"":256},{""stimulus"":""img/red_wl/6.jpg"",""time"":307},{""stimulus"":""img/red_wl/7.jpg"",""time"":357},{""stimulus"":""img/red_wl/8.jpg"",""time"":409},{""stimulus"":""img/red_wl/9.jpg"",""time"":460},{""stimulus"":""img/red_wl/10.jpg"",""time"":511},{""stimulus"":""img/red_wl/11.jpg"",""time"":562}]","[]"
"image-keyboard-response","102","131158","0.0-5.0-1.49","63bc9e8cd8106f8d94c636d4","bdp_lott","Sun Mar 26 2023 17:10:11 GMT-0400 (Eastern Daylight Time)","321786","red","green","","346","","","","choice","","img/red_wl/choose11.jpg","2","176","red","0.5","0.5","0.5","l","",""
"animation","103","131766","0.0-5.0-2.49","63bc9e8cd8106f8d94c636d4","bdp_lott","Sun Mar 26 2023 17:10:11 GMT-0400 (Eastern Daylight Time)","321786","red","green","","","","","","","","","","176","","","","","","[{""stimulus"":""img/red_wl/1.jpg"",""time"":51},{""stimulus"":""img/red_wl/2.jpg"",""time"":102},{""stimulus"":""img/red_wl/3.jpg"",""time"":153},{""stimulus"":""img/red_wl/4.jpg"",""time"":203},{""stimulus"":""img/red_wl/5.jpg"",""time"":253},{""stimulus"":""img/red_wl/6.jpg"",""time"":304},{""stimulus"":""img/red_wl/7.jpg"",""time"":355},{""stimulus"":""img/red_wl/8.jpg"",""time"":406},{""stimulus"":""img/red_wl/9.jpg"",""time"":457},{""stimulus"":""img/red_wl/10.jpg"",""time"":508},{""stimulus"":""img/red_wl/11.jpg"",""time"":558}]","[]"
"image-keyboard-response","104","132143","0.0-5.0-1.50","63bc9e8cd8106f8d94c636d4","bdp_lott","Sun Mar 26 2023 17:10:11 GMT-0400 (Eastern Daylight Time)","321786","red","green","","377","","","","choice","","img/red_wl/choose11.jpg","2","175","red","0.5","0.5","0.5","w","",""
"animation","105","132753","0.0-5.0-2.50","63bc9e8cd8106f8d94c636d4","bdp_lott","Sun Mar 26 2023 17:10:11 GMT-0400 (Eastern Daylight Time)","321786","red","green","","","","","","","","","","175","","","","","","[{""stimulus"":""img/red_ww/1.jpg"",""time"":51},{""stimulus"":""img/red_ww/2.jpg"",""time"":101},{""stimulus"":""img/red_ww/3.jpg"",""time"":151},{""stimulus"":""img/red_ww/4.jpg"",""time"":202},{""stimulus"":""img/red_ww/5.jpg"",""time"":253},{""stimulus"":""img/red_ww/6.jpg"",""time"":304},{""stimulus"":""img/red_ww/7.jpg"",""time"":354},{""stimulus"":""img/red_ww/8.jpg"",""time"":405},{""stimulus"":""img/red_ww/9.jpg"",""time"":456},{""stimulus"":""img/red_ww/10.jpg"",""time"":507},{""stimulus"":""img/red_ww/11.jpg"",""time"":558}]","[]"
"image-keyboard-response","106","133064","0.0-5.0-1.51","63bc9e8cd8106f8d94c636d4","bdp_lott","Sun Mar 26 2023 17:10:11 GMT-0400 (Eastern Daylight Time)","321786","red","green","","309","","","","choice","","img/red_ww/choose11.jpg","1","174","green","0.5","0.5","0.5","l","",""
"animation","107","133673","0.0-5.0-2.51","63bc9e8cd8106f8d94c636d4","bdp_lott","Sun Mar 26 2023 17:10:11 GMT-0400 (Eastern Daylight Time)","321786","red","green","","","","","","","","","","174","","","","","","[{""stimulus"":""img/green_lw/1.jpg"",""time"":51},{""stimulus"":""img/green_lw/2.jpg"",""time"":102},{""stimulus"":""img/green_lw/3.jpg"",""time"":152},{""stimulus"":""img/green_lw/4.jpg"",""time"":203},{""stimulus"":""img/green_lw/5.jpg"",""time"":254},{""stimulus"":""img/green_lw/6.jpg"",""time"":306},{""stimulus"":""img/green_lw/7.jpg"",""time"":356},{""stimulus"":""img/green_lw/8.jpg"",""time"":406},{""stimulus"":""img/green_lw/9.jpg"",""time"":457},{""stimulus"":""img/green_lw/10.jpg"",""time"":507},{""stimulus"":""img/green_lw/11.jpg"",""time"":558}]","[]"
"image-keyboard-response","108","134079","0.0-5.0-1.52","63bc9e8cd8106f8d94c636d4","bdp_lott","Sun Mar 26 2023 17:10:11 GMT-0400 (Eastern Daylight Time)","321786","red","green","","405","","","","choice","","img/green_lw/choose11.jpg","1","173","green","0.5","0.5","0.5","w","",""
"animation","109","134691","0.0-5.0-2.52","63bc9e8cd8106f8d94c636d4","bdp_lott","Sun Mar 26 2023 17:10:11 GMT-0400 (Eastern Daylight Time)","321786","red","green","","","","","","","","","","173","","","","","","[{""stimulus"":""img/green_ww/1.jpg"",""time"":52},{""stimulus"":""img/green_ww/2.jpg"",""time"":103},{""stimulus"":""img/green_ww/3.jpg"",""time"":154},{""stimulus"":""img/green_ww/4.jpg"",""time"":205},{""stimulus"":""img/green_ww/5.jpg"",""time"":256},{""stimulus"":""img/green_ww/6.jpg"",""time"":307},{""stimulus"":""img/green_ww/7.jpg"",""time"":357},{""stimulus"":""img/green_ww/8.jpg"",""time"":408},{""stimulus"":""img/green_ww/9.jpg"",""time"":459},{""stimulus"":""img/green_ww/10.jpg"",""time"":509},{""stimulus"":""img/green_ww/11.jpg"",""time"":561}]","[]"
"image-keyboard-response","110","135421","0.0-5.0-1.53","63bc9e8cd8106f8d94c636d4","bdp_lott","Sun Mar 26 2023 17:10:11 GMT-0400 (Eastern Daylight Time)","321786","red","green","","730","","","","choice","","img/green_ww/choose11.jpg","2","172","red","0.5","0.5","0.5","l","",""
"animation","111","136033","0.0-5.0-2.53","63bc9e8cd8106f8d94c636d4","bdp_lott","Sun Mar 26 2023 17:10:11 GMT-0400 (Eastern Daylight Time)","321786","red","green","","","","","","","","","","172","","","","","","[{""stimulus"":""img/red_wl/1.jpg"",""time"":51},{""stimulus"":""img/red_wl/2.jpg"",""time"":101},{""stimulus"":""img/red_wl/3.jpg"",""time"":152},{""stimulus"":""img/red_wl/4.jpg"",""time"":203},{""stimulus"":""img/red_wl/5.jpg"",""time"":254},{""stimulus"":""img/red_wl/6.jpg"",""time"":305},{""stimulus"":""img/red_wl/7.jpg"",""time"":356},{""stimulus"":""img/red_wl/8.jpg"",""time"":407},{""stimulus"":""img/red_wl/9.jpg"",""time"":458},{""stimulus"":""img/red_wl/10.jpg"",""time"":509},{""stimulus"":""img/red_wl/11.jpg"",""time"":560}]","[]"
"image-keyboard-response","112","136460","0.0-5.0-1.54","63bc9e8cd8106f8d94c636d4","bdp_lott","Sun Mar 26 2023 17:10:11 GMT-0400 (Eastern Daylight Time)","321786","red","green","","426","","","","choice","","img/red_wl/choose11.jpg","2","171","red","0.5","0.5","0.5","l","",""
"animation","113","137071","0.0-5.0-2.54","63bc9e8cd8106f8d94c636d4","bdp_lott","Sun Mar 26 2023 17:10:11 GMT-0400 (Eastern Daylight Time)","321786","red","green","","","","","","","","","","171","","","","","","[{""stimulus"":""img/red_wl/1.jpg"",""time"":50},{""stimulus"":""img/red_wl/2.jpg"",""time"":101},{""stimulus"":""img/red_wl/3.jpg"",""time"":151},{""stimulus"":""img/red_wl/4.jpg"",""time"":202},{""stimulus"":""img/red_wl/5.jpg"",""time"":253},{""stimulus"":""img/red_wl/6.jpg"",""time"":304},{""stimulus"":""img/red_wl/7.jpg"",""time"":356},{""stimulus"":""img/red_wl/8.jpg"",""time"":407},{""stimulus"":""img/red_wl/9.jpg"",""time"":457},{""stimulus"":""img/red_wl/10.jpg"",""time"":509},{""stimulus"":""img/red_wl/11.jpg"",""time"":559}]","[]"
"image-keyboard-response","114","137346","0.0-5.0-1.55","63bc9e8cd8106f8d94c636d4","bdp_lott","Sun Mar 26 2023 17:10:11 GMT-0400 (Eastern Daylight Time)","321786","red","green","","275","","","","choice","","img/red_wl/choose11.jpg","2","170","red","0.5","0.5","0.5","l","",""
"animation","115","137953","0.0-5.0-2.55","63bc9e8cd8106f8d94c636d4","bdp_lott","Sun Mar 26 2023 17:10:11 GMT-0400 (Eastern Daylight Time)","321786","red","green","","","","","","","","","","170","","","","","","[{""stimulus"":""img/red_wl/1.jpg"",""time"":52},{""stimulus"":""img/red_wl/2.jpg"",""time"":102},{""stimulus"":""img/red_wl/3.jpg"",""time"":152},{""stimulus"":""img/red_wl/4.jpg"",""time"":202},{""stimulus"":""img/red_wl/5.jpg"",""time"":253},{""stimulus"":""img/red_wl/6.jpg"",""time"":304},{""stimulus"":""img/red_wl/7.jpg"",""time"":354},{""stimulus"":""img/red_wl/8.jpg"",""time"":405},{""stimulus"":""img/red_wl/9.jpg"",""time"":456},{""stimulus"":""img/red_wl/10.jpg"",""time"":506},{""stimulus"":""img/red_wl/11.jpg"",""time"":556}]","[]"
"image-keyboard-response","116","138170","0.0-5.0-1.56","63bc9e8cd8106f8d94c636d4","bdp_lott","Sun Mar 26 2023 17:10:11 GMT-0400 (Eastern Daylight Time)","321786","red","green","","216","","","","choice","","img/red_wl/choose11.jpg","2","169","red","0.5","0.5","0.5","l","",""
"animation","117","138778","0.0-5.0-2.56","63bc9e8cd8106f8d94c636d4","bdp_lott","Sun Mar 26 2023 17:10:11 GMT-0400 (Eastern Daylight Time)","321786","red","green","","","","","","","","","","169","","","","","","[{""stimulus"":""img/red_wl/1.jpg"",""time"":51},{""stimulus"":""img/red_wl/2.jpg"",""time"":102},{""stimulus"":""img/red_wl/3.jpg"",""time"":153},{""stimulus"":""img/red_wl/4.jpg"",""time"":204},{""stimulus"":""img/red_wl/5.jpg"",""time"":255},{""stimulus"":""img/red_wl/6.jpg"",""time"":305},{""stimulus"":""img/red_wl/7.jpg"",""time"":355},{""stimulus"":""img/red_wl/8.jpg"",""time"":406},{""stimulus"":""img/red_wl/9.jpg"",""time"":457},{""stimulus"":""img/red_wl/10.jpg"",""time"":507},{""stimulus"":""img/red_wl/11.jpg"",""time"":558}]","[]"
"image-keyboard-response","118","138966","0.0-5.0-1.57","63bc9e8cd8106f8d94c636d4","bdp_lott","Sun Mar 26 2023 17:10:11 GMT-0400 (Eastern Daylight Time)","321786","red","green","","188","","","","choice","","img/red_wl/choose11.jpg","2","168","red","0.5","0.5","0.5","w","",""
"animation","119","139577","0.0-5.0-2.57","63bc9e8cd8106f8d94c636d4","bdp_lott","Sun Mar 26 2023 17:10:11 GMT-0400 (Eastern Daylight Time)","321786","red","green","","","","","","","","","","168","","","","","","[{""stimulus"":""img/red_ww/1.jpg"",""time"":51},{""stimulus"":""img/red_ww/2.jpg"",""time"":102},{""stimulus"":""img/red_ww/3.jpg"",""time"":152},{""stimulus"":""img/red_ww/4.jpg"",""time"":202},{""stimulus"":""img/red_ww/5.jpg"",""time"":254},{""stimulus"":""img/red_ww/6.jpg"",""time"":304},{""stimulus"":""img/red_ww/7.jpg"",""time"":355},{""stimulus"":""img/red_ww/8.jpg"",""time"":407},{""stimulus"":""img/red_ww/9.jpg"",""time"":458},{""stimulus"":""img/red_ww/10.jpg"",""time"":509},{""stimulus"":""img/red_ww/11.jpg"",""time"":560}]","[]"
"image-keyboard-response","120","139764","0.0-5.0-1.58","63bc9e8cd8106f8d94c636d4","bdp_lott","Sun Mar 26 2023 17:10:11 GMT-0400 (Eastern Daylight Time)","321786","red","green","","186","","","","choice","","img/red_ww/choose11.jpg","1","167","green","0.5","0.5","0.5","w","",""
"animation","121","140374","0.0-5.0-2.58","63bc9e8cd8106f8d94c636d4","bdp_lott","Sun Mar 26 2023 17:10:11 GMT-0400 (Eastern Daylight Time)","321786","red","green","","","","","","","","","","167","","","","","","[{""stimulus"":""img/green_ww/1.jpg"",""time"":51},{""stimulus"":""img/green_ww/2.jpg"",""time"":102},{""stimulus"":""img/green_ww/3.jpg"",""time"":153},{""stimulus"":""img/green_ww/4.jpg"",""time"":204},{""stimulus"":""img/green_ww/5.jpg"",""time"":255},{""stimulus"":""img/green_ww/6.jpg"",""time"":306},{""stimulus"":""img/green_ww/7.jpg"",""time"":357},{""stimulus"":""img/green_ww/8.jpg"",""time"":407},{""stimulus"":""img/green_ww/9.jpg"",""time"":458},{""stimulus"":""img/green_ww/10.jpg"",""time"":509},{""stimulus"":""img/green_ww/11.jpg"",""time"":559}]","[]"
"image-keyboard-response","122","141659","0.0-5.0-1.59","63bc9e8cd8106f8d94c636d4","bdp_lott","Sun Mar 26 2023 17:10:11 GMT-0400 (Eastern Daylight Time)","321786","red","green","","1285","","","","choice","","img/green_ww/choose11.jpg","1","166","green","0.5","0.5","0.5","l","",""
"animation","123","142269","0.0-5.0-2.59","63bc9e8cd8106f8d94c636d4","bdp_lott","Sun Mar 26 2023 17:10:11 GMT-0400 (Eastern Daylight Time)","321786","red","green","","","","","","","","","","166","","","","","","[{""stimulus"":""img/green_lw/1.jpg"",""time"":51},{""stimulus"":""img/green_lw/2.jpg"",""time"":101},{""stimulus"":""img/green_lw/3.jpg"",""time"":152},{""stimulus"":""img/green_lw/4.jpg"",""time"":203},{""stimulus"":""img/green_lw/5.jpg"",""time"":254},{""stimulus"":""img/green_lw/6.jpg"",""time"":304},{""stimulus"":""img/green_lw/7.jpg"",""time"":356},{""stimulus"":""img/green_lw/8.jpg"",""time"":406},{""stimulus"":""img/green_lw/9.jpg"",""time"":457},{""stimulus"":""img/green_lw/10.jpg"",""time"":508},{""stimulus"":""img/green_lw/11.jpg"",""time"":559}]","[]"
"image-keyboard-response","124","142678","0.0-5.0-1.60","63bc9e8cd8106f8d94c636d4","bdp_lott","Sun Mar 26 2023 17:10:11 GMT-0400 (Eastern Daylight Time)","321786","red","green","","409","","","","choice","","img/green_lw/choose11.jpg","1","165","green","0.5","0.5","0.5","l","",""
"animation","125","143288","0.0-5.0-2.60","63bc9e8cd8106f8d94c636d4","bdp_lott","Sun Mar 26 2023 17:10:11 GMT-0400 (Eastern Daylight Time)","321786","red","green","","","","","","","","","","165","","","","","","[{""stimulus"":""img/green_lw/1.jpg"",""time"":51},{""stimulus"":""img/green_lw/2.jpg"",""time"":102},{""stimulus"":""img/green_lw/3.jpg"",""time"":153},{""stimulus"":""img/green_lw/4.jpg"",""time"":204},{""stimulus"":""img/green_lw/5.jpg"",""time"":255},{""stimulus"":""img/green_lw/6.jpg"",""time"":305},{""stimulus"":""img/green_lw/7.jpg"",""time"":356},{""stimulus"":""img/green_lw/8.jpg"",""time"":408},{""stimulus"":""img/green_lw/9.jpg"",""time"":458},{""stimulus"":""img/green_lw/10.jpg"",""time"":509},{""stimulus"":""img/green_lw/11.jpg"",""time"":560}]","[]"
"image-keyboard-response","126","143890","0.0-5.0-1.61","63bc9e8cd8106f8d94c636d4","bdp_lott","Sun Mar 26 2023 17:10:11 GMT-0400 (Eastern Daylight Time)","321786","red","green","","601","","","","choice","","img/green_lw/choose11.jpg","1","164","green","0.5","0.5","0.5","w","",""
"animation","127","144502","0.0-5.0-2.61","63bc9e8cd8106f8d94c636d4","bdp_lott","Sun Mar 26 2023 17:10:11 GMT-0400 (Eastern Daylight Time)","321786","red","green","","","","","","","","","","164","","","","","","[{""stimulus"":""img/green_ww/1.jpg"",""time"":51},{""stimulus"":""img/green_ww/2.jpg"",""time"":102},{""stimulus"":""img/green_ww/3.jpg"",""time"":153},{""stimulus"":""img/green_ww/4.jpg"",""time"":203},{""stimulus"":""img/green_ww/5.jpg"",""time"":254},{""stimulus"":""img/green_ww/6.jpg"",""time"":304},{""stimulus"":""img/green_ww/7.jpg"",""time"":356},{""stimulus"":""img/green_ww/8.jpg"",""time"":407},{""stimulus"":""img/green_ww/9.jpg"",""time"":458},{""stimulus"":""img/green_ww/10.jpg"",""time"":509},{""stimulus"":""img/green_ww/11.jpg"",""time"":560}]","[]"
"image-keyboard-response","128","144679","0.0-5.0-1.62","63bc9e8cd8106f8d94c636d4","bdp_lott","Sun Mar 26 2023 17:10:11 GMT-0400 (Eastern Daylight Time)","321786","red","green","","177","","","","choice","","img/green_ww/choose11.jpg","1","163","green","0.5","0.5","0.5","l","",""
"animation","129","145290","0.0-5.0-2.62","63bc9e8cd8106f8d94c636d4","bdp_lott","Sun Mar 26 2023 17:10:11 GMT-0400 (Eastern Daylight Time)","321786","red","green","","","","","","","","","","163","","","","","","[{""stimulus"":""img/green_lw/1.jpg"",""time"":52},{""stimulus"":""img/green_lw/2.jpg"",""time"":103},{""stimulus"":""img/green_lw/3.jpg"",""time"":154},{""stimulus"":""img/green_lw/4.jpg"",""time"":204},{""stimulus"":""img/green_lw/5.jpg"",""time"":255},{""stimulus"":""img/green_lw/6.jpg"",""time"":305},{""stimulus"":""img/green_lw/7.jpg"",""time"":357},{""stimulus"":""img/green_lw/8.jpg"",""time"":408},{""stimulus"":""img/green_lw/9.jpg"",""time"":459},{""stimulus"":""img/green_lw/10.jpg"",""time"":510},{""stimulus"":""img/green_lw/11.jpg"",""time"":560}]","[]"
"image-keyboard-response","130","145641","0.0-5.0-1.63","63bc9e8cd8106f8d94c636d4","bdp_lott","Sun Mar 26 2023 17:10:11 GMT-0400 (Eastern Daylight Time)","321786","red","green","","351","","","","choice","","img/green_lw/choose11.jpg","1","162","green","0.5","0.5","0.5","w","",""
"animation","131","146246","0.0-5.0-2.63","63bc9e8cd8106f8d94c636d4","bdp_lott","Sun Mar 26 2023 17:10:11 GMT-0400 (Eastern Daylight Time)","321786","red","green","","","","","","","","","","162","","","","","","[{""stimulus"":""img/green_ww/1.jpg"",""time"":51},{""stimulus"":""img/green_ww/2.jpg"",""time"":102},{""stimulus"":""img/green_ww/3.jpg"",""time"":152},{""stimulus"":""img/green_ww/4.jpg"",""time"":202},{""stimulus"":""img/green_ww/5.jpg"",""time"":252},{""stimulus"":""img/green_ww/6.jpg"",""time"":302},{""stimulus"":""img/green_ww/7.jpg"",""time"":353},{""stimulus"":""img/green_ww/8.jpg"",""time"":404},{""stimulus"":""img/green_ww/9.jpg"",""time"":454},{""stimulus"":""img/green_ww/10.jpg"",""time"":504},{""stimulus"":""img/green_ww/11.jpg"",""time"":554}]","[]"
"image-keyboard-response","132","146557","0.0-5.0-1.64","63bc9e8cd8106f8d94c636d4","bdp_lott","Sun Mar 26 2023 17:10:11 GMT-0400 (Eastern Daylight Time)","321786","red","green","","311","","","","choice","","img/green_ww/choose11.jpg","1","161","green","0.5","0.5","0.5","l","",""
"animation","133","147163","0.0-5.0-2.64","63bc9e8cd8106f8d94c636d4","bdp_lott","Sun Mar 26 2023 17:10:11 GMT-0400 (Eastern Daylight Time)","321786","red","green","","","","","","","","","","161","","","","","","[{""stimulus"":""img/green_lw/1.jpg"",""time"":51},{""stimulus"":""img/green_lw/2.jpg"",""time"":101},{""stimulus"":""img/green_lw/3.jpg"",""time"":151},{""stimulus"":""img/green_lw/4.jpg"",""time"":202},{""stimulus"":""img/green_lw/5.jpg"",""time"":252},{""stimulus"":""img/green_lw/6.jpg"",""time"":302},{""stimulus"":""img/green_lw/7.jpg"",""time"":352},{""stimulus"":""img/green_lw/8.jpg"",""time"":402},{""stimulus"":""img/green_lw/9.jpg"",""time"":454},{""stimulus"":""img/green_lw/10.jpg"",""time"":505},{""stimulus"":""img/green_lw/11.jpg"",""time"":555}]","[]"
"image-keyboard-response","134","147800","0.0-5.0-1.65","63bc9e8cd8106f8d94c636d4","bdp_lott","Sun Mar 26 2023 17:10:11 GMT-0400 (Eastern Daylight Time)","321786","red","green","","636","","","","choice","","img/green_lw/choose11.jpg","1","160","green","0.5","0.5","0.5","w","",""
"animation","135","148408","0.0-5.0-2.65","63bc9e8cd8106f8d94c636d4","bdp_lott","Sun Mar 26 2023 17:10:11 GMT-0400 (Eastern Daylight Time)","321786","red","green","","","","","","","","","","160","","","","","","[{""stimulus"":""img/green_ww/1.jpg"",""time"":50},{""stimulus"":""img/green_ww/2.jpg"",""time"":101},{""stimulus"":""img/green_ww/3.jpg"",""time"":151},{""stimulus"":""img/green_ww/4.jpg"",""time"":202},{""stimulus"":""img/green_ww/5.jpg"",""time"":253},{""stimulus"":""img/green_ww/6.jpg"",""time"":304},{""stimulus"":""img/green_ww/7.jpg"",""time"":354},{""stimulus"":""img/green_ww/8.jpg"",""time"":405},{""stimulus"":""img/green_ww/9.jpg"",""time"":455},{""stimulus"":""img/green_ww/10.jpg"",""time"":506},{""stimulus"":""img/green_ww/11.jpg"",""time"":556}]","[]"
"image-keyboard-response","136","149801","0.0-5.0-1.66","63bc9e8cd8106f8d94c636d4","bdp_lott","Sun Mar 26 2023 17:10:11 GMT-0400 (Eastern Daylight Time)","321786","red","green","","1392","","","","choice","","img/green_ww/choose11.jpg","2","159","red","0.5","0.5","0.5","w","",""
"animation","137","150408","0.0-5.0-2.66","63bc9e8cd8106f8d94c636d4","bdp_lott","Sun Mar 26 2023 17:10:11 GMT-0400 (Eastern Daylight Time)","321786","red","green","","","","","","","","","","159","","","","","","[{""stimulus"":""img/red_ww/1.jpg"",""time"":51},{""stimulus"":""img/red_ww/2.jpg"",""time"":101},{""stimulus"":""img/red_ww/3.jpg"",""time"":152},{""stimulus"":""img/red_ww/4.jpg"",""time"":202},{""stimulus"":""img/red_ww/5.jpg"",""time"":253},{""stimulus"":""img/red_ww/6.jpg"",""time"":304},{""stimulus"":""img/red_ww/7.jpg"",""time"":355},{""stimulus"":""img/red_ww/8.jpg"",""time"":405},{""stimulus"":""img/red_ww/9.jpg"",""time"":455},{""stimulus"":""img/red_ww/10.jpg"",""time"":506},{""stimulus"":""img/red_ww/11.jpg"",""time"":556}]","[]"
"image-keyboard-response","138","150999","0.0-5.0-1.67","63bc9e8cd8106f8d94c636d4","bdp_lott","Sun Mar 26 2023 17:10:11 GMT-0400 (Eastern Daylight Time)","321786","red","green","","590","","","","choice","","img/red_ww/choose11.jpg","2","158","red","0.5","0.5","0.5","l","",""
"animation","139","151607","0.0-5.0-2.67","63bc9e8cd8106f8d94c636d4","bdp_lott","Sun Mar 26 2023 17:10:11 GMT-0400 (Eastern Daylight Time)","321786","red","green","","","","","","","","","","158","","","","","","[{""stimulus"":""img/red_wl/1.jpg"",""time"":51},{""stimulus"":""img/red_wl/2.jpg"",""time"":101},{""stimulus"":""img/red_wl/3.jpg"",""time"":152},{""stimulus"":""img/red_wl/4.jpg"",""time"":203},{""stimulus"":""img/red_wl/5.jpg"",""time"":253},{""stimulus"":""img/red_wl/6.jpg"",""time"":304},{""stimulus"":""img/red_wl/7.jpg"",""time"":355},{""stimulus"":""img/red_wl/8.jpg"",""time"":405},{""stimulus"":""img/red_wl/9.jpg"",""time"":456},{""stimulus"":""img/red_wl/10.jpg"",""time"":506},{""stimulus"":""img/red_wl/11.jpg"",""time"":557}]","[]"
"image-keyboard-response","140","152185","0.0-5.0-1.68","63bc9e8cd8106f8d94c636d4","bdp_lott","Sun Mar 26 2023 17:10:11 GMT-0400 (Eastern Daylight Time)","321786","red","green","","578","","","","choice","","img/red_wl/choose11.jpg","2","157","red","0.5","0.5","0.5","l","",""
"animation","141","152793","0.0-5.0-2.68","63bc9e8cd8106f8d94c636d4","bdp_lott","Sun Mar 26 2023 17:10:11 GMT-0400 (Eastern Daylight Time)","321786","red","green","","","","","","","","","","157","","","","","","[{""stimulus"":""img/red_wl/1.jpg"",""time"":51},{""stimulus"":""img/red_wl/2.jpg"",""time"":102},{""stimulus"":""img/red_wl/3.jpg"",""time"":153},{""stimulus"":""img/red_wl/4.jpg"",""time"":204},{""stimulus"":""img/red_wl/5.jpg"",""time"":255},{""stimulus"":""img/red_wl/6.jpg"",""time"":305},{""stimulus"":""img/red_wl/7.jpg"",""time"":357},{""stimulus"":""img/red_wl/8.jpg"",""time"":407},{""stimulus"":""img/red_wl/9.jpg"",""time"":458},{""stimulus"":""img/red_wl/10.jpg"",""time"":508},{""stimulus"":""img/red_wl/11.jpg"",""time"":558}]","[]"
"image-keyboard-response","142","154219","0.0-5.0-1.69","63bc9e8cd8106f8d94c636d4","bdp_lott","Sun Mar 26 2023 17:10:11 GMT-0400 (Eastern Daylight Time)","321786","red","green","","1426","","","","choice","","img/red_wl/choose11.jpg","2","156","red","0.5","0.5","0.5","w","",""
"animation","143","154831","0.0-5.0-2.69","63bc9e8cd8106f8d94c636d4","bdp_lott","Sun Mar 26 2023 17:10:11 GMT-0400 (Eastern Daylight Time)","321786","red","green","","","","","","","","","","156","","","","","","[{""stimulus"":""img/red_ww/1.jpg"",""time"":52},{""stimulus"":""img/red_ww/2.jpg"",""time"":102},{""stimulus"":""img/red_ww/3.jpg"",""time"":153},{""stimulus"":""img/red_ww/4.jpg"",""time"":204},{""stimulus"":""img/red_ww/5.jpg"",""time"":255},{""stimulus"":""img/red_ww/6.jpg"",""time"":306},{""stimulus"":""img/red_ww/7.jpg"",""time"":357},{""stimulus"":""img/red_ww/8.jpg"",""time"":408},{""stimulus"":""img/red_ww/9.jpg"",""time"":458},{""stimulus"":""img/red_ww/10.jpg"",""time"":510},{""stimulus"":""img/red_ww/11.jpg"",""time"":561}]","[]"
"image-keyboard-response","144","155636","0.0-5.0-1.70","63bc9e8cd8106f8d94c636d4","bdp_lott","Sun Mar 26 2023 17:10:11 GMT-0400 (Eastern Daylight Time)","321786","red","green","","805","","","","choice","","img/red_ww/choose11.jpg","2","155","red","0.5","0.5","0.5","l","",""
"animation","145","156247","0.0-5.0-2.70","63bc9e8cd8106f8d94c636d4","bdp_lott","Sun Mar 26 2023 17:10:11 GMT-0400 (Eastern Daylight Time)","321786","red","green","","","","","","","","","","155","","","","","","[{""stimulus"":""img/red_wl/1.jpg"",""time"":50},{""stimulus"":""img/red_wl/2.jpg"",""time"":101},{""stimulus"":""img/red_wl/3.jpg"",""time"":152},{""stimulus"":""img/red_wl/4.jpg"",""time"":203},{""stimulus"":""img/red_wl/5.jpg"",""time"":255},{""stimulus"":""img/red_wl/6.jpg"",""time"":306},{""stimulus"":""img/red_wl/7.jpg"",""time"":356},{""stimulus"":""img/red_wl/8.jpg"",""time"":406},{""stimulus"":""img/red_wl/9.jpg"",""time"":457},{""stimulus"":""img/red_wl/10.jpg"",""time"":508},{""stimulus"":""img/red_wl/11.jpg"",""time"":559}]","[]"
"image-keyboard-response","146","156868","0.0-5.0-1.71","63bc9e8cd8106f8d94c636d4","bdp_lott","Sun Mar 26 2023 17:10:11 GMT-0400 (Eastern Daylight Time)","321786","red","green","","621","","","","choice","","img/red_wl/choose11.jpg","2","154","red","0.5","0.5","0.5","l","",""
"animation","147","157478","0.0-5.0-2.71","63bc9e8cd8106f8d94c636d4","bdp_lott","Sun Mar 26 2023 17:10:11 GMT-0400 (Eastern Daylight Time)","321786","red","green","","","","","","","","","","154","","","","","","[{""stimulus"":""img/red_wl/1.jpg"",""time"":51},{""stimulus"":""img/red_wl/2.jpg"",""time"":101},{""stimulus"":""img/red_wl/3.jpg"",""time"":152},{""stimulus"":""img/red_wl/4.jpg"",""time"":202},{""stimulus"":""img/red_wl/5.jpg"",""time"":253},{""stimulus"":""img/red_wl/6.jpg"",""time"":304},{""stimulus"":""img/red_wl/7.jpg"",""time"":355},{""stimulus"":""img/red_wl/8.jpg"",""time"":406},{""stimulus"":""img/red_wl/9.jpg"",""time"":457},{""stimulus"":""img/red_wl/10.jpg"",""time"":508},{""stimulus"":""img/red_wl/11.jpg"",""time"":559}]","[]"
"image-keyboard-response","148","157880","0.0-5.0-1.72","63bc9e8cd8106f8d94c636d4","bdp_lott","Sun Mar 26 2023 17:10:11 GMT-0400 (Eastern Daylight Time)","321786","red","green","","402","","","","choice","","img/red_wl/choose11.jpg","2","153","red","0.5","0.5","0.5","w","",""
"animation","149","158490","0.0-5.0-2.72","63bc9e8cd8106f8d94c636d4","bdp_lott","Sun Mar 26 2023 17:10:11 GMT-0400 (Eastern Daylight Time)","321786","red","green","","","","","","","","","","153","","","","","","[{""stimulus"":""img/red_ww/1.jpg"",""time"":50},{""stimulus"":""img/red_ww/2.jpg"",""time"":101},{""stimulus"":""img/red_ww/3.jpg"",""time"":152},{""stimulus"":""img/red_ww/4.jpg"",""time"":203},{""stimulus"":""img/red_ww/5.jpg"",""time"":254},{""stimulus"":""img/red_ww/6.jpg"",""time"":305},{""stimulus"":""img/red_ww/7.jpg"",""time"":355},{""stimulus"":""img/red_ww/8.jpg"",""time"":406},{""stimulus"":""img/red_ww/9.jpg"",""time"":457},{""stimulus"":""img/red_ww/10.jpg"",""time"":508},{""stimulus"":""img/red_ww/11.jpg"",""time"":558}]","[]"
"image-keyboard-response","150","159644","0.0-5.0-1.73","63bc9e8cd8106f8d94c636d4","bdp_lott","Sun Mar 26 2023 17:10:11 GMT-0400 (Eastern Daylight Time)","321786","red","green","","1154","","","","choice","","img/red_ww/choose11.jpg","1","152","green","0.5","0.5","0.5","w","",""
"animation","151","160254","0.0-5.0-2.73","63bc9e8cd8106f8d94c636d4","bdp_lott","Sun Mar 26 2023 17:10:11 GMT-0400 (Eastern Daylight Time)","321786","red","green","","","","","","","","","","152","","","","","","[{""stimulus"":""img/green_ww/1.jpg"",""time"":51},{""stimulus"":""img/green_ww/2.jpg"",""time"":102},{""stimulus"":""img/green_ww/3.jpg"",""time"":153},{""stimulus"":""img/green_ww/4.jpg"",""time"":203},{""stimulus"":""img/green_ww/5.jpg"",""time"":253},{""stimulus"":""img/green_ww/6.jpg"",""time"":304},{""stimulus"":""img/green_ww/7.jpg"",""time"":355},{""stimulus"":""img/green_ww/8.jpg"",""time"":406},{""stimulus"":""img/green_ww/9.jpg"",""time"":457},{""stimulus"":""img/green_ww/10.jpg"",""time"":508},{""stimulus"":""img/green_ww/11.jpg"",""time"":559}]","[]"
"image-keyboard-response","152","160559","0.0-5.0-1.74","63bc9e8cd8106f8d94c636d4","bdp_lott","Sun Mar 26 2023 17:10:11 GMT-0400 (Eastern Daylight Time)","321786","red","green","","305","","","","choice","","img/green_ww/choose11.jpg","1","151","green","0.5","0.5","0.5","w","",""
"animation","153","161169","0.0-5.0-2.74","63bc9e8cd8106f8d94c636d4","bdp_lott","Sun Mar 26 2023 17:10:11 GMT-0400 (Eastern Daylight Time)","321786","red","green","","","","","","","","","","151","","","","","","[{""stimulus"":""img/green_ww/1.jpg"",""time"":50},{""stimulus"":""img/green_ww/2.jpg"",""time"":101},{""stimulus"":""img/green_ww/3.jpg"",""time"":152},{""stimulus"":""img/green_ww/4.jpg"",""time"":203},{""stimulus"":""img/green_ww/5.jpg"",""time"":253},{""stimulus"":""img/green_ww/6.jpg"",""time"":303},{""stimulus"":""img/green_ww/7.jpg"",""time"":355},{""stimulus"":""img/green_ww/8.jpg"",""time"":405},{""stimulus"":""img/green_ww/9.jpg"",""time"":457},{""stimulus"":""img/green_ww/10.jpg"",""time"":508},{""stimulus"":""img/green_ww/11.jpg"",""time"":559}]","[]"
"image-keyboard-response","154","161646","0.0-5.0-1.75","63bc9e8cd8106f8d94c636d4","bdp_lott","Sun Mar 26 2023 17:10:11 GMT-0400 (Eastern Daylight Time)","321786","red","green","","477","","","","choice","","img/green_ww/choose11.jpg","1","150","green","0.5","0.5","0.5","l","",""
"animation","155","162259","0.0-5.0-2.75","63bc9e8cd8106f8d94c636d4","bdp_lott","Sun Mar 26 2023 17:10:11 GMT-0400 (Eastern Daylight Time)","321786","red","green","","","","","","","","","","150","","","","","","[{""stimulus"":""img/green_lw/1.jpg"",""time"":52},{""stimulus"":""img/green_lw/2.jpg"",""time"":103},{""stimulus"":""img/green_lw/3.jpg"",""time"":154},{""stimulus"":""img/green_lw/4.jpg"",""time"":205},{""stimulus"":""img/green_lw/5.jpg"",""time"":256},{""stimulus"":""img/green_lw/6.jpg"",""time"":306},{""stimulus"":""img/green_lw/7.jpg"",""time"":357},{""stimulus"":""img/green_lw/8.jpg"",""time"":409},{""stimulus"":""img/green_lw/9.jpg"",""time"":460},{""stimulus"":""img/green_lw/10.jpg"",""time"":511},{""stimulus"":""img/green_lw/11.jpg"",""time"":562}]","[]"
"image-keyboard-response","156","163530","0.0-5.0-1.76","63bc9e8cd8106f8d94c636d4","bdp_lott","Sun Mar 26 2023 17:10:11 GMT-0400 (Eastern Daylight Time)","321786","red","green","","1270","","","","choice","","img/green_lw/choose11.jpg","1","149","green","0.5","0.1","0.1","l","",""
"animation","157","164139","0.0-5.0-2.76","63bc9e8cd8106f8d94c636d4","bdp_lott","Sun Mar 26 2023 17:10:11 GMT-0400 (Eastern Daylight Time)","321786","red","green","","","","","","","","","","149","","","","","","[{""stimulus"":""img/green_lw/1.jpg"",""time"":51},{""stimulus"":""img/green_lw/2.jpg"",""time"":101},{""stimulus"":""img/green_lw/3.jpg"",""time"":153},{""stimulus"":""img/green_lw/4.jpg"",""time"":203},{""stimulus"":""img/green_lw/5.jpg"",""time"":253},{""stimulus"":""img/green_lw/6.jpg"",""time"":304},{""stimulus"":""img/green_lw/7.jpg"",""time"":355},{""stimulus"":""img/green_lw/8.jpg"",""time"":406},{""stimulus"":""img/green_lw/9.jpg"",""time"":457},{""stimulus"":""img/green_lw/10.jpg"",""time"":508},{""stimulus"":""img/green_lw/11.jpg"",""time"":559}]","[]"
"image-keyboard-response","158","164476","0.0-5.0-1.77","63bc9e8cd8106f8d94c636d4","bdp_lott","Sun Mar 26 2023 17:10:11 GMT-0400 (Eastern Daylight Time)","321786","red","green","","336","","","","choice","","img/green_lw/choose11.jpg","1","148","green","0.5","0.1","0.1","l","",""
"animation","159","165084","0.0-5.0-2.77","63bc9e8cd8106f8d94c636d4","bdp_lott","Sun Mar 26 2023 17:10:11 GMT-0400 (Eastern Daylight Time)","321786","red","green","","","","","","","","","","148","","","","","","[{""stimulus"":""img/green_lw/1.jpg"",""time"":52},{""stimulus"":""img/green_lw/2.jpg"",""time"":102},{""stimulus"":""img/green_lw/3.jpg"",""time"":153},{""stimulus"":""img/green_lw/4.jpg"",""time"":203},{""stimulus"":""img/green_lw/5.jpg"",""time"":253},{""stimulus"":""img/green_lw/6.jpg"",""time"":304},{""stimulus"":""img/green_lw/7.jpg"",""time"":355},{""stimulus"":""img/green_lw/8.jpg"",""time"":406},{""stimulus"":""img/green_lw/9.jpg"",""time"":456},{""stimulus"":""img/green_lw/10.jpg"",""time"":506},{""stimulus"":""img/green_lw/11.jpg"",""time"":557}]","[]"
"image-keyboard-response","160","165779","0.0-5.0-1.78","63bc9e8cd8106f8d94c636d4","bdp_lott","Sun Mar 26 2023 17:10:11 GMT-0400 (Eastern Daylight Time)","321786","red","green","","694","","","","choice","","img/green_lw/choose11.jpg","1","147","green","0.5","0.1","0.1","l","",""
"animation","161","166387","0.0-5.0-2.78","63bc9e8cd8106f8d94c636d4","bdp_lott","Sun Mar 26 2023 17:10:11 GMT-0400 (Eastern Daylight Time)","321786","red","green","","","","","","","","","","147","","","","","","[{""stimulus"":""img/green_lw/1.jpg"",""time"":51},{""stimulus"":""img/green_lw/2.jpg"",""time"":102},{""stimulus"":""img/green_lw/3.jpg"",""time"":152},{""stimulus"":""img/green_lw/4.jpg"",""time"":203},{""stimulus"":""img/green_lw/5.jpg"",""time"":254},{""stimulus"":""img/green_lw/6.jpg"",""time"":305},{""stimulus"":""img/green_lw/7.jpg"",""time"":355},{""stimulus"":""img/green_lw/8.jpg"",""time"":406},{""stimulus"":""img/green_lw/9.jpg"",""time"":456},{""stimulus"":""img/green_lw/10.jpg"",""time"":507},{""stimulus"":""img/green_lw/11.jpg"",""time"":557}]","[]"
"image-keyboard-response","162","166921","0.0-5.0-1.79","63bc9e8cd8106f8d94c636d4","bdp_lott","Sun Mar 26 2023 17:10:11 GMT-0400 (Eastern Daylight Time)","321786","red","green","","533","","","","choice","","img/green_lw/choose11.jpg","1","146","green","0.5","0.1","0.1","l","",""
"animation","163","167530","0.0-5.0-2.79","63bc9e8cd8106f8d94c636d4","bdp_lott","Sun Mar 26 2023 17:10:11 GMT-0400 (Eastern Daylight Time)","321786","red","green","","","","","","","","","","146","","","","","","[{""stimulus"":""img/green_lw/1.jpg"",""time"":52},{""stimulus"":""img/green_lw/2.jpg"",""time"":102},{""stimulus"":""img/green_lw/3.jpg"",""time"":153},{""stimulus"":""img/green_lw/4.jpg"",""time"":204},{""stimulus"":""img/green_lw/5.jpg"",""time"":254},{""stimulus"":""img/green_lw/6.jpg"",""time"":305},{""stimulus"":""img/green_lw/7.jpg"",""time"":356},{""stimulus"":""img/green_lw/8.jpg"",""time"":407},{""stimulus"":""img/green_lw/9.jpg"",""time"":457},{""stimulus"":""img/green_lw/10.jpg"",""time"":507},{""stimulus"":""img/green_lw/11.jpg"",""time"":558}]","[]"
"image-keyboard-response","164","167948","0.0-5.0-1.80","63bc9e8cd8106f8d94c636d4","bdp_lott","Sun Mar 26 2023 17:10:11 GMT-0400 (Eastern Daylight Time)","321786","red","green","","418","","","","choice","","img/green_lw/choose11.jpg","1","145","green","0.5","0.1","0.1","l","",""
"animation","165","168556","0.0-5.0-2.80","63bc9e8cd8106f8d94c636d4","bdp_lott","Sun Mar 26 2023 17:10:11 GMT-0400 (Eastern Daylight Time)","321786","red","green","","","","","","","","","","145","","","","","","[{""stimulus"":""img/green_lw/1.jpg"",""time"":52},{""stimulus"":""img/green_lw/2.jpg"",""time"":102},{""stimulus"":""img/green_lw/3.jpg"",""time"":152},{""stimulus"":""img/green_lw/4.jpg"",""time"":202},{""stimulus"":""img/green_lw/5.jpg"",""time"":252},{""stimulus"":""img/green_lw/6.jpg"",""time"":302},{""stimulus"":""img/green_lw/7.jpg"",""time"":352},{""stimulus"":""img/green_lw/8.jpg"",""time"":404},{""stimulus"":""img/green_lw/9.jpg"",""time"":455},{""stimulus"":""img/green_lw/10.jpg"",""time"":506},{""stimulus"":""img/green_lw/11.jpg"",""time"":556}]","[]"
"image-keyboard-response","166","168896","0.0-5.0-1.81","63bc9e8cd8106f8d94c636d4","bdp_lott","Sun Mar 26 2023 17:10:11 GMT-0400 (Eastern Daylight Time)","321786","red","green","","340","","","","choice","","img/green_lw/choose11.jpg","1","144","green","0.5","0.1","0.1","l","",""
"animation","167","169506","0.0-5.0-2.81","63bc9e8cd8106f8d94c636d4","bdp_lott","Sun Mar 26 2023 17:10:11 GMT-0400 (Eastern Daylight Time)","321786","red","green","","","","","","","","","","144","","","","","","[{""stimulus"":""img/green_lw/1.jpg"",""time"":51},{""stimulus"":""img/green_lw/2.jpg"",""time"":102},{""stimulus"":""img/green_lw/3.jpg"",""time"":153},{""stimulus"":""img/green_lw/4.jpg"",""time"":204},{""stimulus"":""img/green_lw/5.jpg"",""time"":254},{""stimulus"":""img/green_lw/6.jpg"",""time"":305},{""stimulus"":""img/green_lw/7.jpg"",""time"":355},{""stimulus"":""img/green_lw/8.jpg"",""time"":406},{""stimulus"":""img/green_lw/9.jpg"",""time"":457},{""stimulus"":""img/green_lw/10.jpg"",""time"":507},{""stimulus"":""img/green_lw/11.jpg"",""time"":559}]","[]"
"image-keyboard-response","168","169887","0.0-5.0-1.82","63bc9e8cd8106f8d94c636d4","bdp_lott","Sun Mar 26 2023 17:10:11 GMT-0400 (Eastern Daylight Time)","321786","red","green","","380","","","","choice","","img/green_lw/choose11.jpg","2","143","red","0.5","0.1","0.5","w","",""
"animation","169","170496","0.0-5.0-2.82","63bc9e8cd8106f8d94c636d4","bdp_lott","Sun Mar 26 2023 17:10:11 GMT-0400 (Eastern Daylight Time)","321786","red","green","","","","","","","","","","143","","","","","","[{""stimulus"":""img/red_lw/1.jpg"",""time"":50},{""stimulus"":""img/red_lw/2.jpg"",""time"":101},{""stimulus"":""img/red_lw/3.jpg"",""time"":151},{""stimulus"":""img/red_lw/4.jpg"",""time"":202},{""stimulus"":""img/red_lw/5.jpg"",""time"":254},{""stimulus"":""img/red_lw/6.jpg"",""time"":304},{""stimulus"":""img/red_lw/7.jpg"",""time"":354},{""stimulus"":""img/red_lw/8.jpg"",""time"":405},{""stimulus"":""img/red_lw/9.jpg"",""time"":456},{""stimulus"":""img/red_lw/10.jpg"",""time"":507},{""stimulus"":""img/red_lw/11.jpg"",""time"":558}]","[]"
"image-keyboard-response","170","170823","0.0-5.0-1.83","63bc9e8cd8106f8d94c636d4","bdp_lott","Sun Mar 26 2023 17:10:11 GMT-0400 (Eastern Daylight Time)","321786","red","green","","326","","","","choice","","img/red_lw/choose11.jpg","2","142","red","0.5","0.1","0.5","w","",""
"animation","171","171430","0.0-5.0-2.83","63bc9e8cd8106f8d94c636d4","bdp_lott","Sun Mar 26 2023 17:10:11 GMT-0400 (Eastern Daylight Time)","321786","red","green","","","","","","","","","","142","","","","","","[{""stimulus"":""img/red_lw/1.jpg"",""time"":51},{""stimulus"":""img/red_lw/2.jpg"",""time"":101},{""stimulus"":""img/red_lw/3.jpg"",""time"":152},{""stimulus"":""img/red_lw/4.jpg"",""time"":203},{""stimulus"":""img/red_lw/5.jpg"",""time"":253},{""stimulus"":""img/red_lw/6.jpg"",""time"":303},{""stimulus"":""img/red_lw/7.jpg"",""time"":353},{""stimulus"":""img/red_lw/8.jpg"",""time"":405},{""stimulus"":""img/red_lw/9.jpg"",""time"":456},{""stimulus"":""img/red_lw/10.jpg"",""time"":506},{""stimulus"":""img/red_lw/11.jpg"",""time"":556}]","[]"
"image-keyboard-response","172","171836","0.0-5.0-1.84","63bc9e8cd8106f8d94c636d4","bdp_lott","Sun Mar 26 2023 17:10:11 GMT-0400 (Eastern Daylight Time)","321786","red","green","","405","","","","choice","","img/red_lw/choose11.jpg","2","141","red","0.5","0.1","0.5","l","",""
"animation","173","172446","0.0-5.0-2.84","63bc9e8cd8106f8d94c636d4","bdp_lott","Sun Mar 26 2023 17:10:11 GMT-0400 (Eastern Daylight Time)","321786","red","green","","","","","","","","","","141","","","","","","[{""stimulus"":""img/red_ll/1.jpg"",""time"":50},{""stimulus"":""img/red_ll/2.jpg"",""time"":101},{""stimulus"":""img/red_ll/3.jpg"",""time"":153},{""stimulus"":""img/red_ll/4.jpg"",""time"":203},{""stimulus"":""img/red_ll/5.jpg"",""time"":254},{""stimulus"":""img/red_ll/6.jpg"",""time"":306},{""stimulus"":""img/red_ll/7.jpg"",""time"":356},{""stimulus"":""img/red_ll/8.jpg"",""time"":406},{""stimulus"":""img/red_ll/9.jpg"",""time"":456},{""stimulus"":""img/red_ll/10.jpg"",""time"":507},{""stimulus"":""img/red_ll/11.jpg"",""time"":558}]","[]"
"image-keyboard-response","174","172935","0.0-5.0-1.85","63bc9e8cd8106f8d94c636d4","bdp_lott","Sun Mar 26 2023 17:10:11 GMT-0400 (Eastern Daylight Time)","321786","red","green","","488","","","","choice","","img/red_ll/choose11.jpg","2","140","red","0.5","0.1","0.5","w","",""
"animation","175","173547","0.0-5.0-2.85","63bc9e8cd8106f8d94c636d4","bdp_lott","Sun Mar 26 2023 17:10:11 GMT-0400 (Eastern Daylight Time)","321786","red","green","","","","","","","","","","140","","","","","","[{""stimulus"":""img/red_lw/1.jpg"",""time"":52},{""stimulus"":""img/red_lw/2.jpg"",""time"":102},{""stimulus"":""img/red_lw/3.jpg"",""time"":153},{""stimulus"":""img/red_lw/4.jpg"",""time"":204},{""stimulus"":""img/red_lw/5.jpg"",""time"":255},{""stimulus"":""img/red_lw/6.jpg"",""time"":306},{""stimulus"":""img/red_lw/7.jpg"",""time"":357},{""stimulus"":""img/red_lw/8.jpg"",""time"":408},{""stimulus"":""img/red_lw/9.jpg"",""time"":459},{""stimulus"":""img/red_lw/10.jpg"",""time"":510},{""stimulus"":""img/red_lw/11.jpg"",""time"":561}]","[]"
"image-keyboard-response","176","173992","0.0-5.0-1.86","63bc9e8cd8106f8d94c636d4","bdp_lott","Sun Mar 26 2023 17:10:11 GMT-0400 (Eastern Daylight Time)","321786","red","green","","444","","","","choice","","img/red_lw/choose11.jpg","2","139","red","0.5","0.1","0.5","w","",""
"animation","177","174603","0.0-5.0-2.86","63bc9e8cd8106f8d94c636d4","bdp_lott","Sun Mar 26 2023 17:10:11 GMT-0400 (Eastern Daylight Time)","321786","red","green","","","","","","","","","","139","","","","","","[{""stimulus"":""img/red_lw/1.jpg"",""time"":51},{""stimulus"":""img/red_lw/2.jpg"",""time"":101},{""stimulus"":""img/red_lw/3.jpg"",""time"":152},{""stimulus"":""img/red_lw/4.jpg"",""time"":203},{""stimulus"":""img/red_lw/5.jpg"",""time"":254},{""stimulus"":""img/red_lw/6.jpg"",""time"":305},{""stimulus"":""img/red_lw/7.jpg"",""time"":356},{""stimulus"":""img/red_lw/8.jpg"",""time"":407},{""stimulus"":""img/red_lw/9.jpg"",""time"":458},{""stimulus"":""img/red_lw/10.jpg"",""time"":509},{""stimulus"":""img/red_lw/11.jpg"",""time"":561}]","[]"
"image-keyboard-response","178","175116","0.0-5.0-1.87","63bc9e8cd8106f8d94c636d4","bdp_lott","Sun Mar 26 2023 17:10:11 GMT-0400 (Eastern Daylight Time)","321786","red","green","","513","","","","choice","","img/red_lw/choose11.jpg","2","138","red","0.5","0.1","0.5","l","",""
"animation","179","175726","0.0-5.0-2.87","63bc9e8cd8106f8d94c636d4","bdp_lott","Sun Mar 26 2023 17:10:11 GMT-0400 (Eastern Daylight Time)","321786","red","green","","","","","","","","","","138","","","","","","[{""stimulus"":""img/red_ll/1.jpg"",""time"":51},{""stimulus"":""img/red_ll/2.jpg"",""time"":102},{""stimulus"":""img/red_ll/3.jpg"",""time"":152},{""stimulus"":""img/red_ll/4.jpg"",""time"":203},{""stimulus"":""img/red_ll/5.jpg"",""time"":254},{""stimulus"":""img/red_ll/6.jpg"",""time"":305},{""stimulus"":""img/red_ll/7.jpg"",""time"":356},{""stimulus"":""img/red_ll/8.jpg"",""time"":407},{""stimulus"":""img/red_ll/9.jpg"",""time"":458},{""stimulus"":""img/red_ll/10.jpg"",""time"":508},{""stimulus"":""img/red_ll/11.jpg"",""time"":559}]","[]"
"image-keyboard-response","180","176064","0.0-5.0-1.88","63bc9e8cd8106f8d94c636d4","bdp_lott","Sun Mar 26 2023 17:10:11 GMT-0400 (Eastern Daylight Time)","321786","red","green","","338","","","","choice","","img/red_ll/choose11.jpg","2","137","red","0.5","0.1","0.5","w","",""
"animation","181","176674","0.0-5.0-2.88","63bc9e8cd8106f8d94c636d4","bdp_lott","Sun Mar 26 2023 17:10:11 GMT-0400 (Eastern Daylight Time)","321786","red","green","","","","","","","","","","137","","","","","","[{""stimulus"":""img/red_lw/1.jpg"",""time"":51},{""stimulus"":""img/red_lw/2.jpg"",""time"":101},{""stimulus"":""img/red_lw/3.jpg"",""time"":152},{""stimulus"":""img/red_lw/4.jpg"",""time"":204},{""stimulus"":""img/red_lw/5.jpg"",""time"":254},{""stimulus"":""img/red_lw/6.jpg"",""time"":305},{""stimulus"":""img/red_lw/7.jpg"",""time"":355},{""stimulus"":""img/red_lw/8.jpg"",""time"":405},{""stimulus"":""img/red_lw/9.jpg"",""time"":455},{""stimulus"":""img/red_lw/10.jpg"",""time"":507},{""stimulus"":""img/red_lw/11.jpg"",""time"":558}]","[]"
"image-keyboard-response","182","176943","0.0-5.0-1.89","63bc9e8cd8106f8d94c636d4","bdp_lott","Sun Mar 26 2023 17:10:11 GMT-0400 (Eastern Daylight Time)","321786","red","green","","269","","","","choice","","img/red_lw/choose11.jpg","2","136","red","0.5","0.1","0.5","l","",""
"animation","183","177555","0.0-5.0-2.89","63bc9e8cd8106f8d94c636d4","bdp_lott","Sun Mar 26 2023 17:10:11 GMT-0400 (Eastern Daylight Time)","321786","red","green","","","","","","","","","","136","","","","","","[{""stimulus"":""img/red_ll/1.jpg"",""time"":52},{""stimulus"":""img/red_ll/2.jpg"",""time"":103},{""stimulus"":""img/red_ll/3.jpg"",""time"":154},{""stimulus"":""img/red_ll/4.jpg"",""time"":205},{""stimulus"":""img/red_ll/5.jpg"",""time"":256},{""stimulus"":""img/red_ll/6.jpg"",""time"":308},{""stimulus"":""img/red_ll/7.jpg"",""time"":359},{""stimulus"":""img/red_ll/8.jpg"",""time"":409},{""stimulus"":""img/red_ll/9.jpg"",""time"":460},{""stimulus"":""img/red_ll/10.jpg"",""time"":511},{""stimulus"":""img/red_ll/11.jpg"",""time"":561}]","[]"
"image-keyboard-response","184","177783","0.0-5.0-1.90","63bc9e8cd8106f8d94c636d4","bdp_lott","Sun Mar 26 2023 17:10:11 GMT-0400 (Eastern Daylight Time)","321786","red","green","","228","","","","choice","","img/red_ll/choose11.jpg","2","135","red","0.5","0.1","0.5","w","",""
"animation","185","178392","0.0-5.0-2.90","63bc9e8cd8106f8d94c636d4","bdp_lott","Sun Mar 26 2023 17:10:11 GMT-0400 (Eastern Daylight Time)","321786","red","green","","","","","","","","","","135","","","","","","[{""stimulus"":""img/red_lw/1.jpg"",""time"":52},{""stimulus"":""img/red_lw/2.jpg"",""time"":103},{""stimulus"":""img/red_lw/3.jpg"",""time"":153},{""stimulus"":""img/red_lw/4.jpg"",""time"":204},{""stimulus"":""img/red_lw/5.jpg"",""time"":255},{""stimulus"":""img/red_lw/6.jpg"",""time"":305},{""stimulus"":""img/red_lw/7.jpg"",""time"":355},{""stimulus"":""img/red_lw/8.jpg"",""time"":406},{""stimulus"":""img/red_lw/9.jpg"",""time"":458},{""stimulus"":""img/red_lw/10.jpg"",""time"":508},{""stimulus"":""img/red_lw/11.jpg"",""time"":559}]","[]"
"image-keyboard-response","186","178574","0.0-5.0-1.91","63bc9e8cd8106f8d94c636d4","bdp_lott","Sun Mar 26 2023 17:10:11 GMT-0400 (Eastern Daylight Time)","321786","red","green","","182","","","","choice","","img/red_lw/choose11.jpg","1","134","green","0.5","0.1","0.1","l","",""
"animation","187","179183","0.0-5.0-2.91","63bc9e8cd8106f8d94c636d4","bdp_lott","Sun Mar 26 2023 17:10:11 GMT-0400 (Eastern Daylight Time)","321786","red","green","","","","","","","","","","134","","","","","","[{""stimulus"":""img/green_lw/1.jpg"",""time"":50},{""stimulus"":""img/green_lw/2.jpg"",""time"":101},{""stimulus"":""img/green_lw/3.jpg"",""time"":151},{""stimulus"":""img/green_lw/4.jpg"",""time"":201},{""stimulus"":""img/green_lw/5.jpg"",""time"":252},{""stimulus"":""img/green_lw/6.jpg"",""time"":303},{""stimulus"":""img/green_lw/7.jpg"",""time"":354},{""stimulus"":""img/green_lw/8.jpg"",""time"":405},{""stimulus"":""img/green_lw/9.jpg"",""time"":456},{""stimulus"":""img/green_lw/10.jpg"",""time"":507},{""stimulus"":""img/green_lw/11.jpg"",""time"":558}]","[]"
"image-keyboard-response","188","179603","0.0-5.0-1.92","63bc9e8cd8106f8d94c636d4","bdp_lott","Sun Mar 26 2023 17:10:11 GMT-0400 (Eastern Daylight Time)","321786","red","green","","419","","","","choice","","img/green_lw/choose11.jpg","2","133","red","0.5","0.1","0.5","l","",""
"animation","189","180215","0.0-5.0-2.92","63bc9e8cd8106f8d94c636d4","bdp_lott","Sun Mar 26 2023 17:10:11 GMT-0400 (Eastern Daylight Time)","321786","red","green","","","","","","","","","","133","","","","","","[{""stimulus"":""img/red_ll/1.jpg"",""time"":51},{""stimulus"":""img/red_ll/2.jpg"",""time"":102},{""stimulus"":""img/red_ll/3.jpg"",""time"":153},{""stimulus"":""img/red_ll/4.jpg"",""time"":204},{""stimulus"":""img/red_ll/5.jpg"",""time"":255},{""stimulus"":""img/red_ll/6.jpg"",""time"":306},{""stimulus"":""img/red_ll/7.jpg"",""time"":357},{""stimulus"":""img/red_ll/8.jpg"",""time"":408},{""stimulus"":""img/red_ll/9.jpg"",""time"":460},{""stimulus"":""img/red_ll/10.jpg"",""time"":511},{""stimulus"":""img/red_ll/11.jpg"",""time"":561}]","[]"
"image-keyboard-response","190","181024","0.0-5.0-1.93","63bc9e8cd8106f8d94c636d4","bdp_lott","Sun Mar 26 2023 17:10:11 GMT-0400 (Eastern Daylight Time)","321786","red","green","","808","","","","choice","","img/red_ll/choose11.jpg","2","132","red","0.5","0.1","0.5","l","",""
"animation","191","181631","0.0-5.0-2.93","63bc9e8cd8106f8d94c636d4","bdp_lott","Sun Mar 26 2023 17:10:11 GMT-0400 (Eastern Daylight Time)","321786","red","green","","","","","","","","","","132","","","","","","[{""stimulus"":""img/red_ll/1.jpg"",""time"":51},{""stimulus"":""img/red_ll/2.jpg"",""time"":101},{""stimulus"":""img/red_ll/3.jpg"",""time"":152},{""stimulus"":""img/red_ll/4.jpg"",""time"":202},{""stimulus"":""img/red_ll/5.jpg"",""time"":252},{""stimulus"":""img/red_ll/6.jpg"",""time"":302},{""stimulus"":""img/red_ll/7.jpg"",""time"":352},{""stimulus"":""img/red_ll/8.jpg"",""time"":403},{""stimulus"":""img/red_ll/9.jpg"",""time"":455},{""stimulus"":""img/red_ll/10.jpg"",""time"":505},{""stimulus"":""img/red_ll/11.jpg"",""time"":556}]","[]"
