"trial_type","trial_index","time_elapsed","internal_node_id","subject_id","task","startTime","totalTime","fairMachine","unfairMachine","view_history","rt","event","trial","time","trialtype","success","stimulus","key_press","roundsLeft","chosen","pFairMachWin","pUnfairMachWin","pTrialWin","outcome","animation_sequence","responses"
"pavlovia","0","2","0.0-0.0","63ed15bed4665c62d9e6dbb2","bdp_lott","Fri Mar 24 2023 20:47:06 GMT-0400 (Eastern Daylight Time)","347475","green","red","","","","","","","","","","","","","","","","",""
"instructions","1","1438","0.0-1.0","63ed15bed4665c62d9e6dbb2","bdp_lott","Fri Mar 24 2023 20:47:06 GMT-0400 (Eastern Daylight Time)","347475","green","red","[{""page_index"":0,""viewing_time"":1436}]","1436","","","","","","","","","","","","","","",""
"","","","","63ed15bed4665c62d9e6dbb2","bdp_lott","Fri Mar 24 2023 20:47:06 GMT-0400 (Eastern Daylight Time)","347475","green","red","","","fullscreenenter","2","3006","fullscreenenter","","","","","","","","","","",""
"fullscreen","2","4011","0.0-2.0","63ed15bed4665c62d9e6dbb2","bdp_lott","Fri Mar 24 2023 20:47:06 GMT-0400 (Eastern Daylight Time)","347475","green","red","","","","","","","true","","","","","","","","","",""
"instructions","3","29928","0.0-4.0","63ed15bed4665c62d9e6dbb2","bdp_lott","Fri Mar 24 2023 20:47:06 GMT-0400 (Eastern Daylight Time)","347475","green","red","[{""page_index"":0,""viewing_time"":25916}]","25916","","","","","","","","","","","","","","",""
"image-keyboard-response","4","33280","0.0-5.0-1.0","63ed15bed4665c62d9e6dbb2","bdp_lott","Fri Mar 24 2023 20:47:06 GMT-0400 (Eastern Daylight Time)","347475","green","red","","3351","","","","choice","","img/red_ll/initchoose11.jpg","1","225","green","0.5","0.5","0.5","w","",""
"animation","5","33882","0.0-5.0-2.0","63ed15bed4665c62d9e6dbb2","bdp_lott","Fri Mar 24 2023 20:47:06 GMT-0400 (Eastern Daylight Time)","347475","green","red","","","","","","","","","","225","","","","","","[{""stimulus"":""img/green_wl/1.jpg"",""time"":53},{""stimulus"":""img/green_wl/2.jpg"",""time"":103},{""stimulus"":""img/green_wl/3.jpg"",""time"":151},{""stimulus"":""img/green_wl/4.jpg"",""time"":201},{""stimulus"":""img/green_wl/5.jpg"",""time"":252},{""stimulus"":""img/green_wl/6.jpg"",""time"":301},{""stimulus"":""img/green_wl/7.jpg"",""time"":351},{""stimulus"":""img/green_wl/8.jpg"",""time"":401},{""stimulus"":""img/green_wl/9.jpg"",""time"":452},{""stimulus"":""img/green_wl/10.jpg"",""time"":501},{""stimulus"":""img/green_wl/11.jpg"",""time"":551}]","[]"
"image-keyboard-response","6","39273","0.0-5.0-1.1","63ed15bed4665c62d9e6dbb2","bdp_lott","Fri Mar 24 2023 20:47:06 GMT-0400 (Eastern Daylight Time)","347475","green","red","","5391","","","","choice","","img/green_wl/choose11.jpg","2","224","red","0.5","0.5","0.5","w","",""
"animation","7","39874","0.0-5.0-2.1","63ed15bed4665c62d9e6dbb2","bdp_lott","Fri Mar 24 2023 20:47:06 GMT-0400 (Eastern Daylight Time)","347475","green","red","","","","","","","","","","224","","","","","","[{""stimulus"":""img/red_ww/1.jpg"",""time"":52},{""stimulus"":""img/red_ww/2.jpg"",""time"":103},{""stimulus"":""img/red_ww/3.jpg"",""time"":151},{""stimulus"":""img/red_ww/4.jpg"",""time"":201},{""stimulus"":""img/red_ww/5.jpg"",""time"":252},{""stimulus"":""img/red_ww/6.jpg"",""time"":302},{""stimulus"":""img/red_ww/7.jpg"",""time"":352},{""stimulus"":""img/red_ww/8.jpg"",""time"":402},{""stimulus"":""img/red_ww/9.jpg"",""time"":462},{""stimulus"":""img/red_ww/10.jpg"",""time"":508},{""stimulus"":""img/red_ww/11.jpg"",""time"":551}]","[]"
"image-keyboard-response","8","42022","0.0-5.0-1.2","63ed15bed4665c62d9e6dbb2","bdp_lott","Fri Mar 24 2023 20:47:06 GMT-0400 (Eastern Daylight Time)","347475","green","red","","2147","","","","choice","","img/red_ww/choose11.jpg","2","223","red","0.5","0.5","0.5","w","",""
"animation","9","42625","0.0-5.0-2.2","63ed15bed4665c62d9e6dbb2","bdp_lott","Fri Mar 24 2023 20:47:06 GMT-0400 (Eastern Daylight Time)","347475","green","red","","","","","","","","","","223","","","","","","[{""stimulus"":""img/red_ww/1.jpg"",""time"":52},{""stimulus"":""img/red_ww/2.jpg"",""time"":101},{""stimulus"":""img/red_ww/3.jpg"",""time"":151},{""stimulus"":""img/red_ww/4.jpg"",""time"":200},{""stimulus"":""img/red_ww/5.jpg"",""time"":251},{""stimulus"":""img/red_ww/6.jpg"",""time"":301},{""stimulus"":""img/red_ww/7.jpg"",""time"":351},{""stimulus"":""img/red_ww/8.jpg"",""time"":401},{""stimulus"":""img/red_ww/9.jpg"",""time"":452},{""stimulus"":""img/red_ww/10.jpg"",""time"":501},{""stimulus"":""img/red_ww/11.jpg"",""time"":552}]","[]"
"image-keyboard-response","10","44091","0.0-5.0-1.3","63ed15bed4665c62d9e6dbb2","bdp_lott","Fri Mar 24 2023 20:47:06 GMT-0400 (Eastern Daylight Time)","347475","green","red","","1466","","","","choice","","img/red_ww/choose11.jpg","2","222","red","0.5","0.5","0.5","w","",""
"animation","11","44692","0.0-5.0-2.3","63ed15bed4665c62d9e6dbb2","bdp_lott","Fri Mar 24 2023 20:47:06 GMT-0400 (Eastern Daylight Time)","347475","green","red","","","","","","","","","","222","","","","","","[{""stimulus"":""img/red_ww/1.jpg"",""time"":51},{""stimulus"":""img/red_ww/2.jpg"",""time"":103},{""stimulus"":""img/red_ww/3.jpg"",""time"":151},{""stimulus"":""img/red_ww/4.jpg"",""time"":201},{""stimulus"":""img/red_ww/5.jpg"",""time"":251},{""stimulus"":""img/red_ww/6.jpg"",""time"":301},{""stimulus"":""img/red_ww/7.jpg"",""time"":351},{""stimulus"":""img/red_ww/8.jpg"",""time"":401},{""stimulus"":""img/red_ww/9.jpg"",""time"":451},{""stimulus"":""img/red_ww/10.jpg"",""time"":502},{""stimulus"":""img/red_ww/11.jpg"",""time"":551}]","[]"
"image-keyboard-response","12","45504","0.0-5.0-1.4","63ed15bed4665c62d9e6dbb2","bdp_lott","Fri Mar 24 2023 20:47:06 GMT-0400 (Eastern Daylight Time)","347475","green","red","","811","","","","choice","","img/red_ww/choose11.jpg","1","221","green","0.5","0.5","0.5","w","",""
"animation","13","46104","0.0-5.0-2.4","63ed15bed4665c62d9e6dbb2","bdp_lott","Fri Mar 24 2023 20:47:06 GMT-0400 (Eastern Daylight Time)","347475","green","red","","","","","","","","","","221","","","","","","[{""stimulus"":""img/green_ww/1.jpg"",""time"":51},{""stimulus"":""img/green_ww/2.jpg"",""time"":101},{""stimulus"":""img/green_ww/3.jpg"",""time"":151},{""stimulus"":""img/green_ww/4.jpg"",""time"":201},{""stimulus"":""img/green_ww/5.jpg"",""time"":251},{""stimulus"":""img/green_ww/6.jpg"",""time"":301},{""stimulus"":""img/green_ww/7.jpg"",""time"":351},{""stimulus"":""img/green_ww/8.jpg"",""time"":400},{""stimulus"":""img/green_ww/9.jpg"",""time"":451},{""stimulus"":""img/green_ww/10.jpg"",""time"":501},{""stimulus"":""img/green_ww/11.jpg"",""time"":551}]","[]"
"image-keyboard-response","14","47759","0.0-5.0-1.5","63ed15bed4665c62d9e6dbb2","bdp_lott","Fri Mar 24 2023 20:47:06 GMT-0400 (Eastern Daylight Time)","347475","green","red","","1653","","","","choice","","img/green_ww/choose11.jpg","1","220","green","0.5","0.5","0.5","w","",""
"animation","15","48360","0.0-5.0-2.5","63ed15bed4665c62d9e6dbb2","bdp_lott","Fri Mar 24 2023 20:47:06 GMT-0400 (Eastern Daylight Time)","347475","green","red","","","","","","","","","","220","","","","","","[{""stimulus"":""img/green_ww/1.jpg"",""time"":51},{""stimulus"":""img/green_ww/2.jpg"",""time"":101},{""stimulus"":""img/green_ww/3.jpg"",""time"":151},{""stimulus"":""img/green_ww/4.jpg"",""time"":201},{""stimulus"":""img/green_ww/5.jpg"",""time"":250},{""stimulus"":""img/green_ww/6.jpg"",""time"":301},{""stimulus"":""img/green_ww/7.jpg"",""time"":350},{""stimulus"":""img/green_ww/8.jpg"",""time"":400},{""stimulus"":""img/green_ww/9.jpg"",""time"":451},{""stimulus"":""img/green_ww/10.jpg"",""time"":501},{""stimulus"":""img/green_ww/11.jpg"",""time"":551}]","[]"
"image-keyboard-response","16","49361","0.0-5.0-1.6","63ed15bed4665c62d9e6dbb2","bdp_lott","Fri Mar 24 2023 20:47:06 GMT-0400 (Eastern Daylight Time)","347475","green","red","","1000","","","","choice","","img/green_ww/choose11.jpg","2","219","red","0.5","0.5","0.5","l","",""
"animation","17","49962","0.0-5.0-2.6","63ed15bed4665c62d9e6dbb2","bdp_lott","Fri Mar 24 2023 20:47:06 GMT-0400 (Eastern Daylight Time)","347475","green","red","","","","","","","","","","219","","","","","","[{""stimulus"":""img/red_wl/1.jpg"",""time"":51},{""stimulus"":""img/red_wl/2.jpg"",""time"":102},{""stimulus"":""img/red_wl/3.jpg"",""time"":152},{""stimulus"":""img/red_wl/4.jpg"",""time"":201},{""stimulus"":""img/red_wl/5.jpg"",""time"":251},{""stimulus"":""img/red_wl/6.jpg"",""time"":301},{""stimulus"":""img/red_wl/7.jpg"",""time"":351},{""stimulus"":""img/red_wl/8.jpg"",""time"":402},{""stimulus"":""img/red_wl/9.jpg"",""time"":451},{""stimulus"":""img/red_wl/10.jpg"",""time"":502},{""stimulus"":""img/red_wl/11.jpg"",""time"":551}]","[]"
"image-keyboard-response","18","50710","0.0-5.0-1.7","63ed15bed4665c62d9e6dbb2","bdp_lott","Fri Mar 24 2023 20:47:06 GMT-0400 (Eastern Daylight Time)","347475","green","red","","748","","","","choice","","img/red_wl/choose11.jpg","1","218","green","0.5","0.5","0.5","l","",""
"animation","19","51310","0.0-5.0-2.7","63ed15bed4665c62d9e6dbb2","bdp_lott","Fri Mar 24 2023 20:47:06 GMT-0400 (Eastern Daylight Time)","347475","green","red","","","","","","","","","","218","","","","","","[{""stimulus"":""img/green_ll/1.jpg"",""time"":51},{""stimulus"":""img/green_ll/2.jpg"",""time"":101},{""stimulus"":""img/green_ll/3.jpg"",""time"":151},{""stimulus"":""img/green_ll/4.jpg"",""time"":201},{""stimulus"":""img/green_ll/5.jpg"",""time"":251},{""stimulus"":""img/green_ll/6.jpg"",""time"":301},{""stimulus"":""img/green_ll/7.jpg"",""time"":351},{""stimulus"":""img/green_ll/8.jpg"",""time"":400},{""stimulus"":""img/green_ll/9.jpg"",""time"":452},{""stimulus"":""img/green_ll/10.jpg"",""time"":501},{""stimulus"":""img/green_ll/11.jpg"",""time"":551}]","[]"
"image-keyboard-response","20","52201","0.0-5.0-1.8","63ed15bed4665c62d9e6dbb2","bdp_lott","Fri Mar 24 2023 20:47:06 GMT-0400 (Eastern Daylight Time)","347475","green","red","","890","","","","choice","","img/green_ll/choose11.jpg","1","217","green","0.5","0.5","0.5","w","",""
"animation","21","52802","0.0-5.0-2.8","63ed15bed4665c62d9e6dbb2","bdp_lott","Fri Mar 24 2023 20:47:06 GMT-0400 (Eastern Daylight Time)","347475","green","red","","","","","","","","","","217","","","","","","[{""stimulus"":""img/green_wl/1.jpg"",""time"":50},{""stimulus"":""img/green_wl/2.jpg"",""time"":102},{""stimulus"":""img/green_wl/3.jpg"",""time"":151},{""stimulus"":""img/green_wl/4.jpg"",""time"":200},{""stimulus"":""img/green_wl/5.jpg"",""time"":251},{""stimulus"":""img/green_wl/6.jpg"",""time"":300},{""stimulus"":""img/green_wl/7.jpg"",""time"":351},{""stimulus"":""img/green_wl/8.jpg"",""time"":401},{""stimulus"":""img/green_wl/9.jpg"",""time"":451},{""stimulus"":""img/green_wl/10.jpg"",""time"":500},{""stimulus"":""img/green_wl/11.jpg"",""time"":550}]","[]"
"image-keyboard-response","22","53501","0.0-5.0-1.9","63ed15bed4665c62d9e6dbb2","bdp_lott","Fri Mar 24 2023 20:47:06 GMT-0400 (Eastern Daylight Time)","347475","green","red","","699","","","","choice","","img/green_wl/choose11.jpg","2","216","red","0.5","0.5","0.5","w","",""
"animation","23","54102","0.0-5.0-2.9","63ed15bed4665c62d9e6dbb2","bdp_lott","Fri Mar 24 2023 20:47:06 GMT-0400 (Eastern Daylight Time)","347475","green","red","","","","","","","","","","216","","","","","","[{""stimulus"":""img/red_ww/1.jpg"",""time"":51},{""stimulus"":""img/red_ww/2.jpg"",""time"":102},{""stimulus"":""img/red_ww/3.jpg"",""time"":152},{""stimulus"":""img/red_ww/4.jpg"",""time"":201},{""stimulus"":""img/red_ww/5.jpg"",""time"":251},{""stimulus"":""img/red_ww/6.jpg"",""time"":301},{""stimulus"":""img/red_ww/7.jpg"",""time"":352},{""stimulus"":""img/red_ww/8.jpg"",""time"":403},{""stimulus"":""img/red_ww/9.jpg"",""time"":452},{""stimulus"":""img/red_ww/10.jpg"",""time"":502},{""stimulus"":""img/red_ww/11.jpg"",""time"":551}]","[]"
"image-keyboard-response","24","54846","0.0-5.0-1.10","63ed15bed4665c62d9e6dbb2","bdp_lott","Fri Mar 24 2023 20:47:06 GMT-0400 (Eastern Daylight Time)","347475","green","red","","744","","","","choice","","img/red_ww/choose11.jpg","1","215","green","0.5","0.5","0.5","l","",""
"animation","25","55447","0.0-5.0-2.10","63ed15bed4665c62d9e6dbb2","bdp_lott","Fri Mar 24 2023 20:47:06 GMT-0400 (Eastern Daylight Time)","347475","green","red","","","","","","","","","","215","","","","","","[{""stimulus"":""img/green_lw/1.jpg"",""time"":51},{""stimulus"":""img/green_lw/2.jpg"",""time"":101},{""stimulus"":""img/green_lw/3.jpg"",""time"":151},{""stimulus"":""img/green_lw/4.jpg"",""time"":201},{""stimulus"":""img/green_lw/5.jpg"",""time"":250},{""stimulus"":""img/green_lw/6.jpg"",""time"":301},{""stimulus"":""img/green_lw/7.jpg"",""time"":351},{""stimulus"":""img/green_lw/8.jpg"",""time"":401},{""stimulus"":""img/green_lw/9.jpg"",""time"":452},{""stimulus"":""img/green_lw/10.jpg"",""time"":501},{""stimulus"":""img/green_lw/11.jpg"",""time"":551}]","[]"
"image-keyboard-response","26","56282","0.0-5.0-1.11","63ed15bed4665c62d9e6dbb2","bdp_lott","Fri Mar 24 2023 20:47:06 GMT-0400 (Eastern Daylight Time)","347475","green","red","","834","","","","choice","","img/green_lw/choose11.jpg","2","214","red","0.5","0.5","0.5","l","",""
"animation","27","56884","0.0-5.0-2.11","63ed15bed4665c62d9e6dbb2","bdp_lott","Fri Mar 24 2023 20:47:06 GMT-0400 (Eastern Daylight Time)","347475","green","red","","","","","","","","","","214","","","","","","[{""stimulus"":""img/red_ll/1.jpg"",""time"":51},{""stimulus"":""img/red_ll/2.jpg"",""time"":100},{""stimulus"":""img/red_ll/3.jpg"",""time"":152},{""stimulus"":""img/red_ll/4.jpg"",""time"":200},{""stimulus"":""img/red_ll/5.jpg"",""time"":251},{""stimulus"":""img/red_ll/6.jpg"",""time"":301},{""stimulus"":""img/red_ll/7.jpg"",""time"":351},{""stimulus"":""img/red_ll/8.jpg"",""time"":401},{""stimulus"":""img/red_ll/9.jpg"",""time"":451},{""stimulus"":""img/red_ll/10.jpg"",""time"":502},{""stimulus"":""img/red_ll/11.jpg"",""time"":551}]","[]"
"image-keyboard-response","28","57467","0.0-5.0-1.12","63ed15bed4665c62d9e6dbb2","bdp_lott","Fri Mar 24 2023 20:47:06 GMT-0400 (Eastern Daylight Time)","347475","green","red","","583","","","","choice","","img/red_ll/choose11.jpg","1","213","green","0.5","0.5","0.5","l","",""
"animation","29","58068","0.0-5.0-2.12","63ed15bed4665c62d9e6dbb2","bdp_lott","Fri Mar 24 2023 20:47:06 GMT-0400 (Eastern Daylight Time)","347475","green","red","","","","","","","","","","213","","","","","","[{""stimulus"":""img/green_ll/1.jpg"",""time"":51},{""stimulus"":""img/green_ll/2.jpg"",""time"":101},{""stimulus"":""img/green_ll/3.jpg"",""time"":150},{""stimulus"":""img/green_ll/4.jpg"",""time"":201},{""stimulus"":""img/green_ll/5.jpg"",""time"":250},{""stimulus"":""img/green_ll/6.jpg"",""time"":301},{""stimulus"":""img/green_ll/7.jpg"",""time"":353},{""stimulus"":""img/green_ll/8.jpg"",""time"":402},{""stimulus"":""img/green_ll/9.jpg"",""time"":451},{""stimulus"":""img/green_ll/10.jpg"",""time"":501},{""stimulus"":""img/green_ll/11.jpg"",""time"":551}]","[]"
"image-keyboard-response","30","59479","0.0-5.0-1.13","63ed15bed4665c62d9e6dbb2","bdp_lott","Fri Mar 24 2023 20:47:06 GMT-0400 (Eastern Daylight Time)","347475","green","red","","1410","","","","choice","","img/green_ll/choose11.jpg","1","212","green","0.5","0.5","0.5","l","",""
"animation","31","60080","0.0-5.0-2.13","63ed15bed4665c62d9e6dbb2","bdp_lott","Fri Mar 24 2023 20:47:06 GMT-0400 (Eastern Daylight Time)","347475","green","red","","","","","","","","","","212","","","","","","[{""stimulus"":""img/green_ll/1.jpg"",""time"":51},{""stimulus"":""img/green_ll/2.jpg"",""time"":101},{""stimulus"":""img/green_ll/3.jpg"",""time"":151},{""stimulus"":""img/green_ll/4.jpg"",""time"":202},{""stimulus"":""img/green_ll/5.jpg"",""time"":251},{""stimulus"":""img/green_ll/6.jpg"",""time"":301},{""stimulus"":""img/green_ll/7.jpg"",""time"":352},{""stimulus"":""img/green_ll/8.jpg"",""time"":402},{""stimulus"":""img/green_ll/9.jpg"",""time"":451},{""stimulus"":""img/green_ll/10.jpg"",""time"":501},{""stimulus"":""img/green_ll/11.jpg"",""time"":552}]","[]"
"image-keyboard-response","32","60846","0.0-5.0-1.14","63ed15bed4665c62d9e6dbb2","bdp_lott","Fri Mar 24 2023 20:47:06 GMT-0400 (Eastern Daylight Time)","347475","green","red","","765","","","","choice","","img/green_ll/choose11.jpg","1","211","green","0.5","0.5","0.5","l","",""
"animation","33","61447","0.0-5.0-2.14","63ed15bed4665c62d9e6dbb2","bdp_lott","Fri Mar 24 2023 20:47:06 GMT-0400 (Eastern Daylight Time)","347475","green","red","","","","","","","","","","211","","","","","","[{""stimulus"":""img/green_ll/1.jpg"",""time"":51},{""stimulus"":""img/green_ll/2.jpg"",""time"":100},{""stimulus"":""img/green_ll/3.jpg"",""time"":151},{""stimulus"":""img/green_ll/4.jpg"",""time"":200},{""stimulus"":""img/green_ll/5.jpg"",""time"":251},{""stimulus"":""img/green_ll/6.jpg"",""time"":300},{""stimulus"":""img/green_ll/7.jpg"",""time"":350},{""stimulus"":""img/green_ll/8.jpg"",""time"":401},{""stimulus"":""img/green_ll/9.jpg"",""time"":451},{""stimulus"":""img/green_ll/10.jpg"",""time"":500},{""stimulus"":""img/green_ll/11.jpg"",""time"":550}]","[]"
"image-keyboard-response","34","62197","0.0-5.0-1.15","63ed15bed4665c62d9e6dbb2","bdp_lott","Fri Mar 24 2023 20:47:06 GMT-0400 (Eastern Daylight Time)","347475","green","red","","750","","","","choice","","img/green_ll/choose11.jpg","1","210","green","0.5","0.5","0.5","w","",""
"animation","35","62798","0.0-5.0-2.15","63ed15bed4665c62d9e6dbb2","bdp_lott","Fri Mar 24 2023 20:47:06 GMT-0400 (Eastern Daylight Time)","347475","green","red","","","","","","","","","","210","","","","","","[{""stimulus"":""img/green_wl/1.jpg"",""time"":52},{""stimulus"":""img/green_wl/2.jpg"",""time"":102},{""stimulus"":""img/green_wl/3.jpg"",""time"":151},{""stimulus"":""img/green_wl/4.jpg"",""time"":201},{""stimulus"":""img/green_wl/5.jpg"",""time"":251},{""stimulus"":""img/green_wl/6.jpg"",""time"":301},{""stimulus"":""img/green_wl/7.jpg"",""time"":350},{""stimulus"":""img/green_wl/8.jpg"",""time"":401},{""stimulus"":""img/green_wl/9.jpg"",""time"":452},{""stimulus"":""img/green_wl/10.jpg"",""time"":501},{""stimulus"":""img/green_wl/11.jpg"",""time"":551}]","[]"
"image-keyboard-response","36","63431","0.0-5.0-1.16","63ed15bed4665c62d9e6dbb2","bdp_lott","Fri Mar 24 2023 20:47:06 GMT-0400 (Eastern Daylight Time)","347475","green","red","","632","","","","choice","","img/green_wl/choose11.jpg","2","209","red","0.5","0.5","0.5","l","",""
"animation","37","64032","0.0-5.0-2.16","63ed15bed4665c62d9e6dbb2","bdp_lott","Fri Mar 24 2023 20:47:06 GMT-0400 (Eastern Daylight Time)","347475","green","red","","","","","","","","","","209","","","","","","[{""stimulus"":""img/red_wl/1.jpg"",""time"":50},{""stimulus"":""img/red_wl/2.jpg"",""time"":101},{""stimulus"":""img/red_wl/3.jpg"",""time"":152},{""stimulus"":""img/red_wl/4.jpg"",""time"":202},{""stimulus"":""img/red_wl/5.jpg"",""time"":251},{""stimulus"":""img/red_wl/6.jpg"",""time"":301},{""stimulus"":""img/red_wl/7.jpg"",""time"":351},{""stimulus"":""img/red_wl/8.jpg"",""time"":400},{""stimulus"":""img/red_wl/9.jpg"",""time"":451},{""stimulus"":""img/red_wl/10.jpg"",""time"":500},{""stimulus"":""img/red_wl/11.jpg"",""time"":551}]","[]"
"image-keyboard-response","38","64577","0.0-5.0-1.17","63ed15bed4665c62d9e6dbb2","bdp_lott","Fri Mar 24 2023 20:47:06 GMT-0400 (Eastern Daylight Time)","347475","green","red","","544","","","","choice","","img/red_wl/choose11.jpg","2","208","red","0.5","0.5","0.5","w","",""
"animation","39","65177","0.0-5.0-2.17","63ed15bed4665c62d9e6dbb2","bdp_lott","Fri Mar 24 2023 20:47:06 GMT-0400 (Eastern Daylight Time)","347475","green","red","","","","","","","","","","208","","","","","","[{""stimulus"":""img/red_ww/1.jpg"",""time"":51},{""stimulus"":""img/red_ww/2.jpg"",""time"":100},{""stimulus"":""img/red_ww/3.jpg"",""time"":151},{""stimulus"":""img/red_ww/4.jpg"",""time"":202},{""stimulus"":""img/red_ww/5.jpg"",""time"":251},{""stimulus"":""img/red_ww/6.jpg"",""time"":301},{""stimulus"":""img/red_ww/7.jpg"",""time"":351},{""stimulus"":""img/red_ww/8.jpg"",""time"":401},{""stimulus"":""img/red_ww/9.jpg"",""time"":451},{""stimulus"":""img/red_ww/10.jpg"",""time"":500},{""stimulus"":""img/red_ww/11.jpg"",""time"":552}]","[]"
"image-keyboard-response","40","65834","0.0-5.0-1.18","63ed15bed4665c62d9e6dbb2","bdp_lott","Fri Mar 24 2023 20:47:06 GMT-0400 (Eastern Daylight Time)","347475","green","red","","657","","","","choice","","img/red_ww/choose11.jpg","1","207","green","0.5","0.5","0.5","w","",""
"animation","41","66435","0.0-5.0-2.18","63ed15bed4665c62d9e6dbb2","bdp_lott","Fri Mar 24 2023 20:47:06 GMT-0400 (Eastern Daylight Time)","347475","green","red","","","","","","","","","","207","","","","","","[{""stimulus"":""img/green_ww/1.jpg"",""time"":51},{""stimulus"":""img/green_ww/2.jpg"",""time"":101},{""stimulus"":""img/green_ww/3.jpg"",""time"":151},{""stimulus"":""img/green_ww/4.jpg"",""time"":202},{""stimulus"":""img/green_ww/5.jpg"",""time"":251},{""stimulus"":""img/green_ww/6.jpg"",""time"":302},{""stimulus"":""img/green_ww/7.jpg"",""time"":351},{""stimulus"":""img/green_ww/8.jpg"",""time"":402},{""stimulus"":""img/green_ww/9.jpg"",""time"":451},{""stimulus"":""img/green_ww/10.jpg"",""time"":501},{""stimulus"":""img/green_ww/11.jpg"",""time"":553}]","[]"
"image-keyboard-response","42","67044","0.0-5.0-1.19","63ed15bed4665c62d9e6dbb2","bdp_lott","Fri Mar 24 2023 20:47:06 GMT-0400 (Eastern Daylight Time)","347475","green","red","","609","","","","choice","","img/green_ww/choose11.jpg","2","206","red","0.5","0.5","0.5","w","",""
"animation","43","67645","0.0-5.0-2.19","63ed15bed4665c62d9e6dbb2","bdp_lott","Fri Mar 24 2023 20:47:06 GMT-0400 (Eastern Daylight Time)","347475","green","red","","","","","","","","","","206","","","","","","[{""stimulus"":""img/red_ww/1.jpg"",""time"":50},{""stimulus"":""img/red_ww/2.jpg"",""time"":100},{""stimulus"":""img/red_ww/3.jpg"",""time"":150},{""stimulus"":""img/red_ww/4.jpg"",""time"":201},{""stimulus"":""img/red_ww/5.jpg"",""time"":250},{""stimulus"":""img/red_ww/6.jpg"",""time"":300},{""stimulus"":""img/red_ww/7.jpg"",""time"":350},{""stimulus"":""img/red_ww/8.jpg"",""time"":401},{""stimulus"":""img/red_ww/9.jpg"",""time"":451},{""stimulus"":""img/red_ww/10.jpg"",""time"":500},{""stimulus"":""img/red_ww/11.jpg"",""time"":550}]","[]"
"image-keyboard-response","44","68264","0.0-5.0-1.20","63ed15bed4665c62d9e6dbb2","bdp_lott","Fri Mar 24 2023 20:47:06 GMT-0400 (Eastern Daylight Time)","347475","green","red","","619","","","","choice","","img/red_ww/choose11.jpg","1","205","green","0.5","0.5","0.5","w","",""
"animation","45","68865","0.0-5.0-2.20","63ed15bed4665c62d9e6dbb2","bdp_lott","Fri Mar 24 2023 20:47:06 GMT-0400 (Eastern Daylight Time)","347475","green","red","","","","","","","","","","205","","","","","","[{""stimulus"":""img/green_ww/1.jpg"",""time"":51},{""stimulus"":""img/green_ww/2.jpg"",""time"":102},{""stimulus"":""img/green_ww/3.jpg"",""time"":152},{""stimulus"":""img/green_ww/4.jpg"",""time"":201},{""stimulus"":""img/green_ww/5.jpg"",""time"":252},{""stimulus"":""img/green_ww/6.jpg"",""time"":301},{""stimulus"":""img/green_ww/7.jpg"",""time"":351},{""stimulus"":""img/green_ww/8.jpg"",""time"":401},{""stimulus"":""img/green_ww/9.jpg"",""time"":451},{""stimulus"":""img/green_ww/10.jpg"",""time"":501},{""stimulus"":""img/green_ww/11.jpg"",""time"":551}]","[]"
"image-keyboard-response","46","69284","0.0-5.0-1.21","63ed15bed4665c62d9e6dbb2","bdp_lott","Fri Mar 24 2023 20:47:06 GMT-0400 (Eastern Daylight Time)","347475","green","red","","419","","","","choice","","img/green_ww/choose11.jpg","1","204","green","0.5","0.5","0.5","w","",""
"animation","47","69886","0.0-5.0-2.21","63ed15bed4665c62d9e6dbb2","bdp_lott","Fri Mar 24 2023 20:47:06 GMT-0400 (Eastern Daylight Time)","347475","green","red","","","","","","","","","","204","","","","","","[{""stimulus"":""img/green_ww/1.jpg"",""time"":51},{""stimulus"":""img/green_ww/2.jpg"",""time"":101},{""stimulus"":""img/green_ww/3.jpg"",""time"":151},{""stimulus"":""img/green_ww/4.jpg"",""time"":202},{""stimulus"":""img/green_ww/5.jpg"",""time"":251},{""stimulus"":""img/green_ww/6.jpg"",""time"":301},{""stimulus"":""img/green_ww/7.jpg"",""time"":352},{""stimulus"":""img/green_ww/8.jpg"",""time"":401},{""stimulus"":""img/green_ww/9.jpg"",""time"":451},{""stimulus"":""img/green_ww/10.jpg"",""time"":501},{""stimulus"":""img/green_ww/11.jpg"",""time"":551}]","[]"
"image-keyboard-response","48","70307","0.0-5.0-1.22","63ed15bed4665c62d9e6dbb2","bdp_lott","Fri Mar 24 2023 20:47:06 GMT-0400 (Eastern Daylight Time)","347475","green","red","","421","","","","choice","","img/green_ww/choose11.jpg","1","203","green","0.5","0.5","0.5","l","",""
"animation","49","70908","0.0-5.0-2.22","63ed15bed4665c62d9e6dbb2","bdp_lott","Fri Mar 24 2023 20:47:06 GMT-0400 (Eastern Daylight Time)","347475","green","red","","","","","","","","","","203","","","","","","[{""stimulus"":""img/green_lw/1.jpg"",""time"":51},{""stimulus"":""img/green_lw/2.jpg"",""time"":101},{""stimulus"":""img/green_lw/3.jpg"",""time"":152},{""stimulus"":""img/green_lw/4.jpg"",""time"":202},{""stimulus"":""img/green_lw/5.jpg"",""time"":251},{""stimulus"":""img/green_lw/6.jpg"",""time"":301},{""stimulus"":""img/green_lw/7.jpg"",""time"":351},{""stimulus"":""img/green_lw/8.jpg"",""time"":401},{""stimulus"":""img/green_lw/9.jpg"",""time"":452},{""stimulus"":""img/green_lw/10.jpg"",""time"":501},{""stimulus"":""img/green_lw/11.jpg"",""time"":551}]","[]"
"image-keyboard-response","50","71344","0.0-5.0-1.23","63ed15bed4665c62d9e6dbb2","bdp_lott","Fri Mar 24 2023 20:47:06 GMT-0400 (Eastern Daylight Time)","347475","green","red","","435","","","","choice","","img/green_lw/choose11.jpg","2","202","red","0.5","0.5","0.5","w","",""
"animation","51","71944","0.0-5.0-2.23","63ed15bed4665c62d9e6dbb2","bdp_lott","Fri Mar 24 2023 20:47:06 GMT-0400 (Eastern Daylight Time)","347475","green","red","","","","","","","","","","202","","","","","","[{""stimulus"":""img/red_lw/1.jpg"",""time"":51},{""stimulus"":""img/red_lw/2.jpg"",""time"":101},{""stimulus"":""img/red_lw/3.jpg"",""time"":150},{""stimulus"":""img/red_lw/4.jpg"",""time"":201},{""stimulus"":""img/red_lw/5.jpg"",""time"":250},{""stimulus"":""img/red_lw/6.jpg"",""time"":301},{""stimulus"":""img/red_lw/7.jpg"",""time"":351},{""stimulus"":""img/red_lw/8.jpg"",""time"":401},{""stimulus"":""img/red_lw/9.jpg"",""time"":451},{""stimulus"":""img/red_lw/10.jpg"",""time"":501},{""stimulus"":""img/red_lw/11.jpg"",""time"":551}]","[]"
"image-keyboard-response","52","72679","0.0-5.0-1.24","63ed15bed4665c62d9e6dbb2","bdp_lott","Fri Mar 24 2023 20:47:06 GMT-0400 (Eastern Daylight Time)","347475","green","red","","735","","","","choice","","img/red_lw/choose11.jpg","2","201","red","0.5","0.5","0.5","l","",""
"animation","53","73280","0.0-5.0-2.24","63ed15bed4665c62d9e6dbb2","bdp_lott","Fri Mar 24 2023 20:47:06 GMT-0400 (Eastern Daylight Time)","347475","green","red","","","","","","","","","","201","","","","","","[{""stimulus"":""img/red_ll/1.jpg"",""time"":52},{""stimulus"":""img/red_ll/2.jpg"",""time"":101},{""stimulus"":""img/red_ll/3.jpg"",""time"":151},{""stimulus"":""img/red_ll/4.jpg"",""time"":201},{""stimulus"":""img/red_ll/5.jpg"",""time"":251},{""stimulus"":""img/red_ll/6.jpg"",""time"":302},{""stimulus"":""img/red_ll/7.jpg"",""time"":351},{""stimulus"":""img/red_ll/8.jpg"",""time"":401},{""stimulus"":""img/red_ll/9.jpg"",""time"":452},{""stimulus"":""img/red_ll/10.jpg"",""time"":501},{""stimulus"":""img/red_ll/11.jpg"",""time"":551}]","[]"
"image-keyboard-response","54","73756","0.0-5.0-1.25","63ed15bed4665c62d9e6dbb2","bdp_lott","Fri Mar 24 2023 20:47:06 GMT-0400 (Eastern Daylight Time)","347475","green","red","","476","","","","choice","","img/red_ll/choose11.jpg","1","200","green","0.5","0.5","0.5","l","",""
"animation","55","74357","0.0-5.0-2.25","63ed15bed4665c62d9e6dbb2","bdp_lott","Fri Mar 24 2023 20:47:06 GMT-0400 (Eastern Daylight Time)","347475","green","red","","","","","","","","","","200","","","","","","[{""stimulus"":""img/green_ll/1.jpg"",""time"":51},{""stimulus"":""img/green_ll/2.jpg"",""time"":101},{""stimulus"":""img/green_ll/3.jpg"",""time"":152},{""stimulus"":""img/green_ll/4.jpg"",""time"":201},{""stimulus"":""img/green_ll/5.jpg"",""time"":251},{""stimulus"":""img/green_ll/6.jpg"",""time"":301},{""stimulus"":""img/green_ll/7.jpg"",""time"":351},{""stimulus"":""img/green_ll/8.jpg"",""time"":402},{""stimulus"":""img/green_ll/9.jpg"",""time"":451},{""stimulus"":""img/green_ll/10.jpg"",""time"":502},{""stimulus"":""img/green_ll/11.jpg"",""time"":551}]","[]"
"image-keyboard-response","56","75156","0.0-5.0-1.26","63ed15bed4665c62d9e6dbb2","bdp_lott","Fri Mar 24 2023 20:47:06 GMT-0400 (Eastern Daylight Time)","347475","green","red","","798","","","","choice","","img/green_ll/choose11.jpg","2","199","red","0.5","0.5","0.5","w","",""
"animation","57","75758","0.0-5.0-2.26","63ed15bed4665c62d9e6dbb2","bdp_lott","Fri Mar 24 2023 20:47:06 GMT-0400 (Eastern Daylight Time)","347475","green","red","","","","","","","","","","199","","","","","","[{""stimulus"":""img/red_lw/1.jpg"",""time"":50},{""stimulus"":""img/red_lw/2.jpg"",""time"":102},{""stimulus"":""img/red_lw/3.jpg"",""time"":150},{""stimulus"":""img/red_lw/4.jpg"",""time"":201},{""stimulus"":""img/red_lw/5.jpg"",""time"":250},{""stimulus"":""img/red_lw/6.jpg"",""time"":300},{""stimulus"":""img/red_lw/7.jpg"",""time"":350},{""stimulus"":""img/red_lw/8.jpg"",""time"":400},{""stimulus"":""img/red_lw/9.jpg"",""time"":450},{""stimulus"":""img/red_lw/10.jpg"",""time"":500},{""stimulus"":""img/red_lw/11.jpg"",""time"":550}]","[]"
"image-keyboard-response","58","76276","0.0-5.0-1.27","63ed15bed4665c62d9e6dbb2","bdp_lott","Fri Mar 24 2023 20:47:06 GMT-0400 (Eastern Daylight Time)","347475","green","red","","518","","","","choice","","img/red_lw/choose11.jpg","2","198","red","0.5","0.5","0.5","w","",""
"animation","59","76877","0.0-5.0-2.27","63ed15bed4665c62d9e6dbb2","bdp_lott","Fri Mar 24 2023 20:47:06 GMT-0400 (Eastern Daylight Time)","347475","green","red","","","","","","","","","","198","","","","","","[{""stimulus"":""img/red_lw/1.jpg"",""time"":52},{""stimulus"":""img/red_lw/2.jpg"",""time"":100},{""stimulus"":""img/red_lw/3.jpg"",""time"":150},{""stimulus"":""img/red_lw/4.jpg"",""time"":201},{""stimulus"":""img/red_lw/5.jpg"",""time"":250},{""stimulus"":""img/red_lw/6.jpg"",""time"":300},{""stimulus"":""img/red_lw/7.jpg"",""time"":350},{""stimulus"":""img/red_lw/8.jpg"",""time"":400},{""stimulus"":""img/red_lw/9.jpg"",""time"":450},{""stimulus"":""img/red_lw/10.jpg"",""time"":501},{""stimulus"":""img/red_lw/11.jpg"",""time"":551}]","[]"
"image-keyboard-response","60","77272","0.0-5.0-1.28","63ed15bed4665c62d9e6dbb2","bdp_lott","Fri Mar 24 2023 20:47:06 GMT-0400 (Eastern Daylight Time)","347475","green","red","","395","","","","choice","","img/red_lw/choose11.jpg","2","197","red","0.5","0.5","0.5","w","",""
"animation","61","77873","0.0-5.0-2.28","63ed15bed4665c62d9e6dbb2","bdp_lott","Fri Mar 24 2023 20:47:06 GMT-0400 (Eastern Daylight Time)","347475","green","red","","","","","","","","","","197","","","","","","[{""stimulus"":""img/red_lw/1.jpg"",""time"":52},{""stimulus"":""img/red_lw/2.jpg"",""time"":101},{""stimulus"":""img/red_lw/3.jpg"",""time"":151},{""stimulus"":""img/red_lw/4.jpg"",""time"":201},{""stimulus"":""img/red_lw/5.jpg"",""time"":253},{""stimulus"":""img/red_lw/6.jpg"",""time"":302},{""stimulus"":""img/red_lw/7.jpg"",""time"":351},{""stimulus"":""img/red_lw/8.jpg"",""time"":401},{""stimulus"":""img/red_lw/9.jpg"",""time"":451},{""stimulus"":""img/red_lw/10.jpg"",""time"":502},{""stimulus"":""img/red_lw/11.jpg"",""time"":552}]","[]"
"image-keyboard-response","62","78241","0.0-5.0-1.29","63ed15bed4665c62d9e6dbb2","bdp_lott","Fri Mar 24 2023 20:47:06 GMT-0400 (Eastern Daylight Time)","347475","green","red","","368","","","","choice","","img/red_lw/choose11.jpg","2","196","red","0.5","0.5","0.5","l","",""
"animation","63","78842","0.0-5.0-2.29","63ed15bed4665c62d9e6dbb2","bdp_lott","Fri Mar 24 2023 20:47:06 GMT-0400 (Eastern Daylight Time)","347475","green","red","","","","","","","","","","196","","","","","","[{""stimulus"":""img/red_ll/1.jpg"",""time"":50},{""stimulus"":""img/red_ll/2.jpg"",""time"":100},{""stimulus"":""img/red_ll/3.jpg"",""time"":151},{""stimulus"":""img/red_ll/4.jpg"",""time"":201},{""stimulus"":""img/red_ll/5.jpg"",""time"":250},{""stimulus"":""img/red_ll/6.jpg"",""time"":301},{""stimulus"":""img/red_ll/7.jpg"",""time"":351},{""stimulus"":""img/red_ll/8.jpg"",""time"":400},{""stimulus"":""img/red_ll/9.jpg"",""time"":450},{""stimulus"":""img/red_ll/10.jpg"",""time"":500},{""stimulus"":""img/red_ll/11.jpg"",""time"":550}]","[]"
"image-keyboard-response","64","79445","0.0-5.0-1.30","63ed15bed4665c62d9e6dbb2","bdp_lott","Fri Mar 24 2023 20:47:06 GMT-0400 (Eastern Daylight Time)","347475","green","red","","603","","","","choice","","img/red_ll/choose11.jpg","1","195","green","0.5","0.5","0.5","l","",""
"animation","65","80046","0.0-5.0-2.30","63ed15bed4665c62d9e6dbb2","bdp_lott","Fri Mar 24 2023 20:47:06 GMT-0400 (Eastern Daylight Time)","347475","green","red","","","","","","","","","","195","","","","","","[{""stimulus"":""img/green_ll/1.jpg"",""time"":51},{""stimulus"":""img/green_ll/2.jpg"",""time"":101},{""stimulus"":""img/green_ll/3.jpg"",""time"":151},{""stimulus"":""img/green_ll/4.jpg"",""time"":201},{""stimulus"":""img/green_ll/5.jpg"",""time"":251},{""stimulus"":""img/green_ll/6.jpg"",""time"":302},{""stimulus"":""img/green_ll/7.jpg"",""time"":351},{""stimulus"":""img/green_ll/8.jpg"",""time"":401},{""stimulus"":""img/green_ll/9.jpg"",""time"":451},{""stimulus"":""img/green_ll/10.jpg"",""time"":501},{""stimulus"":""img/green_ll/11.jpg"",""time"":551}]","[]"
"image-keyboard-response","66","80555","0.0-5.0-1.31","63ed15bed4665c62d9e6dbb2","bdp_lott","Fri Mar 24 2023 20:47:06 GMT-0400 (Eastern Daylight Time)","347475","green","red","","509","","","","choice","","img/green_ll/choose11.jpg","1","194","green","0.5","0.5","0.5","l","",""
"animation","67","81155","0.0-5.0-2.31","63ed15bed4665c62d9e6dbb2","bdp_lott","Fri Mar 24 2023 20:47:06 GMT-0400 (Eastern Daylight Time)","347475","green","red","","","","","","","","","","194","","","","","","[{""stimulus"":""img/green_ll/1.jpg"",""time"":52},{""stimulus"":""img/green_ll/2.jpg"",""time"":101},{""stimulus"":""img/green_ll/3.jpg"",""time"":151},{""stimulus"":""img/green_ll/4.jpg"",""time"":201},{""stimulus"":""img/green_ll/5.jpg"",""time"":251},{""stimulus"":""img/green_ll/6.jpg"",""time"":302},{""stimulus"":""img/green_ll/7.jpg"",""time"":351},{""stimulus"":""img/green_ll/8.jpg"",""time"":400},{""stimulus"":""img/green_ll/9.jpg"",""time"":451},{""stimulus"":""img/green_ll/10.jpg"",""time"":501},{""stimulus"":""img/green_ll/11.jpg"",""time"":551}]","[]"
"image-keyboard-response","68","81603","0.0-5.0-1.32","63ed15bed4665c62d9e6dbb2","bdp_lott","Fri Mar 24 2023 20:47:06 GMT-0400 (Eastern Daylight Time)","347475","green","red","","447","","","","choice","","img/green_ll/choose11.jpg","1","193","green","0.5","0.5","0.5","l","",""
"animation","69","82205","0.0-5.0-2.32","63ed15bed4665c62d9e6dbb2","bdp_lott","Fri Mar 24 2023 20:47:06 GMT-0400 (Eastern Daylight Time)","347475","green","red","","","","","","","","","","193","","","","","","[{""stimulus"":""img/green_ll/1.jpg"",""time"":51},{""stimulus"":""img/green_ll/2.jpg"",""time"":101},{""stimulus"":""img/green_ll/3.jpg"",""time"":151},{""stimulus"":""img/green_ll/4.jpg"",""time"":201},{""stimulus"":""img/green_ll/5.jpg"",""time"":252},{""stimulus"":""img/green_ll/6.jpg"",""time"":302},{""stimulus"":""img/green_ll/7.jpg"",""time"":351},{""stimulus"":""img/green_ll/8.jpg"",""time"":402},{""stimulus"":""img/green_ll/9.jpg"",""time"":451},{""stimulus"":""img/green_ll/10.jpg"",""time"":500},{""stimulus"":""img/green_ll/11.jpg"",""time"":551}]","[]"
"image-keyboard-response","70","82653","0.0-5.0-1.33","63ed15bed4665c62d9e6dbb2","bdp_lott","Fri Mar 24 2023 20:47:06 GMT-0400 (Eastern Daylight Time)","347475","green","red","","448","","","","choice","","img/green_ll/choose11.jpg","2","192","red","0.5","0.5","0.5","w","",""
"animation","71","83255","0.0-5.0-2.33","63ed15bed4665c62d9e6dbb2","bdp_lott","Fri Mar 24 2023 20:47:06 GMT-0400 (Eastern Daylight Time)","347475","green","red","","","","","","","","","","192","","","","","","[{""stimulus"":""img/red_lw/1.jpg"",""time"":52},{""stimulus"":""img/red_lw/2.jpg"",""time"":101},{""stimulus"":""img/red_lw/3.jpg"",""time"":152},{""stimulus"":""img/red_lw/4.jpg"",""time"":202},{""stimulus"":""img/red_lw/5.jpg"",""time"":251},{""stimulus"":""img/red_lw/6.jpg"",""time"":301},{""stimulus"":""img/red_lw/7.jpg"",""time"":352},{""stimulus"":""img/red_lw/8.jpg"",""time"":401},{""stimulus"":""img/red_lw/9.jpg"",""time"":451},{""stimulus"":""img/red_lw/10.jpg"",""time"":501},{""stimulus"":""img/red_lw/11.jpg"",""time"":551}]","[]"
"image-keyboard-response","72","83765","0.0-5.0-1.34","63ed15bed4665c62d9e6dbb2","bdp_lott","Fri Mar 24 2023 20:47:06 GMT-0400 (Eastern Daylight Time)","347475","green","red","","509","","","","choice","","img/red_lw/choose11.jpg","2","191","red","0.5","0.5","0.5","w","",""
"animation","73","84366","0.0-5.0-2.34","63ed15bed4665c62d9e6dbb2","bdp_lott","Fri Mar 24 2023 20:47:06 GMT-0400 (Eastern Daylight Time)","347475","green","red","","","","","","","","","","191","","","","","","[{""stimulus"":""img/red_lw/1.jpg"",""time"":50},{""stimulus"":""img/red_lw/2.jpg"",""time"":101},{""stimulus"":""img/red_lw/3.jpg"",""time"":151},{""stimulus"":""img/red_lw/4.jpg"",""time"":201},{""stimulus"":""img/red_lw/5.jpg"",""time"":251},{""stimulus"":""img/red_lw/6.jpg"",""time"":300},{""stimulus"":""img/red_lw/7.jpg"",""time"":350},{""stimulus"":""img/red_lw/8.jpg"",""time"":401},{""stimulus"":""img/red_lw/9.jpg"",""time"":450},{""stimulus"":""img/red_lw/10.jpg"",""time"":501},{""stimulus"":""img/red_lw/11.jpg"",""time"":550}]","[]"
"image-keyboard-response","74","84676","0.0-5.0-1.35","63ed15bed4665c62d9e6dbb2","bdp_lott","Fri Mar 24 2023 20:47:06 GMT-0400 (Eastern Daylight Time)","347475","green","red","","310","","","","choice","","img/red_lw/choose11.jpg","2","190","red","0.5","0.5","0.5","w","",""
"animation","75","85277","0.0-5.0-2.35","63ed15bed4665c62d9e6dbb2","bdp_lott","Fri Mar 24 2023 20:47:06 GMT-0400 (Eastern Daylight Time)","347475","green","red","","","","","","","","","","190","","","","","","[{""stimulus"":""img/red_lw/1.jpg"",""time"":51},{""stimulus"":""img/red_lw/2.jpg"",""time"":101},{""stimulus"":""img/red_lw/3.jpg"",""time"":152},{""stimulus"":""img/red_lw/4.jpg"",""time"":201},{""stimulus"":""img/red_lw/5.jpg"",""time"":250},{""stimulus"":""img/red_lw/6.jpg"",""time"":301},{""stimulus"":""img/red_lw/7.jpg"",""time"":352},{""stimulus"":""img/red_lw/8.jpg"",""time"":400},{""stimulus"":""img/red_lw/9.jpg"",""time"":451},{""stimulus"":""img/red_lw/10.jpg"",""time"":501},{""stimulus"":""img/red_lw/11.jpg"",""time"":550}]","[]"
"image-keyboard-response","76","85720","0.0-5.0-1.36","63ed15bed4665c62d9e6dbb2","bdp_lott","Fri Mar 24 2023 20:47:06 GMT-0400 (Eastern Daylight Time)","347475","green","red","","443","","","","choice","","img/red_lw/choose11.jpg","1","189","green","0.5","0.5","0.5","w","",""
"animation","77","86322","0.0-5.0-2.36","63ed15bed4665c62d9e6dbb2","bdp_lott","Fri Mar 24 2023 20:47:06 GMT-0400 (Eastern Daylight Time)","347475","green","red","","","","","","","","","","189","","","","","","[{""stimulus"":""img/green_ww/1.jpg"",""time"":51},{""stimulus"":""img/green_ww/2.jpg"",""time"":101},{""stimulus"":""img/green_ww/3.jpg"",""time"":152},{""stimulus"":""img/green_ww/4.jpg"",""time"":201},{""stimulus"":""img/green_ww/5.jpg"",""time"":252},{""stimulus"":""img/green_ww/6.jpg"",""time"":301},{""stimulus"":""img/green_ww/7.jpg"",""time"":352},{""stimulus"":""img/green_ww/8.jpg"",""time"":401},{""stimulus"":""img/green_ww/9.jpg"",""time"":451},{""stimulus"":""img/green_ww/10.jpg"",""time"":501},{""stimulus"":""img/green_ww/11.jpg"",""time"":551}]","[]"
"image-keyboard-response","78","86738","0.0-5.0-1.37","63ed15bed4665c62d9e6dbb2","bdp_lott","Fri Mar 24 2023 20:47:06 GMT-0400 (Eastern Daylight Time)","347475","green","red","","416","","","","choice","","img/green_ww/choose11.jpg","1","188","green","0.5","0.5","0.5","w","",""
"animation","79","87340","0.0-5.0-2.37","63ed15bed4665c62d9e6dbb2","bdp_lott","Fri Mar 24 2023 20:47:06 GMT-0400 (Eastern Daylight Time)","347475","green","red","","","","","","","","","","188","","","","","","[{""stimulus"":""img/green_ww/1.jpg"",""time"":52},{""stimulus"":""img/green_ww/2.jpg"",""time"":101},{""stimulus"":""img/green_ww/3.jpg"",""time"":152},{""stimulus"":""img/green_ww/4.jpg"",""time"":201},{""stimulus"":""img/green_ww/5.jpg"",""time"":251},{""stimulus"":""img/green_ww/6.jpg"",""time"":301},{""stimulus"":""img/green_ww/7.jpg"",""time"":351},{""stimulus"":""img/green_ww/8.jpg"",""time"":401},{""stimulus"":""img/green_ww/9.jpg"",""time"":451},{""stimulus"":""img/green_ww/10.jpg"",""time"":501},{""stimulus"":""img/green_ww/11.jpg"",""time"":551}]","[]"
"image-keyboard-response","80","87711","0.0-5.0-1.38","63ed15bed4665c62d9e6dbb2","bdp_lott","Fri Mar 24 2023 20:47:06 GMT-0400 (Eastern Daylight Time)","347475","green","red","","371","","","","choice","","img/green_ww/choose11.jpg","1","187","green","0.5","0.5","0.5","l","",""
"animation","81","88312","0.0-5.0-2.38","63ed15bed4665c62d9e6dbb2","bdp_lott","Fri Mar 24 2023 20:47:06 GMT-0400 (Eastern Daylight Time)","347475","green","red","","","","","","","","","","187","","","","","","[{""stimulus"":""img/green_lw/1.jpg"",""time"":50},{""stimulus"":""img/green_lw/2.jpg"",""time"":101},{""stimulus"":""img/green_lw/3.jpg"",""time"":151},{""stimulus"":""img/green_lw/4.jpg"",""time"":201},{""stimulus"":""img/green_lw/5.jpg"",""time"":251},{""stimulus"":""img/green_lw/6.jpg"",""time"":300},{""stimulus"":""img/green_lw/7.jpg"",""time"":350},{""stimulus"":""img/green_lw/8.jpg"",""time"":400},{""stimulus"":""img/green_lw/9.jpg"",""time"":451},{""stimulus"":""img/green_lw/10.jpg"",""time"":500},{""stimulus"":""img/green_lw/11.jpg"",""time"":551}]","[]"
"image-keyboard-response","82","88913","0.0-5.0-1.39","63ed15bed4665c62d9e6dbb2","bdp_lott","Fri Mar 24 2023 20:47:06 GMT-0400 (Eastern Daylight Time)","347475","green","red","","601","","","","choice","","img/green_lw/choose11.jpg","2","186","red","0.5","0.5","0.5","l","",""
"animation","83","89514","0.0-5.0-2.39","63ed15bed4665c62d9e6dbb2","bdp_lott","Fri Mar 24 2023 20:47:06 GMT-0400 (Eastern Daylight Time)","347475","green","red","","","","","","","","","","186","","","","","","[{""stimulus"":""img/red_ll/1.jpg"",""time"":50},{""stimulus"":""img/red_ll/2.jpg"",""time"":100},{""stimulus"":""img/red_ll/3.jpg"",""time"":150},{""stimulus"":""img/red_ll/4.jpg"",""time"":200},{""stimulus"":""img/red_ll/5.jpg"",""time"":251},{""stimulus"":""img/red_ll/6.jpg"",""time"":301},{""stimulus"":""img/red_ll/7.jpg"",""time"":350},{""stimulus"":""img/red_ll/8.jpg"",""time"":401},{""stimulus"":""img/red_ll/9.jpg"",""time"":450},{""stimulus"":""img/red_ll/10.jpg"",""time"":500},{""stimulus"":""img/red_ll/11.jpg"",""time"":551}]","[]"
"image-keyboard-response","84","90205","0.0-5.0-1.40","63ed15bed4665c62d9e6dbb2","bdp_lott","Fri Mar 24 2023 20:47:06 GMT-0400 (Eastern Daylight Time)","347475","green","red","","691","","","","choice","","img/red_ll/choose11.jpg","1","185","green","0.5","0.5","0.5","l","",""
"animation","85","90806","0.0-5.0-2.40","63ed15bed4665c62d9e6dbb2","bdp_lott","Fri Mar 24 2023 20:47:06 GMT-0400 (Eastern Daylight Time)","347475","green","red","","","","","","","","","","185","","","","","","[{""stimulus"":""img/green_ll/1.jpg"",""time"":52},{""stimulus"":""img/green_ll/2.jpg"",""time"":102},{""stimulus"":""img/green_ll/3.jpg"",""time"":152},{""stimulus"":""img/green_ll/4.jpg"",""time"":201},{""stimulus"":""img/green_ll/5.jpg"",""time"":252},{""stimulus"":""img/green_ll/6.jpg"",""time"":301},{""stimulus"":""img/green_ll/7.jpg"",""time"":351},{""stimulus"":""img/green_ll/8.jpg"",""time"":401},{""stimulus"":""img/green_ll/9.jpg"",""time"":452},{""stimulus"":""img/green_ll/10.jpg"",""time"":501},{""stimulus"":""img/green_ll/11.jpg"",""time"":551}]","[]"
"image-keyboard-response","86","91376","0.0-5.0-1.41","63ed15bed4665c62d9e6dbb2","bdp_lott","Fri Mar 24 2023 20:47:06 GMT-0400 (Eastern Daylight Time)","347475","green","red","","569","","","","choice","","img/green_ll/choose11.jpg","2","184","red","0.5","0.5","0.5","w","",""
"animation","87","91977","0.0-5.0-2.41","63ed15bed4665c62d9e6dbb2","bdp_lott","Fri Mar 24 2023 20:47:06 GMT-0400 (Eastern Daylight Time)","347475","green","red","","","","","","","","","","184","","","","","","[{""stimulus"":""img/red_lw/1.jpg"",""time"":51},{""stimulus"":""img/red_lw/2.jpg"",""time"":102},{""stimulus"":""img/red_lw/3.jpg"",""time"":151},{""stimulus"":""img/red_lw/4.jpg"",""time"":202},{""stimulus"":""img/red_lw/5.jpg"",""time"":252},{""stimulus"":""img/red_lw/6.jpg"",""time"":302},{""stimulus"":""img/red_lw/7.jpg"",""time"":351},{""stimulus"":""img/red_lw/8.jpg"",""time"":401},{""stimulus"":""img/red_lw/9.jpg"",""time"":451},{""stimulus"":""img/red_lw/10.jpg"",""time"":501},{""stimulus"":""img/red_lw/11.jpg"",""time"":552}]","[]"
"image-keyboard-response","88","92312","0.0-5.0-1.42","63ed15bed4665c62d9e6dbb2","bdp_lott","Fri Mar 24 2023 20:47:06 GMT-0400 (Eastern Daylight Time)","347475","green","red","","334","","","","choice","","img/red_lw/choose11.jpg","2","183","red","0.5","0.5","0.5","w","",""
"animation","89","92913","0.0-5.0-2.42","63ed15bed4665c62d9e6dbb2","bdp_lott","Fri Mar 24 2023 20:47:06 GMT-0400 (Eastern Daylight Time)","347475","green","red","","","","","","","","","","183","","","","","","[{""stimulus"":""img/red_lw/1.jpg"",""time"":51},{""stimulus"":""img/red_lw/2.jpg"",""time"":102},{""stimulus"":""img/red_lw/3.jpg"",""time"":151},{""stimulus"":""img/red_lw/4.jpg"",""time"":201},{""stimulus"":""img/red_lw/5.jpg"",""time"":251},{""stimulus"":""img/red_lw/6.jpg"",""time"":301},{""stimulus"":""img/red_lw/7.jpg"",""time"":353},{""stimulus"":""img/red_lw/8.jpg"",""time"":401},{""stimulus"":""img/red_lw/9.jpg"",""time"":453},{""stimulus"":""img/red_lw/10.jpg"",""time"":501},{""stimulus"":""img/red_lw/11.jpg"",""time"":552}]","[]"
"image-keyboard-response","90","93242","0.0-5.0-1.43","63ed15bed4665c62d9e6dbb2","bdp_lott","Fri Mar 24 2023 20:47:06 GMT-0400 (Eastern Daylight Time)","347475","green","red","","328","","","","choice","","img/red_lw/choose11.jpg","2","182","red","0.5","0.5","0.5","l","",""
"animation","91","93843","0.0-5.0-2.43","63ed15bed4665c62d9e6dbb2","bdp_lott","Fri Mar 24 2023 20:47:06 GMT-0400 (Eastern Daylight Time)","347475","green","red","","","","","","","","","","182","","","","","","[{""stimulus"":""img/red_ll/1.jpg"",""time"":51},{""stimulus"":""img/red_ll/2.jpg"",""time"":101},{""stimulus"":""img/red_ll/3.jpg"",""time"":151},{""stimulus"":""img/red_ll/4.jpg"",""time"":200},{""stimulus"":""img/red_ll/5.jpg"",""time"":251},{""stimulus"":""img/red_ll/6.jpg"",""time"":301},{""stimulus"":""img/red_ll/7.jpg"",""time"":351},{""stimulus"":""img/red_ll/8.jpg"",""time"":402},{""stimulus"":""img/red_ll/9.jpg"",""time"":450},{""stimulus"":""img/red_ll/10.jpg"",""time"":501},{""stimulus"":""img/red_ll/11.jpg"",""time"":551}]","[]"
"image-keyboard-response","92","94206","0.0-5.0-1.44","63ed15bed4665c62d9e6dbb2","bdp_lott","Fri Mar 24 2023 20:47:06 GMT-0400 (Eastern Daylight Time)","347475","green","red","","362","","","","choice","","img/red_ll/choose11.jpg","1","181","green","0.5","0.5","0.5","l","",""
"animation","93","94806","0.0-5.0-2.44","63ed15bed4665c62d9e6dbb2","bdp_lott","Fri Mar 24 2023 20:47:06 GMT-0400 (Eastern Daylight Time)","347475","green","red","","","","","","","","","","181","","","","","","[{""stimulus"":""img/green_ll/1.jpg"",""time"":51},{""stimulus"":""img/green_ll/2.jpg"",""time"":101},{""stimulus"":""img/green_ll/3.jpg"",""time"":151},{""stimulus"":""img/green_ll/4.jpg"",""time"":200},{""stimulus"":""img/green_ll/5.jpg"",""time"":251},{""stimulus"":""img/green_ll/6.jpg"",""time"":301},{""stimulus"":""img/green_ll/7.jpg"",""time"":351},{""stimulus"":""img/green_ll/8.jpg"",""time"":401},{""stimulus"":""img/green_ll/9.jpg"",""time"":450},{""stimulus"":""img/green_ll/10.jpg"",""time"":500},{""stimulus"":""img/green_ll/11.jpg"",""time"":551}]","[]"
"image-keyboard-response","94","95238","0.0-5.0-1.45","63ed15bed4665c62d9e6dbb2","bdp_lott","Fri Mar 24 2023 20:47:06 GMT-0400 (Eastern Daylight Time)","347475","green","red","","432","","","","choice","","img/green_ll/choose11.jpg","1","180","green","0.5","0.5","0.5","w","",""
"animation","95","95839","0.0-5.0-2.45","63ed15bed4665c62d9e6dbb2","bdp_lott","Fri Mar 24 2023 20:47:06 GMT-0400 (Eastern Daylight Time)","347475","green","red","","","","","","","","","","180","","","","","","[{""stimulus"":""img/green_wl/1.jpg"",""time"":51},{""stimulus"":""img/green_wl/2.jpg"",""time"":101},{""stimulus"":""img/green_wl/3.jpg"",""time"":151},{""stimulus"":""img/green_wl/4.jpg"",""time"":201},{""stimulus"":""img/green_wl/5.jpg"",""time"":251},{""stimulus"":""img/green_wl/6.jpg"",""time"":301},{""stimulus"":""img/green_wl/7.jpg"",""time"":352},{""stimulus"":""img/green_wl/8.jpg"",""time"":401},{""stimulus"":""img/green_wl/9.jpg"",""time"":451},{""stimulus"":""img/green_wl/10.jpg"",""time"":502},{""stimulus"":""img/green_wl/11.jpg"",""time"":552}]","[]"
"image-keyboard-response","96","96527","0.0-5.0-1.46","63ed15bed4665c62d9e6dbb2","bdp_lott","Fri Mar 24 2023 20:47:06 GMT-0400 (Eastern Daylight Time)","347475","green","red","","688","","","","choice","","img/green_wl/choose11.jpg","2","179","red","0.5","0.5","0.5","w","",""
"animation","97","97128","0.0-5.0-2.46","63ed15bed4665c62d9e6dbb2","bdp_lott","Fri Mar 24 2023 20:47:06 GMT-0400 (Eastern Daylight Time)","347475","green","red","","","","","","","","","","179","","","","","","[{""stimulus"":""img/red_ww/1.jpg"",""time"":52},{""stimulus"":""img/red_ww/2.jpg"",""time"":101},{""stimulus"":""img/red_ww/3.jpg"",""time"":151},{""stimulus"":""img/red_ww/4.jpg"",""time"":201},{""stimulus"":""img/red_ww/5.jpg"",""time"":252},{""stimulus"":""img/red_ww/6.jpg"",""time"":301},{""stimulus"":""img/red_ww/7.jpg"",""time"":351},{""stimulus"":""img/red_ww/8.jpg"",""time"":401},{""stimulus"":""img/red_ww/9.jpg"",""time"":452},{""stimulus"":""img/red_ww/10.jpg"",""time"":501},{""stimulus"":""img/red_ww/11.jpg"",""time"":551}]","[]"
"image-keyboard-response","98","97639","0.0-5.0-1.47","63ed15bed4665c62d9e6dbb2","bdp_lott","Fri Mar 24 2023 20:47:06 GMT-0400 (Eastern Daylight Time)","347475","green","red","","511","","","","choice","","img/red_ww/choose11.jpg","1","178","green","0.5","0.5","0.5","w","",""
"animation","99","98240","0.0-5.0-2.47","63ed15bed4665c62d9e6dbb2","bdp_lott","Fri Mar 24 2023 20:47:06 GMT-0400 (Eastern Daylight Time)","347475","green","red","","","","","","","","","","178","","","","","","[{""stimulus"":""img/green_ww/1.jpg"",""time"":51},{""stimulus"":""img/green_ww/2.jpg"",""time"":101},{""stimulus"":""img/green_ww/3.jpg"",""time"":151},{""stimulus"":""img/green_ww/4.jpg"",""time"":202},{""stimulus"":""img/green_ww/5.jpg"",""time"":252},{""stimulus"":""img/green_ww/6.jpg"",""time"":301},{""stimulus"":""img/green_ww/7.jpg"",""time"":351},{""stimulus"":""img/green_ww/8.jpg"",""time"":401},{""stimulus"":""img/green_ww/9.jpg"",""time"":452},{""stimulus"":""img/green_ww/10.jpg"",""time"":501},{""stimulus"":""img/green_ww/11.jpg"",""time"":551}]","[]"
"image-keyboard-response","100","98705","0.0-5.0-1.48","63ed15bed4665c62d9e6dbb2","bdp_lott","Fri Mar 24 2023 20:47:06 GMT-0400 (Eastern Daylight Time)","347475","green","red","","465","","","","choice","","img/green_ww/choose11.jpg","1","177","green","0.5","0.5","0.5","l","",""
"animation","101","99306","0.0-5.0-2.48","63ed15bed4665c62d9e6dbb2","bdp_lott","Fri Mar 24 2023 20:47:06 GMT-0400 (Eastern Daylight Time)","347475","green","red","","","","","","","","","","177","","","","","","[{""stimulus"":""img/green_lw/1.jpg"",""time"":51},{""stimulus"":""img/green_lw/2.jpg"",""time"":102},{""stimulus"":""img/green_lw/3.jpg"",""time"":152},{""stimulus"":""img/green_lw/4.jpg"",""time"":202},{""stimulus"":""img/green_lw/5.jpg"",""time"":251},{""stimulus"":""img/green_lw/6.jpg"",""time"":301},{""stimulus"":""img/green_lw/7.jpg"",""time"":351},{""stimulus"":""img/green_lw/8.jpg"",""time"":401},{""stimulus"":""img/green_lw/9.jpg"",""time"":451},{""stimulus"":""img/green_lw/10.jpg"",""time"":502},{""stimulus"":""img/green_lw/11.jpg"",""time"":551}]","[]"
"image-keyboard-response","102","99742","0.0-5.0-1.49","63ed15bed4665c62d9e6dbb2","bdp_lott","Fri Mar 24 2023 20:47:06 GMT-0400 (Eastern Daylight Time)","347475","green","red","","436","","","","choice","","img/green_lw/choose11.jpg","2","176","red","0.5","0.5","0.5","l","",""
"animation","103","100343","0.0-5.0-2.49","63ed15bed4665c62d9e6dbb2","bdp_lott","Fri Mar 24 2023 20:47:06 GMT-0400 (Eastern Daylight Time)","347475","green","red","","","","","","","","","","176","","","","","","[{""stimulus"":""img/red_ll/1.jpg"",""time"":51},{""stimulus"":""img/red_ll/2.jpg"",""time"":103},{""stimulus"":""img/red_ll/3.jpg"",""time"":151},{""stimulus"":""img/red_ll/4.jpg"",""time"":201},{""stimulus"":""img/red_ll/5.jpg"",""time"":252},{""stimulus"":""img/red_ll/6.jpg"",""time"":301},{""stimulus"":""img/red_ll/7.jpg"",""time"":357},{""stimulus"":""img/red_ll/8.jpg"",""time"":402},{""stimulus"":""img/red_ll/9.jpg"",""time"":452},{""stimulus"":""img/red_ll/10.jpg"",""time"":501},{""stimulus"":""img/red_ll/11.jpg"",""time"":551}]","[]"
"image-keyboard-response","104","100792","0.0-5.0-1.50","63ed15bed4665c62d9e6dbb2","bdp_lott","Fri Mar 24 2023 20:47:06 GMT-0400 (Eastern Daylight Time)","347475","green","red","","449","","","","choice","","img/red_ll/choose11.jpg","1","175","green","0.5","0.5","0.5","w","",""
"animation","105","101393","0.0-5.0-2.50","63ed15bed4665c62d9e6dbb2","bdp_lott","Fri Mar 24 2023 20:47:06 GMT-0400 (Eastern Daylight Time)","347475","green","red","","","","","","","","","","175","","","","","","[{""stimulus"":""img/green_wl/1.jpg"",""time"":51},{""stimulus"":""img/green_wl/2.jpg"",""time"":102},{""stimulus"":""img/green_wl/3.jpg"",""time"":152},{""stimulus"":""img/green_wl/4.jpg"",""time"":201},{""stimulus"":""img/green_wl/5.jpg"",""time"":251},{""stimulus"":""img/green_wl/6.jpg"",""time"":301},{""stimulus"":""img/green_wl/7.jpg"",""time"":351},{""stimulus"":""img/green_wl/8.jpg"",""time"":402},{""stimulus"":""img/green_wl/9.jpg"",""time"":451},{""stimulus"":""img/green_wl/10.jpg"",""time"":501},{""stimulus"":""img/green_wl/11.jpg"",""time"":551}]","[]"
"image-keyboard-response","106","101736","0.0-5.0-1.51","63ed15bed4665c62d9e6dbb2","bdp_lott","Fri Mar 24 2023 20:47:06 GMT-0400 (Eastern Daylight Time)","347475","green","red","","343","","","","choice","","img/green_wl/choose11.jpg","1","174","green","0.5","0.5","0.5","w","",""
"animation","107","102337","0.0-5.0-2.51","63ed15bed4665c62d9e6dbb2","bdp_lott","Fri Mar 24 2023 20:47:06 GMT-0400 (Eastern Daylight Time)","347475","green","red","","","","","","","","","","174","","","","","","[{""stimulus"":""img/green_wl/1.jpg"",""time"":51},{""stimulus"":""img/green_wl/2.jpg"",""time"":102},{""stimulus"":""img/green_wl/3.jpg"",""time"":151},{""stimulus"":""img/green_wl/4.jpg"",""time"":202},{""stimulus"":""img/green_wl/5.jpg"",""time"":252},{""stimulus"":""img/green_wl/6.jpg"",""time"":302},{""stimulus"":""img/green_wl/7.jpg"",""time"":351},{""stimulus"":""img/green_wl/8.jpg"",""time"":401},{""stimulus"":""img/green_wl/9.jpg"",""time"":452},{""stimulus"":""img/green_wl/10.jpg"",""time"":501},{""stimulus"":""img/green_wl/11.jpg"",""time"":551}]","[]"
"image-keyboard-response","108","102721","0.0-5.0-1.52","63ed15bed4665c62d9e6dbb2","bdp_lott","Fri Mar 24 2023 20:47:06 GMT-0400 (Eastern Daylight Time)","347475","green","red","","384","","","","choice","","img/green_wl/choose11.jpg","1","173","green","0.5","0.5","0.5","l","",""
"animation","109","103322","0.0-5.0-2.52","63ed15bed4665c62d9e6dbb2","bdp_lott","Fri Mar 24 2023 20:47:06 GMT-0400 (Eastern Daylight Time)","347475","green","red","","","","","","","","","","173","","","","","","[{""stimulus"":""img/green_ll/1.jpg"",""time"":50},{""stimulus"":""img/green_ll/2.jpg"",""time"":100},{""stimulus"":""img/green_ll/3.jpg"",""time"":151},{""stimulus"":""img/green_ll/4.jpg"",""time"":201},{""stimulus"":""img/green_ll/5.jpg"",""time"":250},{""stimulus"":""img/green_ll/6.jpg"",""time"":301},{""stimulus"":""img/green_ll/7.jpg"",""time"":350},{""stimulus"":""img/green_ll/8.jpg"",""time"":400},{""stimulus"":""img/green_ll/9.jpg"",""time"":452},{""stimulus"":""img/green_ll/10.jpg"",""time"":501},{""stimulus"":""img/green_ll/11.jpg"",""time"":551}]","[]"
"image-keyboard-response","110","103749","0.0-5.0-1.53","63ed15bed4665c62d9e6dbb2","bdp_lott","Fri Mar 24 2023 20:47:06 GMT-0400 (Eastern Daylight Time)","347475","green","red","","426","","","","choice","","img/green_ll/choose11.jpg","2","172","red","0.5","0.5","0.5","l","",""
"animation","111","104350","0.0-5.0-2.53","63ed15bed4665c62d9e6dbb2","bdp_lott","Fri Mar 24 2023 20:47:06 GMT-0400 (Eastern Daylight Time)","347475","green","red","","","","","","","","","","172","","","","","","[{""stimulus"":""img/red_ll/1.jpg"",""time"":52},{""stimulus"":""img/red_ll/2.jpg"",""time"":101},{""stimulus"":""img/red_ll/3.jpg"",""time"":151},{""stimulus"":""img/red_ll/4.jpg"",""time"":201},{""stimulus"":""img/red_ll/5.jpg"",""time"":251},{""stimulus"":""img/red_ll/6.jpg"",""time"":302},{""stimulus"":""img/red_ll/7.jpg"",""time"":351},{""stimulus"":""img/red_ll/8.jpg"",""time"":401},{""stimulus"":""img/red_ll/9.jpg"",""time"":452},{""stimulus"":""img/red_ll/10.jpg"",""time"":502},{""stimulus"":""img/red_ll/11.jpg"",""time"":551}]","[]"
"image-keyboard-response","112","104729","0.0-5.0-1.54","63ed15bed4665c62d9e6dbb2","bdp_lott","Fri Mar 24 2023 20:47:06 GMT-0400 (Eastern Daylight Time)","347475","green","red","","379","","","","choice","","img/red_ll/choose11.jpg","2","171","red","0.5","0.5","0.5","l","",""
"animation","113","105330","0.0-5.0-2.54","63ed15bed4665c62d9e6dbb2","bdp_lott","Fri Mar 24 2023 20:47:06 GMT-0400 (Eastern Daylight Time)","347475","green","red","","","","","","","","","","171","","","","","","[{""stimulus"":""img/red_ll/1.jpg"",""time"":50},{""stimulus"":""img/red_ll/2.jpg"",""time"":100},{""stimulus"":""img/red_ll/3.jpg"",""time"":150},{""stimulus"":""img/red_ll/4.jpg"",""time"":200},{""stimulus"":""img/red_ll/5.jpg"",""time"":250},{""stimulus"":""img/red_ll/6.jpg"",""time"":301},{""stimulus"":""img/red_ll/7.jpg"",""time"":351},{""stimulus"":""img/red_ll/8.jpg"",""time"":400},{""stimulus"":""img/red_ll/9.jpg"",""time"":451},{""stimulus"":""img/red_ll/10.jpg"",""time"":501},{""stimulus"":""img/red_ll/11.jpg"",""time"":550}]","[]"
"image-keyboard-response","114","105596","0.0-5.0-1.55","63ed15bed4665c62d9e6dbb2","bdp_lott","Fri Mar 24 2023 20:47:06 GMT-0400 (Eastern Daylight Time)","347475","green","red","","266","","","","choice","","img/red_ll/choose11.jpg","1","170","green","0.5","0.5","0.5","l","",""
"animation","115","106196","0.0-5.0-2.55","63ed15bed4665c62d9e6dbb2","bdp_lott","Fri Mar 24 2023 20:47:06 GMT-0400 (Eastern Daylight Time)","347475","green","red","","","","","","","","","","170","","","","","","[{""stimulus"":""img/green_ll/1.jpg"",""time"":51},{""stimulus"":""img/green_ll/2.jpg"",""time"":101},{""stimulus"":""img/green_ll/3.jpg"",""time"":151},{""stimulus"":""img/green_ll/4.jpg"",""time"":201},{""stimulus"":""img/green_ll/5.jpg"",""time"":251},{""stimulus"":""img/green_ll/6.jpg"",""time"":302},{""stimulus"":""img/green_ll/7.jpg"",""time"":351},{""stimulus"":""img/green_ll/8.jpg"",""time"":401},{""stimulus"":""img/green_ll/9.jpg"",""time"":450},{""stimulus"":""img/green_ll/10.jpg"",""time"":500},{""stimulus"":""img/green_ll/11.jpg"",""time"":550}]","[]"
"image-keyboard-response","116","106786","0.0-5.0-1.56","63ed15bed4665c62d9e6dbb2","bdp_lott","Fri Mar 24 2023 20:47:06 GMT-0400 (Eastern Daylight Time)","347475","green","red","","590","","","","choice","","img/green_ll/choose11.jpg","2","169","red","0.5","0.5","0.5","l","",""
"animation","117","107387","0.0-5.0-2.56","63ed15bed4665c62d9e6dbb2","bdp_lott","Fri Mar 24 2023 20:47:06 GMT-0400 (Eastern Daylight Time)","347475","green","red","","","","","","","","","","169","","","","","","[{""stimulus"":""img/red_ll/1.jpg"",""time"":51},{""stimulus"":""img/red_ll/2.jpg"",""time"":101},{""stimulus"":""img/red_ll/3.jpg"",""time"":152},{""stimulus"":""img/red_ll/4.jpg"",""time"":201},{""stimulus"":""img/red_ll/5.jpg"",""time"":252},{""stimulus"":""img/red_ll/6.jpg"",""time"":301},{""stimulus"":""img/red_ll/7.jpg"",""time"":351},{""stimulus"":""img/red_ll/8.jpg"",""time"":403},{""stimulus"":""img/red_ll/9.jpg"",""time"":451},{""stimulus"":""img/red_ll/10.jpg"",""time"":502},{""stimulus"":""img/red_ll/11.jpg"",""time"":551}]","[]"
"image-keyboard-response","118","107729","0.0-5.0-1.57","63ed15bed4665c62d9e6dbb2","bdp_lott","Fri Mar 24 2023 20:47:06 GMT-0400 (Eastern Daylight Time)","347475","green","red","","342","","","","choice","","img/red_ll/choose11.jpg","1","168","green","0.5","0.5","0.5","w","",""
"animation","119","108330","0.0-5.0-2.57","63ed15bed4665c62d9e6dbb2","bdp_lott","Fri Mar 24 2023 20:47:06 GMT-0400 (Eastern Daylight Time)","347475","green","red","","","","","","","","","","168","","","","","","[{""stimulus"":""img/green_wl/1.jpg"",""time"":51},{""stimulus"":""img/green_wl/2.jpg"",""time"":101},{""stimulus"":""img/green_wl/3.jpg"",""time"":152},{""stimulus"":""img/green_wl/4.jpg"",""time"":201},{""stimulus"":""img/green_wl/5.jpg"",""time"":252},{""stimulus"":""img/green_wl/6.jpg"",""time"":301},{""stimulus"":""img/green_wl/7.jpg"",""time"":352},{""stimulus"":""img/green_wl/8.jpg"",""time"":401},{""stimulus"":""img/green_wl/9.jpg"",""time"":451},{""stimulus"":""img/green_wl/10.jpg"",""time"":501},{""stimulus"":""img/green_wl/11.jpg"",""time"":552}]","[]"
"image-keyboard-response","120","108607","0.0-5.0-1.58","63ed15bed4665c62d9e6dbb2","bdp_lott","Fri Mar 24 2023 20:47:06 GMT-0400 (Eastern Daylight Time)","347475","green","red","","277","","","","choice","","img/green_wl/choose11.jpg","1","167","green","0.5","0.5","0.5","l","",""
"animation","121","109208","0.0-5.0-2.58","63ed15bed4665c62d9e6dbb2","bdp_lott","Fri Mar 24 2023 20:47:06 GMT-0400 (Eastern Daylight Time)","347475","green","red","","","","","","","","","","167","","","","","","[{""stimulus"":""img/green_ll/1.jpg"",""time"":52},{""stimulus"":""img/green_ll/2.jpg"",""time"":101},{""stimulus"":""img/green_ll/3.jpg"",""time"":151},{""stimulus"":""img/green_ll/4.jpg"",""time"":201},{""stimulus"":""img/green_ll/5.jpg"",""time"":251},{""stimulus"":""img/green_ll/6.jpg"",""time"":301},{""stimulus"":""img/green_ll/7.jpg"",""time"":351},{""stimulus"":""img/green_ll/8.jpg"",""time"":401},{""stimulus"":""img/green_ll/9.jpg"",""time"":451},{""stimulus"":""img/green_ll/10.jpg"",""time"":501},{""stimulus"":""img/green_ll/11.jpg"",""time"":552}]","[]"
"image-keyboard-response","122","109523","0.0-5.0-1.59","63ed15bed4665c62d9e6dbb2","bdp_lott","Fri Mar 24 2023 20:47:06 GMT-0400 (Eastern Daylight Time)","347475","green","red","","314","","","","choice","","img/green_ll/choose11.jpg","2","166","red","0.5","0.5","0.5","l","",""
"animation","123","110124","0.0-5.0-2.59","63ed15bed4665c62d9e6dbb2","bdp_lott","Fri Mar 24 2023 20:47:06 GMT-0400 (Eastern Daylight Time)","347475","green","red","","","","","","","","","","166","","","","","","[{""stimulus"":""img/red_ll/1.jpg"",""time"":51},{""stimulus"":""img/red_ll/2.jpg"",""time"":102},{""stimulus"":""img/red_ll/3.jpg"",""time"":155},{""stimulus"":""img/red_ll/4.jpg"",""time"":201},{""stimulus"":""img/red_ll/5.jpg"",""time"":263},{""stimulus"":""img/red_ll/6.jpg"",""time"":301},{""stimulus"":""img/red_ll/7.jpg"",""time"":352},{""stimulus"":""img/red_ll/8.jpg"",""time"":402},{""stimulus"":""img/red_ll/9.jpg"",""time"":452},{""stimulus"":""img/red_ll/10.jpg"",""time"":501},{""stimulus"":""img/red_ll/11.jpg"",""time"":551}]","[]"
"image-keyboard-response","124","110417","0.0-5.0-1.60","63ed15bed4665c62d9e6dbb2","bdp_lott","Fri Mar 24 2023 20:47:06 GMT-0400 (Eastern Daylight Time)","347475","green","red","","292","","","","choice","","img/red_ll/choose11.jpg","1","165","green","0.5","0.5","0.5","l","",""
"animation","125","111018","0.0-5.0-2.60","63ed15bed4665c62d9e6dbb2","bdp_lott","Fri Mar 24 2023 20:47:06 GMT-0400 (Eastern Daylight Time)","347475","green","red","","","","","","","","","","165","","","","","","[{""stimulus"":""img/green_ll/1.jpg"",""time"":52},{""stimulus"":""img/green_ll/2.jpg"",""time"":101},{""stimulus"":""img/green_ll/3.jpg"",""time"":151},{""stimulus"":""img/green_ll/4.jpg"",""time"":201},{""stimulus"":""img/green_ll/5.jpg"",""time"":251},{""stimulus"":""img/green_ll/6.jpg"",""time"":301},{""stimulus"":""img/green_ll/7.jpg"",""time"":351},{""stimulus"":""img/green_ll/8.jpg"",""time"":402},{""stimulus"":""img/green_ll/9.jpg"",""time"":451},{""stimulus"":""img/green_ll/10.jpg"",""time"":502},{""stimulus"":""img/green_ll/11.jpg"",""time"":552}]","[]"
"image-keyboard-response","126","111680","0.0-5.0-1.61","63ed15bed4665c62d9e6dbb2","bdp_lott","Fri Mar 24 2023 20:47:06 GMT-0400 (Eastern Daylight Time)","347475","green","red","","662","","","","choice","","img/green_ll/choose11.jpg","2","164","red","0.5","0.5","0.5","w","",""
"animation","127","112282","0.0-5.0-2.61","63ed15bed4665c62d9e6dbb2","bdp_lott","Fri Mar 24 2023 20:47:06 GMT-0400 (Eastern Daylight Time)","347475","green","red","","","","","","","","","","164","","","","","","[{""stimulus"":""img/red_lw/1.jpg"",""time"":50},{""stimulus"":""img/red_lw/2.jpg"",""time"":100},{""stimulus"":""img/red_lw/3.jpg"",""time"":150},{""stimulus"":""img/red_lw/4.jpg"",""time"":200},{""stimulus"":""img/red_lw/5.jpg"",""time"":250},{""stimulus"":""img/red_lw/6.jpg"",""time"":301},{""stimulus"":""img/red_lw/7.jpg"",""time"":350},{""stimulus"":""img/red_lw/8.jpg"",""time"":400},{""stimulus"":""img/red_lw/9.jpg"",""time"":451},{""stimulus"":""img/red_lw/10.jpg"",""time"":500},{""stimulus"":""img/red_lw/11.jpg"",""time"":550}]","[]"
"image-keyboard-response","128","113053","0.0-5.0-1.62","63ed15bed4665c62d9e6dbb2","bdp_lott","Fri Mar 24 2023 20:47:06 GMT-0400 (Eastern Daylight Time)","347475","green","red","","771","","","","choice","","img/red_lw/choose11.jpg","1","163","green","0.5","0.5","0.5","w","",""
"animation","129","113654","0.0-5.0-2.62","63ed15bed4665c62d9e6dbb2","bdp_lott","Fri Mar 24 2023 20:47:06 GMT-0400 (Eastern Daylight Time)","347475","green","red","","","","","","","","","","163","","","","","","[{""stimulus"":""img/green_ww/1.jpg"",""time"":52},{""stimulus"":""img/green_ww/2.jpg"",""time"":101},{""stimulus"":""img/green_ww/3.jpg"",""time"":151},{""stimulus"":""img/green_ww/4.jpg"",""time"":201},{""stimulus"":""img/green_ww/5.jpg"",""time"":251},{""stimulus"":""img/green_ww/6.jpg"",""time"":301},{""stimulus"":""img/green_ww/7.jpg"",""time"":351},{""stimulus"":""img/green_ww/8.jpg"",""time"":401},{""stimulus"":""img/green_ww/9.jpg"",""time"":450},{""stimulus"":""img/green_ww/10.jpg"",""time"":501},{""stimulus"":""img/green_ww/11.jpg"",""time"":551}]","[]"
"image-keyboard-response","130","114077","0.0-5.0-1.63","63ed15bed4665c62d9e6dbb2","bdp_lott","Fri Mar 24 2023 20:47:06 GMT-0400 (Eastern Daylight Time)","347475","green","red","","422","","","","choice","","img/green_ww/choose11.jpg","1","162","green","0.5","0.5","0.5","l","",""
"animation","131","114678","0.0-5.0-2.63","63ed15bed4665c62d9e6dbb2","bdp_lott","Fri Mar 24 2023 20:47:06 GMT-0400 (Eastern Daylight Time)","347475","green","red","","","","","","","","","","162","","","","","","[{""stimulus"":""img/green_lw/1.jpg"",""time"":51},{""stimulus"":""img/green_lw/2.jpg"",""time"":102},{""stimulus"":""img/green_lw/3.jpg"",""time"":151},{""stimulus"":""img/green_lw/4.jpg"",""time"":201},{""stimulus"":""img/green_lw/5.jpg"",""time"":251},{""stimulus"":""img/green_lw/6.jpg"",""time"":301},{""stimulus"":""img/green_lw/7.jpg"",""time"":352},{""stimulus"":""img/green_lw/8.jpg"",""time"":402},{""stimulus"":""img/green_lw/9.jpg"",""time"":451},{""stimulus"":""img/green_lw/10.jpg"",""time"":501},{""stimulus"":""img/green_lw/11.jpg"",""time"":552}]","[]"
"image-keyboard-response","132","115095","0.0-5.0-1.64","63ed15bed4665c62d9e6dbb2","bdp_lott","Fri Mar 24 2023 20:47:06 GMT-0400 (Eastern Daylight Time)","347475","green","red","","416","","","","choice","","img/green_lw/choose11.jpg","2","161","red","0.5","0.5","0.5","l","",""
"animation","133","115696","0.0-5.0-2.64","63ed15bed4665c62d9e6dbb2","bdp_lott","Fri Mar 24 2023 20:47:06 GMT-0400 (Eastern Daylight Time)","347475","green","red","","","","","","","","","","161","","","","","","[{""stimulus"":""img/red_ll/1.jpg"",""time"":52},{""stimulus"":""img/red_ll/2.jpg"",""time"":101},{""stimulus"":""img/red_ll/3.jpg"",""time"":152},{""stimulus"":""img/red_ll/4.jpg"",""time"":201},{""stimulus"":""img/red_ll/5.jpg"",""time"":251},{""stimulus"":""img/red_ll/6.jpg"",""time"":302},{""stimulus"":""img/red_ll/7.jpg"",""time"":353},{""stimulus"":""img/red_ll/8.jpg"",""time"":402},{""stimulus"":""img/red_ll/9.jpg"",""time"":452},{""stimulus"":""img/red_ll/10.jpg"",""time"":501},{""stimulus"":""img/red_ll/11.jpg"",""time"":551}]","[]"
"image-keyboard-response","134","116012","0.0-5.0-1.65","63ed15bed4665c62d9e6dbb2","bdp_lott","Fri Mar 24 2023 20:47:06 GMT-0400 (Eastern Daylight Time)","347475","green","red","","316","","","","choice","","img/red_ll/choose11.jpg","1","160","green","0.5","0.5","0.5","w","",""
"animation","135","116613","0.0-5.0-2.65","63ed15bed4665c62d9e6dbb2","bdp_lott","Fri Mar 24 2023 20:47:06 GMT-0400 (Eastern Daylight Time)","347475","green","red","","","","","","","","","","160","","","","","","[{""stimulus"":""img/green_wl/1.jpg"",""time"":51},{""stimulus"":""img/green_wl/2.jpg"",""time"":102},{""stimulus"":""img/green_wl/3.jpg"",""time"":152},{""stimulus"":""img/green_wl/4.jpg"",""time"":202},{""stimulus"":""img/green_wl/5.jpg"",""time"":251},{""stimulus"":""img/green_wl/6.jpg"",""time"":302},{""stimulus"":""img/green_wl/7.jpg"",""time"":351},{""stimulus"":""img/green_wl/8.jpg"",""time"":401},{""stimulus"":""img/green_wl/9.jpg"",""time"":451},{""stimulus"":""img/green_wl/10.jpg"",""time"":503},{""stimulus"":""img/green_wl/11.jpg"",""time"":552}]","[]"
"image-keyboard-response","136","117076","0.0-5.0-1.66","63ed15bed4665c62d9e6dbb2","bdp_lott","Fri Mar 24 2023 20:47:06 GMT-0400 (Eastern Daylight Time)","347475","green","red","","463","","","","choice","","img/green_wl/choose11.jpg","2","159","red","0.5","0.5","0.5","w","",""
"animation","137","117691","0.0-5.0-2.66","63ed15bed4665c62d9e6dbb2","bdp_lott","Fri Mar 24 2023 20:47:06 GMT-0400 (Eastern Daylight Time)","347475","green","red","","","","","","","","","","159","","","","","","[{""stimulus"":""img/red_ww/1.jpg"",""time"":51},{""stimulus"":""img/red_ww/2.jpg"",""time"":101},{""stimulus"":""img/red_ww/3.jpg"",""time"":151},{""stimulus"":""img/red_ww/4.jpg"",""time"":201},{""stimulus"":""img/red_ww/5.jpg"",""time"":251},{""stimulus"":""img/red_ww/6.jpg"",""time"":301},{""stimulus"":""img/red_ww/7.jpg"",""time"":351},{""stimulus"":""img/red_ww/8.jpg"",""time"":401},{""stimulus"":""img/red_ww/9.jpg"",""time"":451},{""stimulus"":""img/red_ww/10.jpg"",""time"":501},{""stimulus"":""img/red_ww/11.jpg"",""time"":551}]","[]"
"image-keyboard-response","138","118274","0.0-5.0-1.67","63ed15bed4665c62d9e6dbb2","bdp_lott","Fri Mar 24 2023 20:47:06 GMT-0400 (Eastern Daylight Time)","347475","green","red","","583","","","","choice","","img/red_ww/choose11.jpg","1","158","green","0.5","0.5","0.5","w","",""
"animation","139","118875","0.0-5.0-2.67","63ed15bed4665c62d9e6dbb2","bdp_lott","Fri Mar 24 2023 20:47:06 GMT-0400 (Eastern Daylight Time)","347475","green","red","","","","","","","","","","158","","","","","","[{""stimulus"":""img/green_ww/1.jpg"",""time"":51},{""stimulus"":""img/green_ww/2.jpg"",""time"":101},{""stimulus"":""img/green_ww/3.jpg"",""time"":151},{""stimulus"":""img/green_ww/4.jpg"",""time"":201},{""stimulus"":""img/green_ww/5.jpg"",""time"":251},{""stimulus"":""img/green_ww/6.jpg"",""time"":301},{""stimulus"":""img/green_ww/7.jpg"",""time"":351},{""stimulus"":""img/green_ww/8.jpg"",""time"":401},{""stimulus"":""img/green_ww/9.jpg"",""time"":451},{""stimulus"":""img/green_ww/10.jpg"",""time"":501},{""stimulus"":""img/green_ww/11.jpg"",""time"":551}]","[]"
"image-keyboard-response","140","119483","0.0-5.0-1.68","63ed15bed4665c62d9e6dbb2","bdp_lott","Fri Mar 24 2023 20:47:06 GMT-0400 (Eastern Daylight Time)","347475","green","red","","607","","","","choice","","img/green_ww/choose11.jpg","2","157","red","0.5","0.5","0.5","l","",""
"animation","141","120085","0.0-5.0-2.68","63ed15bed4665c62d9e6dbb2","bdp_lott","Fri Mar 24 2023 20:47:06 GMT-0400 (Eastern Daylight Time)","347475","green","red","","","","","","","","","","157","","","","","","[{""stimulus"":""img/red_wl/1.jpg"",""time"":51},{""stimulus"":""img/red_wl/2.jpg"",""time"":102},{""stimulus"":""img/red_wl/3.jpg"",""time"":152},{""stimulus"":""img/red_wl/4.jpg"",""time"":202},{""stimulus"":""img/red_wl/5.jpg"",""time"":251},{""stimulus"":""img/red_wl/6.jpg"",""time"":302},{""stimulus"":""img/red_wl/7.jpg"",""time"":351},{""stimulus"":""img/red_wl/8.jpg"",""time"":401},{""stimulus"":""img/red_wl/9.jpg"",""time"":451},{""stimulus"":""img/red_wl/10.jpg"",""time"":501},{""stimulus"":""img/red_wl/11.jpg"",""time"":552}]","[]"
"image-keyboard-response","142","122352","0.0-5.0-1.69","63ed15bed4665c62d9e6dbb2","bdp_lott","Fri Mar 24 2023 20:47:06 GMT-0400 (Eastern Daylight Time)","347475","green","red","","2267","","","","choice","","img/red_wl/choose11.jpg","2","156","red","0.5","0.5","0.5","w","",""
"animation","143","122952","0.0-5.0-2.69","63ed15bed4665c62d9e6dbb2","bdp_lott","Fri Mar 24 2023 20:47:06 GMT-0400 (Eastern Daylight Time)","347475","green","red","","","","","","","","","","156","","","","","","[{""stimulus"":""img/red_ww/1.jpg"",""time"":52},{""stimulus"":""img/red_ww/2.jpg"",""time"":101},{""stimulus"":""img/red_ww/3.jpg"",""time"":151},{""stimulus"":""img/red_ww/4.jpg"",""time"":202},{""stimulus"":""img/red_ww/5.jpg"",""time"":251},{""stimulus"":""img/red_ww/6.jpg"",""time"":301},{""stimulus"":""img/red_ww/7.jpg"",""time"":351},{""stimulus"":""img/red_ww/8.jpg"",""time"":402},{""stimulus"":""img/red_ww/9.jpg"",""time"":450},{""stimulus"":""img/red_ww/10.jpg"",""time"":500},{""stimulus"":""img/red_ww/11.jpg"",""time"":553}]","[]"
"image-keyboard-response","144","123538","0.0-5.0-1.70","63ed15bed4665c62d9e6dbb2","bdp_lott","Fri Mar 24 2023 20:47:06 GMT-0400 (Eastern Daylight Time)","347475","green","red","","585","","","","choice","","img/red_ww/choose11.jpg","2","155","red","0.5","0.5","0.5","w","",""
"animation","145","124140","0.0-5.0-2.70","63ed15bed4665c62d9e6dbb2","bdp_lott","Fri Mar 24 2023 20:47:06 GMT-0400 (Eastern Daylight Time)","347475","green","red","","","","","","","","","","155","","","","","","[{""stimulus"":""img/red_ww/1.jpg"",""time"":51},{""stimulus"":""img/red_ww/2.jpg"",""time"":101},{""stimulus"":""img/red_ww/3.jpg"",""time"":151},{""stimulus"":""img/red_ww/4.jpg"",""time"":201},{""stimulus"":""img/red_ww/5.jpg"",""time"":251},{""stimulus"":""img/red_ww/6.jpg"",""time"":302},{""stimulus"":""img/red_ww/7.jpg"",""time"":351},{""stimulus"":""img/red_ww/8.jpg"",""time"":401},{""stimulus"":""img/red_ww/9.jpg"",""time"":451},{""stimulus"":""img/red_ww/10.jpg"",""time"":501},{""stimulus"":""img/red_ww/11.jpg"",""time"":551}]","[]"
"image-keyboard-response","146","126818","0.0-5.0-1.71","63ed15bed4665c62d9e6dbb2","bdp_lott","Fri Mar 24 2023 20:47:06 GMT-0400 (Eastern Daylight Time)","347475","green","red","","2678","","","","choice","","img/red_ww/choose11.jpg","2","154","red","0.5","0.5","0.5","l","",""
"animation","147","127419","0.0-5.0-2.71","63ed15bed4665c62d9e6dbb2","bdp_lott","Fri Mar 24 2023 20:47:06 GMT-0400 (Eastern Daylight Time)","347475","green","red","","","","","","","","","","154","","","","","","[{""stimulus"":""img/red_wl/1.jpg"",""time"":51},{""stimulus"":""img/red_wl/2.jpg"",""time"":102},{""stimulus"":""img/red_wl/3.jpg"",""time"":151},{""stimulus"":""img/red_wl/4.jpg"",""time"":201},{""stimulus"":""img/red_wl/5.jpg"",""time"":251},{""stimulus"":""img/red_wl/6.jpg"",""time"":301},{""stimulus"":""img/red_wl/7.jpg"",""time"":351},{""stimulus"":""img/red_wl/8.jpg"",""time"":401},{""stimulus"":""img/red_wl/9.jpg"",""time"":451},{""stimulus"":""img/red_wl/10.jpg"",""time"":501},{""stimulus"":""img/red_wl/11.jpg"",""time"":552}]","[]"
"image-keyboard-response","148","129181","0.0-5.0-1.72","63ed15bed4665c62d9e6dbb2","bdp_lott","Fri Mar 24 2023 20:47:06 GMT-0400 (Eastern Daylight Time)","347475","green","red","","1762","","","","choice","","img/red_wl/choose11.jpg","2","153","red","0.5","0.5","0.5","l","",""
"animation","149","129782","0.0-5.0-2.72","63ed15bed4665c62d9e6dbb2","bdp_lott","Fri Mar 24 2023 20:47:06 GMT-0400 (Eastern Daylight Time)","347475","green","red","","","","","","","","","","153","","","","","","[{""stimulus"":""img/red_wl/1.jpg"",""time"":51},{""stimulus"":""img/red_wl/2.jpg"",""time"":100},{""stimulus"":""img/red_wl/3.jpg"",""time"":151},{""stimulus"":""img/red_wl/4.jpg"",""time"":200},{""stimulus"":""img/red_wl/5.jpg"",""time"":250},{""stimulus"":""img/red_wl/6.jpg"",""time"":301},{""stimulus"":""img/red_wl/7.jpg"",""time"":351},{""stimulus"":""img/red_wl/8.jpg"",""time"":401},{""stimulus"":""img/red_wl/9.jpg"",""time"":451},{""stimulus"":""img/red_wl/10.jpg"",""time"":500},{""stimulus"":""img/red_wl/11.jpg"",""time"":551}]","[]"
"image-keyboard-response","150","131377","0.0-5.0-1.73","63ed15bed4665c62d9e6dbb2","bdp_lott","Fri Mar 24 2023 20:47:06 GMT-0400 (Eastern Daylight Time)","347475","green","red","","1595","","","","choice","","img/red_wl/choose11.jpg","1","152","green","0.5","0.5","0.5","l","",""
"animation","151","131979","0.0-5.0-2.73","63ed15bed4665c62d9e6dbb2","bdp_lott","Fri Mar 24 2023 20:47:06 GMT-0400 (Eastern Daylight Time)","347475","green","red","","","","","","","","","","152","","","","","","[{""stimulus"":""img/green_ll/1.jpg"",""time"":51},{""stimulus"":""img/green_ll/2.jpg"",""time"":101},{""stimulus"":""img/green_ll/3.jpg"",""time"":151},{""stimulus"":""img/green_ll/4.jpg"",""time"":200},{""stimulus"":""img/green_ll/5.jpg"",""time"":251},{""stimulus"":""img/green_ll/6.jpg"",""time"":301},{""stimulus"":""img/green_ll/7.jpg"",""time"":351},{""stimulus"":""img/green_ll/8.jpg"",""time"":401},{""stimulus"":""img/green_ll/9.jpg"",""time"":451},{""stimulus"":""img/green_ll/10.jpg"",""time"":500},{""stimulus"":""img/green_ll/11.jpg"",""time"":552}]","[]"
"image-keyboard-response","152","133774","0.0-5.0-1.74","63ed15bed4665c62d9e6dbb2","bdp_lott","Fri Mar 24 2023 20:47:06 GMT-0400 (Eastern Daylight Time)","347475","green","red","","1795","","","","choice","","img/green_ll/choose11.jpg","1","151","green","0.5","0.5","0.5","l","",""
"animation","153","134375","0.0-5.0-2.74","63ed15bed4665c62d9e6dbb2","bdp_lott","Fri Mar 24 2023 20:47:06 GMT-0400 (Eastern Daylight Time)","347475","green","red","","","","","","","","","","151","","","","","","[{""stimulus"":""img/green_ll/1.jpg"",""time"":51},{""stimulus"":""img/green_ll/2.jpg"",""time"":101},{""stimulus"":""img/green_ll/3.jpg"",""time"":151},{""stimulus"":""img/green_ll/4.jpg"",""time"":201},{""stimulus"":""img/green_ll/5.jpg"",""time"":251},{""stimulus"":""img/green_ll/6.jpg"",""time"":301},{""stimulus"":""img/green_ll/7.jpg"",""time"":351},{""stimulus"":""img/green_ll/8.jpg"",""time"":401},{""stimulus"":""img/green_ll/9.jpg"",""time"":451},{""stimulus"":""img/green_ll/10.jpg"",""time"":515},{""stimulus"":""img/green_ll/11.jpg"",""time"":550}]","[]"
"image-keyboard-response","154","137025","0.0-5.0-1.75","63ed15bed4665c62d9e6dbb2","bdp_lott","Fri Mar 24 2023 20:47:06 GMT-0400 (Eastern Daylight Time)","347475","green","red","","2650","","","","choice","","img/green_ll/choose11.jpg","2","150","red","0.5","0.5","0.5","l","",""
"animation","155","137626","0.0-5.0-2.75","63ed15bed4665c62d9e6dbb2","bdp_lott","Fri Mar 24 2023 20:47:06 GMT-0400 (Eastern Daylight Time)","347475","green","red","","","","","","","","","","150","","","","","","[{""stimulus"":""img/red_ll/1.jpg"",""time"":51},{""stimulus"":""img/red_ll/2.jpg"",""time"":102},{""stimulus"":""img/red_ll/3.jpg"",""time"":152},{""stimulus"":""img/red_ll/4.jpg"",""time"":202},{""stimulus"":""img/red_ll/5.jpg"",""time"":251},{""stimulus"":""img/red_ll/6.jpg"",""time"":301},{""stimulus"":""img/red_ll/7.jpg"",""time"":352},{""stimulus"":""img/red_ll/8.jpg"",""time"":401},{""stimulus"":""img/red_ll/9.jpg"",""time"":452},{""stimulus"":""img/red_ll/10.jpg"",""time"":501},{""stimulus"":""img/red_ll/11.jpg"",""time"":551}]","[]"
"image-keyboard-response","156","138694","0.0-5.0-1.76","63ed15bed4665c62d9e6dbb2","bdp_lott","Fri Mar 24 2023 20:47:06 GMT-0400 (Eastern Daylight Time)","347475","green","red","","1068","","","","choice","","img/red_ll/choose11.jpg","2","149","red","0.5","0.1","0.1","l","",""
"animation","157","139295","0.0-5.0-2.76","63ed15bed4665c62d9e6dbb2","bdp_lott","Fri Mar 24 2023 20:47:06 GMT-0400 (Eastern Daylight Time)","347475","green","red","","","","","","","","","","149","","","","","","[{""stimulus"":""img/red_ll/1.jpg"",""time"":51},{""stimulus"":""img/red_ll/2.jpg"",""time"":101},{""stimulus"":""img/red_ll/3.jpg"",""time"":151},{""stimulus"":""img/red_ll/4.jpg"",""time"":201},{""stimulus"":""img/red_ll/5.jpg"",""time"":251},{""stimulus"":""img/red_ll/6.jpg"",""time"":301},{""stimulus"":""img/red_ll/7.jpg"",""time"":351},{""stimulus"":""img/red_ll/8.jpg"",""time"":401},{""stimulus"":""img/red_ll/9.jpg"",""time"":451},{""stimulus"":""img/red_ll/10.jpg"",""time"":500},{""stimulus"":""img/red_ll/11.jpg"",""time"":551}]","[]"
"image-keyboard-response","158","140158","0.0-5.0-1.77","63ed15bed4665c62d9e6dbb2","bdp_lott","Fri Mar 24 2023 20:47:06 GMT-0400 (Eastern Daylight Time)","347475","green","red","","863","","","","choice","","img/red_ll/choose11.jpg","1","148","green","0.5","0.1","0.5","w","",""
"animation","159","140759","0.0-5.0-2.77","63ed15bed4665c62d9e6dbb2","bdp_lott","Fri Mar 24 2023 20:47:06 GMT-0400 (Eastern Daylight Time)","347475","green","red","","","","","","","","","","148","","","","","","[{""stimulus"":""img/green_wl/1.jpg"",""time"":51},{""stimulus"":""img/green_wl/2.jpg"",""time"":101},{""stimulus"":""img/green_wl/3.jpg"",""time"":151},{""stimulus"":""img/green_wl/4.jpg"",""time"":201},{""stimulus"":""img/green_wl/5.jpg"",""time"":251},{""stimulus"":""img/green_wl/6.jpg"",""time"":301},{""stimulus"":""img/green_wl/7.jpg"",""time"":351},{""stimulus"":""img/green_wl/8.jpg"",""time"":401},{""stimulus"":""img/green_wl/9.jpg"",""time"":451},{""stimulus"":""img/green_wl/10.jpg"",""time"":502},{""stimulus"":""img/green_wl/11.jpg"",""time"":551}]","[]"
"image-keyboard-response","160","141805","0.0-5.0-1.78","63ed15bed4665c62d9e6dbb2","bdp_lott","Fri Mar 24 2023 20:47:06 GMT-0400 (Eastern Daylight Time)","347475","green","red","","1046","","","","choice","","img/green_wl/choose11.jpg","1","147","green","0.5","0.1","0.5","l","",""
"animation","161","142406","0.0-5.0-2.78","63ed15bed4665c62d9e6dbb2","bdp_lott","Fri Mar 24 2023 20:47:06 GMT-0400 (Eastern Daylight Time)","347475","green","red","","","","","","","","","","147","","","","","","[{""stimulus"":""img/green_ll/1.jpg"",""time"":51},{""stimulus"":""img/green_ll/2.jpg"",""time"":101},{""stimulus"":""img/green_ll/3.jpg"",""time"":152},{""stimulus"":""img/green_ll/4.jpg"",""time"":201},{""stimulus"":""img/green_ll/5.jpg"",""time"":251},{""stimulus"":""img/green_ll/6.jpg"",""time"":302},{""stimulus"":""img/green_ll/7.jpg"",""time"":351},{""stimulus"":""img/green_ll/8.jpg"",""time"":401},{""stimulus"":""img/green_ll/9.jpg"",""time"":452},{""stimulus"":""img/green_ll/10.jpg"",""time"":501},{""stimulus"":""img/green_ll/11.jpg"",""time"":551}]","[]"
"image-keyboard-response","162","143137","0.0-5.0-1.79","63ed15bed4665c62d9e6dbb2","bdp_lott","Fri Mar 24 2023 20:47:06 GMT-0400 (Eastern Daylight Time)","347475","green","red","","731","","","","choice","","img/green_ll/choose11.jpg","2","146","red","0.5","0.1","0.1","l","",""
"animation","163","143738","0.0-5.0-2.79","63ed15bed4665c62d9e6dbb2","bdp_lott","Fri Mar 24 2023 20:47:06 GMT-0400 (Eastern Daylight Time)","347475","green","red","","","","","","","","","","146","","","","","","[{""stimulus"":""img/red_ll/1.jpg"",""time"":52},{""stimulus"":""img/red_ll/2.jpg"",""time"":101},{""stimulus"":""img/red_ll/3.jpg"",""time"":151},{""stimulus"":""img/red_ll/4.jpg"",""time"":201},{""stimulus"":""img/red_ll/5.jpg"",""time"":251},{""stimulus"":""img/red_ll/6.jpg"",""time"":301},{""stimulus"":""img/red_ll/7.jpg"",""time"":352},{""stimulus"":""img/red_ll/8.jpg"",""time"":401},{""stimulus"":""img/red_ll/9.jpg"",""time"":451},{""stimulus"":""img/red_ll/10.jpg"",""time"":501},{""stimulus"":""img/red_ll/11.jpg"",""time"":552}]","[]"
"image-keyboard-response","164","144426","0.0-5.0-1.80","63ed15bed4665c62d9e6dbb2","bdp_lott","Fri Mar 24 2023 20:47:06 GMT-0400 (Eastern Daylight Time)","347475","green","red","","688","","","","choice","","img/red_ll/choose11.jpg","2","145","red","0.5","0.1","0.1","l","",""
"animation","165","145027","0.0-5.0-2.80","63ed15bed4665c62d9e6dbb2","bdp_lott","Fri Mar 24 2023 20:47:06 GMT-0400 (Eastern Daylight Time)","347475","green","red","","","","","","","","","","145","","","","","","[{""stimulus"":""img/red_ll/1.jpg"",""time"":51},{""stimulus"":""img/red_ll/2.jpg"",""time"":101},{""stimulus"":""img/red_ll/3.jpg"",""time"":151},{""stimulus"":""img/red_ll/4.jpg"",""time"":201},{""stimulus"":""img/red_ll/5.jpg"",""time"":253},{""stimulus"":""img/red_ll/6.jpg"",""time"":301},{""stimulus"":""img/red_ll/7.jpg"",""time"":351},{""stimulus"":""img/red_ll/8.jpg"",""time"":400},{""stimulus"":""img/red_ll/9.jpg"",""time"":451},{""stimulus"":""img/red_ll/10.jpg"",""time"":501},{""stimulus"":""img/red_ll/11.jpg"",""time"":552}]","[]"
"image-keyboard-response","166","146948","0.0-5.0-1.81","63ed15bed4665c62d9e6dbb2","bdp_lott","Fri Mar 24 2023 20:47:06 GMT-0400 (Eastern Daylight Time)","347475","green","red","","1921","","","","choice","","img/red_ll/choose11.jpg","1","144","green","0.5","0.1","0.5","l","",""
"animation","167","147549","0.0-5.0-2.81","63ed15bed4665c62d9e6dbb2","bdp_lott","Fri Mar 24 2023 20:47:06 GMT-0400 (Eastern Daylight Time)","347475","green","red","","","","","","","","","","144","","","","","","[{""stimulus"":""img/green_ll/1.jpg"",""time"":53},{""stimulus"":""img/green_ll/2.jpg"",""time"":102},{""stimulus"":""img/green_ll/3.jpg"",""time"":151},{""stimulus"":""img/green_ll/4.jpg"",""time"":202},{""stimulus"":""img/green_ll/5.jpg"",""time"":251},{""stimulus"":""img/green_ll/6.jpg"",""time"":302},{""stimulus"":""img/green_ll/7.jpg"",""time"":351},{""stimulus"":""img/green_ll/8.jpg"",""time"":401},{""stimulus"":""img/green_ll/9.jpg"",""time"":451},{""stimulus"":""img/green_ll/10.jpg"",""time"":501},{""stimulus"":""img/green_ll/11.jpg"",""time"":551}]","[]"
"image-keyboard-response","168","148277","0.0-5.0-1.82","63ed15bed4665c62d9e6dbb2","bdp_lott","Fri Mar 24 2023 20:47:06 GMT-0400 (Eastern Daylight Time)","347475","green","red","","728","","","","choice","","img/green_ll/choose11.jpg","2","143","red","0.5","0.1","0.1","l","",""
"animation","169","148877","0.0-5.0-2.82","63ed15bed4665c62d9e6dbb2","bdp_lott","Fri Mar 24 2023 20:47:06 GMT-0400 (Eastern Daylight Time)","347475","green","red","","","","","","","","","","143","","","","","","[{""stimulus"":""img/red_ll/1.jpg"",""time"":51},{""stimulus"":""img/red_ll/2.jpg"",""time"":102},{""stimulus"":""img/red_ll/3.jpg"",""time"":151},{""stimulus"":""img/red_ll/4.jpg"",""time"":201},{""stimulus"":""img/red_ll/5.jpg"",""time"":251},{""stimulus"":""img/red_ll/6.jpg"",""time"":301},{""stimulus"":""img/red_ll/7.jpg"",""time"":350},{""stimulus"":""img/red_ll/8.jpg"",""time"":402},{""stimulus"":""img/red_ll/9.jpg"",""time"":451},{""stimulus"":""img/red_ll/10.jpg"",""time"":501},{""stimulus"":""img/red_ll/11.jpg"",""time"":551}]","[]"
"image-keyboard-response","170","150690","0.0-5.0-1.83","63ed15bed4665c62d9e6dbb2","bdp_lott","Fri Mar 24 2023 20:47:06 GMT-0400 (Eastern Daylight Time)","347475","green","red","","1812","","","","choice","","img/red_ll/choose11.jpg","1","142","green","0.5","0.1","0.5","l","",""
"animation","171","151291","0.0-5.0-2.83","63ed15bed4665c62d9e6dbb2","bdp_lott","Fri Mar 24 2023 20:47:06 GMT-0400 (Eastern Daylight Time)","347475","green","red","","","","","","","","","","142","","","","","","[{""stimulus"":""img/green_ll/1.jpg"",""time"":51},{""stimulus"":""img/green_ll/2.jpg"",""time"":102},{""stimulus"":""img/green_ll/3.jpg"",""time"":152},{""stimulus"":""img/green_ll/4.jpg"",""time"":201},{""stimulus"":""img/green_ll/5.jpg"",""time"":251},{""stimulus"":""img/green_ll/6.jpg"",""time"":301},{""stimulus"":""img/green_ll/7.jpg"",""time"":351},{""stimulus"":""img/green_ll/8.jpg"",""time"":402},{""stimulus"":""img/green_ll/9.jpg"",""time"":451},{""stimulus"":""img/green_ll/10.jpg"",""time"":502},{""stimulus"":""img/green_ll/11.jpg"",""time"":551}]","[]"
"image-keyboard-response","172","151882","0.0-5.0-1.84","63ed15bed4665c62d9e6dbb2","bdp_lott","Fri Mar 24 2023 20:47:06 GMT-0400 (Eastern Daylight Time)","347475","green","red","","591","","","","choice","","img/green_ll/choose11.jpg","2","141","red","0.5","0.1","0.1","l","",""
"animation","173","152483","0.0-5.0-2.84","63ed15bed4665c62d9e6dbb2","bdp_lott","Fri Mar 24 2023 20:47:06 GMT-0400 (Eastern Daylight Time)","347475","green","red","","","","","","","","","","141","","","","","","[{""stimulus"":""img/red_ll/1.jpg"",""time"":52},{""stimulus"":""img/red_ll/2.jpg"",""time"":101},{""stimulus"":""img/red_ll/3.jpg"",""time"":152},{""stimulus"":""img/red_ll/4.jpg"",""time"":201},{""stimulus"":""img/red_ll/5.jpg"",""time"":252},{""stimulus"":""img/red_ll/6.jpg"",""time"":301},{""stimulus"":""img/red_ll/7.jpg"",""time"":352},{""stimulus"":""img/red_ll/8.jpg"",""time"":401},{""stimulus"":""img/red_ll/9.jpg"",""time"":451},{""stimulus"":""img/red_ll/10.jpg"",""time"":501},{""stimulus"":""img/red_ll/11.jpg"",""time"":553}]","[]"
"image-keyboard-response","174","154038","0.0-5.0-1.85","63ed15bed4665c62d9e6dbb2","bdp_lott","Fri Mar 24 2023 20:47:06 GMT-0400 (Eastern Daylight Time)","347475","green","red","","1555","","","","choice","","img/red_ll/choose11.jpg","1","140","green","0.5","0.1","0.5","w","",""
"animation","175","154639","0.0-5.0-2.85","63ed15bed4665c62d9e6dbb2","bdp_lott","Fri Mar 24 2023 20:47:06 GMT-0400 (Eastern Daylight Time)","347475","green","red","","","","","","","","","","140","","","","","","[{""stimulus"":""img/green_wl/1.jpg"",""time"":51},{""stimulus"":""img/green_wl/2.jpg"",""time"":100},{""stimulus"":""img/green_wl/3.jpg"",""time"":151},{""stimulus"":""img/green_wl/4.jpg"",""time"":201},{""stimulus"":""img/green_wl/5.jpg"",""time"":251},{""stimulus"":""img/green_wl/6.jpg"",""time"":302},{""stimulus"":""img/green_wl/7.jpg"",""time"":351},{""stimulus"":""img/green_wl/8.jpg"",""time"":401},{""stimulus"":""img/green_wl/9.jpg"",""time"":451},{""stimulus"":""img/green_wl/10.jpg"",""time"":501},{""stimulus"":""img/green_wl/11.jpg"",""time"":551}]","[]"
"image-keyboard-response","176","156249","0.0-5.0-1.86","63ed15bed4665c62d9e6dbb2","bdp_lott","Fri Mar 24 2023 20:47:06 GMT-0400 (Eastern Daylight Time)","347475","green","red","","1610","","","","choice","","img/green_wl/choose11.jpg","1","139","green","0.5","0.1","0.5","l","",""
"animation","177","156850","0.0-5.0-2.86","63ed15bed4665c62d9e6dbb2","bdp_lott","Fri Mar 24 2023 20:47:06 GMT-0400 (Eastern Daylight Time)","347475","green","red","","","","","","","","","","139","","","","","","[{""stimulus"":""img/green_ll/1.jpg"",""time"":51},{""stimulus"":""img/green_ll/2.jpg"",""time"":101},{""stimulus"":""img/green_ll/3.jpg"",""time"":152},{""stimulus"":""img/green_ll/4.jpg"",""time"":201},{""stimulus"":""img/green_ll/5.jpg"",""time"":251},{""stimulus"":""img/green_ll/6.jpg"",""time"":302},{""stimulus"":""img/green_ll/7.jpg"",""time"":351},{""stimulus"":""img/green_ll/8.jpg"",""time"":401},{""stimulus"":""img/green_ll/9.jpg"",""time"":451},{""stimulus"":""img/green_ll/10.jpg"",""time"":501},{""stimulus"":""img/green_ll/11.jpg"",""time"":551}]","[]"
"image-keyboard-response","178","157519","0.0-5.0-1.87","63ed15bed4665c62d9e6dbb2","bdp_lott","Fri Mar 24 2023 20:47:06 GMT-0400 (Eastern Daylight Time)","347475","green","red","","668","","","","choice","","img/green_ll/choose11.jpg","2","138","red","0.5","0.1","0.1","l","",""
"animation","179","158120","0.0-5.0-2.87","63ed15bed4665c62d9e6dbb2","bdp_lott","Fri Mar 24 2023 20:47:06 GMT-0400 (Eastern Daylight Time)","347475","green","red","","","","","","","","","","138","","","","","","[{""stimulus"":""img/red_ll/1.jpg"",""time"":51},{""stimulus"":""img/red_ll/2.jpg"",""time"":101},{""stimulus"":""img/red_ll/3.jpg"",""time"":152},{""stimulus"":""img/red_ll/4.jpg"",""time"":201},{""stimulus"":""img/red_ll/5.jpg"",""time"":252},{""stimulus"":""img/red_ll/6.jpg"",""time"":301},{""stimulus"":""img/red_ll/7.jpg"",""time"":351},{""stimulus"":""img/red_ll/8.jpg"",""time"":402},{""stimulus"":""img/red_ll/9.jpg"",""time"":452},{""stimulus"":""img/red_ll/10.jpg"",""time"":501},{""stimulus"":""img/red_ll/11.jpg"",""time"":552}]","[]"
"image-keyboard-response","180","160812","0.0-5.0-1.88","63ed15bed4665c62d9e6dbb2","bdp_lott","Fri Mar 24 2023 20:47:06 GMT-0400 (Eastern Daylight Time)","347475","green","red","","2692","","","","choice","","img/red_ll/choose11.jpg","1","137","green","0.5","0.1","0.5","w","",""
"animation","181","161413","0.0-5.0-2.88","63ed15bed4665c62d9e6dbb2","bdp_lott","Fri Mar 24 2023 20:47:06 GMT-0400 (Eastern Daylight Time)","347475","green","red","","","","","","","","","","137","","","","","","[{""stimulus"":""img/green_wl/1.jpg"",""time"":51},{""stimulus"":""img/green_wl/2.jpg"",""time"":101},{""stimulus"":""img/green_wl/3.jpg"",""time"":151},{""stimulus"":""img/green_wl/4.jpg"",""time"":201},{""stimulus"":""img/green_wl/5.jpg"",""time"":252},{""stimulus"":""img/green_wl/6.jpg"",""time"":301},{""stimulus"":""img/green_wl/7.jpg"",""time"":352},{""stimulus"":""img/green_wl/8.jpg"",""time"":402},{""stimulus"":""img/green_wl/9.jpg"",""time"":451},{""stimulus"":""img/green_wl/10.jpg"",""time"":501},{""stimulus"":""img/green_wl/11.jpg"",""time"":551}]","[]"
"image-keyboard-response","182","162088","0.0-5.0-1.89","63ed15bed4665c62d9e6dbb2","bdp_lott","Fri Mar 24 2023 20:47:06 GMT-0400 (Eastern Daylight Time)","347475","green","red","","675","","","","choice","","img/green_wl/choose11.jpg","2","136","red","0.5","0.1","0.1","l","",""
"animation","183","162689","0.0-5.0-2.89","63ed15bed4665c62d9e6dbb2","bdp_lott","Fri Mar 24 2023 20:47:06 GMT-0400 (Eastern Daylight Time)","347475","green","red","","","","","","","","","","136","","","","","","[{""stimulus"":""img/red_wl/1.jpg"",""time"":51},{""stimulus"":""img/red_wl/2.jpg"",""time"":100},{""stimulus"":""img/red_wl/3.jpg"",""time"":151},{""stimulus"":""img/red_wl/4.jpg"",""time"":201},{""stimulus"":""img/red_wl/5.jpg"",""time"":250},{""stimulus"":""img/red_wl/6.jpg"",""time"":301},{""stimulus"":""img/red_wl/7.jpg"",""time"":351},{""stimulus"":""img/red_wl/8.jpg"",""time"":400},{""stimulus"":""img/red_wl/9.jpg"",""time"":450},{""stimulus"":""img/red_wl/10.jpg"",""time"":501},{""stimulus"":""img/red_wl/11.jpg"",""time"":550}]","[]"
"image-keyboard-response","184","163288","0.0-5.0-1.90","63ed15bed4665c62d9e6dbb2","bdp_lott","Fri Mar 24 2023 20:47:06 GMT-0400 (Eastern Daylight Time)","347475","green","red","","598","","","","choice","","img/red_wl/choose11.jpg","1","135","green","0.5","0.1","0.5","w","",""
"animation","185","163889","0.0-5.0-2.90","63ed15bed4665c62d9e6dbb2","bdp_lott","Fri Mar 24 2023 20:47:06 GMT-0400 (Eastern Daylight Time)","347475","green","red","","","","","","","","","","135","","","","","","[{""stimulus"":""img/green_wl/1.jpg"",""time"":52},{""stimulus"":""img/green_wl/2.jpg"",""time"":101},{""stimulus"":""img/green_wl/3.jpg"",""time"":152},{""stimulus"":""img/green_wl/4.jpg"",""time"":201},{""stimulus"":""img/green_wl/5.jpg"",""time"":251},{""stimulus"":""img/green_wl/6.jpg"",""time"":300},{""stimulus"":""img/green_wl/7.jpg"",""time"":351},{""stimulus"":""img/green_wl/8.jpg"",""time"":401},{""stimulus"":""img/green_wl/9.jpg"",""time"":450},{""stimulus"":""img/green_wl/10.jpg"",""time"":501},{""stimulus"":""img/green_wl/11.jpg"",""time"":551}]","[]"
"image-keyboard-response","186","166103","0.0-5.0-1.91","63ed15bed4665c62d9e6dbb2","bdp_lott","Fri Mar 24 2023 20:47:06 GMT-0400 (Eastern Daylight Time)","347475","green","red","","2214","","","","choice","","img/green_wl/choose11.jpg","2","134","red","0.5","0.1","0.1","l","",""
"animation","187","166705","0.0-5.0-2.91","63ed15bed4665c62d9e6dbb2","bdp_lott","Fri Mar 24 2023 20:47:06 GMT-0400 (Eastern Daylight Time)","347475","green","red","","","","","","","","","","134","","","","","","[{""stimulus"":""img/red_wl/1.jpg"",""time"":52},{""stimulus"":""img/red_wl/2.jpg"",""time"":101},{""stimulus"":""img/red_wl/3.jpg"",""time"":151},{""stimulus"":""img/red_wl/4.jpg"",""time"":201},{""stimulus"":""img/red_wl/5.jpg"",""time"":251},{""stimulus"":""img/red_wl/6.jpg"",""time"":301},{""stimulus"":""img/red_wl/7.jpg"",""time"":351},{""stimulus"":""img/red_wl/8.jpg"",""time"":401},{""stimulus"":""img/red_wl/9.jpg"",""time"":450},{""stimulus"":""img/red_wl/10.jpg"",""time"":501},{""stimulus"":""img/red_wl/11.jpg"",""time"":551}]","[]"
"image-keyboard-response","188","168068","0.0-5.0-1.92","63ed15bed4665c62d9e6dbb2","bdp_lott","Fri Mar 24 2023 20:47:06 GMT-0400 (Eastern Daylight Time)","347475","green","red","","1363","","","","choice","","img/red_wl/choose11.jpg","2","133","red","0.5","0.1","0.1","l","",""
"animation","189","168669","0.0-5.0-2.92","63ed15bed4665c62d9e6dbb2","bdp_lott","Fri Mar 24 2023 20:47:06 GMT-0400 (Eastern Daylight Time)","347475","green","red","","","","","","","","","","133","","","","","","[{""stimulus"":""img/red_wl/1.jpg"",""time"":51},{""stimulus"":""img/red_wl/2.jpg"",""time"":101},{""stimulus"":""img/red_wl/3.jpg"",""time"":151},{""stimulus"":""img/red_wl/4.jpg"",""time"":202},{""stimulus"":""img/red_wl/5.jpg"",""time"":251},{""stimulus"":""img/red_wl/6.jpg"",""time"":301},{""stimulus"":""img/red_wl/7.jpg"",""time"":352},{""stimulus"":""img/red_wl/8.jpg"",""time"":401},{""stimulus"":""img/red_wl/9.jpg"",""time"":450},{""stimulus"":""img/red_wl/10.jpg"",""time"":502},{""stimulus"":""img/red_wl/11.jpg"",""time"":551}]","[]"
"image-keyboard-response","190","169180","0.0-5.0-1.93","63ed15bed4665c62d9e6dbb2","bdp_lott","Fri Mar 24 2023 20:47:06 GMT-0400 (Eastern Daylight Time)","347475","green","red","","511","","","","choice","","img/red_wl/choose11.jpg","1","132","green","0.5","0.1","0.5","l","",""
