"trial_type","trial_index","time_elapsed","internal_node_id","subject_id","task","startTime","totalTime","fairMachine","unfairMachine","view_history","rt","event","trial","time","trialtype","numBlurs","success","stimulus","key_press","roundsLeft","chosen","pFairMachWin","pUnfairMachWin","pTrialWin","outcome","animation_sequence","responses"
"pavlovia","0","13","0.0-0.0","6362aca86b740b1ec4cb6efb","bdp_lott","Mon Mar 27 2023 16:16:40 GMT-0400 (Eastern Daylight Time)","763811","red","green","","","","","","","","","","","","","","","","","",""
"instructions","1","3766","0.0-1.0","6362aca86b740b1ec4cb6efb","bdp_lott","Mon Mar 27 2023 16:16:40 GMT-0400 (Eastern Daylight Time)","763811","red","green","[{""page_index"":0,""viewing_time"":3751}]","3752","","","","","","","","","","","","","","","",""
"","","","","6362aca86b740b1ec4cb6efb","bdp_lott","Mon Mar 27 2023 16:16:40 GMT-0400 (Eastern Daylight Time)","763811","red","green","","","blur","2","17511","blurevent","1","","","","","","","","","","",""
"","","","","6362aca86b740b1ec4cb6efb","bdp_lott","Mon Mar 27 2023 16:16:40 GMT-0400 (Eastern Daylight Time)","763811","red","green","","","focus","2","17517","focusevent","","","","","","","","","","","",""
"","","","","6362aca86b740b1ec4cb6efb","bdp_lott","Mon Mar 27 2023 16:16:40 GMT-0400 (Eastern Daylight Time)","763811","red","green","","","blur","2","17519","blurevent","","","","","","","","","","","",""
"","","","","6362aca86b740b1ec4cb6efb","bdp_lott","Mon Mar 27 2023 16:16:40 GMT-0400 (Eastern Daylight Time)","763811","red","green","","","fullscreenenter","2","17527","fullscreenenter","","","","","","","","","","","",""
"","","","","6362aca86b740b1ec4cb6efb","bdp_lott","Mon Mar 27 2023 16:16:40 GMT-0400 (Eastern Daylight Time)","763811","red","green","","","focus","2","17774","focusevent","","","","","","","","","","","",""
"fullscreen","2","18491","0.0-2.0","6362aca86b740b1ec4cb6efb","bdp_lott","Mon Mar 27 2023 16:16:40 GMT-0400 (Eastern Daylight Time)","763811","red","green","","","","","","","","true","","","","","","","","","",""
"instructions","3","35802","0.0-4.0","6362aca86b740b1ec4cb6efb","bdp_lott","Mon Mar 27 2023 16:16:40 GMT-0400 (Eastern Daylight Time)","763811","red","green","[{""page_index"":0,""viewing_time"":17304}]","17305","","","","","","","","","","","","","","","",""
"","","","","6362aca86b740b1ec4cb6efb","bdp_lott","Mon Mar 27 2023 16:16:40 GMT-0400 (Eastern Daylight Time)","763811","red","green","","","fullscreenexit","4","43041","fullscreenexit","","","","","","","","","","","",""
"image-keyboard-response","4","44164","0.0-5.0-0.0-0.0","6362aca86b740b1ec4cb6efb","bdp_lott","Mon Mar 27 2023 16:16:40 GMT-0400 (Eastern Daylight Time)","763811","red","green","","8357","","","","blurwarn","1","","","49","","","","","","","",""
"image-keyboard-response","5","77148","0.0-5.0-1.0","6362aca86b740b1ec4cb6efb","bdp_lott","Mon Mar 27 2023 16:16:40 GMT-0400 (Eastern Daylight Time)","763811","red","green","","32729","","","","choice","","","img/red_ll/initchoose11.jpg","2","225","red","0.5","0.5","0.5","w","",""
"animation","6","77766","0.0-5.0-2.0","6362aca86b740b1ec4cb6efb","bdp_lott","Mon Mar 27 2023 16:16:40 GMT-0400 (Eastern Daylight Time)","763811","red","green","","","","","","","","","","","225","","","","","","[{""stimulus"":""img/red_lw/1.jpg"",""time"":53},{""stimulus"":""img/red_lw/2.jpg"",""time"":103},{""stimulus"":""img/red_lw/3.jpg"",""time"":154},{""stimulus"":""img/red_lw/4.jpg"",""time"":206},{""stimulus"":""img/red_lw/5.jpg"",""time"":257},{""stimulus"":""img/red_lw/6.jpg"",""time"":308},{""stimulus"":""img/red_lw/7.jpg"",""time"":359},{""stimulus"":""img/red_lw/8.jpg"",""time"":410},{""stimulus"":""img/red_lw/9.jpg"",""time"":461},{""stimulus"":""img/red_lw/10.jpg"",""time"":512},{""stimulus"":""img/red_lw/11.jpg"",""time"":564}]","[]"
"image-keyboard-response","7","81104","0.0-5.0-1.1","6362aca86b740b1ec4cb6efb","bdp_lott","Mon Mar 27 2023 16:16:40 GMT-0400 (Eastern Daylight Time)","763811","red","green","","3336","","","","choice","","","img/red_lw/choose11.jpg","2","224","red","0.5","0.5","0.5","w","",""
"animation","8","81718","0.0-5.0-2.1","6362aca86b740b1ec4cb6efb","bdp_lott","Mon Mar 27 2023 16:16:40 GMT-0400 (Eastern Daylight Time)","763811","red","green","","","","","","","","","","","224","","","","","","[{""stimulus"":""img/red_lw/1.jpg"",""time"":52},{""stimulus"":""img/red_lw/2.jpg"",""time"":103},{""stimulus"":""img/red_lw/3.jpg"",""time"":154},{""stimulus"":""img/red_lw/4.jpg"",""time"":205},{""stimulus"":""img/red_lw/5.jpg"",""time"":256},{""stimulus"":""img/red_lw/6.jpg"",""time"":307},{""stimulus"":""img/red_lw/7.jpg"",""time"":358},{""stimulus"":""img/red_lw/8.jpg"",""time"":409},{""stimulus"":""img/red_lw/9.jpg"",""time"":459},{""stimulus"":""img/red_lw/10.jpg"",""time"":510},{""stimulus"":""img/red_lw/11.jpg"",""time"":561}]","[]"
"image-keyboard-response","9","82928","0.0-5.0-1.2","6362aca86b740b1ec4cb6efb","bdp_lott","Mon Mar 27 2023 16:16:40 GMT-0400 (Eastern Daylight Time)","763811","red","green","","1207","","","","choice","","","img/red_lw/choose11.jpg","1","223","green","0.5","0.5","0.5","w","",""
"animation","10","83542","0.0-5.0-2.2","6362aca86b740b1ec4cb6efb","bdp_lott","Mon Mar 27 2023 16:16:40 GMT-0400 (Eastern Daylight Time)","763811","red","green","","","","","","","","","","","223","","","","","","[{""stimulus"":""img/green_ww/1.jpg"",""time"":52},{""stimulus"":""img/green_ww/2.jpg"",""time"":103},{""stimulus"":""img/green_ww/3.jpg"",""time"":154},{""stimulus"":""img/green_ww/4.jpg"",""time"":205},{""stimulus"":""img/green_ww/5.jpg"",""time"":256},{""stimulus"":""img/green_ww/6.jpg"",""time"":307},{""stimulus"":""img/green_ww/7.jpg"",""time"":359},{""stimulus"":""img/green_ww/8.jpg"",""time"":410},{""stimulus"":""img/green_ww/9.jpg"",""time"":461},{""stimulus"":""img/green_ww/10.jpg"",""time"":512},{""stimulus"":""img/green_ww/11.jpg"",""time"":562}]","[]"
"image-keyboard-response","11","84930","0.0-5.0-1.3","6362aca86b740b1ec4cb6efb","bdp_lott","Mon Mar 27 2023 16:16:40 GMT-0400 (Eastern Daylight Time)","763811","red","green","","1385","","","","choice","","","img/green_ww/choose11.jpg","2","222","red","0.5","0.5","0.5","w","",""
"animation","12","85546","0.0-5.0-2.3","6362aca86b740b1ec4cb6efb","bdp_lott","Mon Mar 27 2023 16:16:40 GMT-0400 (Eastern Daylight Time)","763811","red","green","","","","","","","","","","","222","","","","","","[{""stimulus"":""img/red_ww/1.jpg"",""time"":52},{""stimulus"":""img/red_ww/2.jpg"",""time"":103},{""stimulus"":""img/red_ww/3.jpg"",""time"":154},{""stimulus"":""img/red_ww/4.jpg"",""time"":205},{""stimulus"":""img/red_ww/5.jpg"",""time"":256},{""stimulus"":""img/red_ww/6.jpg"",""time"":307},{""stimulus"":""img/red_ww/7.jpg"",""time"":358},{""stimulus"":""img/red_ww/8.jpg"",""time"":410},{""stimulus"":""img/red_ww/9.jpg"",""time"":461},{""stimulus"":""img/red_ww/10.jpg"",""time"":512},{""stimulus"":""img/red_ww/11.jpg"",""time"":564}]","[]"
"image-keyboard-response","13","86257","0.0-5.0-1.4","6362aca86b740b1ec4cb6efb","bdp_lott","Mon Mar 27 2023 16:16:40 GMT-0400 (Eastern Daylight Time)","763811","red","green","","708","","","","choice","","","img/red_ww/choose11.jpg","1","221","green","0.5","0.5","0.5","l","",""
"animation","14","86869","0.0-5.0-2.4","6362aca86b740b1ec4cb6efb","bdp_lott","Mon Mar 27 2023 16:16:40 GMT-0400 (Eastern Daylight Time)","763811","red","green","","","","","","","","","","","221","","","","","","[{""stimulus"":""img/green_lw/1.jpg"",""time"":52},{""stimulus"":""img/green_lw/2.jpg"",""time"":103},{""stimulus"":""img/green_lw/3.jpg"",""time"":153},{""stimulus"":""img/green_lw/4.jpg"",""time"":204},{""stimulus"":""img/green_lw/5.jpg"",""time"":255},{""stimulus"":""img/green_lw/6.jpg"",""time"":306},{""stimulus"":""img/green_lw/7.jpg"",""time"":356},{""stimulus"":""img/green_lw/8.jpg"",""time"":408},{""stimulus"":""img/green_lw/9.jpg"",""time"":459},{""stimulus"":""img/green_lw/10.jpg"",""time"":510},{""stimulus"":""img/green_lw/11.jpg"",""time"":560}]","[]"
"image-keyboard-response","15","87697","0.0-5.0-1.5","6362aca86b740b1ec4cb6efb","bdp_lott","Mon Mar 27 2023 16:16:40 GMT-0400 (Eastern Daylight Time)","763811","red","green","","826","","","","choice","","","img/green_lw/choose11.jpg","2","220","red","0.5","0.5","0.5","l","",""
"animation","16","88311","0.0-5.0-2.5","6362aca86b740b1ec4cb6efb","bdp_lott","Mon Mar 27 2023 16:16:40 GMT-0400 (Eastern Daylight Time)","763811","red","green","","","","","","","","","","","220","","","","","","[{""stimulus"":""img/red_ll/1.jpg"",""time"":52},{""stimulus"":""img/red_ll/2.jpg"",""time"":102},{""stimulus"":""img/red_ll/3.jpg"",""time"":154},{""stimulus"":""img/red_ll/4.jpg"",""time"":205},{""stimulus"":""img/red_ll/5.jpg"",""time"":256},{""stimulus"":""img/red_ll/6.jpg"",""time"":307},{""stimulus"":""img/red_ll/7.jpg"",""time"":358},{""stimulus"":""img/red_ll/8.jpg"",""time"":409},{""stimulus"":""img/red_ll/9.jpg"",""time"":460},{""stimulus"":""img/red_ll/10.jpg"",""time"":511},{""stimulus"":""img/red_ll/11.jpg"",""time"":562}]","[]"
"image-keyboard-response","17","88976","0.0-5.0-1.6","6362aca86b740b1ec4cb6efb","bdp_lott","Mon Mar 27 2023 16:16:40 GMT-0400 (Eastern Daylight Time)","763811","red","green","","663","","","","choice","","","img/red_ll/choose11.jpg","1","219","green","0.5","0.5","0.5","l","",""
"animation","18","89590","0.0-5.0-2.6","6362aca86b740b1ec4cb6efb","bdp_lott","Mon Mar 27 2023 16:16:40 GMT-0400 (Eastern Daylight Time)","763811","red","green","","","","","","","","","","","219","","","","","","[{""stimulus"":""img/green_ll/1.jpg"",""time"":51},{""stimulus"":""img/green_ll/2.jpg"",""time"":102},{""stimulus"":""img/green_ll/3.jpg"",""time"":153},{""stimulus"":""img/green_ll/4.jpg"",""time"":204},{""stimulus"":""img/green_ll/5.jpg"",""time"":255},{""stimulus"":""img/green_ll/6.jpg"",""time"":306},{""stimulus"":""img/green_ll/7.jpg"",""time"":357},{""stimulus"":""img/green_ll/8.jpg"",""time"":408},{""stimulus"":""img/green_ll/9.jpg"",""time"":459},{""stimulus"":""img/green_ll/10.jpg"",""time"":510},{""stimulus"":""img/green_ll/11.jpg"",""time"":561}]","[]"
"image-keyboard-response","19","90128","0.0-5.0-1.7","6362aca86b740b1ec4cb6efb","bdp_lott","Mon Mar 27 2023 16:16:40 GMT-0400 (Eastern Daylight Time)","763811","red","green","","536","","","","choice","","","img/green_ll/choose11.jpg","2","218","red","0.5","0.5","0.5","w","",""
"animation","20","90742","0.0-5.0-2.7","6362aca86b740b1ec4cb6efb","bdp_lott","Mon Mar 27 2023 16:16:40 GMT-0400 (Eastern Daylight Time)","763811","red","green","","","","","","","","","","","218","","","","","","[{""stimulus"":""img/red_lw/1.jpg"",""time"":52},{""stimulus"":""img/red_lw/2.jpg"",""time"":103},{""stimulus"":""img/red_lw/3.jpg"",""time"":154},{""stimulus"":""img/red_lw/4.jpg"",""time"":206},{""stimulus"":""img/red_lw/5.jpg"",""time"":257},{""stimulus"":""img/red_lw/6.jpg"",""time"":307},{""stimulus"":""img/red_lw/7.jpg"",""time"":358},{""stimulus"":""img/red_lw/8.jpg"",""time"":408},{""stimulus"":""img/red_lw/9.jpg"",""time"":460},{""stimulus"":""img/red_lw/10.jpg"",""time"":510},{""stimulus"":""img/red_lw/11.jpg"",""time"":562}]","[]"
"image-keyboard-response","21","91725","0.0-5.0-1.8","6362aca86b740b1ec4cb6efb","bdp_lott","Mon Mar 27 2023 16:16:40 GMT-0400 (Eastern Daylight Time)","763811","red","green","","981","","","","choice","","","img/red_lw/choose11.jpg","2","217","red","0.5","0.5","0.5","w","",""
"animation","22","92340","0.0-5.0-2.8","6362aca86b740b1ec4cb6efb","bdp_lott","Mon Mar 27 2023 16:16:40 GMT-0400 (Eastern Daylight Time)","763811","red","green","","","","","","","","","","","217","","","","","","[{""stimulus"":""img/red_lw/1.jpg"",""time"":52},{""stimulus"":""img/red_lw/2.jpg"",""time"":103},{""stimulus"":""img/red_lw/3.jpg"",""time"":154},{""stimulus"":""img/red_lw/4.jpg"",""time"":205},{""stimulus"":""img/red_lw/5.jpg"",""time"":257},{""stimulus"":""img/red_lw/6.jpg"",""time"":308},{""stimulus"":""img/red_lw/7.jpg"",""time"":359},{""stimulus"":""img/red_lw/8.jpg"",""time"":410},{""stimulus"":""img/red_lw/9.jpg"",""time"":461},{""stimulus"":""img/red_lw/10.jpg"",""time"":513},{""stimulus"":""img/red_lw/11.jpg"",""time"":564}]","[]"
"image-keyboard-response","23","93121","0.0-5.0-1.9","6362aca86b740b1ec4cb6efb","bdp_lott","Mon Mar 27 2023 16:16:40 GMT-0400 (Eastern Daylight Time)","763811","red","green","","779","","","","choice","","","img/red_lw/choose11.jpg","2","216","red","0.5","0.5","0.5","w","",""
"animation","24","93736","0.0-5.0-2.9","6362aca86b740b1ec4cb6efb","bdp_lott","Mon Mar 27 2023 16:16:40 GMT-0400 (Eastern Daylight Time)","763811","red","green","","","","","","","","","","","216","","","","","","[{""stimulus"":""img/red_lw/1.jpg"",""time"":52},{""stimulus"":""img/red_lw/2.jpg"",""time"":102},{""stimulus"":""img/red_lw/3.jpg"",""time"":153},{""stimulus"":""img/red_lw/4.jpg"",""time"":204},{""stimulus"":""img/red_lw/5.jpg"",""time"":255},{""stimulus"":""img/red_lw/6.jpg"",""time"":307},{""stimulus"":""img/red_lw/7.jpg"",""time"":358},{""stimulus"":""img/red_lw/8.jpg"",""time"":409},{""stimulus"":""img/red_lw/9.jpg"",""time"":460},{""stimulus"":""img/red_lw/10.jpg"",""time"":511},{""stimulus"":""img/red_lw/11.jpg"",""time"":562}]","[]"
"image-keyboard-response","25","94335","0.0-5.0-1.10","6362aca86b740b1ec4cb6efb","bdp_lott","Mon Mar 27 2023 16:16:40 GMT-0400 (Eastern Daylight Time)","763811","red","green","","596","","","","choice","","","img/red_lw/choose11.jpg","2","215","red","0.5","0.5","0.5","w","",""
"animation","26","94950","0.0-5.0-2.10","6362aca86b740b1ec4cb6efb","bdp_lott","Mon Mar 27 2023 16:16:40 GMT-0400 (Eastern Daylight Time)","763811","red","green","","","","","","","","","","","215","","","","","","[{""stimulus"":""img/red_lw/1.jpg"",""time"":52},{""stimulus"":""img/red_lw/2.jpg"",""time"":103},{""stimulus"":""img/red_lw/3.jpg"",""time"":154},{""stimulus"":""img/red_lw/4.jpg"",""time"":205},{""stimulus"":""img/red_lw/5.jpg"",""time"":256},{""stimulus"":""img/red_lw/6.jpg"",""time"":307},{""stimulus"":""img/red_lw/7.jpg"",""time"":359},{""stimulus"":""img/red_lw/8.jpg"",""time"":410},{""stimulus"":""img/red_lw/9.jpg"",""time"":461},{""stimulus"":""img/red_lw/10.jpg"",""time"":512},{""stimulus"":""img/red_lw/11.jpg"",""time"":563}]","[]"
"image-keyboard-response","27","95886","0.0-5.0-1.11","6362aca86b740b1ec4cb6efb","bdp_lott","Mon Mar 27 2023 16:16:40 GMT-0400 (Eastern Daylight Time)","763811","red","green","","933","","","","choice","","","img/red_lw/choose11.jpg","2","214","red","0.5","0.5","0.5","l","",""
"animation","28","96502","0.0-5.0-2.11","6362aca86b740b1ec4cb6efb","bdp_lott","Mon Mar 27 2023 16:16:40 GMT-0400 (Eastern Daylight Time)","763811","red","green","","","","","","","","","","","214","","","","","","[{""stimulus"":""img/red_ll/1.jpg"",""time"":52},{""stimulus"":""img/red_ll/2.jpg"",""time"":103},{""stimulus"":""img/red_ll/3.jpg"",""time"":154},{""stimulus"":""img/red_ll/4.jpg"",""time"":205},{""stimulus"":""img/red_ll/5.jpg"",""time"":256},{""stimulus"":""img/red_ll/6.jpg"",""time"":307},{""stimulus"":""img/red_ll/7.jpg"",""time"":358},{""stimulus"":""img/red_ll/8.jpg"",""time"":410},{""stimulus"":""img/red_ll/9.jpg"",""time"":461},{""stimulus"":""img/red_ll/10.jpg"",""time"":512},{""stimulus"":""img/red_ll/11.jpg"",""time"":563}]","[]"
"image-keyboard-response","29","97080","0.0-5.0-1.12","6362aca86b740b1ec4cb6efb","bdp_lott","Mon Mar 27 2023 16:16:40 GMT-0400 (Eastern Daylight Time)","763811","red","green","","575","","","","choice","","","img/red_ll/choose11.jpg","1","213","green","0.5","0.5","0.5","l","",""
"animation","30","97696","0.0-5.0-2.12","6362aca86b740b1ec4cb6efb","bdp_lott","Mon Mar 27 2023 16:16:40 GMT-0400 (Eastern Daylight Time)","763811","red","green","","","","","","","","","","","213","","","","","","[{""stimulus"":""img/green_ll/1.jpg"",""time"":52},{""stimulus"":""img/green_ll/2.jpg"",""time"":103},{""stimulus"":""img/green_ll/3.jpg"",""time"":155},{""stimulus"":""img/green_ll/4.jpg"",""time"":206},{""stimulus"":""img/green_ll/5.jpg"",""time"":257},{""stimulus"":""img/green_ll/6.jpg"",""time"":308},{""stimulus"":""img/green_ll/7.jpg"",""time"":359},{""stimulus"":""img/green_ll/8.jpg"",""time"":410},{""stimulus"":""img/green_ll/9.jpg"",""time"":461},{""stimulus"":""img/green_ll/10.jpg"",""time"":513},{""stimulus"":""img/green_ll/11.jpg"",""time"":564}]","[]"
"image-keyboard-response","31","98248","0.0-5.0-1.13","6362aca86b740b1ec4cb6efb","bdp_lott","Mon Mar 27 2023 16:16:40 GMT-0400 (Eastern Daylight Time)","763811","red","green","","551","","","","choice","","","img/green_ll/choose11.jpg","1","212","green","0.5","0.5","0.5","w","",""
"animation","32","98863","0.0-5.0-2.13","6362aca86b740b1ec4cb6efb","bdp_lott","Mon Mar 27 2023 16:16:40 GMT-0400 (Eastern Daylight Time)","763811","red","green","","","","","","","","","","","212","","","","","","[{""stimulus"":""img/green_wl/1.jpg"",""time"":52},{""stimulus"":""img/green_wl/2.jpg"",""time"":102},{""stimulus"":""img/green_wl/3.jpg"",""time"":154},{""stimulus"":""img/green_wl/4.jpg"",""time"":205},{""stimulus"":""img/green_wl/5.jpg"",""time"":256},{""stimulus"":""img/green_wl/6.jpg"",""time"":306},{""stimulus"":""img/green_wl/7.jpg"",""time"":358},{""stimulus"":""img/green_wl/8.jpg"",""time"":409},{""stimulus"":""img/green_wl/9.jpg"",""time"":460},{""stimulus"":""img/green_wl/10.jpg"",""time"":511},{""stimulus"":""img/green_wl/11.jpg"",""time"":562}]","[]"
"image-keyboard-response","33","100365","0.0-5.0-1.14","6362aca86b740b1ec4cb6efb","bdp_lott","Mon Mar 27 2023 16:16:40 GMT-0400 (Eastern Daylight Time)","763811","red","green","","1499","","","","choice","","","img/green_wl/choose11.jpg","2","211","red","0.5","0.5","0.5","l","",""
"animation","34","100980","0.0-5.0-2.14","6362aca86b740b1ec4cb6efb","bdp_lott","Mon Mar 27 2023 16:16:40 GMT-0400 (Eastern Daylight Time)","763811","red","green","","","","","","","","","","","211","","","","","","[{""stimulus"":""img/red_wl/1.jpg"",""time"":52},{""stimulus"":""img/red_wl/2.jpg"",""time"":103},{""stimulus"":""img/red_wl/3.jpg"",""time"":154},{""stimulus"":""img/red_wl/4.jpg"",""time"":205},{""stimulus"":""img/red_wl/5.jpg"",""time"":256},{""stimulus"":""img/red_wl/6.jpg"",""time"":308},{""stimulus"":""img/red_wl/7.jpg"",""time"":359},{""stimulus"":""img/red_wl/8.jpg"",""time"":410},{""stimulus"":""img/red_wl/9.jpg"",""time"":461},{""stimulus"":""img/red_wl/10.jpg"",""time"":512},{""stimulus"":""img/red_wl/11.jpg"",""time"":563}]","[]"
"image-keyboard-response","35","101579","0.0-5.0-1.15","6362aca86b740b1ec4cb6efb","bdp_lott","Mon Mar 27 2023 16:16:40 GMT-0400 (Eastern Daylight Time)","763811","red","green","","598","","","","choice","","","img/red_wl/choose11.jpg","1","210","green","0.5","0.5","0.5","l","",""
"animation","36","102194","0.0-5.0-2.15","6362aca86b740b1ec4cb6efb","bdp_lott","Mon Mar 27 2023 16:16:40 GMT-0400 (Eastern Daylight Time)","763811","red","green","","","","","","","","","","","210","","","","","","[{""stimulus"":""img/green_ll/1.jpg"",""time"":52},{""stimulus"":""img/green_ll/2.jpg"",""time"":103},{""stimulus"":""img/green_ll/3.jpg"",""time"":154},{""stimulus"":""img/green_ll/4.jpg"",""time"":206},{""stimulus"":""img/green_ll/5.jpg"",""time"":257},{""stimulus"":""img/green_ll/6.jpg"",""time"":308},{""stimulus"":""img/green_ll/7.jpg"",""time"":359},{""stimulus"":""img/green_ll/8.jpg"",""time"":410},{""stimulus"":""img/green_ll/9.jpg"",""time"":461},{""stimulus"":""img/green_ll/10.jpg"",""time"":512},{""stimulus"":""img/green_ll/11.jpg"",""time"":563}]","[]"
"image-keyboard-response","37","102885","0.0-5.0-1.16","6362aca86b740b1ec4cb6efb","bdp_lott","Mon Mar 27 2023 16:16:40 GMT-0400 (Eastern Daylight Time)","763811","red","green","","688","","","","choice","","","img/green_ll/choose11.jpg","2","209","red","0.5","0.5","0.5","l","",""
"animation","38","103500","0.0-5.0-2.16","6362aca86b740b1ec4cb6efb","bdp_lott","Mon Mar 27 2023 16:16:40 GMT-0400 (Eastern Daylight Time)","763811","red","green","","","","","","","","","","","209","","","","","","[{""stimulus"":""img/red_ll/1.jpg"",""time"":52},{""stimulus"":""img/red_ll/2.jpg"",""time"":103},{""stimulus"":""img/red_ll/3.jpg"",""time"":154},{""stimulus"":""img/red_ll/4.jpg"",""time"":205},{""stimulus"":""img/red_ll/5.jpg"",""time"":256},{""stimulus"":""img/red_ll/6.jpg"",""time"":307},{""stimulus"":""img/red_ll/7.jpg"",""time"":358},{""stimulus"":""img/red_ll/8.jpg"",""time"":409},{""stimulus"":""img/red_ll/9.jpg"",""time"":460},{""stimulus"":""img/red_ll/10.jpg"",""time"":512},{""stimulus"":""img/red_ll/11.jpg"",""time"":563}]","[]"
"image-keyboard-response","39","104054","0.0-5.0-1.17","6362aca86b740b1ec4cb6efb","bdp_lott","Mon Mar 27 2023 16:16:40 GMT-0400 (Eastern Daylight Time)","763811","red","green","","552","","","","choice","","","img/red_ll/choose11.jpg","1","208","green","0.5","0.5","0.5","l","",""
"animation","40","104668","0.0-5.0-2.17","6362aca86b740b1ec4cb6efb","bdp_lott","Mon Mar 27 2023 16:16:40 GMT-0400 (Eastern Daylight Time)","763811","red","green","","","","","","","","","","","208","","","","","","[{""stimulus"":""img/green_ll/1.jpg"",""time"":52},{""stimulus"":""img/green_ll/2.jpg"",""time"":103},{""stimulus"":""img/green_ll/3.jpg"",""time"":154},{""stimulus"":""img/green_ll/4.jpg"",""time"":205},{""stimulus"":""img/green_ll/5.jpg"",""time"":256},{""stimulus"":""img/green_ll/6.jpg"",""time"":307},{""stimulus"":""img/green_ll/7.jpg"",""time"":358},{""stimulus"":""img/green_ll/8.jpg"",""time"":409},{""stimulus"":""img/green_ll/9.jpg"",""time"":460},{""stimulus"":""img/green_ll/10.jpg"",""time"":511},{""stimulus"":""img/green_ll/11.jpg"",""time"":562}]","[]"
"image-keyboard-response","41","105247","0.0-5.0-1.18","6362aca86b740b1ec4cb6efb","bdp_lott","Mon Mar 27 2023 16:16:40 GMT-0400 (Eastern Daylight Time)","763811","red","green","","577","","","","choice","","","img/green_ll/choose11.jpg","1","207","green","0.5","0.5","0.5","l","",""
"animation","42","105862","0.0-5.0-2.18","6362aca86b740b1ec4cb6efb","bdp_lott","Mon Mar 27 2023 16:16:40 GMT-0400 (Eastern Daylight Time)","763811","red","green","","","","","","","","","","","207","","","","","","[{""stimulus"":""img/green_ll/1.jpg"",""time"":52},{""stimulus"":""img/green_ll/2.jpg"",""time"":103},{""stimulus"":""img/green_ll/3.jpg"",""time"":155},{""stimulus"":""img/green_ll/4.jpg"",""time"":206},{""stimulus"":""img/green_ll/5.jpg"",""time"":256},{""stimulus"":""img/green_ll/6.jpg"",""time"":307},{""stimulus"":""img/green_ll/7.jpg"",""time"":358},{""stimulus"":""img/green_ll/8.jpg"",""time"":410},{""stimulus"":""img/green_ll/9.jpg"",""time"":461},{""stimulus"":""img/green_ll/10.jpg"",""time"":512},{""stimulus"":""img/green_ll/11.jpg"",""time"":563}]","[]"
"image-keyboard-response","43","106350","0.0-5.0-1.19","6362aca86b740b1ec4cb6efb","bdp_lott","Mon Mar 27 2023 16:16:40 GMT-0400 (Eastern Daylight Time)","763811","red","green","","485","","","","choice","","","img/green_ll/choose11.jpg","2","206","red","0.5","0.5","0.5","w","",""
"animation","44","106965","0.0-5.0-2.19","6362aca86b740b1ec4cb6efb","bdp_lott","Mon Mar 27 2023 16:16:40 GMT-0400 (Eastern Daylight Time)","763811","red","green","","","","","","","","","","","206","","","","","","[{""stimulus"":""img/red_lw/1.jpg"",""time"":52},{""stimulus"":""img/red_lw/2.jpg"",""time"":103},{""stimulus"":""img/red_lw/3.jpg"",""time"":154},{""stimulus"":""img/red_lw/4.jpg"",""time"":205},{""stimulus"":""img/red_lw/5.jpg"",""time"":256},{""stimulus"":""img/red_lw/6.jpg"",""time"":308},{""stimulus"":""img/red_lw/7.jpg"",""time"":359},{""stimulus"":""img/red_lw/8.jpg"",""time"":410},{""stimulus"":""img/red_lw/9.jpg"",""time"":461},{""stimulus"":""img/red_lw/10.jpg"",""time"":512},{""stimulus"":""img/red_lw/11.jpg"",""time"":563}]","[]"
"image-keyboard-response","45","107857","0.0-5.0-1.20","6362aca86b740b1ec4cb6efb","bdp_lott","Mon Mar 27 2023 16:16:40 GMT-0400 (Eastern Daylight Time)","763811","red","green","","889","","","","choice","","","img/red_lw/choose11.jpg","2","205","red","0.5","0.5","0.5","w","",""
"animation","46","108472","0.0-5.0-2.20","6362aca86b740b1ec4cb6efb","bdp_lott","Mon Mar 27 2023 16:16:40 GMT-0400 (Eastern Daylight Time)","763811","red","green","","","","","","","","","","","205","","","","","","[{""stimulus"":""img/red_lw/1.jpg"",""time"":52},{""stimulus"":""img/red_lw/2.jpg"",""time"":103},{""stimulus"":""img/red_lw/3.jpg"",""time"":154},{""stimulus"":""img/red_lw/4.jpg"",""time"":205},{""stimulus"":""img/red_lw/5.jpg"",""time"":256},{""stimulus"":""img/red_lw/6.jpg"",""time"":307},{""stimulus"":""img/red_lw/7.jpg"",""time"":359},{""stimulus"":""img/red_lw/8.jpg"",""time"":410},{""stimulus"":""img/red_lw/9.jpg"",""time"":461},{""stimulus"":""img/red_lw/10.jpg"",""time"":512},{""stimulus"":""img/red_lw/11.jpg"",""time"":563}]","[]"
"image-keyboard-response","47","109297","0.0-5.0-1.21","6362aca86b740b1ec4cb6efb","bdp_lott","Mon Mar 27 2023 16:16:40 GMT-0400 (Eastern Daylight Time)","763811","red","green","","823","","","","choice","","","img/red_lw/choose11.jpg","2","204","red","0.5","0.5","0.5","w","",""
"animation","48","109912","0.0-5.0-2.21","6362aca86b740b1ec4cb6efb","bdp_lott","Mon Mar 27 2023 16:16:40 GMT-0400 (Eastern Daylight Time)","763811","red","green","","","","","","","","","","","204","","","","","","[{""stimulus"":""img/red_lw/1.jpg"",""time"":52},{""stimulus"":""img/red_lw/2.jpg"",""time"":103},{""stimulus"":""img/red_lw/3.jpg"",""time"":154},{""stimulus"":""img/red_lw/4.jpg"",""time"":205},{""stimulus"":""img/red_lw/5.jpg"",""time"":256},{""stimulus"":""img/red_lw/6.jpg"",""time"":307},{""stimulus"":""img/red_lw/7.jpg"",""time"":358},{""stimulus"":""img/red_lw/8.jpg"",""time"":409},{""stimulus"":""img/red_lw/9.jpg"",""time"":460},{""stimulus"":""img/red_lw/10.jpg"",""time"":512},{""stimulus"":""img/red_lw/11.jpg"",""time"":563}]","[]"
"image-keyboard-response","49","110444","0.0-5.0-1.22","6362aca86b740b1ec4cb6efb","bdp_lott","Mon Mar 27 2023 16:16:40 GMT-0400 (Eastern Daylight Time)","763811","red","green","","531","","","","choice","","","img/red_lw/choose11.jpg","2","203","red","0.5","0.5","0.5","w","",""
"animation","50","111059","0.0-5.0-2.22","6362aca86b740b1ec4cb6efb","bdp_lott","Mon Mar 27 2023 16:16:40 GMT-0400 (Eastern Daylight Time)","763811","red","green","","","","","","","","","","","203","","","","","","[{""stimulus"":""img/red_lw/1.jpg"",""time"":52},{""stimulus"":""img/red_lw/2.jpg"",""time"":102},{""stimulus"":""img/red_lw/3.jpg"",""time"":154},{""stimulus"":""img/red_lw/4.jpg"",""time"":205},{""stimulus"":""img/red_lw/5.jpg"",""time"":256},{""stimulus"":""img/red_lw/6.jpg"",""time"":306},{""stimulus"":""img/red_lw/7.jpg"",""time"":358},{""stimulus"":""img/red_lw/8.jpg"",""time"":409},{""stimulus"":""img/red_lw/9.jpg"",""time"":460},{""stimulus"":""img/red_lw/10.jpg"",""time"":511},{""stimulus"":""img/red_lw/11.jpg"",""time"":562}]","[]"
"image-keyboard-response","51","111749","0.0-5.0-1.23","6362aca86b740b1ec4cb6efb","bdp_lott","Mon Mar 27 2023 16:16:40 GMT-0400 (Eastern Daylight Time)","763811","red","green","","688","","","","choice","","","img/red_lw/choose11.jpg","1","202","green","0.5","0.5","0.5","w","",""
"animation","52","112364","0.0-5.0-2.23","6362aca86b740b1ec4cb6efb","bdp_lott","Mon Mar 27 2023 16:16:40 GMT-0400 (Eastern Daylight Time)","763811","red","green","","","","","","","","","","","202","","","","","","[{""stimulus"":""img/green_ww/1.jpg"",""time"":51},{""stimulus"":""img/green_ww/2.jpg"",""time"":102},{""stimulus"":""img/green_ww/3.jpg"",""time"":153},{""stimulus"":""img/green_ww/4.jpg"",""time"":204},{""stimulus"":""img/green_ww/5.jpg"",""time"":255},{""stimulus"":""img/green_ww/6.jpg"",""time"":306},{""stimulus"":""img/green_ww/7.jpg"",""time"":357},{""stimulus"":""img/green_ww/8.jpg"",""time"":409},{""stimulus"":""img/green_ww/9.jpg"",""time"":460},{""stimulus"":""img/green_ww/10.jpg"",""time"":511},{""stimulus"":""img/green_ww/11.jpg"",""time"":562}]","[]"
"image-keyboard-response","53","113167","0.0-5.0-1.24","6362aca86b740b1ec4cb6efb","bdp_lott","Mon Mar 27 2023 16:16:40 GMT-0400 (Eastern Daylight Time)","763811","red","green","","801","","","","choice","","","img/green_ww/choose11.jpg","2","201","red","0.5","0.5","0.5","w","",""
"animation","54","113782","0.0-5.0-2.24","6362aca86b740b1ec4cb6efb","bdp_lott","Mon Mar 27 2023 16:16:40 GMT-0400 (Eastern Daylight Time)","763811","red","green","","","","","","","","","","","201","","","","","","[{""stimulus"":""img/red_ww/1.jpg"",""time"":52},{""stimulus"":""img/red_ww/2.jpg"",""time"":103},{""stimulus"":""img/red_ww/3.jpg"",""time"":154},{""stimulus"":""img/red_ww/4.jpg"",""time"":205},{""stimulus"":""img/red_ww/5.jpg"",""time"":256},{""stimulus"":""img/red_ww/6.jpg"",""time"":307},{""stimulus"":""img/red_ww/7.jpg"",""time"":358},{""stimulus"":""img/red_ww/8.jpg"",""time"":409},{""stimulus"":""img/red_ww/9.jpg"",""time"":461},{""stimulus"":""img/red_ww/10.jpg"",""time"":512},{""stimulus"":""img/red_ww/11.jpg"",""time"":563}]","[]"
"image-keyboard-response","55","114786","0.0-5.0-1.25","6362aca86b740b1ec4cb6efb","bdp_lott","Mon Mar 27 2023 16:16:40 GMT-0400 (Eastern Daylight Time)","763811","red","green","","1003","","","","choice","","","img/red_ww/choose11.jpg","2","200","red","0.5","0.5","0.5","l","",""
"animation","56","115402","0.0-5.0-2.25","6362aca86b740b1ec4cb6efb","bdp_lott","Mon Mar 27 2023 16:16:40 GMT-0400 (Eastern Daylight Time)","763811","red","green","","","","","","","","","","","200","","","","","","[{""stimulus"":""img/red_wl/1.jpg"",""time"":52},{""stimulus"":""img/red_wl/2.jpg"",""time"":102},{""stimulus"":""img/red_wl/3.jpg"",""time"":154},{""stimulus"":""img/red_wl/4.jpg"",""time"":205},{""stimulus"":""img/red_wl/5.jpg"",""time"":256},{""stimulus"":""img/red_wl/6.jpg"",""time"":307},{""stimulus"":""img/red_wl/7.jpg"",""time"":358},{""stimulus"":""img/red_wl/8.jpg"",""time"":409},{""stimulus"":""img/red_wl/9.jpg"",""time"":461},{""stimulus"":""img/red_wl/10.jpg"",""time"":512},{""stimulus"":""img/red_wl/11.jpg"",""time"":563}]","[]"
"image-keyboard-response","57","115844","0.0-5.0-1.26","6362aca86b740b1ec4cb6efb","bdp_lott","Mon Mar 27 2023 16:16:40 GMT-0400 (Eastern Daylight Time)","763811","red","green","","441","","","","choice","","","img/red_wl/choose11.jpg","1","199","green","0.5","0.5","0.5","w","",""
"animation","58","116458","0.0-5.0-2.26","6362aca86b740b1ec4cb6efb","bdp_lott","Mon Mar 27 2023 16:16:40 GMT-0400 (Eastern Daylight Time)","763811","red","green","","","","","","","","","","","199","","","","","","[{""stimulus"":""img/green_wl/1.jpg"",""time"":52},{""stimulus"":""img/green_wl/2.jpg"",""time"":103},{""stimulus"":""img/green_wl/3.jpg"",""time"":154},{""stimulus"":""img/green_wl/4.jpg"",""time"":205},{""stimulus"":""img/green_wl/5.jpg"",""time"":256},{""stimulus"":""img/green_wl/6.jpg"",""time"":307},{""stimulus"":""img/green_wl/7.jpg"",""time"":358},{""stimulus"":""img/green_wl/8.jpg"",""time"":409},{""stimulus"":""img/green_wl/9.jpg"",""time"":460},{""stimulus"":""img/green_wl/10.jpg"",""time"":511},{""stimulus"":""img/green_wl/11.jpg"",""time"":562}]","[]"
"image-keyboard-response","59","117037","0.0-5.0-1.27","6362aca86b740b1ec4cb6efb","bdp_lott","Mon Mar 27 2023 16:16:40 GMT-0400 (Eastern Daylight Time)","763811","red","green","","578","","","","choice","","","img/green_wl/choose11.jpg","1","198","green","0.5","0.5","0.5","l","",""
"animation","60","117651","0.0-5.0-2.27","6362aca86b740b1ec4cb6efb","bdp_lott","Mon Mar 27 2023 16:16:40 GMT-0400 (Eastern Daylight Time)","763811","red","green","","","","","","","","","","","198","","","","","","[{""stimulus"":""img/green_ll/1.jpg"",""time"":52},{""stimulus"":""img/green_ll/2.jpg"",""time"":103},{""stimulus"":""img/green_ll/3.jpg"",""time"":154},{""stimulus"":""img/green_ll/4.jpg"",""time"":205},{""stimulus"":""img/green_ll/5.jpg"",""time"":257},{""stimulus"":""img/green_ll/6.jpg"",""time"":308},{""stimulus"":""img/green_ll/7.jpg"",""time"":359},{""stimulus"":""img/green_ll/8.jpg"",""time"":409},{""stimulus"":""img/green_ll/9.jpg"",""time"":461},{""stimulus"":""img/green_ll/10.jpg"",""time"":511},{""stimulus"":""img/green_ll/11.jpg"",""time"":562}]","[]"
"image-keyboard-response","61","118456","0.0-5.0-1.28","6362aca86b740b1ec4cb6efb","bdp_lott","Mon Mar 27 2023 16:16:40 GMT-0400 (Eastern Daylight Time)","763811","red","green","","803","","","","choice","","","img/green_ll/choose11.jpg","2","197","red","0.5","0.5","0.5","l","",""
"animation","62","119070","0.0-5.0-2.28","6362aca86b740b1ec4cb6efb","bdp_lott","Mon Mar 27 2023 16:16:40 GMT-0400 (Eastern Daylight Time)","763811","red","green","","","","","","","","","","","197","","","","","","[{""stimulus"":""img/red_ll/1.jpg"",""time"":51},{""stimulus"":""img/red_ll/2.jpg"",""time"":103},{""stimulus"":""img/red_ll/3.jpg"",""time"":154},{""stimulus"":""img/red_ll/4.jpg"",""time"":205},{""stimulus"":""img/red_ll/5.jpg"",""time"":256},{""stimulus"":""img/red_ll/6.jpg"",""time"":307},{""stimulus"":""img/red_ll/7.jpg"",""time"":359},{""stimulus"":""img/red_ll/8.jpg"",""time"":409},{""stimulus"":""img/red_ll/9.jpg"",""time"":460},{""stimulus"":""img/red_ll/10.jpg"",""time"":511},{""stimulus"":""img/red_ll/11.jpg"",""time"":562}]","[]"
"image-keyboard-response","63","119783","0.0-5.0-1.29","6362aca86b740b1ec4cb6efb","bdp_lott","Mon Mar 27 2023 16:16:40 GMT-0400 (Eastern Daylight Time)","763811","red","green","","712","","","","choice","","","img/red_ll/choose11.jpg","1","196","green","0.5","0.5","0.5","w","",""
"animation","64","120397","0.0-5.0-2.29","6362aca86b740b1ec4cb6efb","bdp_lott","Mon Mar 27 2023 16:16:40 GMT-0400 (Eastern Daylight Time)","763811","red","green","","","","","","","","","","","196","","","","","","[{""stimulus"":""img/green_wl/1.jpg"",""time"":52},{""stimulus"":""img/green_wl/2.jpg"",""time"":103},{""stimulus"":""img/green_wl/3.jpg"",""time"":154},{""stimulus"":""img/green_wl/4.jpg"",""time"":205},{""stimulus"":""img/green_wl/5.jpg"",""time"":256},{""stimulus"":""img/green_wl/6.jpg"",""time"":307},{""stimulus"":""img/green_wl/7.jpg"",""time"":358},{""stimulus"":""img/green_wl/8.jpg"",""time"":409},{""stimulus"":""img/green_wl/9.jpg"",""time"":460},{""stimulus"":""img/green_wl/10.jpg"",""time"":511},{""stimulus"":""img/green_wl/11.jpg"",""time"":562}]","[]"
"image-keyboard-response","65","121268","0.0-5.0-1.30","6362aca86b740b1ec4cb6efb","bdp_lott","Mon Mar 27 2023 16:16:40 GMT-0400 (Eastern Daylight Time)","763811","red","green","","870","","","","choice","","","img/green_wl/choose11.jpg","2","195","red","0.5","0.5","0.5","l","",""
"animation","66","121883","0.0-5.0-2.30","6362aca86b740b1ec4cb6efb","bdp_lott","Mon Mar 27 2023 16:16:40 GMT-0400 (Eastern Daylight Time)","763811","red","green","","","","","","","","","","","195","","","","","","[{""stimulus"":""img/red_wl/1.jpg"",""time"":52},{""stimulus"":""img/red_wl/2.jpg"",""time"":103},{""stimulus"":""img/red_wl/3.jpg"",""time"":154},{""stimulus"":""img/red_wl/4.jpg"",""time"":206},{""stimulus"":""img/red_wl/5.jpg"",""time"":257},{""stimulus"":""img/red_wl/6.jpg"",""time"":308},{""stimulus"":""img/red_wl/7.jpg"",""time"":359},{""stimulus"":""img/red_wl/8.jpg"",""time"":410},{""stimulus"":""img/red_wl/9.jpg"",""time"":461},{""stimulus"":""img/red_wl/10.jpg"",""time"":512},{""stimulus"":""img/red_wl/11.jpg"",""time"":563}]","[]"
"image-keyboard-response","67","122302","0.0-5.0-1.31","6362aca86b740b1ec4cb6efb","bdp_lott","Mon Mar 27 2023 16:16:40 GMT-0400 (Eastern Daylight Time)","763811","red","green","","417","","","","choice","","","img/red_wl/choose11.jpg","1","194","green","0.5","0.5","0.5","l","",""
"animation","68","122916","0.0-5.0-2.31","6362aca86b740b1ec4cb6efb","bdp_lott","Mon Mar 27 2023 16:16:40 GMT-0400 (Eastern Daylight Time)","763811","red","green","","","","","","","","","","","194","","","","","","[{""stimulus"":""img/green_ll/1.jpg"",""time"":51},{""stimulus"":""img/green_ll/2.jpg"",""time"":103},{""stimulus"":""img/green_ll/3.jpg"",""time"":154},{""stimulus"":""img/green_ll/4.jpg"",""time"":205},{""stimulus"":""img/green_ll/5.jpg"",""time"":256},{""stimulus"":""img/green_ll/6.jpg"",""time"":307},{""stimulus"":""img/green_ll/7.jpg"",""time"":358},{""stimulus"":""img/green_ll/8.jpg"",""time"":409},{""stimulus"":""img/green_ll/9.jpg"",""time"":460},{""stimulus"":""img/green_ll/10.jpg"",""time"":511},{""stimulus"":""img/green_ll/11.jpg"",""time"":562}]","[]"
"image-keyboard-response","69","123764","0.0-5.0-1.32","6362aca86b740b1ec4cb6efb","bdp_lott","Mon Mar 27 2023 16:16:40 GMT-0400 (Eastern Daylight Time)","763811","red","green","","846","","","","choice","","","img/green_ll/choose11.jpg","2","193","red","0.5","0.5","0.5","l","",""
"animation","70","124379","0.0-5.0-2.32","6362aca86b740b1ec4cb6efb","bdp_lott","Mon Mar 27 2023 16:16:40 GMT-0400 (Eastern Daylight Time)","763811","red","green","","","","","","","","","","","193","","","","","","[{""stimulus"":""img/red_ll/1.jpg"",""time"":52},{""stimulus"":""img/red_ll/2.jpg"",""time"":103},{""stimulus"":""img/red_ll/3.jpg"",""time"":154},{""stimulus"":""img/red_ll/4.jpg"",""time"":205},{""stimulus"":""img/red_ll/5.jpg"",""time"":256},{""stimulus"":""img/red_ll/6.jpg"",""time"":307},{""stimulus"":""img/red_ll/7.jpg"",""time"":358},{""stimulus"":""img/red_ll/8.jpg"",""time"":409},{""stimulus"":""img/red_ll/9.jpg"",""time"":461},{""stimulus"":""img/red_ll/10.jpg"",""time"":512},{""stimulus"":""img/red_ll/11.jpg"",""time"":563}]","[]"
"image-keyboard-response","71","124866","0.0-5.0-1.33","6362aca86b740b1ec4cb6efb","bdp_lott","Mon Mar 27 2023 16:16:40 GMT-0400 (Eastern Daylight Time)","763811","red","green","","485","","","","choice","","","img/red_ll/choose11.jpg","1","192","green","0.5","0.5","0.5","w","",""
"animation","72","125480","0.0-5.0-2.33","6362aca86b740b1ec4cb6efb","bdp_lott","Mon Mar 27 2023 16:16:40 GMT-0400 (Eastern Daylight Time)","763811","red","green","","","","","","","","","","","192","","","","","","[{""stimulus"":""img/green_wl/1.jpg"",""time"":52},{""stimulus"":""img/green_wl/2.jpg"",""time"":102},{""stimulus"":""img/green_wl/3.jpg"",""time"":153},{""stimulus"":""img/green_wl/4.jpg"",""time"":204},{""stimulus"":""img/green_wl/5.jpg"",""time"":256},{""stimulus"":""img/green_wl/6.jpg"",""time"":306},{""stimulus"":""img/green_wl/7.jpg"",""time"":358},{""stimulus"":""img/green_wl/8.jpg"",""time"":409},{""stimulus"":""img/green_wl/9.jpg"",""time"":460},{""stimulus"":""img/green_wl/10.jpg"",""time"":511},{""stimulus"":""img/green_wl/11.jpg"",""time"":562}]","[]"
"image-keyboard-response","73","125992","0.0-5.0-1.34","6362aca86b740b1ec4cb6efb","bdp_lott","Mon Mar 27 2023 16:16:40 GMT-0400 (Eastern Daylight Time)","763811","red","green","","510","","","","choice","","","img/green_wl/choose11.jpg","1","191","green","0.5","0.5","0.5","w","",""
"animation","74","126607","0.0-5.0-2.34","6362aca86b740b1ec4cb6efb","bdp_lott","Mon Mar 27 2023 16:16:40 GMT-0400 (Eastern Daylight Time)","763811","red","green","","","","","","","","","","","191","","","","","","[{""stimulus"":""img/green_wl/1.jpg"",""time"":52},{""stimulus"":""img/green_wl/2.jpg"",""time"":103},{""stimulus"":""img/green_wl/3.jpg"",""time"":154},{""stimulus"":""img/green_wl/4.jpg"",""time"":205},{""stimulus"":""img/green_wl/5.jpg"",""time"":256},{""stimulus"":""img/green_wl/6.jpg"",""time"":307},{""stimulus"":""img/green_wl/7.jpg"",""time"":359},{""stimulus"":""img/green_wl/8.jpg"",""time"":410},{""stimulus"":""img/green_wl/9.jpg"",""time"":461},{""stimulus"":""img/green_wl/10.jpg"",""time"":512},{""stimulus"":""img/green_wl/11.jpg"",""time"":563}]","[]"
"image-keyboard-response","75","127162","0.0-5.0-1.35","6362aca86b740b1ec4cb6efb","bdp_lott","Mon Mar 27 2023 16:16:40 GMT-0400 (Eastern Daylight Time)","763811","red","green","","552","","","","choice","","","img/green_wl/choose11.jpg","1","190","green","0.5","0.5","0.5","l","",""
"animation","76","127776","0.0-5.0-2.35","6362aca86b740b1ec4cb6efb","bdp_lott","Mon Mar 27 2023 16:16:40 GMT-0400 (Eastern Daylight Time)","763811","red","green","","","","","","","","","","","190","","","","","","[{""stimulus"":""img/green_ll/1.jpg"",""time"":51},{""stimulus"":""img/green_ll/2.jpg"",""time"":102},{""stimulus"":""img/green_ll/3.jpg"",""time"":153},{""stimulus"":""img/green_ll/4.jpg"",""time"":204},{""stimulus"":""img/green_ll/5.jpg"",""time"":255},{""stimulus"":""img/green_ll/6.jpg"",""time"":307},{""stimulus"":""img/green_ll/7.jpg"",""time"":358},{""stimulus"":""img/green_ll/8.jpg"",""time"":409},{""stimulus"":""img/green_ll/9.jpg"",""time"":460},{""stimulus"":""img/green_ll/10.jpg"",""time"":511},{""stimulus"":""img/green_ll/11.jpg"",""time"":562}]","[]"
"image-keyboard-response","77","128445","0.0-5.0-1.36","6362aca86b740b1ec4cb6efb","bdp_lott","Mon Mar 27 2023 16:16:40 GMT-0400 (Eastern Daylight Time)","763811","red","green","","666","","","","choice","","","img/green_ll/choose11.jpg","2","189","red","0.5","0.5","0.5","w","",""
"animation","78","129061","0.0-5.0-2.36","6362aca86b740b1ec4cb6efb","bdp_lott","Mon Mar 27 2023 16:16:40 GMT-0400 (Eastern Daylight Time)","763811","red","green","","","","","","","","","","","189","","","","","","[{""stimulus"":""img/red_lw/1.jpg"",""time"":52},{""stimulus"":""img/red_lw/2.jpg"",""time"":103},{""stimulus"":""img/red_lw/3.jpg"",""time"":154},{""stimulus"":""img/red_lw/4.jpg"",""time"":205},{""stimulus"":""img/red_lw/5.jpg"",""time"":256},{""stimulus"":""img/red_lw/6.jpg"",""time"":308},{""stimulus"":""img/red_lw/7.jpg"",""time"":359},{""stimulus"":""img/red_lw/8.jpg"",""time"":410},{""stimulus"":""img/red_lw/9.jpg"",""time"":461},{""stimulus"":""img/red_lw/10.jpg"",""time"":512},{""stimulus"":""img/red_lw/11.jpg"",""time"":563}]","[]"
"image-keyboard-response","79","129793","0.0-5.0-1.37","6362aca86b740b1ec4cb6efb","bdp_lott","Mon Mar 27 2023 16:16:40 GMT-0400 (Eastern Daylight Time)","763811","red","green","","730","","","","choice","","","img/red_lw/choose11.jpg","2","188","red","0.5","0.5","0.5","l","",""
"animation","80","130407","0.0-5.0-2.37","6362aca86b740b1ec4cb6efb","bdp_lott","Mon Mar 27 2023 16:16:40 GMT-0400 (Eastern Daylight Time)","763811","red","green","","","","","","","","","","","188","","","","","","[{""stimulus"":""img/red_ll/1.jpg"",""time"":52},{""stimulus"":""img/red_ll/2.jpg"",""time"":102},{""stimulus"":""img/red_ll/3.jpg"",""time"":153},{""stimulus"":""img/red_ll/4.jpg"",""time"":204},{""stimulus"":""img/red_ll/5.jpg"",""time"":255},{""stimulus"":""img/red_ll/6.jpg"",""time"":306},{""stimulus"":""img/red_ll/7.jpg"",""time"":358},{""stimulus"":""img/red_ll/8.jpg"",""time"":409},{""stimulus"":""img/red_ll/9.jpg"",""time"":460},{""stimulus"":""img/red_ll/10.jpg"",""time"":511},{""stimulus"":""img/red_ll/11.jpg"",""time"":562}]","[]"
"image-keyboard-response","81","130987","0.0-5.0-1.38","6362aca86b740b1ec4cb6efb","bdp_lott","Mon Mar 27 2023 16:16:40 GMT-0400 (Eastern Daylight Time)","763811","red","green","","577","","","","choice","","","img/red_ll/choose11.jpg","2","187","red","0.5","0.5","0.5","l","",""
"animation","82","131600","0.0-5.0-2.38","6362aca86b740b1ec4cb6efb","bdp_lott","Mon Mar 27 2023 16:16:40 GMT-0400 (Eastern Daylight Time)","763811","red","green","","","","","","","","","","","187","","","","","","[{""stimulus"":""img/red_ll/1.jpg"",""time"":52},{""stimulus"":""img/red_ll/2.jpg"",""time"":103},{""stimulus"":""img/red_ll/3.jpg"",""time"":154},{""stimulus"":""img/red_ll/4.jpg"",""time"":205},{""stimulus"":""img/red_ll/5.jpg"",""time"":256},{""stimulus"":""img/red_ll/6.jpg"",""time"":307},{""stimulus"":""img/red_ll/7.jpg"",""time"":358},{""stimulus"":""img/red_ll/8.jpg"",""time"":409},{""stimulus"":""img/red_ll/9.jpg"",""time"":460},{""stimulus"":""img/red_ll/10.jpg"",""time"":511},{""stimulus"":""img/red_ll/11.jpg"",""time"":562}]","[]"
"image-keyboard-response","83","131954","0.0-5.0-1.39","6362aca86b740b1ec4cb6efb","bdp_lott","Mon Mar 27 2023 16:16:40 GMT-0400 (Eastern Daylight Time)","763811","red","green","","353","","","","choice","","","img/red_ll/choose11.jpg","1","186","green","0.5","0.5","0.5","l","",""
"animation","84","132567","0.0-5.0-2.39","6362aca86b740b1ec4cb6efb","bdp_lott","Mon Mar 27 2023 16:16:40 GMT-0400 (Eastern Daylight Time)","763811","red","green","","","","","","","","","","","186","","","","","","[{""stimulus"":""img/green_ll/1.jpg"",""time"":51},{""stimulus"":""img/green_ll/2.jpg"",""time"":102},{""stimulus"":""img/green_ll/3.jpg"",""time"":153},{""stimulus"":""img/green_ll/4.jpg"",""time"":205},{""stimulus"":""img/green_ll/5.jpg"",""time"":256},{""stimulus"":""img/green_ll/6.jpg"",""time"":307},{""stimulus"":""img/green_ll/7.jpg"",""time"":357},{""stimulus"":""img/green_ll/8.jpg"",""time"":408},{""stimulus"":""img/green_ll/9.jpg"",""time"":459},{""stimulus"":""img/green_ll/10.jpg"",""time"":510},{""stimulus"":""img/green_ll/11.jpg"",""time"":562}]","[]"
"image-keyboard-response","85","133034","0.0-5.0-1.40","6362aca86b740b1ec4cb6efb","bdp_lott","Mon Mar 27 2023 16:16:40 GMT-0400 (Eastern Daylight Time)","763811","red","green","","465","","","","choice","","","img/green_ll/choose11.jpg","1","185","green","0.5","0.5","0.5","w","",""
"animation","86","133648","0.0-5.0-2.40","6362aca86b740b1ec4cb6efb","bdp_lott","Mon Mar 27 2023 16:16:40 GMT-0400 (Eastern Daylight Time)","763811","red","green","","","","","","","","","","","185","","","","","","[{""stimulus"":""img/green_wl/1.jpg"",""time"":52},{""stimulus"":""img/green_wl/2.jpg"",""time"":103},{""stimulus"":""img/green_wl/3.jpg"",""time"":154},{""stimulus"":""img/green_wl/4.jpg"",""time"":205},{""stimulus"":""img/green_wl/5.jpg"",""time"":256},{""stimulus"":""img/green_wl/6.jpg"",""time"":307},{""stimulus"":""img/green_wl/7.jpg"",""time"":358},{""stimulus"":""img/green_wl/8.jpg"",""time"":410},{""stimulus"":""img/green_wl/9.jpg"",""time"":460},{""stimulus"":""img/green_wl/10.jpg"",""time"":511},{""stimulus"":""img/green_wl/11.jpg"",""time"":562}]","[]"
"image-keyboard-response","87","134316","0.0-5.0-1.41","6362aca86b740b1ec4cb6efb","bdp_lott","Mon Mar 27 2023 16:16:40 GMT-0400 (Eastern Daylight Time)","763811","red","green","","667","","","","choice","","","img/green_wl/choose11.jpg","2","184","red","0.5","0.5","0.5","w","",""
"animation","88","134930","0.0-5.0-2.41","6362aca86b740b1ec4cb6efb","bdp_lott","Mon Mar 27 2023 16:16:40 GMT-0400 (Eastern Daylight Time)","763811","red","green","","","","","","","","","","","184","","","","","","[{""stimulus"":""img/red_ww/1.jpg"",""time"":52},{""stimulus"":""img/red_ww/2.jpg"",""time"":103},{""stimulus"":""img/red_ww/3.jpg"",""time"":154},{""stimulus"":""img/red_ww/4.jpg"",""time"":205},{""stimulus"":""img/red_ww/5.jpg"",""time"":257},{""stimulus"":""img/red_ww/6.jpg"",""time"":307},{""stimulus"":""img/red_ww/7.jpg"",""time"":358},{""stimulus"":""img/red_ww/8.jpg"",""time"":409},{""stimulus"":""img/red_ww/9.jpg"",""time"":460},{""stimulus"":""img/red_ww/10.jpg"",""time"":511},{""stimulus"":""img/red_ww/11.jpg"",""time"":562}]","[]"
"image-keyboard-response","89","135554","0.0-5.0-1.42","6362aca86b740b1ec4cb6efb","bdp_lott","Mon Mar 27 2023 16:16:40 GMT-0400 (Eastern Daylight Time)","763811","red","green","","623","","","","choice","","","img/red_ww/choose11.jpg","1","183","green","0.5","0.5","0.5","l","",""
"animation","90","136168","0.0-5.0-2.42","6362aca86b740b1ec4cb6efb","bdp_lott","Mon Mar 27 2023 16:16:40 GMT-0400 (Eastern Daylight Time)","763811","red","green","","","","","","","","","","","183","","","","","","[{""stimulus"":""img/green_lw/1.jpg"",""time"":52},{""stimulus"":""img/green_lw/2.jpg"",""time"":103},{""stimulus"":""img/green_lw/3.jpg"",""time"":154},{""stimulus"":""img/green_lw/4.jpg"",""time"":205},{""stimulus"":""img/green_lw/5.jpg"",""time"":256},{""stimulus"":""img/green_lw/6.jpg"",""time"":307},{""stimulus"":""img/green_lw/7.jpg"",""time"":358},{""stimulus"":""img/green_lw/8.jpg"",""time"":409},{""stimulus"":""img/green_lw/9.jpg"",""time"":460},{""stimulus"":""img/green_lw/10.jpg"",""time"":511},{""stimulus"":""img/green_lw/11.jpg"",""time"":562}]","[]"
"image-keyboard-response","91","136746","0.0-5.0-1.43","6362aca86b740b1ec4cb6efb","bdp_lott","Mon Mar 27 2023 16:16:40 GMT-0400 (Eastern Daylight Time)","763811","red","green","","577","","","","choice","","","img/green_lw/choose11.jpg","2","182","red","0.5","0.5","0.5","l","",""
"animation","92","137361","0.0-5.0-2.43","6362aca86b740b1ec4cb6efb","bdp_lott","Mon Mar 27 2023 16:16:40 GMT-0400 (Eastern Daylight Time)","763811","red","green","","","","","","","","","","","182","","","","","","[{""stimulus"":""img/red_ll/1.jpg"",""time"":51},{""stimulus"":""img/red_ll/2.jpg"",""time"":102},{""stimulus"":""img/red_ll/3.jpg"",""time"":154},{""stimulus"":""img/red_ll/4.jpg"",""time"":205},{""stimulus"":""img/red_ll/5.jpg"",""time"":256},{""stimulus"":""img/red_ll/6.jpg"",""time"":307},{""stimulus"":""img/red_ll/7.jpg"",""time"":358},{""stimulus"":""img/red_ll/8.jpg"",""time"":410},{""stimulus"":""img/red_ll/9.jpg"",""time"":461},{""stimulus"":""img/red_ll/10.jpg"",""time"":512},{""stimulus"":""img/red_ll/11.jpg"",""time"":562}]","[]"
"image-keyboard-response","93","138006","0.0-5.0-1.44","6362aca86b740b1ec4cb6efb","bdp_lott","Mon Mar 27 2023 16:16:40 GMT-0400 (Eastern Daylight Time)","763811","red","green","","644","","","","choice","","","img/red_ll/choose11.jpg","2","181","red","0.5","0.5","0.5","l","",""
"animation","94","138621","0.0-5.0-2.44","6362aca86b740b1ec4cb6efb","bdp_lott","Mon Mar 27 2023 16:16:40 GMT-0400 (Eastern Daylight Time)","763811","red","green","","","","","","","","","","","181","","","","","","[{""stimulus"":""img/red_ll/1.jpg"",""time"":52},{""stimulus"":""img/red_ll/2.jpg"",""time"":102},{""stimulus"":""img/red_ll/3.jpg"",""time"":153},{""stimulus"":""img/red_ll/4.jpg"",""time"":204},{""stimulus"":""img/red_ll/5.jpg"",""time"":256},{""stimulus"":""img/red_ll/6.jpg"",""time"":307},{""stimulus"":""img/red_ll/7.jpg"",""time"":358},{""stimulus"":""img/red_ll/8.jpg"",""time"":409},{""stimulus"":""img/red_ll/9.jpg"",""time"":460},{""stimulus"":""img/red_ll/10.jpg"",""time"":510},{""stimulus"":""img/red_ll/11.jpg"",""time"":562}]","[]"
"image-keyboard-response","95","139019","0.0-5.0-1.45","6362aca86b740b1ec4cb6efb","bdp_lott","Mon Mar 27 2023 16:16:40 GMT-0400 (Eastern Daylight Time)","763811","red","green","","396","","","","choice","","","img/red_ll/choose11.jpg","1","180","green","0.5","0.5","0.5","l","",""
"animation","96","139634","0.0-5.0-2.45","6362aca86b740b1ec4cb6efb","bdp_lott","Mon Mar 27 2023 16:16:40 GMT-0400 (Eastern Daylight Time)","763811","red","green","","","","","","","","","","","180","","","","","","[{""stimulus"":""img/green_ll/1.jpg"",""time"":52},{""stimulus"":""img/green_ll/2.jpg"",""time"":103},{""stimulus"":""img/green_ll/3.jpg"",""time"":154},{""stimulus"":""img/green_ll/4.jpg"",""time"":205},{""stimulus"":""img/green_ll/5.jpg"",""time"":256},{""stimulus"":""img/green_ll/6.jpg"",""time"":307},{""stimulus"":""img/green_ll/7.jpg"",""time"":358},{""stimulus"":""img/green_ll/8.jpg"",""time"":409},{""stimulus"":""img/green_ll/9.jpg"",""time"":461},{""stimulus"":""img/green_ll/10.jpg"",""time"":512},{""stimulus"":""img/green_ll/11.jpg"",""time"":563}]","[]"
"image-keyboard-response","97","140211","0.0-5.0-1.46","6362aca86b740b1ec4cb6efb","bdp_lott","Mon Mar 27 2023 16:16:40 GMT-0400 (Eastern Daylight Time)","763811","red","green","","576","","","","choice","","","img/green_ll/choose11.jpg","2","179","red","0.5","0.5","0.5","l","",""
"animation","98","140825","0.0-5.0-2.46","6362aca86b740b1ec4cb6efb","bdp_lott","Mon Mar 27 2023 16:16:40 GMT-0400 (Eastern Daylight Time)","763811","red","green","","","","","","","","","","","179","","","","","","[{""stimulus"":""img/red_ll/1.jpg"",""time"":52},{""stimulus"":""img/red_ll/2.jpg"",""time"":103},{""stimulus"":""img/red_ll/3.jpg"",""time"":154},{""stimulus"":""img/red_ll/4.jpg"",""time"":205},{""stimulus"":""img/red_ll/5.jpg"",""time"":256},{""stimulus"":""img/red_ll/6.jpg"",""time"":308},{""stimulus"":""img/red_ll/7.jpg"",""time"":359},{""stimulus"":""img/red_ll/8.jpg"",""time"":410},{""stimulus"":""img/red_ll/9.jpg"",""time"":461},{""stimulus"":""img/red_ll/10.jpg"",""time"":512},{""stimulus"":""img/red_ll/11.jpg"",""time"":563}]","[]"
"image-keyboard-response","99","141719","0.0-5.0-1.47","6362aca86b740b1ec4cb6efb","bdp_lott","Mon Mar 27 2023 16:16:40 GMT-0400 (Eastern Daylight Time)","763811","red","green","","891","","","","choice","","","img/red_ll/choose11.jpg","1","178","green","0.5","0.5","0.5","l","",""
"animation","100","142333","0.0-5.0-2.47","6362aca86b740b1ec4cb6efb","bdp_lott","Mon Mar 27 2023 16:16:40 GMT-0400 (Eastern Daylight Time)","763811","red","green","","","","","","","","","","","178","","","","","","[{""stimulus"":""img/green_ll/1.jpg"",""time"":52},{""stimulus"":""img/green_ll/2.jpg"",""time"":103},{""stimulus"":""img/green_ll/3.jpg"",""time"":154},{""stimulus"":""img/green_ll/4.jpg"",""time"":205},{""stimulus"":""img/green_ll/5.jpg"",""time"":255},{""stimulus"":""img/green_ll/6.jpg"",""time"":307},{""stimulus"":""img/green_ll/7.jpg"",""time"":358},{""stimulus"":""img/green_ll/8.jpg"",""time"":409},{""stimulus"":""img/green_ll/9.jpg"",""time"":460},{""stimulus"":""img/green_ll/10.jpg"",""time"":511},{""stimulus"":""img/green_ll/11.jpg"",""time"":562}]","[]"
"image-keyboard-response","101","142844","0.0-5.0-1.48","6362aca86b740b1ec4cb6efb","bdp_lott","Mon Mar 27 2023 16:16:40 GMT-0400 (Eastern Daylight Time)","763811","red","green","","508","","","","choice","","","img/green_ll/choose11.jpg","2","177","red","0.5","0.5","0.5","l","",""
"animation","102","143459","0.0-5.0-2.48","6362aca86b740b1ec4cb6efb","bdp_lott","Mon Mar 27 2023 16:16:40 GMT-0400 (Eastern Daylight Time)","763811","red","green","","","","","","","","","","","177","","","","","","[{""stimulus"":""img/red_ll/1.jpg"",""time"":52},{""stimulus"":""img/red_ll/2.jpg"",""time"":103},{""stimulus"":""img/red_ll/3.jpg"",""time"":154},{""stimulus"":""img/red_ll/4.jpg"",""time"":205},{""stimulus"":""img/red_ll/5.jpg"",""time"":256},{""stimulus"":""img/red_ll/6.jpg"",""time"":307},{""stimulus"":""img/red_ll/7.jpg"",""time"":359},{""stimulus"":""img/red_ll/8.jpg"",""time"":410},{""stimulus"":""img/red_ll/9.jpg"",""time"":461},{""stimulus"":""img/red_ll/10.jpg"",""time"":512},{""stimulus"":""img/red_ll/11.jpg"",""time"":563}]","[]"
"image-keyboard-response","103","143924","0.0-5.0-1.49","6362aca86b740b1ec4cb6efb","bdp_lott","Mon Mar 27 2023 16:16:40 GMT-0400 (Eastern Daylight Time)","763811","red","green","","463","","","","choice","","","img/red_ll/choose11.jpg","1","176","green","0.5","0.5","0.5","l","",""
"animation","104","144538","0.0-5.0-2.49","6362aca86b740b1ec4cb6efb","bdp_lott","Mon Mar 27 2023 16:16:40 GMT-0400 (Eastern Daylight Time)","763811","red","green","","","","","","","","","","","176","","","","","","[{""stimulus"":""img/green_ll/1.jpg"",""time"":52},{""stimulus"":""img/green_ll/2.jpg"",""time"":103},{""stimulus"":""img/green_ll/3.jpg"",""time"":153},{""stimulus"":""img/green_ll/4.jpg"",""time"":204},{""stimulus"":""img/green_ll/5.jpg"",""time"":256},{""stimulus"":""img/green_ll/6.jpg"",""time"":307},{""stimulus"":""img/green_ll/7.jpg"",""time"":358},{""stimulus"":""img/green_ll/8.jpg"",""time"":409},{""stimulus"":""img/green_ll/9.jpg"",""time"":460},{""stimulus"":""img/green_ll/10.jpg"",""time"":511},{""stimulus"":""img/green_ll/11.jpg"",""time"":562}]","[]"
"image-keyboard-response","105","151978","0.0-5.0-1.50","6362aca86b740b1ec4cb6efb","bdp_lott","Mon Mar 27 2023 16:16:40 GMT-0400 (Eastern Daylight Time)","763811","red","green","","7438","","","","choice","","","img/green_ll/choose11.jpg","1","175","green","0.5","0.5","0.5","l","",""
"animation","106","152592","0.0-5.0-2.50","6362aca86b740b1ec4cb6efb","bdp_lott","Mon Mar 27 2023 16:16:40 GMT-0400 (Eastern Daylight Time)","763811","red","green","","","","","","","","","","","175","","","","","","[{""stimulus"":""img/green_ll/1.jpg"",""time"":52},{""stimulus"":""img/green_ll/2.jpg"",""time"":103},{""stimulus"":""img/green_ll/3.jpg"",""time"":155},{""stimulus"":""img/green_ll/4.jpg"",""time"":206},{""stimulus"":""img/green_ll/5.jpg"",""time"":257},{""stimulus"":""img/green_ll/6.jpg"",""time"":308},{""stimulus"":""img/green_ll/7.jpg"",""time"":359},{""stimulus"":""img/green_ll/8.jpg"",""time"":410},{""stimulus"":""img/green_ll/9.jpg"",""time"":460},{""stimulus"":""img/green_ll/10.jpg"",""time"":511},{""stimulus"":""img/green_ll/11.jpg"",""time"":562}]","[]"
"image-keyboard-response","107","153327","0.0-5.0-1.51","6362aca86b740b1ec4cb6efb","bdp_lott","Mon Mar 27 2023 16:16:40 GMT-0400 (Eastern Daylight Time)","763811","red","green","","734","","","","choice","","","img/green_ll/choose11.jpg","2","174","red","0.5","0.5","0.5","w","",""
"animation","108","153941","0.0-5.0-2.51","6362aca86b740b1ec4cb6efb","bdp_lott","Mon Mar 27 2023 16:16:40 GMT-0400 (Eastern Daylight Time)","763811","red","green","","","","","","","","","","","174","","","","","","[{""stimulus"":""img/red_lw/1.jpg"",""time"":52},{""stimulus"":""img/red_lw/2.jpg"",""time"":103},{""stimulus"":""img/red_lw/3.jpg"",""time"":154},{""stimulus"":""img/red_lw/4.jpg"",""time"":205},{""stimulus"":""img/red_lw/5.jpg"",""time"":256},{""stimulus"":""img/red_lw/6.jpg"",""time"":307},{""stimulus"":""img/red_lw/7.jpg"",""time"":358},{""stimulus"":""img/red_lw/8.jpg"",""time"":409},{""stimulus"":""img/red_lw/9.jpg"",""time"":460},{""stimulus"":""img/red_lw/10.jpg"",""time"":511},{""stimulus"":""img/red_lw/11.jpg"",""time"":562}]","[]"
"image-keyboard-response","109","155015","0.0-5.0-1.52","6362aca86b740b1ec4cb6efb","bdp_lott","Mon Mar 27 2023 16:16:40 GMT-0400 (Eastern Daylight Time)","763811","red","green","","1071","","","","choice","","","img/red_lw/choose11.jpg","2","173","red","0.5","0.5","0.5","l","",""
"animation","110","155629","0.0-5.0-2.52","6362aca86b740b1ec4cb6efb","bdp_lott","Mon Mar 27 2023 16:16:40 GMT-0400 (Eastern Daylight Time)","763811","red","green","","","","","","","","","","","173","","","","","","[{""stimulus"":""img/red_ll/1.jpg"",""time"":52},{""stimulus"":""img/red_ll/2.jpg"",""time"":103},{""stimulus"":""img/red_ll/3.jpg"",""time"":154},{""stimulus"":""img/red_ll/4.jpg"",""time"":205},{""stimulus"":""img/red_ll/5.jpg"",""time"":256},{""stimulus"":""img/red_ll/6.jpg"",""time"":307},{""stimulus"":""img/red_ll/7.jpg"",""time"":358},{""stimulus"":""img/red_ll/8.jpg"",""time"":409},{""stimulus"":""img/red_ll/9.jpg"",""time"":460},{""stimulus"":""img/red_ll/10.jpg"",""time"":511},{""stimulus"":""img/red_ll/11.jpg"",""time"":562}]","[]"
"image-keyboard-response","111","156163","0.0-5.0-1.53","6362aca86b740b1ec4cb6efb","bdp_lott","Mon Mar 27 2023 16:16:40 GMT-0400 (Eastern Daylight Time)","763811","red","green","","533","","","","choice","","","img/red_ll/choose11.jpg","1","172","green","0.5","0.5","0.5","l","",""
"animation","112","156778","0.0-5.0-2.53","6362aca86b740b1ec4cb6efb","bdp_lott","Mon Mar 27 2023 16:16:40 GMT-0400 (Eastern Daylight Time)","763811","red","green","","","","","","","","","","","172","","","","","","[{""stimulus"":""img/green_ll/1.jpg"",""time"":52},{""stimulus"":""img/green_ll/2.jpg"",""time"":102},{""stimulus"":""img/green_ll/3.jpg"",""time"":154},{""stimulus"":""img/green_ll/4.jpg"",""time"":205},{""stimulus"":""img/green_ll/5.jpg"",""time"":256},{""stimulus"":""img/green_ll/6.jpg"",""time"":307},{""stimulus"":""img/green_ll/7.jpg"",""time"":358},{""stimulus"":""img/green_ll/8.jpg"",""time"":409},{""stimulus"":""img/green_ll/9.jpg"",""time"":460},{""stimulus"":""img/green_ll/10.jpg"",""time"":511},{""stimulus"":""img/green_ll/11.jpg"",""time"":562}]","[]"
"image-keyboard-response","113","157378","0.0-5.0-1.54","6362aca86b740b1ec4cb6efb","bdp_lott","Mon Mar 27 2023 16:16:40 GMT-0400 (Eastern Daylight Time)","763811","red","green","","598","","","","choice","","","img/green_ll/choose11.jpg","1","171","green","0.5","0.5","0.5","w","",""
"animation","114","157993","0.0-5.0-2.54","6362aca86b740b1ec4cb6efb","bdp_lott","Mon Mar 27 2023 16:16:40 GMT-0400 (Eastern Daylight Time)","763811","red","green","","","","","","","","","","","171","","","","","","[{""stimulus"":""img/green_wl/1.jpg"",""time"":51},{""stimulus"":""img/green_wl/2.jpg"",""time"":102},{""stimulus"":""img/green_wl/3.jpg"",""time"":154},{""stimulus"":""img/green_wl/4.jpg"",""time"":205},{""stimulus"":""img/green_wl/5.jpg"",""time"":256},{""stimulus"":""img/green_wl/6.jpg"",""time"":307},{""stimulus"":""img/green_wl/7.jpg"",""time"":358},{""stimulus"":""img/green_wl/8.jpg"",""time"":409},{""stimulus"":""img/green_wl/9.jpg"",""time"":460},{""stimulus"":""img/green_wl/10.jpg"",""time"":511},{""stimulus"":""img/green_wl/11.jpg"",""time"":562}]","[]"
"image-keyboard-response","115","158773","0.0-5.0-1.55","6362aca86b740b1ec4cb6efb","bdp_lott","Mon Mar 27 2023 16:16:40 GMT-0400 (Eastern Daylight Time)","763811","red","green","","778","","","","choice","","","img/green_wl/choose11.jpg","2","170","red","0.5","0.5","0.5","w","",""
"animation","116","159388","0.0-5.0-2.55","6362aca86b740b1ec4cb6efb","bdp_lott","Mon Mar 27 2023 16:16:40 GMT-0400 (Eastern Daylight Time)","763811","red","green","","","","","","","","","","","170","","","","","","[{""stimulus"":""img/red_ww/1.jpg"",""time"":52},{""stimulus"":""img/red_ww/2.jpg"",""time"":103},{""stimulus"":""img/red_ww/3.jpg"",""time"":154},{""stimulus"":""img/red_ww/4.jpg"",""time"":206},{""stimulus"":""img/red_ww/5.jpg"",""time"":257},{""stimulus"":""img/red_ww/6.jpg"",""time"":308},{""stimulus"":""img/red_ww/7.jpg"",""time"":359},{""stimulus"":""img/red_ww/8.jpg"",""time"":410},{""stimulus"":""img/red_ww/9.jpg"",""time"":461},{""stimulus"":""img/red_ww/10.jpg"",""time"":512},{""stimulus"":""img/red_ww/11.jpg"",""time"":563}]","[]"
"image-keyboard-response","117","160055","0.0-5.0-1.56","6362aca86b740b1ec4cb6efb","bdp_lott","Mon Mar 27 2023 16:16:40 GMT-0400 (Eastern Daylight Time)","763811","red","green","","665","","","","choice","","","img/red_ww/choose11.jpg","2","169","red","0.5","0.5","0.5","w","",""
"animation","118","160670","0.0-5.0-2.56","6362aca86b740b1ec4cb6efb","bdp_lott","Mon Mar 27 2023 16:16:40 GMT-0400 (Eastern Daylight Time)","763811","red","green","","","","","","","","","","","169","","","","","","[{""stimulus"":""img/red_ww/1.jpg"",""time"":53},{""stimulus"":""img/red_ww/2.jpg"",""time"":104},{""stimulus"":""img/red_ww/3.jpg"",""time"":154},{""stimulus"":""img/red_ww/4.jpg"",""time"":205},{""stimulus"":""img/red_ww/5.jpg"",""time"":256},{""stimulus"":""img/red_ww/6.jpg"",""time"":307},{""stimulus"":""img/red_ww/7.jpg"",""time"":359},{""stimulus"":""img/red_ww/8.jpg"",""time"":410},{""stimulus"":""img/red_ww/9.jpg"",""time"":461},{""stimulus"":""img/red_ww/10.jpg"",""time"":512},{""stimulus"":""img/red_ww/11.jpg"",""time"":563}]","[]"
"image-keyboard-response","119","161248","0.0-5.0-1.57","6362aca86b740b1ec4cb6efb","bdp_lott","Mon Mar 27 2023 16:16:40 GMT-0400 (Eastern Daylight Time)","763811","red","green","","577","","","","choice","","","img/red_ww/choose11.jpg","1","168","green","0.5","0.5","0.5","l","",""
"animation","120","161862","0.0-5.0-2.57","6362aca86b740b1ec4cb6efb","bdp_lott","Mon Mar 27 2023 16:16:40 GMT-0400 (Eastern Daylight Time)","763811","red","green","","","","","","","","","","","168","","","","","","[{""stimulus"":""img/green_lw/1.jpg"",""time"":52},{""stimulus"":""img/green_lw/2.jpg"",""time"":103},{""stimulus"":""img/green_lw/3.jpg"",""time"":153},{""stimulus"":""img/green_lw/4.jpg"",""time"":204},{""stimulus"":""img/green_lw/5.jpg"",""time"":256},{""stimulus"":""img/green_lw/6.jpg"",""time"":307},{""stimulus"":""img/green_lw/7.jpg"",""time"":358},{""stimulus"":""img/green_lw/8.jpg"",""time"":409},{""stimulus"":""img/green_lw/9.jpg"",""time"":459},{""stimulus"":""img/green_lw/10.jpg"",""time"":511},{""stimulus"":""img/green_lw/11.jpg"",""time"":562}]","[]"
"image-keyboard-response","121","162553","0.0-5.0-1.58","6362aca86b740b1ec4cb6efb","bdp_lott","Mon Mar 27 2023 16:16:40 GMT-0400 (Eastern Daylight Time)","763811","red","green","","690","","","","choice","","","img/green_lw/choose11.jpg","2","167","red","0.5","0.5","0.5","w","",""
"animation","122","163167","0.0-5.0-2.58","6362aca86b740b1ec4cb6efb","bdp_lott","Mon Mar 27 2023 16:16:40 GMT-0400 (Eastern Daylight Time)","763811","red","green","","","","","","","","","","","167","","","","","","[{""stimulus"":""img/red_lw/1.jpg"",""time"":52},{""stimulus"":""img/red_lw/2.jpg"",""time"":102},{""stimulus"":""img/red_lw/3.jpg"",""time"":153},{""stimulus"":""img/red_lw/4.jpg"",""time"":204},{""stimulus"":""img/red_lw/5.jpg"",""time"":256},{""stimulus"":""img/red_lw/6.jpg"",""time"":307},{""stimulus"":""img/red_lw/7.jpg"",""time"":358},{""stimulus"":""img/red_lw/8.jpg"",""time"":409},{""stimulus"":""img/red_lw/9.jpg"",""time"":460},{""stimulus"":""img/red_lw/10.jpg"",""time"":512},{""stimulus"":""img/red_lw/11.jpg"",""time"":563}]","[]"
"image-keyboard-response","123","163992","0.0-5.0-1.59","6362aca86b740b1ec4cb6efb","bdp_lott","Mon Mar 27 2023 16:16:40 GMT-0400 (Eastern Daylight Time)","763811","red","green","","823","","","","choice","","","img/red_lw/choose11.jpg","2","166","red","0.5","0.5","0.5","l","",""
"animation","124","164607","0.0-5.0-2.59","6362aca86b740b1ec4cb6efb","bdp_lott","Mon Mar 27 2023 16:16:40 GMT-0400 (Eastern Daylight Time)","763811","red","green","","","","","","","","","","","166","","","","","","[{""stimulus"":""img/red_ll/1.jpg"",""time"":52},{""stimulus"":""img/red_ll/2.jpg"",""time"":103},{""stimulus"":""img/red_ll/3.jpg"",""time"":154},{""stimulus"":""img/red_ll/4.jpg"",""time"":205},{""stimulus"":""img/red_ll/5.jpg"",""time"":256},{""stimulus"":""img/red_ll/6.jpg"",""time"":308},{""stimulus"":""img/red_ll/7.jpg"",""time"":358},{""stimulus"":""img/red_ll/8.jpg"",""time"":410},{""stimulus"":""img/red_ll/9.jpg"",""time"":461},{""stimulus"":""img/red_ll/10.jpg"",""time"":512},{""stimulus"":""img/red_ll/11.jpg"",""time"":563}]","[]"
"image-keyboard-response","125","165725","0.0-5.0-1.60","6362aca86b740b1ec4cb6efb","bdp_lott","Mon Mar 27 2023 16:16:40 GMT-0400 (Eastern Daylight Time)","763811","red","green","","1117","","","","choice","","","img/red_ll/choose11.jpg","1","165","green","0.5","0.5","0.5","l","",""
"animation","126","166339","0.0-5.0-2.60","6362aca86b740b1ec4cb6efb","bdp_lott","Mon Mar 27 2023 16:16:40 GMT-0400 (Eastern Daylight Time)","763811","red","green","","","","","","","","","","","165","","","","","","[{""stimulus"":""img/green_ll/1.jpg"",""time"":52},{""stimulus"":""img/green_ll/2.jpg"",""time"":103},{""stimulus"":""img/green_ll/3.jpg"",""time"":154},{""stimulus"":""img/green_ll/4.jpg"",""time"":205},{""stimulus"":""img/green_ll/5.jpg"",""time"":257},{""stimulus"":""img/green_ll/6.jpg"",""time"":308},{""stimulus"":""img/green_ll/7.jpg"",""time"":358},{""stimulus"":""img/green_ll/8.jpg"",""time"":409},{""stimulus"":""img/green_ll/9.jpg"",""time"":459},{""stimulus"":""img/green_ll/10.jpg"",""time"":511},{""stimulus"":""img/green_ll/11.jpg"",""time"":562}]","[]"
"image-keyboard-response","127","167458","0.0-5.0-1.61","6362aca86b740b1ec4cb6efb","bdp_lott","Mon Mar 27 2023 16:16:40 GMT-0400 (Eastern Daylight Time)","763811","red","green","","1117","","","","choice","","","img/green_ll/choose11.jpg","2","164","red","0.5","0.5","0.5","w","",""
"animation","128","168071","0.0-5.0-2.61","6362aca86b740b1ec4cb6efb","bdp_lott","Mon Mar 27 2023 16:16:40 GMT-0400 (Eastern Daylight Time)","763811","red","green","","","","","","","","","","","164","","","","","","[{""stimulus"":""img/red_lw/1.jpg"",""time"":52},{""stimulus"":""img/red_lw/2.jpg"",""time"":103},{""stimulus"":""img/red_lw/3.jpg"",""time"":154},{""stimulus"":""img/red_lw/4.jpg"",""time"":205},{""stimulus"":""img/red_lw/5.jpg"",""time"":256},{""stimulus"":""img/red_lw/6.jpg"",""time"":307},{""stimulus"":""img/red_lw/7.jpg"",""time"":358},{""stimulus"":""img/red_lw/8.jpg"",""time"":409},{""stimulus"":""img/red_lw/9.jpg"",""time"":459},{""stimulus"":""img/red_lw/10.jpg"",""time"":510},{""stimulus"":""img/red_lw/11.jpg"",""time"":561}]","[]"
"image-keyboard-response","129","168943","0.0-5.0-1.62","6362aca86b740b1ec4cb6efb","bdp_lott","Mon Mar 27 2023 16:16:40 GMT-0400 (Eastern Daylight Time)","763811","red","green","","871","","","","choice","","","img/red_lw/choose11.jpg","1","163","green","0.5","0.5","0.5","w","",""
"animation","130","169557","0.0-5.0-2.62","6362aca86b740b1ec4cb6efb","bdp_lott","Mon Mar 27 2023 16:16:40 GMT-0400 (Eastern Daylight Time)","763811","red","green","","","","","","","","","","","163","","","","","","[{""stimulus"":""img/green_ww/1.jpg"",""time"":52},{""stimulus"":""img/green_ww/2.jpg"",""time"":103},{""stimulus"":""img/green_ww/3.jpg"",""time"":154},{""stimulus"":""img/green_ww/4.jpg"",""time"":205},{""stimulus"":""img/green_ww/5.jpg"",""time"":256},{""stimulus"":""img/green_ww/6.jpg"",""time"":307},{""stimulus"":""img/green_ww/7.jpg"",""time"":358},{""stimulus"":""img/green_ww/8.jpg"",""time"":409},{""stimulus"":""img/green_ww/9.jpg"",""time"":460},{""stimulus"":""img/green_ww/10.jpg"",""time"":511},{""stimulus"":""img/green_ww/11.jpg"",""time"":563}]","[]"
"image-keyboard-response","131","170224","0.0-5.0-1.63","6362aca86b740b1ec4cb6efb","bdp_lott","Mon Mar 27 2023 16:16:40 GMT-0400 (Eastern Daylight Time)","763811","red","green","","665","","","","choice","","","img/green_ww/choose11.jpg","2","162","red","0.5","0.5","0.5","l","",""
"animation","132","170838","0.0-5.0-2.63","6362aca86b740b1ec4cb6efb","bdp_lott","Mon Mar 27 2023 16:16:40 GMT-0400 (Eastern Daylight Time)","763811","red","green","","","","","","","","","","","162","","","","","","[{""stimulus"":""img/red_wl/1.jpg"",""time"":52},{""stimulus"":""img/red_wl/2.jpg"",""time"":103},{""stimulus"":""img/red_wl/3.jpg"",""time"":154},{""stimulus"":""img/red_wl/4.jpg"",""time"":205},{""stimulus"":""img/red_wl/5.jpg"",""time"":256},{""stimulus"":""img/red_wl/6.jpg"",""time"":307},{""stimulus"":""img/red_wl/7.jpg"",""time"":358},{""stimulus"":""img/red_wl/8.jpg"",""time"":409},{""stimulus"":""img/red_wl/9.jpg"",""time"":460},{""stimulus"":""img/red_wl/10.jpg"",""time"":511},{""stimulus"":""img/red_wl/11.jpg"",""time"":562}]","[]"
"image-keyboard-response","133","171508","0.0-5.0-1.64","6362aca86b740b1ec4cb6efb","bdp_lott","Mon Mar 27 2023 16:16:40 GMT-0400 (Eastern Daylight Time)","763811","red","green","","669","","","","choice","","","img/red_wl/choose11.jpg","1","161","green","0.5","0.5","0.5","w","",""
"animation","134","172122","0.0-5.0-2.64","6362aca86b740b1ec4cb6efb","bdp_lott","Mon Mar 27 2023 16:16:40 GMT-0400 (Eastern Daylight Time)","763811","red","green","","","","","","","","","","","161","","","","","","[{""stimulus"":""img/green_wl/1.jpg"",""time"":52},{""stimulus"":""img/green_wl/2.jpg"",""time"":102},{""stimulus"":""img/green_wl/3.jpg"",""time"":154},{""stimulus"":""img/green_wl/4.jpg"",""time"":205},{""stimulus"":""img/green_wl/5.jpg"",""time"":256},{""stimulus"":""img/green_wl/6.jpg"",""time"":306},{""stimulus"":""img/green_wl/7.jpg"",""time"":358},{""stimulus"":""img/green_wl/8.jpg"",""time"":409},{""stimulus"":""img/green_wl/9.jpg"",""time"":460},{""stimulus"":""img/green_wl/10.jpg"",""time"":511},{""stimulus"":""img/green_wl/11.jpg"",""time"":562}]","[]"
"image-keyboard-response","135","172565","0.0-5.0-1.65","6362aca86b740b1ec4cb6efb","bdp_lott","Mon Mar 27 2023 16:16:40 GMT-0400 (Eastern Daylight Time)","763811","red","green","","442","","","","choice","","","img/green_wl/choose11.jpg","1","160","green","0.5","0.5","0.5","l","",""
"animation","136","173179","0.0-5.0-2.65","6362aca86b740b1ec4cb6efb","bdp_lott","Mon Mar 27 2023 16:16:40 GMT-0400 (Eastern Daylight Time)","763811","red","green","","","","","","","","","","","160","","","","","","[{""stimulus"":""img/green_ll/1.jpg"",""time"":52},{""stimulus"":""img/green_ll/2.jpg"",""time"":103},{""stimulus"":""img/green_ll/3.jpg"",""time"":154},{""stimulus"":""img/green_ll/4.jpg"",""time"":205},{""stimulus"":""img/green_ll/5.jpg"",""time"":256},{""stimulus"":""img/green_ll/6.jpg"",""time"":307},{""stimulus"":""img/green_ll/7.jpg"",""time"":358},{""stimulus"":""img/green_ll/8.jpg"",""time"":409},{""stimulus"":""img/green_ll/9.jpg"",""time"":460},{""stimulus"":""img/green_ll/10.jpg"",""time"":511},{""stimulus"":""img/green_ll/11.jpg"",""time"":562}]","[]"
"image-keyboard-response","137","173983","0.0-5.0-1.66","6362aca86b740b1ec4cb6efb","bdp_lott","Mon Mar 27 2023 16:16:40 GMT-0400 (Eastern Daylight Time)","763811","red","green","","802","","","","choice","","","img/green_ll/choose11.jpg","2","159","red","0.5","0.5","0.5","l","",""
"animation","138","174598","0.0-5.0-2.66","6362aca86b740b1ec4cb6efb","bdp_lott","Mon Mar 27 2023 16:16:40 GMT-0400 (Eastern Daylight Time)","763811","red","green","","","","","","","","","","","159","","","","","","[{""stimulus"":""img/red_ll/1.jpg"",""time"":52},{""stimulus"":""img/red_ll/2.jpg"",""time"":103},{""stimulus"":""img/red_ll/3.jpg"",""time"":154},{""stimulus"":""img/red_ll/4.jpg"",""time"":206},{""stimulus"":""img/red_ll/5.jpg"",""time"":257},{""stimulus"":""img/red_ll/6.jpg"",""time"":308},{""stimulus"":""img/red_ll/7.jpg"",""time"":359},{""stimulus"":""img/red_ll/8.jpg"",""time"":410},{""stimulus"":""img/red_ll/9.jpg"",""time"":461},{""stimulus"":""img/red_ll/10.jpg"",""time"":513},{""stimulus"":""img/red_ll/11.jpg"",""time"":564}]","[]"
"image-keyboard-response","139","175040","0.0-5.0-1.67","6362aca86b740b1ec4cb6efb","bdp_lott","Mon Mar 27 2023 16:16:40 GMT-0400 (Eastern Daylight Time)","763811","red","green","","441","","","","choice","","","img/red_ll/choose11.jpg","2","158","red","0.5","0.5","0.5","l","",""
"animation","140","175655","0.0-5.0-2.67","6362aca86b740b1ec4cb6efb","bdp_lott","Mon Mar 27 2023 16:16:40 GMT-0400 (Eastern Daylight Time)","763811","red","green","","","","","","","","","","","158","","","","","","[{""stimulus"":""img/red_ll/1.jpg"",""time"":52},{""stimulus"":""img/red_ll/2.jpg"",""time"":103},{""stimulus"":""img/red_ll/3.jpg"",""time"":155},{""stimulus"":""img/red_ll/4.jpg"",""time"":206},{""stimulus"":""img/red_ll/5.jpg"",""time"":257},{""stimulus"":""img/red_ll/6.jpg"",""time"":308},{""stimulus"":""img/red_ll/7.jpg"",""time"":359},{""stimulus"":""img/red_ll/8.jpg"",""time"":410},{""stimulus"":""img/red_ll/9.jpg"",""time"":461},{""stimulus"":""img/red_ll/10.jpg"",""time"":513},{""stimulus"":""img/red_ll/11.jpg"",""time"":564}]","[]"
"image-keyboard-response","141","176007","0.0-5.0-1.68","6362aca86b740b1ec4cb6efb","bdp_lott","Mon Mar 27 2023 16:16:40 GMT-0400 (Eastern Daylight Time)","763811","red","green","","350","","","","choice","","","img/red_ll/choose11.jpg","1","157","green","0.5","0.5","0.5","w","",""
"animation","142","176620","0.0-5.0-2.68","6362aca86b740b1ec4cb6efb","bdp_lott","Mon Mar 27 2023 16:16:40 GMT-0400 (Eastern Daylight Time)","763811","red","green","","","","","","","","","","","157","","","","","","[{""stimulus"":""img/green_wl/1.jpg"",""time"":52},{""stimulus"":""img/green_wl/2.jpg"",""time"":103},{""stimulus"":""img/green_wl/3.jpg"",""time"":155},{""stimulus"":""img/green_wl/4.jpg"",""time"":206},{""stimulus"":""img/green_wl/5.jpg"",""time"":256},{""stimulus"":""img/green_wl/6.jpg"",""time"":307},{""stimulus"":""img/green_wl/7.jpg"",""time"":358},{""stimulus"":""img/green_wl/8.jpg"",""time"":410},{""stimulus"":""img/green_wl/9.jpg"",""time"":461},{""stimulus"":""img/green_wl/10.jpg"",""time"":512},{""stimulus"":""img/green_wl/11.jpg"",""time"":562}]","[]"
"image-keyboard-response","143","177066","0.0-5.0-1.69","6362aca86b740b1ec4cb6efb","bdp_lott","Mon Mar 27 2023 16:16:40 GMT-0400 (Eastern Daylight Time)","763811","red","green","","443","","","","choice","","","img/green_wl/choose11.jpg","1","156","green","0.5","0.5","0.5","w","",""
"animation","144","177681","0.0-5.0-2.69","6362aca86b740b1ec4cb6efb","bdp_lott","Mon Mar 27 2023 16:16:40 GMT-0400 (Eastern Daylight Time)","763811","red","green","","","","","","","","","","","156","","","","","","[{""stimulus"":""img/green_wl/1.jpg"",""time"":52},{""stimulus"":""img/green_wl/2.jpg"",""time"":103},{""stimulus"":""img/green_wl/3.jpg"",""time"":154},{""stimulus"":""img/green_wl/4.jpg"",""time"":205},{""stimulus"":""img/green_wl/5.jpg"",""time"":256},{""stimulus"":""img/green_wl/6.jpg"",""time"":307},{""stimulus"":""img/green_wl/7.jpg"",""time"":359},{""stimulus"":""img/green_wl/8.jpg"",""time"":410},{""stimulus"":""img/green_wl/9.jpg"",""time"":461},{""stimulus"":""img/green_wl/10.jpg"",""time"":512},{""stimulus"":""img/green_wl/11.jpg"",""time"":563}]","[]"
"image-keyboard-response","145","178190","0.0-5.0-1.70","6362aca86b740b1ec4cb6efb","bdp_lott","Mon Mar 27 2023 16:16:40 GMT-0400 (Eastern Daylight Time)","763811","red","green","","507","","","","choice","","","img/green_wl/choose11.jpg","1","155","green","0.5","0.5","0.5","w","",""
"animation","146","178806","0.0-5.0-2.70","6362aca86b740b1ec4cb6efb","bdp_lott","Mon Mar 27 2023 16:16:40 GMT-0400 (Eastern Daylight Time)","763811","red","green","","","","","","","","","","","155","","","","","","[{""stimulus"":""img/green_wl/1.jpg"",""time"":52},{""stimulus"":""img/green_wl/2.jpg"",""time"":103},{""stimulus"":""img/green_wl/3.jpg"",""time"":155},{""stimulus"":""img/green_wl/4.jpg"",""time"":206},{""stimulus"":""img/green_wl/5.jpg"",""time"":257},{""stimulus"":""img/green_wl/6.jpg"",""time"":308},{""stimulus"":""img/green_wl/7.jpg"",""time"":359},{""stimulus"":""img/green_wl/8.jpg"",""time"":410},{""stimulus"":""img/green_wl/9.jpg"",""time"":462},{""stimulus"":""img/green_wl/10.jpg"",""time"":513},{""stimulus"":""img/green_wl/11.jpg"",""time"":564}]","[]"
"image-keyboard-response","147","179653","0.0-5.0-1.71","6362aca86b740b1ec4cb6efb","bdp_lott","Mon Mar 27 2023 16:16:40 GMT-0400 (Eastern Daylight Time)","763811","red","green","","845","","","","choice","","","img/green_wl/choose11.jpg","1","154","green","0.5","0.5","0.5","l","",""
"animation","148","180267","0.0-5.0-2.71","6362aca86b740b1ec4cb6efb","bdp_lott","Mon Mar 27 2023 16:16:40 GMT-0400 (Eastern Daylight Time)","763811","red","green","","","","","","","","","","","154","","","","","","[{""stimulus"":""img/green_ll/1.jpg"",""time"":51},{""stimulus"":""img/green_ll/2.jpg"",""time"":102},{""stimulus"":""img/green_ll/3.jpg"",""time"":153},{""stimulus"":""img/green_ll/4.jpg"",""time"":205},{""stimulus"":""img/green_ll/5.jpg"",""time"":256},{""stimulus"":""img/green_ll/6.jpg"",""time"":307},{""stimulus"":""img/green_ll/7.jpg"",""time"":358},{""stimulus"":""img/green_ll/8.jpg"",""time"":409},{""stimulus"":""img/green_ll/9.jpg"",""time"":460},{""stimulus"":""img/green_ll/10.jpg"",""time"":511},{""stimulus"":""img/green_ll/11.jpg"",""time"":562}]","[]"
"image-keyboard-response","149","180868","0.0-5.0-1.72","6362aca86b740b1ec4cb6efb","bdp_lott","Mon Mar 27 2023 16:16:40 GMT-0400 (Eastern Daylight Time)","763811","red","green","","600","","","","choice","","","img/green_ll/choose11.jpg","2","153","red","0.5","0.5","0.5","l","",""
"animation","150","181483","0.0-5.0-2.72","6362aca86b740b1ec4cb6efb","bdp_lott","Mon Mar 27 2023 16:16:40 GMT-0400 (Eastern Daylight Time)","763811","red","green","","","","","","","","","","","153","","","","","","[{""stimulus"":""img/red_ll/1.jpg"",""time"":52},{""stimulus"":""img/red_ll/2.jpg"",""time"":103},{""stimulus"":""img/red_ll/3.jpg"",""time"":154},{""stimulus"":""img/red_ll/4.jpg"",""time"":205},{""stimulus"":""img/red_ll/5.jpg"",""time"":257},{""stimulus"":""img/red_ll/6.jpg"",""time"":308},{""stimulus"":""img/red_ll/7.jpg"",""time"":359},{""stimulus"":""img/red_ll/8.jpg"",""time"":410},{""stimulus"":""img/red_ll/9.jpg"",""time"":461},{""stimulus"":""img/red_ll/10.jpg"",""time"":513},{""stimulus"":""img/red_ll/11.jpg"",""time"":564}]","[]"
"image-keyboard-response","151","181903","0.0-5.0-1.73","6362aca86b740b1ec4cb6efb","bdp_lott","Mon Mar 27 2023 16:16:40 GMT-0400 (Eastern Daylight Time)","763811","red","green","","419","","","","choice","","","img/red_ll/choose11.jpg","2","152","red","0.5","0.5","0.5","l","",""
"animation","152","182516","0.0-5.0-2.73","6362aca86b740b1ec4cb6efb","bdp_lott","Mon Mar 27 2023 16:16:40 GMT-0400 (Eastern Daylight Time)","763811","red","green","","","","","","","","","","","152","","","","","","[{""stimulus"":""img/red_ll/1.jpg"",""time"":52},{""stimulus"":""img/red_ll/2.jpg"",""time"":103},{""stimulus"":""img/red_ll/3.jpg"",""time"":154},{""stimulus"":""img/red_ll/4.jpg"",""time"":205},{""stimulus"":""img/red_ll/5.jpg"",""time"":256},{""stimulus"":""img/red_ll/6.jpg"",""time"":307},{""stimulus"":""img/red_ll/7.jpg"",""time"":358},{""stimulus"":""img/red_ll/8.jpg"",""time"":408},{""stimulus"":""img/red_ll/9.jpg"",""time"":459},{""stimulus"":""img/red_ll/10.jpg"",""time"":510},{""stimulus"":""img/red_ll/11.jpg"",""time"":561}]","[]"
"image-keyboard-response","153","182869","0.0-5.0-1.74","6362aca86b740b1ec4cb6efb","bdp_lott","Mon Mar 27 2023 16:16:40 GMT-0400 (Eastern Daylight Time)","763811","red","green","","352","","","","choice","","","img/red_ll/choose11.jpg","1","151","green","0.5","0.5","0.5","w","",""
"animation","154","183484","0.0-5.0-2.74","6362aca86b740b1ec4cb6efb","bdp_lott","Mon Mar 27 2023 16:16:40 GMT-0400 (Eastern Daylight Time)","763811","red","green","","","","","","","","","","","151","","","","","","[{""stimulus"":""img/green_wl/1.jpg"",""time"":52},{""stimulus"":""img/green_wl/2.jpg"",""time"":103},{""stimulus"":""img/green_wl/3.jpg"",""time"":154},{""stimulus"":""img/green_wl/4.jpg"",""time"":205},{""stimulus"":""img/green_wl/5.jpg"",""time"":256},{""stimulus"":""img/green_wl/6.jpg"",""time"":308},{""stimulus"":""img/green_wl/7.jpg"",""time"":358},{""stimulus"":""img/green_wl/8.jpg"",""time"":410},{""stimulus"":""img/green_wl/9.jpg"",""time"":461},{""stimulus"":""img/green_wl/10.jpg"",""time"":512},{""stimulus"":""img/green_wl/11.jpg"",""time"":563}]","[]"
"image-keyboard-response","155","184130","0.0-5.0-1.75","6362aca86b740b1ec4cb6efb","bdp_lott","Mon Mar 27 2023 16:16:40 GMT-0400 (Eastern Daylight Time)","763811","red","green","","645","","","","choice","","","img/green_wl/choose11.jpg","1","150","green","0.5","0.5","0.5","w","",""
"animation","156","184746","0.0-5.0-2.75","6362aca86b740b1ec4cb6efb","bdp_lott","Mon Mar 27 2023 16:16:40 GMT-0400 (Eastern Daylight Time)","763811","red","green","","","","","","","","","","","150","","","","","","[{""stimulus"":""img/green_wl/1.jpg"",""time"":52},{""stimulus"":""img/green_wl/2.jpg"",""time"":103},{""stimulus"":""img/green_wl/3.jpg"",""time"":154},{""stimulus"":""img/green_wl/4.jpg"",""time"":205},{""stimulus"":""img/green_wl/5.jpg"",""time"":257},{""stimulus"":""img/green_wl/6.jpg"",""time"":308},{""stimulus"":""img/green_wl/7.jpg"",""time"":359},{""stimulus"":""img/green_wl/8.jpg"",""time"":410},{""stimulus"":""img/green_wl/9.jpg"",""time"":462},{""stimulus"":""img/green_wl/10.jpg"",""time"":513},{""stimulus"":""img/green_wl/11.jpg"",""time"":564}]","[]"
"image-keyboard-response","157","185187","0.0-5.0-1.76","6362aca86b740b1ec4cb6efb","bdp_lott","Mon Mar 27 2023 16:16:40 GMT-0400 (Eastern Daylight Time)","763811","red","green","","440","","","","choice","","","img/green_wl/choose11.jpg","1","149","green","0.5","0.1","0.1","l","",""
"animation","158","185802","0.0-5.0-2.76","6362aca86b740b1ec4cb6efb","bdp_lott","Mon Mar 27 2023 16:16:40 GMT-0400 (Eastern Daylight Time)","763811","red","green","","","","","","","","","","","149","","","","","","[{""stimulus"":""img/green_ll/1.jpg"",""time"":51},{""stimulus"":""img/green_ll/2.jpg"",""time"":102},{""stimulus"":""img/green_ll/3.jpg"",""time"":154},{""stimulus"":""img/green_ll/4.jpg"",""time"":205},{""stimulus"":""img/green_ll/5.jpg"",""time"":255},{""stimulus"":""img/green_ll/6.jpg"",""time"":306},{""stimulus"":""img/green_ll/7.jpg"",""time"":357},{""stimulus"":""img/green_ll/8.jpg"",""time"":409},{""stimulus"":""img/green_ll/9.jpg"",""time"":460},{""stimulus"":""img/green_ll/10.jpg"",""time"":511},{""stimulus"":""img/green_ll/11.jpg"",""time"":562}]","[]"
"image-keyboard-response","159","186403","0.0-5.0-1.77","6362aca86b740b1ec4cb6efb","bdp_lott","Mon Mar 27 2023 16:16:40 GMT-0400 (Eastern Daylight Time)","763811","red","green","","599","","","","choice","","","img/green_ll/choose11.jpg","2","148","red","0.5","0.1","0.5","w","",""
"animation","160","187017","0.0-5.0-2.77","6362aca86b740b1ec4cb6efb","bdp_lott","Mon Mar 27 2023 16:16:40 GMT-0400 (Eastern Daylight Time)","763811","red","green","","","","","","","","","","","148","","","","","","[{""stimulus"":""img/red_lw/1.jpg"",""time"":52},{""stimulus"":""img/red_lw/2.jpg"",""time"":103},{""stimulus"":""img/red_lw/3.jpg"",""time"":154},{""stimulus"":""img/red_lw/4.jpg"",""time"":205},{""stimulus"":""img/red_lw/5.jpg"",""time"":256},{""stimulus"":""img/red_lw/6.jpg"",""time"":307},{""stimulus"":""img/red_lw/7.jpg"",""time"":358},{""stimulus"":""img/red_lw/8.jpg"",""time"":409},{""stimulus"":""img/red_lw/9.jpg"",""time"":460},{""stimulus"":""img/red_lw/10.jpg"",""time"":511},{""stimulus"":""img/red_lw/11.jpg"",""time"":562}]","[]"
"image-keyboard-response","161","187842","0.0-5.0-1.78","6362aca86b740b1ec4cb6efb","bdp_lott","Mon Mar 27 2023 16:16:40 GMT-0400 (Eastern Daylight Time)","763811","red","green","","823","","","","choice","","","img/red_lw/choose11.jpg","2","147","red","0.5","0.1","0.5","l","",""
"animation","162","188456","0.0-5.0-2.78","6362aca86b740b1ec4cb6efb","bdp_lott","Mon Mar 27 2023 16:16:40 GMT-0400 (Eastern Daylight Time)","763811","red","green","","","","","","","","","","","147","","","","","","[{""stimulus"":""img/red_ll/1.jpg"",""time"":52},{""stimulus"":""img/red_ll/2.jpg"",""time"":103},{""stimulus"":""img/red_ll/3.jpg"",""time"":154},{""stimulus"":""img/red_ll/4.jpg"",""time"":205},{""stimulus"":""img/red_ll/5.jpg"",""time"":256},{""stimulus"":""img/red_ll/6.jpg"",""time"":307},{""stimulus"":""img/red_ll/7.jpg"",""time"":358},{""stimulus"":""img/red_ll/8.jpg"",""time"":409},{""stimulus"":""img/red_ll/9.jpg"",""time"":460},{""stimulus"":""img/red_ll/10.jpg"",""time"":511},{""stimulus"":""img/red_ll/11.jpg"",""time"":562}]","[]"
"image-keyboard-response","163","188945","0.0-5.0-1.79","6362aca86b740b1ec4cb6efb","bdp_lott","Mon Mar 27 2023 16:16:40 GMT-0400 (Eastern Daylight Time)","763811","red","green","","487","","","","choice","","","img/red_ll/choose11.jpg","2","146","red","0.5","0.1","0.5","w","",""
"animation","164","189559","0.0-5.0-2.79","6362aca86b740b1ec4cb6efb","bdp_lott","Mon Mar 27 2023 16:16:40 GMT-0400 (Eastern Daylight Time)","763811","red","green","","","","","","","","","","","146","","","","","","[{""stimulus"":""img/red_lw/1.jpg"",""time"":52},{""stimulus"":""img/red_lw/2.jpg"",""time"":103},{""stimulus"":""img/red_lw/3.jpg"",""time"":154},{""stimulus"":""img/red_lw/4.jpg"",""time"":205},{""stimulus"":""img/red_lw/5.jpg"",""time"":256},{""stimulus"":""img/red_lw/6.jpg"",""time"":307},{""stimulus"":""img/red_lw/7.jpg"",""time"":358},{""stimulus"":""img/red_lw/8.jpg"",""time"":410},{""stimulus"":""img/red_lw/9.jpg"",""time"":461},{""stimulus"":""img/red_lw/10.jpg"",""time"":512},{""stimulus"":""img/red_lw/11.jpg"",""time"":563}]","[]"
"image-keyboard-response","165","189754","0.0-5.0-1.80","6362aca86b740b1ec4cb6efb","bdp_lott","Mon Mar 27 2023 16:16:40 GMT-0400 (Eastern Daylight Time)","763811","red","green","","193","","","","choice","","","img/red_lw/choose11.jpg","1","145","green","0.5","0.1","0.1","l","",""
"animation","166","190369","0.0-5.0-2.80","6362aca86b740b1ec4cb6efb","bdp_lott","Mon Mar 27 2023 16:16:40 GMT-0400 (Eastern Daylight Time)","763811","red","green","","","","","","","","","","","145","","","","","","[{""stimulus"":""img/green_lw/1.jpg"",""time"":52},{""stimulus"":""img/green_lw/2.jpg"",""time"":102},{""stimulus"":""img/green_lw/3.jpg"",""time"":154},{""stimulus"":""img/green_lw/4.jpg"",""time"":204},{""stimulus"":""img/green_lw/5.jpg"",""time"":256},{""stimulus"":""img/green_lw/6.jpg"",""time"":307},{""stimulus"":""img/green_lw/7.jpg"",""time"":358},{""stimulus"":""img/green_lw/8.jpg"",""time"":409},{""stimulus"":""img/green_lw/9.jpg"",""time"":460},{""stimulus"":""img/green_lw/10.jpg"",""time"":511},{""stimulus"":""img/green_lw/11.jpg"",""time"":563}]","[]"
"image-keyboard-response","167","190858","0.0-5.0-1.81","6362aca86b740b1ec4cb6efb","bdp_lott","Mon Mar 27 2023 16:16:40 GMT-0400 (Eastern Daylight Time)","763811","red","green","","487","","","","choice","","","img/green_lw/choose11.jpg","2","144","red","0.5","0.1","0.5","w","",""
"animation","168","191473","0.0-5.0-2.81","6362aca86b740b1ec4cb6efb","bdp_lott","Mon Mar 27 2023 16:16:40 GMT-0400 (Eastern Daylight Time)","763811","red","green","","","","","","","","","","","144","","","","","","[{""stimulus"":""img/red_lw/1.jpg"",""time"":52},{""stimulus"":""img/red_lw/2.jpg"",""time"":103},{""stimulus"":""img/red_lw/3.jpg"",""time"":154},{""stimulus"":""img/red_lw/4.jpg"",""time"":205},{""stimulus"":""img/red_lw/5.jpg"",""time"":256},{""stimulus"":""img/red_lw/6.jpg"",""time"":307},{""stimulus"":""img/red_lw/7.jpg"",""time"":358},{""stimulus"":""img/red_lw/8.jpg"",""time"":409},{""stimulus"":""img/red_lw/9.jpg"",""time"":461},{""stimulus"":""img/red_lw/10.jpg"",""time"":512},{""stimulus"":""img/red_lw/11.jpg"",""time"":563}]","[]"
"image-keyboard-response","169","192095","0.0-5.0-1.82","6362aca86b740b1ec4cb6efb","bdp_lott","Mon Mar 27 2023 16:16:40 GMT-0400 (Eastern Daylight Time)","763811","red","green","","621","","","","choice","","","img/red_lw/choose11.jpg","2","143","red","0.5","0.1","0.5","l","",""
"animation","170","192710","0.0-5.0-2.82","6362aca86b740b1ec4cb6efb","bdp_lott","Mon Mar 27 2023 16:16:40 GMT-0400 (Eastern Daylight Time)","763811","red","green","","","","","","","","","","","143","","","","","","[{""stimulus"":""img/red_ll/1.jpg"",""time"":52},{""stimulus"":""img/red_ll/2.jpg"",""time"":103},{""stimulus"":""img/red_ll/3.jpg"",""time"":154},{""stimulus"":""img/red_ll/4.jpg"",""time"":205},{""stimulus"":""img/red_ll/5.jpg"",""time"":257},{""stimulus"":""img/red_ll/6.jpg"",""time"":308},{""stimulus"":""img/red_ll/7.jpg"",""time"":359},{""stimulus"":""img/red_ll/8.jpg"",""time"":410},{""stimulus"":""img/red_ll/9.jpg"",""time"":461},{""stimulus"":""img/red_ll/10.jpg"",""time"":512},{""stimulus"":""img/red_ll/11.jpg"",""time"":563}]","[]"
"image-keyboard-response","171","193108","0.0-5.0-1.83","6362aca86b740b1ec4cb6efb","bdp_lott","Mon Mar 27 2023 16:16:40 GMT-0400 (Eastern Daylight Time)","763811","red","green","","395","","","","choice","","","img/red_ll/choose11.jpg","1","142","green","0.5","0.1","0.1","l","",""
"animation","172","193722","0.0-5.0-2.83","6362aca86b740b1ec4cb6efb","bdp_lott","Mon Mar 27 2023 16:16:40 GMT-0400 (Eastern Daylight Time)","763811","red","green","","","","","","","","","","","142","","","","","","[{""stimulus"":""img/green_ll/1.jpg"",""time"":52},{""stimulus"":""img/green_ll/2.jpg"",""time"":103},{""stimulus"":""img/green_ll/3.jpg"",""time"":154},{""stimulus"":""img/green_ll/4.jpg"",""time"":205},{""stimulus"":""img/green_ll/5.jpg"",""time"":256},{""stimulus"":""img/green_ll/6.jpg"",""time"":307},{""stimulus"":""img/green_ll/7.jpg"",""time"":358},{""stimulus"":""img/green_ll/8.jpg"",""time"":410},{""stimulus"":""img/green_ll/9.jpg"",""time"":461},{""stimulus"":""img/green_ll/10.jpg"",""time"":512},{""stimulus"":""img/green_ll/11.jpg"",""time"":562}]","[]"
"image-keyboard-response","173","194345","0.0-5.0-1.84","6362aca86b740b1ec4cb6efb","bdp_lott","Mon Mar 27 2023 16:16:40 GMT-0400 (Eastern Daylight Time)","763811","red","green","","620","","","","choice","","","img/green_ll/choose11.jpg","1","141","green","0.5","0.1","0.1","l","",""
"animation","174","194960","0.0-5.0-2.84","6362aca86b740b1ec4cb6efb","bdp_lott","Mon Mar 27 2023 16:16:40 GMT-0400 (Eastern Daylight Time)","763811","red","green","","","","","","","","","","","141","","","","","","[{""stimulus"":""img/green_ll/1.jpg"",""time"":52},{""stimulus"":""img/green_ll/2.jpg"",""time"":103},{""stimulus"":""img/green_ll/3.jpg"",""time"":154},{""stimulus"":""img/green_ll/4.jpg"",""time"":205},{""stimulus"":""img/green_ll/5.jpg"",""time"":256},{""stimulus"":""img/green_ll/6.jpg"",""time"":307},{""stimulus"":""img/green_ll/7.jpg"",""time"":359},{""stimulus"":""img/green_ll/8.jpg"",""time"":410},{""stimulus"":""img/green_ll/9.jpg"",""time"":461},{""stimulus"":""img/green_ll/10.jpg"",""time"":512},{""stimulus"":""img/green_ll/11.jpg"",""time"":563}]","[]"
"image-keyboard-response","175","195448","0.0-5.0-1.85","6362aca86b740b1ec4cb6efb","bdp_lott","Mon Mar 27 2023 16:16:40 GMT-0400 (Eastern Daylight Time)","763811","red","green","","486","","","","choice","","","img/green_ll/choose11.jpg","2","140","red","0.5","0.1","0.5","l","",""
"animation","176","196063","0.0-5.0-2.85","6362aca86b740b1ec4cb6efb","bdp_lott","Mon Mar 27 2023 16:16:40 GMT-0400 (Eastern Daylight Time)","763811","red","green","","","","","","","","","","","140","","","","","","[{""stimulus"":""img/red_ll/1.jpg"",""time"":52},{""stimulus"":""img/red_ll/2.jpg"",""time"":102},{""stimulus"":""img/red_ll/3.jpg"",""time"":154},{""stimulus"":""img/red_ll/4.jpg"",""time"":205},{""stimulus"":""img/red_ll/5.jpg"",""time"":256},{""stimulus"":""img/red_ll/6.jpg"",""time"":307},{""stimulus"":""img/red_ll/7.jpg"",""time"":358},{""stimulus"":""img/red_ll/8.jpg"",""time"":410},{""stimulus"":""img/red_ll/9.jpg"",""time"":461},{""stimulus"":""img/red_ll/10.jpg"",""time"":512},{""stimulus"":""img/red_ll/11.jpg"",""time"":563}]","[]"
"image-keyboard-response","177","197000","0.0-5.0-1.86","6362aca86b740b1ec4cb6efb","bdp_lott","Mon Mar 27 2023 16:16:40 GMT-0400 (Eastern Daylight Time)","763811","red","green","","936","","","","choice","","","img/red_ll/choose11.jpg","1","139","green","0.5","0.1","0.1","l","",""
"animation","178","197615","0.0-5.0-2.86","6362aca86b740b1ec4cb6efb","bdp_lott","Mon Mar 27 2023 16:16:40 GMT-0400 (Eastern Daylight Time)","763811","red","green","","","","","","","","","","","139","","","","","","[{""stimulus"":""img/green_ll/1.jpg"",""time"":52},{""stimulus"":""img/green_ll/2.jpg"",""time"":103},{""stimulus"":""img/green_ll/3.jpg"",""time"":154},{""stimulus"":""img/green_ll/4.jpg"",""time"":205},{""stimulus"":""img/green_ll/5.jpg"",""time"":256},{""stimulus"":""img/green_ll/6.jpg"",""time"":307},{""stimulus"":""img/green_ll/7.jpg"",""time"":358},{""stimulus"":""img/green_ll/8.jpg"",""time"":409},{""stimulus"":""img/green_ll/9.jpg"",""time"":461},{""stimulus"":""img/green_ll/10.jpg"",""time"":512},{""stimulus"":""img/green_ll/11.jpg"",""time"":563}]","[]"
"image-keyboard-response","179","198125","0.0-5.0-1.87","6362aca86b740b1ec4cb6efb","bdp_lott","Mon Mar 27 2023 16:16:40 GMT-0400 (Eastern Daylight Time)","763811","red","green","","508","","","","choice","","","img/green_ll/choose11.jpg","2","138","red","0.5","0.1","0.5","w","",""
"animation","180","198739","0.0-5.0-2.87","6362aca86b740b1ec4cb6efb","bdp_lott","Mon Mar 27 2023 16:16:40 GMT-0400 (Eastern Daylight Time)","763811","red","green","","","","","","","","","","","138","","","","","","[{""stimulus"":""img/red_lw/1.jpg"",""time"":52},{""stimulus"":""img/red_lw/2.jpg"",""time"":103},{""stimulus"":""img/red_lw/3.jpg"",""time"":154},{""stimulus"":""img/red_lw/4.jpg"",""time"":205},{""stimulus"":""img/red_lw/5.jpg"",""time"":256},{""stimulus"":""img/red_lw/6.jpg"",""time"":307},{""stimulus"":""img/red_lw/7.jpg"",""time"":359},{""stimulus"":""img/red_lw/8.jpg"",""time"":410},{""stimulus"":""img/red_lw/9.jpg"",""time"":461},{""stimulus"":""img/red_lw/10.jpg"",""time"":512},{""stimulus"":""img/red_lw/11.jpg"",""time"":564}]","[]"
"image-keyboard-response","181","199648","0.0-5.0-1.88","6362aca86b740b1ec4cb6efb","bdp_lott","Mon Mar 27 2023 16:16:40 GMT-0400 (Eastern Daylight Time)","763811","red","green","","907","","","","choice","","","img/red_lw/choose11.jpg","2","137","red","0.5","0.1","0.5","l","",""
"animation","182","200261","0.0-5.0-2.88","6362aca86b740b1ec4cb6efb","bdp_lott","Mon Mar 27 2023 16:16:40 GMT-0400 (Eastern Daylight Time)","763811","red","green","","","","","","","","","","","137","","","","","","[{""stimulus"":""img/red_ll/1.jpg"",""time"":52},{""stimulus"":""img/red_ll/2.jpg"",""time"":102},{""stimulus"":""img/red_ll/3.jpg"",""time"":154},{""stimulus"":""img/red_ll/4.jpg"",""time"":205},{""stimulus"":""img/red_ll/5.jpg"",""time"":256},{""stimulus"":""img/red_ll/6.jpg"",""time"":307},{""stimulus"":""img/red_ll/7.jpg"",""time"":357},{""stimulus"":""img/red_ll/8.jpg"",""time"":408},{""stimulus"":""img/red_ll/9.jpg"",""time"":459},{""stimulus"":""img/red_ll/10.jpg"",""time"":510},{""stimulus"":""img/red_ll/11.jpg"",""time"":561}]","[]"
"image-keyboard-response","183","331458","0.0-5.0-1.89","6362aca86b740b1ec4cb6efb","bdp_lott","Mon Mar 27 2023 16:16:40 GMT-0400 (Eastern Daylight Time)","763811","red","green","","131196","","","","choice","","","img/red_ll/choose11.jpg","2","136","red","0.5","0.1","0.5","w","",""
"animation","184","332071","0.0-5.0-2.89","6362aca86b740b1ec4cb6efb","bdp_lott","Mon Mar 27 2023 16:16:40 GMT-0400 (Eastern Daylight Time)","763811","red","green","","","","","","","","","","","136","","","","","","[{""stimulus"":""img/red_lw/1.jpg"",""time"":51},{""stimulus"":""img/red_lw/2.jpg"",""time"":102},{""stimulus"":""img/red_lw/3.jpg"",""time"":153},{""stimulus"":""img/red_lw/4.jpg"",""time"":204},{""stimulus"":""img/red_lw/5.jpg"",""time"":256},{""stimulus"":""img/red_lw/6.jpg"",""time"":307},{""stimulus"":""img/red_lw/7.jpg"",""time"":358},{""stimulus"":""img/red_lw/8.jpg"",""time"":409},{""stimulus"":""img/red_lw/9.jpg"",""time"":459},{""stimulus"":""img/red_lw/10.jpg"",""time"":510},{""stimulus"":""img/red_lw/11.jpg"",""time"":562}]","[]"
"image-keyboard-response","185","333550","0.0-5.0-1.90","6362aca86b740b1ec4cb6efb","bdp_lott","Mon Mar 27 2023 16:16:40 GMT-0400 (Eastern Daylight Time)","763811","red","green","","1476","","","","choice","","","img/red_lw/choose11.jpg","1","135","green","0.5","0.1","0.1","l","",""
"animation","186","334163","0.0-5.0-2.90","6362aca86b740b1ec4cb6efb","bdp_lott","Mon Mar 27 2023 16:16:40 GMT-0400 (Eastern Daylight Time)","763811","red","green","","","","","","","","","","","135","","","","","","[{""stimulus"":""img/green_lw/1.jpg"",""time"":52},{""stimulus"":""img/green_lw/2.jpg"",""time"":103},{""stimulus"":""img/green_lw/3.jpg"",""time"":154},{""stimulus"":""img/green_lw/4.jpg"",""time"":205},{""stimulus"":""img/green_lw/5.jpg"",""time"":256},{""stimulus"":""img/green_lw/6.jpg"",""time"":307},{""stimulus"":""img/green_lw/7.jpg"",""time"":359},{""stimulus"":""img/green_lw/8.jpg"",""time"":410},{""stimulus"":""img/green_lw/9.jpg"",""time"":460},{""stimulus"":""img/green_lw/10.jpg"",""time"":510},{""stimulus"":""img/green_lw/11.jpg"",""time"":561}]","[]"
"image-keyboard-response","187","334855","0.0-5.0-1.91","6362aca86b740b1ec4cb6efb","bdp_lott","Mon Mar 27 2023 16:16:40 GMT-0400 (Eastern Daylight Time)","763811","red","green","","691","","","","choice","","","img/green_lw/choose11.jpg","2","134","red","0.5","0.1","0.5","l","",""
"animation","188","335468","0.0-5.0-2.91","6362aca86b740b1ec4cb6efb","bdp_lott","Mon Mar 27 2023 16:16:40 GMT-0400 (Eastern Daylight Time)","763811","red","green","","","","","","","","","","","134","","","","","","[{""stimulus"":""img/red_ll/1.jpg"",""time"":51},{""stimulus"":""img/red_ll/2.jpg"",""time"":103},{""stimulus"":""img/red_ll/3.jpg"",""time"":154},{""stimulus"":""img/red_ll/4.jpg"",""time"":205},{""stimulus"":""img/red_ll/5.jpg"",""time"":255},{""stimulus"":""img/red_ll/6.jpg"",""time"":306},{""stimulus"":""img/red_ll/7.jpg"",""time"":357},{""stimulus"":""img/red_ll/8.jpg"",""time"":409},{""stimulus"":""img/red_ll/9.jpg"",""time"":459},{""stimulus"":""img/red_ll/10.jpg"",""time"":511},{""stimulus"":""img/red_ll/11.jpg"",""time"":561}]","[]"
"image-keyboard-response","189","335867","0.0-5.0-1.92","6362aca86b740b1ec4cb6efb","bdp_lott","Mon Mar 27 2023 16:16:40 GMT-0400 (Eastern Daylight Time)","763811","red","green","","398","","","","choice","","","img/red_ll/choose11.jpg","2","133","red","0.5","0.1","0.5","w","",""
