"trial_type","trial_index","time_elapsed","internal_node_id","subject_id","task","startTime","totalTime","fairMachine","unfairMachine","view_history","rt","event","trial","time","trialtype","numBlurs","success","stimulus","key_press","roundsLeft","chosen","pFairMachWin","pUnfairMachWin","pTrialWin","outcome","animation_sequence","responses"
"pavlovia","0","2","0.0-0.0","fertuck1","bdp_lott","Sun Feb 26 2023 12:59:13 GMT-0500 (Eastern Standard Time)","236126","green","red","","","","","","","","","","","","","","","","","",""
"instructions","1","3507","0.0-1.0","fertuck1","bdp_lott","Sun Feb 26 2023 12:59:13 GMT-0500 (Eastern Standard Time)","236126","green","red","[{""page_index"":0,""viewing_time"":3504}]","3504","","","","","","","","","","","","","","","",""
"","","","","fertuck1","bdp_lott","Sun Feb 26 2023 12:59:13 GMT-0500 (Eastern Standard Time)","236126","green","red","","","blur","2","5977","blurevent","1","","","","","","","","","","",""
"","","","","fertuck1","bdp_lott","Sun Feb 26 2023 12:59:13 GMT-0500 (Eastern Standard Time)","236126","green","red","","","focus","2","7570","focusevent","","","","","","","","","","","",""
"","","","","fertuck1","bdp_lott","Sun Feb 26 2023 12:59:13 GMT-0500 (Eastern Standard Time)","236126","green","red","","","fullscreenenter","2","8733","fullscreenenter","","","","","","","","","","","",""
"fullscreen","2","9724","0.0-2.0","fertuck1","bdp_lott","Sun Feb 26 2023 12:59:13 GMT-0500 (Eastern Standard Time)","236126","green","red","","","","","","","","true","","","","","","","","","",""
"instructions","3","24784","0.0-4.0","fertuck1","bdp_lott","Sun Feb 26 2023 12:59:13 GMT-0500 (Eastern Standard Time)","236126","green","red","[{""page_index"":0,""viewing_time"":15059}]","15059","","","","","","","","","","","","","","","",""
"image-keyboard-response","4","28659","0.0-5.0-0.0-0.0","fertuck1","bdp_lott","Sun Feb 26 2023 12:59:13 GMT-0500 (Eastern Standard Time)","236126","green","red","","3872","","","","blurwarn","1","","","49","","","","","","","",""
"image-keyboard-response","5","31586","0.0-5.0-1.0","fertuck1","bdp_lott","Sun Feb 26 2023 12:59:13 GMT-0500 (Eastern Standard Time)","236126","green","red","","2672","","","","","","","img/red_ll/initchoose11.jpg","1","225","green","0.6","0.6","0.6","w","",""
"animation","6","32193","0.0-5.0-2.0","fertuck1","bdp_lott","Sun Feb 26 2023 12:59:13 GMT-0500 (Eastern Standard Time)","236126","green","red","","","","","","","","","","","225","","","","","","[{""stimulus"":""img/green_wl/1.jpg"",""time"":54},{""stimulus"":""img/green_wl/2.jpg"",""time"":105},{""stimulus"":""img/green_wl/3.jpg"",""time"":154},{""stimulus"":""img/green_wl/4.jpg"",""time"":206},{""stimulus"":""img/green_wl/5.jpg"",""time"":255},{""stimulus"":""img/green_wl/6.jpg"",""time"":304},{""stimulus"":""img/green_wl/7.jpg"",""time"":355},{""stimulus"":""img/green_wl/8.jpg"",""time"":405},{""stimulus"":""img/green_wl/9.jpg"",""time"":454},{""stimulus"":""img/green_wl/10.jpg"",""time"":504},{""stimulus"":""img/green_wl/11.jpg"",""time"":554}]","[]"
"image-keyboard-response","7","33420","0.0-5.0-1.1","fertuck1","bdp_lott","Sun Feb 26 2023 12:59:13 GMT-0500 (Eastern Standard Time)","236126","green","red","","1226","","","","","","","img/green_wl/choose11.jpg","1","224","green","0.6","0.6","0.6","w","",""
"animation","8","34024","0.0-5.0-2.1","fertuck1","bdp_lott","Sun Feb 26 2023 12:59:13 GMT-0500 (Eastern Standard Time)","236126","green","red","","","","","","","","","","","224","","","","","","[{""stimulus"":""img/green_wl/1.jpg"",""time"":52},{""stimulus"":""img/green_wl/2.jpg"",""time"":103},{""stimulus"":""img/green_wl/3.jpg"",""time"":153},{""stimulus"":""img/green_wl/4.jpg"",""time"":203},{""stimulus"":""img/green_wl/5.jpg"",""time"":255},{""stimulus"":""img/green_wl/6.jpg"",""time"":304},{""stimulus"":""img/green_wl/7.jpg"",""time"":353},{""stimulus"":""img/green_wl/8.jpg"",""time"":404},{""stimulus"":""img/green_wl/9.jpg"",""time"":453},{""stimulus"":""img/green_wl/10.jpg"",""time"":503},{""stimulus"":""img/green_wl/11.jpg"",""time"":553}]","[]"
"image-keyboard-response","9","34825","0.0-5.0-1.2","fertuck1","bdp_lott","Sun Feb 26 2023 12:59:13 GMT-0500 (Eastern Standard Time)","236126","green","red","","800","","","","","","","img/green_wl/choose11.jpg","1","223","green","0.6","0.6","0.6","w","",""
"animation","10","35430","0.0-5.0-2.2","fertuck1","bdp_lott","Sun Feb 26 2023 12:59:13 GMT-0500 (Eastern Standard Time)","236126","green","red","","","","","","","","","","","223","","","","","","[{""stimulus"":""img/green_wl/1.jpg"",""time"":51},{""stimulus"":""img/green_wl/2.jpg"",""time"":103},{""stimulus"":""img/green_wl/3.jpg"",""time"":151},{""stimulus"":""img/green_wl/4.jpg"",""time"":204},{""stimulus"":""img/green_wl/5.jpg"",""time"":252},{""stimulus"":""img/green_wl/6.jpg"",""time"":301},{""stimulus"":""img/green_wl/7.jpg"",""time"":354},{""stimulus"":""img/green_wl/8.jpg"",""time"":401},{""stimulus"":""img/green_wl/9.jpg"",""time"":451},{""stimulus"":""img/green_wl/10.jpg"",""time"":503},{""stimulus"":""img/green_wl/11.jpg"",""time"":551}]","[]"
"image-keyboard-response","11","36048","0.0-5.0-1.3","fertuck1","bdp_lott","Sun Feb 26 2023 12:59:13 GMT-0500 (Eastern Standard Time)","236126","green","red","","617","","","","","","","img/green_wl/choose11.jpg","1","222","green","0.6","0.6","0.6","w","",""
"animation","12","36651","0.0-5.0-2.3","fertuck1","bdp_lott","Sun Feb 26 2023 12:59:13 GMT-0500 (Eastern Standard Time)","236126","green","red","","","","","","","","","","","222","","","","","","[{""stimulus"":""img/green_wl/1.jpg"",""time"":54},{""stimulus"":""img/green_wl/2.jpg"",""time"":101},{""stimulus"":""img/green_wl/3.jpg"",""time"":150},{""stimulus"":""img/green_wl/4.jpg"",""time"":203},{""stimulus"":""img/green_wl/5.jpg"",""time"":251},{""stimulus"":""img/green_wl/6.jpg"",""time"":304},{""stimulus"":""img/green_wl/7.jpg"",""time"":352},{""stimulus"":""img/green_wl/8.jpg"",""time"":401},{""stimulus"":""img/green_wl/9.jpg"",""time"":453},{""stimulus"":""img/green_wl/10.jpg"",""time"":501},{""stimulus"":""img/green_wl/11.jpg"",""time"":550}]","[]"
"image-keyboard-response","13","37148","0.0-5.0-1.4","fertuck1","bdp_lott","Sun Feb 26 2023 12:59:13 GMT-0500 (Eastern Standard Time)","236126","green","red","","495","","","","","","","img/green_wl/choose11.jpg","1","221","green","0.6","0.6","0.6","l","",""
"animation","14","37750","0.0-5.0-2.4","fertuck1","bdp_lott","Sun Feb 26 2023 12:59:13 GMT-0500 (Eastern Standard Time)","236126","green","red","","","","","","","","","","","221","","","","","","[{""stimulus"":""img/green_ll/1.jpg"",""time"":53},{""stimulus"":""img/green_ll/2.jpg"",""time"":102},{""stimulus"":""img/green_ll/3.jpg"",""time"":154},{""stimulus"":""img/green_ll/4.jpg"",""time"":202},{""stimulus"":""img/green_ll/5.jpg"",""time"":251},{""stimulus"":""img/green_ll/6.jpg"",""time"":303},{""stimulus"":""img/green_ll/7.jpg"",""time"":351},{""stimulus"":""img/green_ll/8.jpg"",""time"":405},{""stimulus"":""img/green_ll/9.jpg"",""time"":453},{""stimulus"":""img/green_ll/10.jpg"",""time"":502},{""stimulus"":""img/green_ll/11.jpg"",""time"":554}]","[]"
"image-keyboard-response","15","39194","0.0-5.0-1.5","fertuck1","bdp_lott","Sun Feb 26 2023 12:59:13 GMT-0500 (Eastern Standard Time)","236126","green","red","","1443","","","","","","","img/green_ll/choose11.jpg","1","220","green","0.6","0.6","0.6","w","",""
"animation","16","39799","0.0-5.0-2.5","fertuck1","bdp_lott","Sun Feb 26 2023 12:59:13 GMT-0500 (Eastern Standard Time)","236126","green","red","","","","","","","","","","","220","","","","","","[{""stimulus"":""img/green_wl/1.jpg"",""time"":54},{""stimulus"":""img/green_wl/2.jpg"",""time"":104},{""stimulus"":""img/green_wl/3.jpg"",""time"":155},{""stimulus"":""img/green_wl/4.jpg"",""time"":204},{""stimulus"":""img/green_wl/5.jpg"",""time"":254},{""stimulus"":""img/green_wl/6.jpg"",""time"":304},{""stimulus"":""img/green_wl/7.jpg"",""time"":354},{""stimulus"":""img/green_wl/8.jpg"",""time"":404},{""stimulus"":""img/green_wl/9.jpg"",""time"":455},{""stimulus"":""img/green_wl/10.jpg"",""time"":504},{""stimulus"":""img/green_wl/11.jpg"",""time"":555}]","[]"
"image-keyboard-response","17","42474","0.0-5.0-1.6","fertuck1","bdp_lott","Sun Feb 26 2023 12:59:13 GMT-0500 (Eastern Standard Time)","236126","green","red","","2674","","","","","","","img/green_wl/choose11.jpg","1","219","green","0.6","0.6","0.6","w","",""
"animation","18","43077","0.0-5.0-2.6","fertuck1","bdp_lott","Sun Feb 26 2023 12:59:13 GMT-0500 (Eastern Standard Time)","236126","green","red","","","","","","","","","","","219","","","","","","[{""stimulus"":""img/green_wl/1.jpg"",""time"":55},{""stimulus"":""img/green_wl/2.jpg"",""time"":103},{""stimulus"":""img/green_wl/3.jpg"",""time"":152},{""stimulus"":""img/green_wl/4.jpg"",""time"":203},{""stimulus"":""img/green_wl/5.jpg"",""time"":252},{""stimulus"":""img/green_wl/6.jpg"",""time"":301},{""stimulus"":""img/green_wl/7.jpg"",""time"":353},{""stimulus"":""img/green_wl/8.jpg"",""time"":401},{""stimulus"":""img/green_wl/9.jpg"",""time"":455},{""stimulus"":""img/green_wl/10.jpg"",""time"":503},{""stimulus"":""img/green_wl/11.jpg"",""time"":552}]","[]"
"image-keyboard-response","19","43610","0.0-5.0-1.7","fertuck1","bdp_lott","Sun Feb 26 2023 12:59:13 GMT-0500 (Eastern Standard Time)","236126","green","red","","532","","","","","","","img/green_wl/choose11.jpg","1","218","green","0.6","0.6","0.6","w","",""
"animation","20","44216","0.0-5.0-2.7","fertuck1","bdp_lott","Sun Feb 26 2023 12:59:13 GMT-0500 (Eastern Standard Time)","236126","green","red","","","","","","","","","","","218","","","","","","[{""stimulus"":""img/green_wl/1.jpg"",""time"":54},{""stimulus"":""img/green_wl/2.jpg"",""time"":102},{""stimulus"":""img/green_wl/3.jpg"",""time"":155},{""stimulus"":""img/green_wl/4.jpg"",""time"":205},{""stimulus"":""img/green_wl/5.jpg"",""time"":255},{""stimulus"":""img/green_wl/6.jpg"",""time"":305},{""stimulus"":""img/green_wl/7.jpg"",""time"":355},{""stimulus"":""img/green_wl/8.jpg"",""time"":405},{""stimulus"":""img/green_wl/9.jpg"",""time"":455},{""stimulus"":""img/green_wl/10.jpg"",""time"":502},{""stimulus"":""img/green_wl/11.jpg"",""time"":555}]","[]"
"image-keyboard-response","21","44712","0.0-5.0-1.8","fertuck1","bdp_lott","Sun Feb 26 2023 12:59:13 GMT-0500 (Eastern Standard Time)","236126","green","red","","495","","","","","","","img/green_wl/choose11.jpg","1","217","green","0.6","0.6","0.6","l","",""
"animation","22","45317","0.0-5.0-2.8","fertuck1","bdp_lott","Sun Feb 26 2023 12:59:13 GMT-0500 (Eastern Standard Time)","236126","green","red","","","","","","","","","","","217","","","","","","[{""stimulus"":""img/green_ll/1.jpg"",""time"":51},{""stimulus"":""img/green_ll/2.jpg"",""time"":103},{""stimulus"":""img/green_ll/3.jpg"",""time"":153},{""stimulus"":""img/green_ll/4.jpg"",""time"":205},{""stimulus"":""img/green_ll/5.jpg"",""time"":254},{""stimulus"":""img/green_ll/6.jpg"",""time"":303},{""stimulus"":""img/green_ll/7.jpg"",""time"":354},{""stimulus"":""img/green_ll/8.jpg"",""time"":403},{""stimulus"":""img/green_ll/9.jpg"",""time"":453},{""stimulus"":""img/green_ll/10.jpg"",""time"":504},{""stimulus"":""img/green_ll/11.jpg"",""time"":553}]","[]"
"image-keyboard-response","23","49792","0.0-5.0-1.9","fertuck1","bdp_lott","Sun Feb 26 2023 12:59:13 GMT-0500 (Eastern Standard Time)","236126","green","red","","4473","","","","","","","img/green_ll/choose11.jpg","2","216","red","0.6","0.6","0.6","w","",""
"animation","24","50395","0.0-5.0-2.9","fertuck1","bdp_lott","Sun Feb 26 2023 12:59:13 GMT-0500 (Eastern Standard Time)","236126","green","red","","","","","","","","","","","216","","","","","","[{""stimulus"":""img/red_lw/1.jpg"",""time"":53},{""stimulus"":""img/red_lw/2.jpg"",""time"":101},{""stimulus"":""img/red_lw/3.jpg"",""time"":154},{""stimulus"":""img/red_lw/4.jpg"",""time"":202},{""stimulus"":""img/red_lw/5.jpg"",""time"":251},{""stimulus"":""img/red_lw/6.jpg"",""time"":303},{""stimulus"":""img/red_lw/7.jpg"",""time"":351},{""stimulus"":""img/red_lw/8.jpg"",""time"":401},{""stimulus"":""img/red_lw/9.jpg"",""time"":453},{""stimulus"":""img/red_lw/10.jpg"",""time"":500},{""stimulus"":""img/red_lw/11.jpg"",""time"":554}]","[]"
"image-keyboard-response","25","51134","0.0-5.0-1.10","fertuck1","bdp_lott","Sun Feb 26 2023 12:59:13 GMT-0500 (Eastern Standard Time)","236126","green","red","","738","","","","","","","img/red_lw/choose11.jpg","2","215","red","0.6","0.6","0.6","l","",""
"animation","26","51738","0.0-5.0-2.10","fertuck1","bdp_lott","Sun Feb 26 2023 12:59:13 GMT-0500 (Eastern Standard Time)","236126","green","red","","","","","","","","","","","215","","","","","","[{""stimulus"":""img/red_ll/1.jpg"",""time"":55},{""stimulus"":""img/red_ll/2.jpg"",""time"":103},{""stimulus"":""img/red_ll/3.jpg"",""time"":152},{""stimulus"":""img/red_ll/4.jpg"",""time"":204},{""stimulus"":""img/red_ll/5.jpg"",""time"":252},{""stimulus"":""img/red_ll/6.jpg"",""time"":301},{""stimulus"":""img/red_ll/7.jpg"",""time"":353},{""stimulus"":""img/red_ll/8.jpg"",""time"":401},{""stimulus"":""img/red_ll/9.jpg"",""time"":455},{""stimulus"":""img/red_ll/10.jpg"",""time"":503},{""stimulus"":""img/red_ll/11.jpg"",""time"":552}]","[]"
"image-keyboard-response","27","54536","0.0-5.0-1.11","fertuck1","bdp_lott","Sun Feb 26 2023 12:59:13 GMT-0500 (Eastern Standard Time)","236126","green","red","","2796","","","","","","","img/red_ll/choose11.jpg","2","214","red","0.6","0.6","0.6","l","",""
"animation","28","55141","0.0-5.0-2.11","fertuck1","bdp_lott","Sun Feb 26 2023 12:59:13 GMT-0500 (Eastern Standard Time)","236126","green","red","","","","","","","","","","","214","","","","","","[{""stimulus"":""img/red_ll/1.jpg"",""time"":52},{""stimulus"":""img/red_ll/2.jpg"",""time"":105},{""stimulus"":""img/red_ll/3.jpg"",""time"":151},{""stimulus"":""img/red_ll/4.jpg"",""time"":205},{""stimulus"":""img/red_ll/5.jpg"",""time"":252},{""stimulus"":""img/red_ll/6.jpg"",""time"":305},{""stimulus"":""img/red_ll/7.jpg"",""time"":355},{""stimulus"":""img/red_ll/8.jpg"",""time"":405},{""stimulus"":""img/red_ll/9.jpg"",""time"":455},{""stimulus"":""img/red_ll/10.jpg"",""time"":501},{""stimulus"":""img/red_ll/11.jpg"",""time"":555}]","[]"
"image-keyboard-response","29","55748","0.0-5.0-1.12","fertuck1","bdp_lott","Sun Feb 26 2023 12:59:13 GMT-0500 (Eastern Standard Time)","236126","green","red","","606","","","","","","","img/red_ll/choose11.jpg","2","213","red","0.6","0.6","0.6","w","",""
"animation","30","56353","0.0-5.0-2.12","fertuck1","bdp_lott","Sun Feb 26 2023 12:59:13 GMT-0500 (Eastern Standard Time)","236126","green","red","","","","","","","","","","","213","","","","","","[{""stimulus"":""img/red_lw/1.jpg"",""time"":55},{""stimulus"":""img/red_lw/2.jpg"",""time"":104},{""stimulus"":""img/red_lw/3.jpg"",""time"":152},{""stimulus"":""img/red_lw/4.jpg"",""time"":204},{""stimulus"":""img/red_lw/5.jpg"",""time"":252},{""stimulus"":""img/red_lw/6.jpg"",""time"":301},{""stimulus"":""img/red_lw/7.jpg"",""time"":355},{""stimulus"":""img/red_lw/8.jpg"",""time"":401},{""stimulus"":""img/red_lw/9.jpg"",""time"":455},{""stimulus"":""img/red_lw/10.jpg"",""time"":503},{""stimulus"":""img/red_lw/11.jpg"",""time"":552}]","[]"
"image-keyboard-response","31","59087","0.0-5.0-1.13","fertuck1","bdp_lott","Sun Feb 26 2023 12:59:13 GMT-0500 (Eastern Standard Time)","236126","green","red","","2734","","","","","","","img/red_lw/choose11.jpg","2","212","red","0.6","0.6","0.6","w","",""
"animation","32","59691","0.0-5.0-2.13","fertuck1","bdp_lott","Sun Feb 26 2023 12:59:13 GMT-0500 (Eastern Standard Time)","236126","green","red","","","","","","","","","","","212","","","","","","[{""stimulus"":""img/red_lw/1.jpg"",""time"":53},{""stimulus"":""img/red_lw/2.jpg"",""time"":103},{""stimulus"":""img/red_lw/3.jpg"",""time"":155},{""stimulus"":""img/red_lw/4.jpg"",""time"":204},{""stimulus"":""img/red_lw/5.jpg"",""time"":251},{""stimulus"":""img/red_lw/6.jpg"",""time"":304},{""stimulus"":""img/red_lw/7.jpg"",""time"":353},{""stimulus"":""img/red_lw/8.jpg"",""time"":405},{""stimulus"":""img/red_lw/9.jpg"",""time"":453},{""stimulus"":""img/red_lw/10.jpg"",""time"":503},{""stimulus"":""img/red_lw/11.jpg"",""time"":555}]","[]"
"image-keyboard-response","33","60408","0.0-5.0-1.14","fertuck1","bdp_lott","Sun Feb 26 2023 12:59:13 GMT-0500 (Eastern Standard Time)","236126","green","red","","715","","","","","","","img/red_lw/choose11.jpg","2","211","red","0.6","0.6","0.6","l","",""
"animation","34","61009","0.0-5.0-2.14","fertuck1","bdp_lott","Sun Feb 26 2023 12:59:13 GMT-0500 (Eastern Standard Time)","236126","green","red","","","","","","","","","","","211","","","","","","[{""stimulus"":""img/red_ll/1.jpg"",""time"":52},{""stimulus"":""img/red_ll/2.jpg"",""time"":104},{""stimulus"":""img/red_ll/3.jpg"",""time"":152},{""stimulus"":""img/red_ll/4.jpg"",""time"":201},{""stimulus"":""img/red_ll/5.jpg"",""time"":253},{""stimulus"":""img/red_ll/6.jpg"",""time"":301},{""stimulus"":""img/red_ll/7.jpg"",""time"":355},{""stimulus"":""img/red_ll/8.jpg"",""time"":403},{""stimulus"":""img/red_ll/9.jpg"",""time"":451},{""stimulus"":""img/red_ll/10.jpg"",""time"":504},{""stimulus"":""img/red_ll/11.jpg"",""time"":552}]","[]"
"image-keyboard-response","35","61765","0.0-5.0-1.15","fertuck1","bdp_lott","Sun Feb 26 2023 12:59:13 GMT-0500 (Eastern Standard Time)","236126","green","red","","755","","","","","","","img/red_ll/choose11.jpg","1","210","green","0.6","0.6","0.6","l","",""
"animation","36","62367","0.0-5.0-2.15","fertuck1","bdp_lott","Sun Feb 26 2023 12:59:13 GMT-0500 (Eastern Standard Time)","236126","green","red","","","","","","","","","","","210","","","","","","[{""stimulus"":""img/green_ll/1.jpg"",""time"":53},{""stimulus"":""img/green_ll/2.jpg"",""time"":101},{""stimulus"":""img/green_ll/3.jpg"",""time"":155},{""stimulus"":""img/green_ll/4.jpg"",""time"":203},{""stimulus"":""img/green_ll/5.jpg"",""time"":252},{""stimulus"":""img/green_ll/6.jpg"",""time"":304},{""stimulus"":""img/green_ll/7.jpg"",""time"":352},{""stimulus"":""img/green_ll/8.jpg"",""time"":401},{""stimulus"":""img/green_ll/9.jpg"",""time"":453},{""stimulus"":""img/green_ll/10.jpg"",""time"":501},{""stimulus"":""img/green_ll/11.jpg"",""time"":555}]","[]"
"image-keyboard-response","37","63090","0.0-5.0-1.16","fertuck1","bdp_lott","Sun Feb 26 2023 12:59:13 GMT-0500 (Eastern Standard Time)","236126","green","red","","721","","","","","","","img/green_ll/choose11.jpg","1","209","green","0.6","0.6","0.6","w","",""
"animation","38","63691","0.0-5.0-2.16","fertuck1","bdp_lott","Sun Feb 26 2023 12:59:13 GMT-0500 (Eastern Standard Time)","236126","green","red","","","","","","","","","","","209","","","","","","[{""stimulus"":""img/green_wl/1.jpg"",""time"":52},{""stimulus"":""img/green_wl/2.jpg"",""time"":104},{""stimulus"":""img/green_wl/3.jpg"",""time"":152},{""stimulus"":""img/green_wl/4.jpg"",""time"":202},{""stimulus"":""img/green_wl/5.jpg"",""time"":254},{""stimulus"":""img/green_wl/6.jpg"",""time"":302},{""stimulus"":""img/green_wl/7.jpg"",""time"":355},{""stimulus"":""img/green_wl/8.jpg"",""time"":403},{""stimulus"":""img/green_wl/9.jpg"",""time"":452},{""stimulus"":""img/green_wl/10.jpg"",""time"":504},{""stimulus"":""img/green_wl/11.jpg"",""time"":552}]","[]"
"image-keyboard-response","39","64233","0.0-5.0-1.17","fertuck1","bdp_lott","Sun Feb 26 2023 12:59:13 GMT-0500 (Eastern Standard Time)","236126","green","red","","540","","","","","","","img/green_wl/choose11.jpg","1","208","green","0.6","0.6","0.6","w","",""
"animation","40","64837","0.0-5.0-2.17","fertuck1","bdp_lott","Sun Feb 26 2023 12:59:13 GMT-0500 (Eastern Standard Time)","236126","green","red","","","","","","","","","","","208","","","","","","[{""stimulus"":""img/green_wl/1.jpg"",""time"":55},{""stimulus"":""img/green_wl/2.jpg"",""time"":103},{""stimulus"":""img/green_wl/3.jpg"",""time"":152},{""stimulus"":""img/green_wl/4.jpg"",""time"":204},{""stimulus"":""img/green_wl/5.jpg"",""time"":252},{""stimulus"":""img/green_wl/6.jpg"",""time"":301},{""stimulus"":""img/green_wl/7.jpg"",""time"":353},{""stimulus"":""img/green_wl/8.jpg"",""time"":403},{""stimulus"":""img/green_wl/9.jpg"",""time"":455},{""stimulus"":""img/green_wl/10.jpg"",""time"":503},{""stimulus"":""img/green_wl/11.jpg"",""time"":552}]","[]"
"image-keyboard-response","41","65257","0.0-5.0-1.18","fertuck1","bdp_lott","Sun Feb 26 2023 12:59:13 GMT-0500 (Eastern Standard Time)","236126","green","red","","419","","","","","","","img/green_wl/choose11.jpg","1","207","green","0.6","0.6","0.6","w","",""
"animation","42","65861","0.0-5.0-2.18","fertuck1","bdp_lott","Sun Feb 26 2023 12:59:13 GMT-0500 (Eastern Standard Time)","236126","green","red","","","","","","","","","","","207","","","","","","[{""stimulus"":""img/green_wl/1.jpg"",""time"":55},{""stimulus"":""img/green_wl/2.jpg"",""time"":103},{""stimulus"":""img/green_wl/3.jpg"",""time"":152},{""stimulus"":""img/green_wl/4.jpg"",""time"":204},{""stimulus"":""img/green_wl/5.jpg"",""time"":252},{""stimulus"":""img/green_wl/6.jpg"",""time"":305},{""stimulus"":""img/green_wl/7.jpg"",""time"":353},{""stimulus"":""img/green_wl/8.jpg"",""time"":404},{""stimulus"":""img/green_wl/9.jpg"",""time"":455},{""stimulus"":""img/green_wl/10.jpg"",""time"":505},{""stimulus"":""img/green_wl/11.jpg"",""time"":552}]","[]"
"image-keyboard-response","43","66249","0.0-5.0-1.19","fertuck1","bdp_lott","Sun Feb 26 2023 12:59:13 GMT-0500 (Eastern Standard Time)","236126","green","red","","386","","","","","","","img/green_wl/choose11.jpg","1","206","green","0.6","0.6","0.6","l","",""
"animation","44","66852","0.0-5.0-2.19","fertuck1","bdp_lott","Sun Feb 26 2023 12:59:13 GMT-0500 (Eastern Standard Time)","236126","green","red","","","","","","","","","","","206","","","","","","[{""stimulus"":""img/green_ll/1.jpg"",""time"":55},{""stimulus"":""img/green_ll/2.jpg"",""time"":103},{""stimulus"":""img/green_ll/3.jpg"",""time"":152},{""stimulus"":""img/green_ll/4.jpg"",""time"":204},{""stimulus"":""img/green_ll/5.jpg"",""time"":252},{""stimulus"":""img/green_ll/6.jpg"",""time"":301},{""stimulus"":""img/green_ll/7.jpg"",""time"":353},{""stimulus"":""img/green_ll/8.jpg"",""time"":401},{""stimulus"":""img/green_ll/9.jpg"",""time"":451},{""stimulus"":""img/green_ll/10.jpg"",""time"":503},{""stimulus"":""img/green_ll/11.jpg"",""time"":552}]","[]"
"image-keyboard-response","45","67380","0.0-5.0-1.20","fertuck1","bdp_lott","Sun Feb 26 2023 12:59:13 GMT-0500 (Eastern Standard Time)","236126","green","red","","527","","","","","","","img/green_ll/choose11.jpg","1","205","green","0.6","0.6","0.6","l","",""
"animation","46","67983","0.0-5.0-2.20","fertuck1","bdp_lott","Sun Feb 26 2023 12:59:13 GMT-0500 (Eastern Standard Time)","236126","green","red","","","","","","","","","","","205","","","","","","[{""stimulus"":""img/green_ll/1.jpg"",""time"":54},{""stimulus"":""img/green_ll/2.jpg"",""time"":104},{""stimulus"":""img/green_ll/3.jpg"",""time"":156},{""stimulus"":""img/green_ll/4.jpg"",""time"":204},{""stimulus"":""img/green_ll/5.jpg"",""time"":253},{""stimulus"":""img/green_ll/6.jpg"",""time"":305},{""stimulus"":""img/green_ll/7.jpg"",""time"":353},{""stimulus"":""img/green_ll/8.jpg"",""time"":403},{""stimulus"":""img/green_ll/9.jpg"",""time"":454},{""stimulus"":""img/green_ll/10.jpg"",""time"":504},{""stimulus"":""img/green_ll/11.jpg"",""time"":556}]","[]"
"image-keyboard-response","47","68777","0.0-5.0-1.21","fertuck1","bdp_lott","Sun Feb 26 2023 12:59:13 GMT-0500 (Eastern Standard Time)","236126","green","red","","793","","","","","","","img/green_ll/choose11.jpg","1","204","green","0.6","0.6","0.6","l","",""
"animation","48","69382","0.0-5.0-2.21","fertuck1","bdp_lott","Sun Feb 26 2023 12:59:13 GMT-0500 (Eastern Standard Time)","236126","green","red","","","","","","","","","","","204","","","","","","[{""stimulus"":""img/green_ll/1.jpg"",""time"":55},{""stimulus"":""img/green_ll/2.jpg"",""time"":102},{""stimulus"":""img/green_ll/3.jpg"",""time"":156},{""stimulus"":""img/green_ll/4.jpg"",""time"":206},{""stimulus"":""img/green_ll/5.jpg"",""time"":256},{""stimulus"":""img/green_ll/6.jpg"",""time"":306},{""stimulus"":""img/green_ll/7.jpg"",""time"":356},{""stimulus"":""img/green_ll/8.jpg"",""time"":401},{""stimulus"":""img/green_ll/9.jpg"",""time"":456},{""stimulus"":""img/green_ll/10.jpg"",""time"":502},{""stimulus"":""img/green_ll/11.jpg"",""time"":556}]","[]"
"image-keyboard-response","49","70186","0.0-5.0-1.22","fertuck1","bdp_lott","Sun Feb 26 2023 12:59:13 GMT-0500 (Eastern Standard Time)","236126","green","red","","803","","","","","","","img/green_ll/choose11.jpg","1","203","green","0.6","0.6","0.6","l","",""
"animation","50","70791","0.0-5.0-2.22","fertuck1","bdp_lott","Sun Feb 26 2023 12:59:13 GMT-0500 (Eastern Standard Time)","236126","green","red","","","","","","","","","","","203","","","","","","[{""stimulus"":""img/green_ll/1.jpg"",""time"":53},{""stimulus"":""img/green_ll/2.jpg"",""time"":105},{""stimulus"":""img/green_ll/3.jpg"",""time"":155},{""stimulus"":""img/green_ll/4.jpg"",""time"":205},{""stimulus"":""img/green_ll/5.jpg"",""time"":255},{""stimulus"":""img/green_ll/6.jpg"",""time"":305},{""stimulus"":""img/green_ll/7.jpg"",""time"":355},{""stimulus"":""img/green_ll/8.jpg"",""time"":405},{""stimulus"":""img/green_ll/9.jpg"",""time"":455},{""stimulus"":""img/green_ll/10.jpg"",""time"":505},{""stimulus"":""img/green_ll/11.jpg"",""time"":555}]","[]"
"image-keyboard-response","51","71562","0.0-5.0-1.23","fertuck1","bdp_lott","Sun Feb 26 2023 12:59:13 GMT-0500 (Eastern Standard Time)","236126","green","red","","769","","","","","","","img/green_ll/choose11.jpg","1","202","green","0.6","0.6","0.6","l","",""
"animation","52","72166","0.0-5.0-2.23","fertuck1","bdp_lott","Sun Feb 26 2023 12:59:13 GMT-0500 (Eastern Standard Time)","236126","green","red","","","","","","","","","","","202","","","","","","[{""stimulus"":""img/green_ll/1.jpg"",""time"":54},{""stimulus"":""img/green_ll/2.jpg"",""time"":104},{""stimulus"":""img/green_ll/3.jpg"",""time"":152},{""stimulus"":""img/green_ll/4.jpg"",""time"":204},{""stimulus"":""img/green_ll/5.jpg"",""time"":254},{""stimulus"":""img/green_ll/6.jpg"",""time"":304},{""stimulus"":""img/green_ll/7.jpg"",""time"":354},{""stimulus"":""img/green_ll/8.jpg"",""time"":405},{""stimulus"":""img/green_ll/9.jpg"",""time"":455},{""stimulus"":""img/green_ll/10.jpg"",""time"":504},{""stimulus"":""img/green_ll/11.jpg"",""time"":555}]","[]"
"image-keyboard-response","53","73444","0.0-5.0-1.24","fertuck1","bdp_lott","Sun Feb 26 2023 12:59:13 GMT-0500 (Eastern Standard Time)","236126","green","red","","1277","","","","","","","img/green_ll/choose11.jpg","2","201","red","0.6","0.6","0.6","l","",""
"animation","54","74049","0.0-5.0-2.24","fertuck1","bdp_lott","Sun Feb 26 2023 12:59:13 GMT-0500 (Eastern Standard Time)","236126","green","red","","","","","","","","","","","201","","","","","","[{""stimulus"":""img/red_ll/1.jpg"",""time"":53},{""stimulus"":""img/red_ll/2.jpg"",""time"":101},{""stimulus"":""img/red_ll/3.jpg"",""time"":154},{""stimulus"":""img/red_ll/4.jpg"",""time"":204},{""stimulus"":""img/red_ll/5.jpg"",""time"":250},{""stimulus"":""img/red_ll/6.jpg"",""time"":305},{""stimulus"":""img/red_ll/7.jpg"",""time"":355},{""stimulus"":""img/red_ll/8.jpg"",""time"":405},{""stimulus"":""img/red_ll/9.jpg"",""time"":454},{""stimulus"":""img/red_ll/10.jpg"",""time"":501},{""stimulus"":""img/red_ll/11.jpg"",""time"":555}]","[]"
"image-keyboard-response","55","75049","0.0-5.0-1.25","fertuck1","bdp_lott","Sun Feb 26 2023 12:59:13 GMT-0500 (Eastern Standard Time)","236126","green","red","","999","","","","","","","img/red_ll/choose11.jpg","2","200","red","0.6","0.6","0.6","l","",""
"animation","56","75652","0.0-5.0-2.25","fertuck1","bdp_lott","Sun Feb 26 2023 12:59:13 GMT-0500 (Eastern Standard Time)","236126","green","red","","","","","","","","","","","200","","","","","","[{""stimulus"":""img/red_ll/1.jpg"",""time"":53},{""stimulus"":""img/red_ll/2.jpg"",""time"":101},{""stimulus"":""img/red_ll/3.jpg"",""time"":151},{""stimulus"":""img/red_ll/4.jpg"",""time"":203},{""stimulus"":""img/red_ll/5.jpg"",""time"":251},{""stimulus"":""img/red_ll/6.jpg"",""time"":304},{""stimulus"":""img/red_ll/7.jpg"",""time"":352},{""stimulus"":""img/red_ll/8.jpg"",""time"":401},{""stimulus"":""img/red_ll/9.jpg"",""time"":453},{""stimulus"":""img/red_ll/10.jpg"",""time"":501},{""stimulus"":""img/red_ll/11.jpg"",""time"":551}]","[]"
"image-keyboard-response","57","76277","0.0-5.0-1.26","fertuck1","bdp_lott","Sun Feb 26 2023 12:59:13 GMT-0500 (Eastern Standard Time)","236126","green","red","","624","","","","","","","img/red_ll/choose11.jpg","2","199","red","0.6","0.6","0.6","l","",""
"animation","58","76882","0.0-5.0-2.26","fertuck1","bdp_lott","Sun Feb 26 2023 12:59:13 GMT-0500 (Eastern Standard Time)","236126","green","red","","","","","","","","","","","199","","","","","","[{""stimulus"":""img/red_ll/1.jpg"",""time"":53},{""stimulus"":""img/red_ll/2.jpg"",""time"":101},{""stimulus"":""img/red_ll/3.jpg"",""time"":155},{""stimulus"":""img/red_ll/4.jpg"",""time"":206},{""stimulus"":""img/red_ll/5.jpg"",""time"":256},{""stimulus"":""img/red_ll/6.jpg"",""time"":306},{""stimulus"":""img/red_ll/7.jpg"",""time"":356},{""stimulus"":""img/red_ll/8.jpg"",""time"":406},{""stimulus"":""img/red_ll/9.jpg"",""time"":456},{""stimulus"":""img/red_ll/10.jpg"",""time"":502},{""stimulus"":""img/red_ll/11.jpg"",""time"":556}]","[]"
"image-keyboard-response","59","77517","0.0-5.0-1.27","fertuck1","bdp_lott","Sun Feb 26 2023 12:59:13 GMT-0500 (Eastern Standard Time)","236126","green","red","","633","","","","","","","img/red_ll/choose11.jpg","2","198","red","0.6","0.6","0.6","w","",""
"animation","60","78117","0.0-5.0-2.27","fertuck1","bdp_lott","Sun Feb 26 2023 12:59:13 GMT-0500 (Eastern Standard Time)","236126","green","red","","","","","","","","","","","198","","","","","","[{""stimulus"":""img/red_lw/1.jpg"",""time"":52},{""stimulus"":""img/red_lw/2.jpg"",""time"":104},{""stimulus"":""img/red_lw/3.jpg"",""time"":151},{""stimulus"":""img/red_lw/4.jpg"",""time"":201},{""stimulus"":""img/red_lw/5.jpg"",""time"":252},{""stimulus"":""img/red_lw/6.jpg"",""time"":301},{""stimulus"":""img/red_lw/7.jpg"",""time"":354},{""stimulus"":""img/red_lw/8.jpg"",""time"":402},{""stimulus"":""img/red_lw/9.jpg"",""time"":456},{""stimulus"":""img/red_lw/10.jpg"",""time"":504},{""stimulus"":""img/red_lw/11.jpg"",""time"":555}]","[]"
"image-keyboard-response","61","81069","0.0-5.0-1.28","fertuck1","bdp_lott","Sun Feb 26 2023 12:59:13 GMT-0500 (Eastern Standard Time)","236126","green","red","","2950","","","","","","","img/red_lw/choose11.jpg","2","197","red","0.6","0.6","0.6","l","",""
"animation","62","81675","0.0-5.0-2.28","fertuck1","bdp_lott","Sun Feb 26 2023 12:59:13 GMT-0500 (Eastern Standard Time)","236126","green","red","","","","","","","","","","","197","","","","","","[{""stimulus"":""img/red_ll/1.jpg"",""time"":55},{""stimulus"":""img/red_ll/2.jpg"",""time"":103},{""stimulus"":""img/red_ll/3.jpg"",""time"":155},{""stimulus"":""img/red_ll/4.jpg"",""time"":205},{""stimulus"":""img/red_ll/5.jpg"",""time"":251},{""stimulus"":""img/red_ll/6.jpg"",""time"":305},{""stimulus"":""img/red_ll/7.jpg"",""time"":355},{""stimulus"":""img/red_ll/8.jpg"",""time"":405},{""stimulus"":""img/red_ll/9.jpg"",""time"":455},{""stimulus"":""img/red_ll/10.jpg"",""time"":502},{""stimulus"":""img/red_ll/11.jpg"",""time"":555}]","[]"
"image-keyboard-response","63","82158","0.0-5.0-1.29","fertuck1","bdp_lott","Sun Feb 26 2023 12:59:13 GMT-0500 (Eastern Standard Time)","236126","green","red","","482","","","","","","","img/red_ll/choose11.jpg","2","196","red","0.6","0.6","0.6","l","",""
"animation","64","82761","0.0-5.0-2.29","fertuck1","bdp_lott","Sun Feb 26 2023 12:59:13 GMT-0500 (Eastern Standard Time)","236126","green","red","","","","","","","","","","","196","","","","","","[{""stimulus"":""img/red_ll/1.jpg"",""time"":53},{""stimulus"":""img/red_ll/2.jpg"",""time"":101},{""stimulus"":""img/red_ll/3.jpg"",""time"":155},{""stimulus"":""img/red_ll/4.jpg"",""time"":203},{""stimulus"":""img/red_ll/5.jpg"",""time"":251},{""stimulus"":""img/red_ll/6.jpg"",""time"":304},{""stimulus"":""img/red_ll/7.jpg"",""time"":354},{""stimulus"":""img/red_ll/8.jpg"",""time"":401},{""stimulus"":""img/red_ll/9.jpg"",""time"":453},{""stimulus"":""img/red_ll/10.jpg"",""time"":501},{""stimulus"":""img/red_ll/11.jpg"",""time"":550}]","[]"
"image-keyboard-response","65","83470","0.0-5.0-1.30","fertuck1","bdp_lott","Sun Feb 26 2023 12:59:13 GMT-0500 (Eastern Standard Time)","236126","green","red","","709","","","","","","","img/red_ll/choose11.jpg","2","195","red","0.6","0.6","0.6","w","",""
"animation","66","84075","0.0-5.0-2.30","fertuck1","bdp_lott","Sun Feb 26 2023 12:59:13 GMT-0500 (Eastern Standard Time)","236126","green","red","","","","","","","","","","","195","","","","","","[{""stimulus"":""img/red_lw/1.jpg"",""time"":54},{""stimulus"":""img/red_lw/2.jpg"",""time"":105},{""stimulus"":""img/red_lw/3.jpg"",""time"":152},{""stimulus"":""img/red_lw/4.jpg"",""time"":205},{""stimulus"":""img/red_lw/5.jpg"",""time"":255},{""stimulus"":""img/red_lw/6.jpg"",""time"":305},{""stimulus"":""img/red_lw/7.jpg"",""time"":355},{""stimulus"":""img/red_lw/8.jpg"",""time"":405},{""stimulus"":""img/red_lw/9.jpg"",""time"":456},{""stimulus"":""img/red_lw/10.jpg"",""time"":505},{""stimulus"":""img/red_lw/11.jpg"",""time"":556}]","[]"
"image-keyboard-response","67","85137","0.0-5.0-1.31","fertuck1","bdp_lott","Sun Feb 26 2023 12:59:13 GMT-0500 (Eastern Standard Time)","236126","green","red","","1061","","","","","","","img/red_lw/choose11.jpg","1","194","green","0.6","0.6","0.6","l","",""
"animation","68","85743","0.0-5.0-2.31","fertuck1","bdp_lott","Sun Feb 26 2023 12:59:13 GMT-0500 (Eastern Standard Time)","236126","green","red","","","","","","","","","","","194","","","","","","[{""stimulus"":""img/green_lw/1.jpg"",""time"":51},{""stimulus"":""img/green_lw/2.jpg"",""time"":104},{""stimulus"":""img/green_lw/3.jpg"",""time"":154},{""stimulus"":""img/green_lw/4.jpg"",""time"":206},{""stimulus"":""img/green_lw/5.jpg"",""time"":251},{""stimulus"":""img/green_lw/6.jpg"",""time"":304},{""stimulus"":""img/green_lw/7.jpg"",""time"":355},{""stimulus"":""img/green_lw/8.jpg"",""time"":405},{""stimulus"":""img/green_lw/9.jpg"",""time"":454},{""stimulus"":""img/green_lw/10.jpg"",""time"":504},{""stimulus"":""img/green_lw/11.jpg"",""time"":554}]","[]"
"image-keyboard-response","69","86223","0.0-5.0-1.32","fertuck1","bdp_lott","Sun Feb 26 2023 12:59:13 GMT-0500 (Eastern Standard Time)","236126","green","red","","479","","","","","","","img/green_lw/choose11.jpg","1","193","green","0.6","0.6","0.6","w","",""
"animation","70","86825","0.0-5.0-2.32","fertuck1","bdp_lott","Sun Feb 26 2023 12:59:13 GMT-0500 (Eastern Standard Time)","236126","green","red","","","","","","","","","","","193","","","","","","[{""stimulus"":""img/green_ww/1.jpg"",""time"":53},{""stimulus"":""img/green_ww/2.jpg"",""time"":102},{""stimulus"":""img/green_ww/3.jpg"",""time"":155},{""stimulus"":""img/green_ww/4.jpg"",""time"":203},{""stimulus"":""img/green_ww/5.jpg"",""time"":252},{""stimulus"":""img/green_ww/6.jpg"",""time"":304},{""stimulus"":""img/green_ww/7.jpg"",""time"":352},{""stimulus"":""img/green_ww/8.jpg"",""time"":405},{""stimulus"":""img/green_ww/9.jpg"",""time"":453},{""stimulus"":""img/green_ww/10.jpg"",""time"":501},{""stimulus"":""img/green_ww/11.jpg"",""time"":554}]","[]"
"image-keyboard-response","71","87310","0.0-5.0-1.33","fertuck1","bdp_lott","Sun Feb 26 2023 12:59:13 GMT-0500 (Eastern Standard Time)","236126","green","red","","484","","","","","","","img/green_ww/choose11.jpg","1","192","green","0.6","0.6","0.6","w","",""
"animation","72","87913","0.0-5.0-2.33","fertuck1","bdp_lott","Sun Feb 26 2023 12:59:13 GMT-0500 (Eastern Standard Time)","236126","green","red","","","","","","","","","","","192","","","","","","[{""stimulus"":""img/green_ww/1.jpg"",""time"":54},{""stimulus"":""img/green_ww/2.jpg"",""time"":102},{""stimulus"":""img/green_ww/3.jpg"",""time"":151},{""stimulus"":""img/green_ww/4.jpg"",""time"":204},{""stimulus"":""img/green_ww/5.jpg"",""time"":252},{""stimulus"":""img/green_ww/6.jpg"",""time"":301},{""stimulus"":""img/green_ww/7.jpg"",""time"":353},{""stimulus"":""img/green_ww/8.jpg"",""time"":401},{""stimulus"":""img/green_ww/9.jpg"",""time"":454},{""stimulus"":""img/green_ww/10.jpg"",""time"":502},{""stimulus"":""img/green_ww/11.jpg"",""time"":556}]","[]"
"image-keyboard-response","73","88442","0.0-5.0-1.34","fertuck1","bdp_lott","Sun Feb 26 2023 12:59:13 GMT-0500 (Eastern Standard Time)","236126","green","red","","528","","","","","","","img/green_ww/choose11.jpg","1","191","green","0.6","0.6","0.6","l","",""
"animation","74","89044","0.0-5.0-2.34","fertuck1","bdp_lott","Sun Feb 26 2023 12:59:13 GMT-0500 (Eastern Standard Time)","236126","green","red","","","","","","","","","","","191","","","","","","[{""stimulus"":""img/green_lw/1.jpg"",""time"":53},{""stimulus"":""img/green_lw/2.jpg"",""time"":101},{""stimulus"":""img/green_lw/3.jpg"",""time"":154},{""stimulus"":""img/green_lw/4.jpg"",""time"":202},{""stimulus"":""img/green_lw/5.jpg"",""time"":251},{""stimulus"":""img/green_lw/6.jpg"",""time"":303},{""stimulus"":""img/green_lw/7.jpg"",""time"":351},{""stimulus"":""img/green_lw/8.jpg"",""time"":405},{""stimulus"":""img/green_lw/9.jpg"",""time"":453},{""stimulus"":""img/green_lw/10.jpg"",""time"":501},{""stimulus"":""img/green_lw/11.jpg"",""time"":554}]","[]"
"image-keyboard-response","75","89760","0.0-5.0-1.35","fertuck1","bdp_lott","Sun Feb 26 2023 12:59:13 GMT-0500 (Eastern Standard Time)","236126","green","red","","715","","","","","","","img/green_lw/choose11.jpg","1","190","green","0.6","0.6","0.6","l","",""
"animation","76","90361","0.0-5.0-2.35","fertuck1","bdp_lott","Sun Feb 26 2023 12:59:13 GMT-0500 (Eastern Standard Time)","236126","green","red","","","","","","","","","","","190","","","","","","[{""stimulus"":""img/green_lw/1.jpg"",""time"":52},{""stimulus"":""img/green_lw/2.jpg"",""time"":101},{""stimulus"":""img/green_lw/3.jpg"",""time"":153},{""stimulus"":""img/green_lw/4.jpg"",""time"":201},{""stimulus"":""img/green_lw/5.jpg"",""time"":255},{""stimulus"":""img/green_lw/6.jpg"",""time"":303},{""stimulus"":""img/green_lw/7.jpg"",""time"":352},{""stimulus"":""img/green_lw/8.jpg"",""time"":404},{""stimulus"":""img/green_lw/9.jpg"",""time"":452},{""stimulus"":""img/green_lw/10.jpg"",""time"":501},{""stimulus"":""img/green_lw/11.jpg"",""time"":553}]","[]"
"image-keyboard-response","77","91268","0.0-5.0-1.36","fertuck1","bdp_lott","Sun Feb 26 2023 12:59:13 GMT-0500 (Eastern Standard Time)","236126","green","red","","906","","","","","","","img/green_lw/choose11.jpg","1","189","green","0.6","0.6","0.6","l","",""
"animation","78","91870","0.0-5.0-2.36","fertuck1","bdp_lott","Sun Feb 26 2023 12:59:13 GMT-0500 (Eastern Standard Time)","236126","green","red","","","","","","","","","","","189","","","","","","[{""stimulus"":""img/green_lw/1.jpg"",""time"":52},{""stimulus"":""img/green_lw/2.jpg"",""time"":100},{""stimulus"":""img/green_lw/3.jpg"",""time"":154},{""stimulus"":""img/green_lw/4.jpg"",""time"":202},{""stimulus"":""img/green_lw/5.jpg"",""time"":251},{""stimulus"":""img/green_lw/6.jpg"",""time"":303},{""stimulus"":""img/green_lw/7.jpg"",""time"":351},{""stimulus"":""img/green_lw/8.jpg"",""time"":400},{""stimulus"":""img/green_lw/9.jpg"",""time"":452},{""stimulus"":""img/green_lw/10.jpg"",""time"":500},{""stimulus"":""img/green_lw/11.jpg"",""time"":554}]","[]"
"image-keyboard-response","79","92807","0.0-5.0-1.37","fertuck1","bdp_lott","Sun Feb 26 2023 12:59:13 GMT-0500 (Eastern Standard Time)","236126","green","red","","936","","","","","","","img/green_lw/choose11.jpg","1","188","green","0.6","0.6","0.6","w","",""
"animation","80","93412","0.0-5.0-2.37","fertuck1","bdp_lott","Sun Feb 26 2023 12:59:13 GMT-0500 (Eastern Standard Time)","236126","green","red","","","","","","","","","","","188","","","","","","[{""stimulus"":""img/green_ww/1.jpg"",""time"":52},{""stimulus"":""img/green_ww/2.jpg"",""time"":104},{""stimulus"":""img/green_ww/3.jpg"",""time"":151},{""stimulus"":""img/green_ww/4.jpg"",""time"":205},{""stimulus"":""img/green_ww/5.jpg"",""time"":253},{""stimulus"":""img/green_ww/6.jpg"",""time"":302},{""stimulus"":""img/green_ww/7.jpg"",""time"":354},{""stimulus"":""img/green_ww/8.jpg"",""time"":402},{""stimulus"":""img/green_ww/9.jpg"",""time"":451},{""stimulus"":""img/green_ww/10.jpg"",""time"":504},{""stimulus"":""img/green_ww/11.jpg"",""time"":552}]","[]"
"image-keyboard-response","81","93951","0.0-5.0-1.38","fertuck1","bdp_lott","Sun Feb 26 2023 12:59:13 GMT-0500 (Eastern Standard Time)","236126","green","red","","538","","","","","","","img/green_ww/choose11.jpg","1","187","green","0.6","0.6","0.6","w","",""
"animation","82","94553","0.0-5.0-2.38","fertuck1","bdp_lott","Sun Feb 26 2023 12:59:13 GMT-0500 (Eastern Standard Time)","236126","green","red","","","","","","","","","","","187","","","","","","[{""stimulus"":""img/green_ww/1.jpg"",""time"":52},{""stimulus"":""img/green_ww/2.jpg"",""time"":100},{""stimulus"":""img/green_ww/3.jpg"",""time"":153},{""stimulus"":""img/green_ww/4.jpg"",""time"":201},{""stimulus"":""img/green_ww/5.jpg"",""time"":250},{""stimulus"":""img/green_ww/6.jpg"",""time"":302},{""stimulus"":""img/green_ww/7.jpg"",""time"":350},{""stimulus"":""img/green_ww/8.jpg"",""time"":404},{""stimulus"":""img/green_ww/9.jpg"",""time"":452},{""stimulus"":""img/green_ww/10.jpg"",""time"":501},{""stimulus"":""img/green_ww/11.jpg"",""time"":553}]","[]"
"image-keyboard-response","83","95016","0.0-5.0-1.39","fertuck1","bdp_lott","Sun Feb 26 2023 12:59:13 GMT-0500 (Eastern Standard Time)","236126","green","red","","461","","","","","","","img/green_ww/choose11.jpg","1","186","green","0.6","0.6","0.6","w","",""
"animation","84","95619","0.0-5.0-2.39","fertuck1","bdp_lott","Sun Feb 26 2023 12:59:13 GMT-0500 (Eastern Standard Time)","236126","green","red","","","","","","","","","","","186","","","","","","[{""stimulus"":""img/green_ww/1.jpg"",""time"":55},{""stimulus"":""img/green_ww/2.jpg"",""time"":102},{""stimulus"":""img/green_ww/3.jpg"",""time"":152},{""stimulus"":""img/green_ww/4.jpg"",""time"":201},{""stimulus"":""img/green_ww/5.jpg"",""time"":252},{""stimulus"":""img/green_ww/6.jpg"",""time"":301},{""stimulus"":""img/green_ww/7.jpg"",""time"":353},{""stimulus"":""img/green_ww/8.jpg"",""time"":401},{""stimulus"":""img/green_ww/9.jpg"",""time"":455},{""stimulus"":""img/green_ww/10.jpg"",""time"":503},{""stimulus"":""img/green_ww/11.jpg"",""time"":552}]","[]"
"image-keyboard-response","85","96006","0.0-5.0-1.40","fertuck1","bdp_lott","Sun Feb 26 2023 12:59:13 GMT-0500 (Eastern Standard Time)","236126","green","red","","385","","","","","","","img/green_ww/choose11.jpg","1","185","green","0.6","0.6","0.6","l","",""
"animation","86","96611","0.0-5.0-2.40","fertuck1","bdp_lott","Sun Feb 26 2023 12:59:13 GMT-0500 (Eastern Standard Time)","236126","green","red","","","","","","","","","","","185","","","","","","[{""stimulus"":""img/green_lw/1.jpg"",""time"":51},{""stimulus"":""img/green_lw/2.jpg"",""time"":105},{""stimulus"":""img/green_lw/3.jpg"",""time"":152},{""stimulus"":""img/green_lw/4.jpg"",""time"":206},{""stimulus"":""img/green_lw/5.jpg"",""time"":254},{""stimulus"":""img/green_lw/6.jpg"",""time"":303},{""stimulus"":""img/green_lw/7.jpg"",""time"":355},{""stimulus"":""img/green_lw/8.jpg"",""time"":403},{""stimulus"":""img/green_lw/9.jpg"",""time"":452},{""stimulus"":""img/green_lw/10.jpg"",""time"":504},{""stimulus"":""img/green_lw/11.jpg"",""time"":552}]","[]"
"image-keyboard-response","87","97060","0.0-5.0-1.41","fertuck1","bdp_lott","Sun Feb 26 2023 12:59:13 GMT-0500 (Eastern Standard Time)","236126","green","red","","447","","","","","","","img/green_lw/choose11.jpg","1","184","green","0.6","0.6","0.6","w","",""
"animation","88","97662","0.0-5.0-2.41","fertuck1","bdp_lott","Sun Feb 26 2023 12:59:13 GMT-0500 (Eastern Standard Time)","236126","green","red","","","","","","","","","","","184","","","","","","[{""stimulus"":""img/green_ww/1.jpg"",""time"":53},{""stimulus"":""img/green_ww/2.jpg"",""time"":102},{""stimulus"":""img/green_ww/3.jpg"",""time"":154},{""stimulus"":""img/green_ww/4.jpg"",""time"":204},{""stimulus"":""img/green_ww/5.jpg"",""time"":252},{""stimulus"":""img/green_ww/6.jpg"",""time"":304},{""stimulus"":""img/green_ww/7.jpg"",""time"":352},{""stimulus"":""img/green_ww/8.jpg"",""time"":405},{""stimulus"":""img/green_ww/9.jpg"",""time"":453},{""stimulus"":""img/green_ww/10.jpg"",""time"":501},{""stimulus"":""img/green_ww/11.jpg"",""time"":554}]","[]"
"image-keyboard-response","89","98324","0.0-5.0-1.42","fertuck1","bdp_lott","Sun Feb 26 2023 12:59:13 GMT-0500 (Eastern Standard Time)","236126","green","red","","660","","","","","","","img/green_ww/choose11.jpg","1","183","green","0.6","0.6","0.6","l","",""
"animation","90","98926","0.0-5.0-2.42","fertuck1","bdp_lott","Sun Feb 26 2023 12:59:13 GMT-0500 (Eastern Standard Time)","236126","green","red","","","","","","","","","","","183","","","","","","[{""stimulus"":""img/green_lw/1.jpg"",""time"":53},{""stimulus"":""img/green_lw/2.jpg"",""time"":105},{""stimulus"":""img/green_lw/3.jpg"",""time"":154},{""stimulus"":""img/green_lw/4.jpg"",""time"":202},{""stimulus"":""img/green_lw/5.jpg"",""time"":252},{""stimulus"":""img/green_lw/6.jpg"",""time"":304},{""stimulus"":""img/green_lw/7.jpg"",""time"":352},{""stimulus"":""img/green_lw/8.jpg"",""time"":405},{""stimulus"":""img/green_lw/9.jpg"",""time"":453},{""stimulus"":""img/green_lw/10.jpg"",""time"":501},{""stimulus"":""img/green_lw/11.jpg"",""time"":554}]","[]"
"image-keyboard-response","91","99482","0.0-5.0-1.43","fertuck1","bdp_lott","Sun Feb 26 2023 12:59:13 GMT-0500 (Eastern Standard Time)","236126","green","red","","555","","","","","","","img/green_lw/choose11.jpg","1","182","green","0.6","0.6","0.6","w","",""
"animation","92","100083","0.0-5.0-2.43","fertuck1","bdp_lott","Sun Feb 26 2023 12:59:13 GMT-0500 (Eastern Standard Time)","236126","green","red","","","","","","","","","","","182","","","","","","[{""stimulus"":""img/green_ww/1.jpg"",""time"":52},{""stimulus"":""img/green_ww/2.jpg"",""time"":102},{""stimulus"":""img/green_ww/3.jpg"",""time"":154},{""stimulus"":""img/green_ww/4.jpg"",""time"":202},{""stimulus"":""img/green_ww/5.jpg"",""time"":251},{""stimulus"":""img/green_ww/6.jpg"",""time"":303},{""stimulus"":""img/green_ww/7.jpg"",""time"":351},{""stimulus"":""img/green_ww/8.jpg"",""time"":404},{""stimulus"":""img/green_ww/9.jpg"",""time"":452},{""stimulus"":""img/green_ww/10.jpg"",""time"":502},{""stimulus"":""img/green_ww/11.jpg"",""time"":554}]","[]"
"image-keyboard-response","93","100383","0.0-5.0-1.44","fertuck1","bdp_lott","Sun Feb 26 2023 12:59:13 GMT-0500 (Eastern Standard Time)","236126","green","red","","298","","","","","","","img/green_ww/choose11.jpg","1","181","green","0.6","0.6","0.6","l","",""
"animation","94","100984","0.0-5.0-2.44","fertuck1","bdp_lott","Sun Feb 26 2023 12:59:13 GMT-0500 (Eastern Standard Time)","236126","green","red","","","","","","","","","","","181","","","","","","[{""stimulus"":""img/green_lw/1.jpg"",""time"":53},{""stimulus"":""img/green_lw/2.jpg"",""time"":101},{""stimulus"":""img/green_lw/3.jpg"",""time"":154},{""stimulus"":""img/green_lw/4.jpg"",""time"":202},{""stimulus"":""img/green_lw/5.jpg"",""time"":251},{""stimulus"":""img/green_lw/6.jpg"",""time"":303},{""stimulus"":""img/green_lw/7.jpg"",""time"":351},{""stimulus"":""img/green_lw/8.jpg"",""time"":400},{""stimulus"":""img/green_lw/9.jpg"",""time"":453},{""stimulus"":""img/green_lw/10.jpg"",""time"":501},{""stimulus"":""img/green_lw/11.jpg"",""time"":554}]","[]"
"image-keyboard-response","95","101314","0.0-5.0-1.45","fertuck1","bdp_lott","Sun Feb 26 2023 12:59:13 GMT-0500 (Eastern Standard Time)","236126","green","red","","329","","","","","","","img/green_lw/choose11.jpg","1","180","green","0.6","0.6","0.6","w","",""
"animation","96","101918","0.0-5.0-2.45","fertuck1","bdp_lott","Sun Feb 26 2023 12:59:13 GMT-0500 (Eastern Standard Time)","236126","green","red","","","","","","","","","","","180","","","","","","[{""stimulus"":""img/green_ww/1.jpg"",""time"":51},{""stimulus"":""img/green_ww/2.jpg"",""time"":103},{""stimulus"":""img/green_ww/3.jpg"",""time"":152},{""stimulus"":""img/green_ww/4.jpg"",""time"":204},{""stimulus"":""img/green_ww/5.jpg"",""time"":254},{""stimulus"":""img/green_ww/6.jpg"",""time"":306},{""stimulus"":""img/green_ww/7.jpg"",""time"":354},{""stimulus"":""img/green_ww/8.jpg"",""time"":403},{""stimulus"":""img/green_ww/9.jpg"",""time"":455},{""stimulus"":""img/green_ww/10.jpg"",""time"":503},{""stimulus"":""img/green_ww/11.jpg"",""time"":552}]","[]"
"image-keyboard-response","97","102220","0.0-5.0-1.46","fertuck1","bdp_lott","Sun Feb 26 2023 12:59:13 GMT-0500 (Eastern Standard Time)","236126","green","red","","301","","","","","","","img/green_ww/choose11.jpg","1","179","green","0.6","0.6","0.6","w","",""
"animation","98","102824","0.0-5.0-2.46","fertuck1","bdp_lott","Sun Feb 26 2023 12:59:13 GMT-0500 (Eastern Standard Time)","236126","green","red","","","","","","","","","","","179","","","","","","[{""stimulus"":""img/green_ww/1.jpg"",""time"":52},{""stimulus"":""img/green_ww/2.jpg"",""time"":105},{""stimulus"":""img/green_ww/3.jpg"",""time"":155},{""stimulus"":""img/green_ww/4.jpg"",""time"":205},{""stimulus"":""img/green_ww/5.jpg"",""time"":255},{""stimulus"":""img/green_ww/6.jpg"",""time"":305},{""stimulus"":""img/green_ww/7.jpg"",""time"":355},{""stimulus"":""img/green_ww/8.jpg"",""time"":405},{""stimulus"":""img/green_ww/9.jpg"",""time"":455},{""stimulus"":""img/green_ww/10.jpg"",""time"":505},{""stimulus"":""img/green_ww/11.jpg"",""time"":555}]","[]"
"image-keyboard-response","99","103117","0.0-5.0-1.47","fertuck1","bdp_lott","Sun Feb 26 2023 12:59:13 GMT-0500 (Eastern Standard Time)","236126","green","red","","292","","","","","","","img/green_ww/choose11.jpg","1","178","green","0.6","0.6","0.6","w","",""
"animation","100","103720","0.0-5.0-2.47","fertuck1","bdp_lott","Sun Feb 26 2023 12:59:13 GMT-0500 (Eastern Standard Time)","236126","green","red","","","","","","","","","","","178","","","","","","[{""stimulus"":""img/green_ww/1.jpg"",""time"":54},{""stimulus"":""img/green_ww/2.jpg"",""time"":101},{""stimulus"":""img/green_ww/3.jpg"",""time"":151},{""stimulus"":""img/green_ww/4.jpg"",""time"":203},{""stimulus"":""img/green_ww/5.jpg"",""time"":251},{""stimulus"":""img/green_ww/6.jpg"",""time"":304},{""stimulus"":""img/green_ww/7.jpg"",""time"":352},{""stimulus"":""img/green_ww/8.jpg"",""time"":401},{""stimulus"":""img/green_ww/9.jpg"",""time"":453},{""stimulus"":""img/green_ww/10.jpg"",""time"":501},{""stimulus"":""img/green_ww/11.jpg"",""time"":551}]","[]"
"image-keyboard-response","101","104001","0.0-5.0-1.48","fertuck1","bdp_lott","Sun Feb 26 2023 12:59:13 GMT-0500 (Eastern Standard Time)","236126","green","red","","280","","","","","","","img/green_ww/choose11.jpg","1","177","green","0.6","0.6","0.6","w","",""
"animation","102","104606","0.0-5.0-2.48","fertuck1","bdp_lott","Sun Feb 26 2023 12:59:13 GMT-0500 (Eastern Standard Time)","236126","green","red","","","","","","","","","","","177","","","","","","[{""stimulus"":""img/green_ww/1.jpg"",""time"":51},{""stimulus"":""img/green_ww/2.jpg"",""time"":103},{""stimulus"":""img/green_ww/3.jpg"",""time"":151},{""stimulus"":""img/green_ww/4.jpg"",""time"":204},{""stimulus"":""img/green_ww/5.jpg"",""time"":252},{""stimulus"":""img/green_ww/6.jpg"",""time"":301},{""stimulus"":""img/green_ww/7.jpg"",""time"":353},{""stimulus"":""img/green_ww/8.jpg"",""time"":401},{""stimulus"":""img/green_ww/9.jpg"",""time"":451},{""stimulus"":""img/green_ww/10.jpg"",""time"":503},{""stimulus"":""img/green_ww/11.jpg"",""time"":550}]","[]"
"image-keyboard-response","103","104761","0.0-5.0-1.49","fertuck1","bdp_lott","Sun Feb 26 2023 12:59:13 GMT-0500 (Eastern Standard Time)","236126","green","red","","154","","","","","","","img/green_ww/choose11.jpg","1","176","green","0.6","0.6","0.6","l","",""
"animation","104","105366","0.0-5.0-2.49","fertuck1","bdp_lott","Sun Feb 26 2023 12:59:13 GMT-0500 (Eastern Standard Time)","236126","green","red","","","","","","","","","","","176","","","","","","[{""stimulus"":""img/green_lw/1.jpg"",""time"":53},{""stimulus"":""img/green_lw/2.jpg"",""time"":101},{""stimulus"":""img/green_lw/3.jpg"",""time"":155},{""stimulus"":""img/green_lw/4.jpg"",""time"":205},{""stimulus"":""img/green_lw/5.jpg"",""time"":250},{""stimulus"":""img/green_lw/6.jpg"",""time"":305},{""stimulus"":""img/green_lw/7.jpg"",""time"":355},{""stimulus"":""img/green_lw/8.jpg"",""time"":405},{""stimulus"":""img/green_lw/9.jpg"",""time"":455},{""stimulus"":""img/green_lw/10.jpg"",""time"":501},{""stimulus"":""img/green_lw/11.jpg"",""time"":555}]","[]"
"image-keyboard-response","105","105524","0.0-5.0-1.50","fertuck1","bdp_lott","Sun Feb 26 2023 12:59:13 GMT-0500 (Eastern Standard Time)","236126","green","red","","156","","","","","","","img/green_lw/choose11.jpg","1","175","green","0.6","0.6","0.6","w","",""
"animation","106","106126","0.0-5.0-2.50","fertuck1","bdp_lott","Sun Feb 26 2023 12:59:13 GMT-0500 (Eastern Standard Time)","236126","green","red","","","","","","","","","","","175","","","","","","[{""stimulus"":""img/green_ww/1.jpg"",""time"":53},{""stimulus"":""img/green_ww/2.jpg"",""time"":101},{""stimulus"":""img/green_ww/3.jpg"",""time"":154},{""stimulus"":""img/green_ww/4.jpg"",""time"":202},{""stimulus"":""img/green_ww/5.jpg"",""time"":251},{""stimulus"":""img/green_ww/6.jpg"",""time"":303},{""stimulus"":""img/green_ww/7.jpg"",""time"":351},{""stimulus"":""img/green_ww/8.jpg"",""time"":401},{""stimulus"":""img/green_ww/9.jpg"",""time"":453},{""stimulus"":""img/green_ww/10.jpg"",""time"":501},{""stimulus"":""img/green_ww/11.jpg"",""time"":554}]","[]"
"image-keyboard-response","107","106271","0.0-5.0-1.51","fertuck1","bdp_lott","Sun Feb 26 2023 12:59:13 GMT-0500 (Eastern Standard Time)","236126","green","red","","143","","","","","","","img/green_ww/choose11.jpg","1","174","green","0.6","0.6","0.6","l","",""
"animation","108","106874","0.0-5.0-2.51","fertuck1","bdp_lott","Sun Feb 26 2023 12:59:13 GMT-0500 (Eastern Standard Time)","236126","green","red","","","","","","","","","","","174","","","","","","[{""stimulus"":""img/green_lw/1.jpg"",""time"":52},{""stimulus"":""img/green_lw/2.jpg"",""time"":104},{""stimulus"":""img/green_lw/3.jpg"",""time"":152},{""stimulus"":""img/green_lw/4.jpg"",""time"":204},{""stimulus"":""img/green_lw/5.jpg"",""time"":255},{""stimulus"":""img/green_lw/6.jpg"",""time"":304},{""stimulus"":""img/green_lw/7.jpg"",""time"":354},{""stimulus"":""img/green_lw/8.jpg"",""time"":404},{""stimulus"":""img/green_lw/9.jpg"",""time"":454},{""stimulus"":""img/green_lw/10.jpg"",""time"":504},{""stimulus"":""img/green_lw/11.jpg"",""time"":554}]","[]"
"image-keyboard-response","109","107118","0.0-5.0-1.52","fertuck1","bdp_lott","Sun Feb 26 2023 12:59:13 GMT-0500 (Eastern Standard Time)","236126","green","red","","243","","","","","","","img/green_lw/choose11.jpg","1","173","green","0.6","0.6","0.6","w","",""
"animation","110","107720","0.0-5.0-2.52","fertuck1","bdp_lott","Sun Feb 26 2023 12:59:13 GMT-0500 (Eastern Standard Time)","236126","green","red","","","","","","","","","","","173","","","","","","[{""stimulus"":""img/green_ww/1.jpg"",""time"":53},{""stimulus"":""img/green_ww/2.jpg"",""time"":101},{""stimulus"":""img/green_ww/3.jpg"",""time"":155},{""stimulus"":""img/green_ww/4.jpg"",""time"":203},{""stimulus"":""img/green_ww/5.jpg"",""time"":252},{""stimulus"":""img/green_ww/6.jpg"",""time"":304},{""stimulus"":""img/green_ww/7.jpg"",""time"":352},{""stimulus"":""img/green_ww/8.jpg"",""time"":401},{""stimulus"":""img/green_ww/9.jpg"",""time"":453},{""stimulus"":""img/green_ww/10.jpg"",""time"":501},{""stimulus"":""img/green_ww/11.jpg"",""time"":555}]","[]"
"image-keyboard-response","111","107985","0.0-5.0-1.53","fertuck1","bdp_lott","Sun Feb 26 2023 12:59:13 GMT-0500 (Eastern Standard Time)","236126","green","red","","263","","","","","","","img/green_ww/choose11.jpg","1","172","green","0.6","0.6","0.6","l","",""
"animation","112","108586","0.0-5.0-2.53","fertuck1","bdp_lott","Sun Feb 26 2023 12:59:13 GMT-0500 (Eastern Standard Time)","236126","green","red","","","","","","","","","","","172","","","","","","[{""stimulus"":""img/green_lw/1.jpg"",""time"":52},{""stimulus"":""img/green_lw/2.jpg"",""time"":104},{""stimulus"":""img/green_lw/3.jpg"",""time"":152},{""stimulus"":""img/green_lw/4.jpg"",""time"":201},{""stimulus"":""img/green_lw/5.jpg"",""time"":253},{""stimulus"":""img/green_lw/6.jpg"",""time"":301},{""stimulus"":""img/green_lw/7.jpg"",""time"":354},{""stimulus"":""img/green_lw/8.jpg"",""time"":405},{""stimulus"":""img/green_lw/9.jpg"",""time"":452},{""stimulus"":""img/green_lw/10.jpg"",""time"":504},{""stimulus"":""img/green_lw/11.jpg"",""time"":552}]","[]"
"image-keyboard-response","113","108845","0.0-5.0-1.54","fertuck1","bdp_lott","Sun Feb 26 2023 12:59:13 GMT-0500 (Eastern Standard Time)","236126","green","red","","258","","","","","","","img/green_lw/choose11.jpg","1","171","green","0.6","0.6","0.6","w","",""
"animation","114","109450","0.0-5.0-2.54","fertuck1","bdp_lott","Sun Feb 26 2023 12:59:13 GMT-0500 (Eastern Standard Time)","236126","green","red","","","","","","","","","","","171","","","","","","[{""stimulus"":""img/green_ww/1.jpg"",""time"":54},{""stimulus"":""img/green_ww/2.jpg"",""time"":105},{""stimulus"":""img/green_ww/3.jpg"",""time"":156},{""stimulus"":""img/green_ww/4.jpg"",""time"":205},{""stimulus"":""img/green_ww/5.jpg"",""time"":252},{""stimulus"":""img/green_ww/6.jpg"",""time"":305},{""stimulus"":""img/green_ww/7.jpg"",""time"":355},{""stimulus"":""img/green_ww/8.jpg"",""time"":401},{""stimulus"":""img/green_ww/9.jpg"",""time"":456},{""stimulus"":""img/green_ww/10.jpg"",""time"":505},{""stimulus"":""img/green_ww/11.jpg"",""time"":556}]","[]"
"image-keyboard-response","115","109633","0.0-5.0-1.55","fertuck1","bdp_lott","Sun Feb 26 2023 12:59:13 GMT-0500 (Eastern Standard Time)","236126","green","red","","182","","","","","","","img/green_ww/choose11.jpg","1","170","green","0.6","0.6","0.6","w","",""
"animation","116","110234","0.0-5.0-2.55","fertuck1","bdp_lott","Sun Feb 26 2023 12:59:13 GMT-0500 (Eastern Standard Time)","236126","green","red","","","","","","","","","","","170","","","","","","[{""stimulus"":""img/green_ww/1.jpg"",""time"":52},{""stimulus"":""img/green_ww/2.jpg"",""time"":104},{""stimulus"":""img/green_ww/3.jpg"",""time"":152},{""stimulus"":""img/green_ww/4.jpg"",""time"":201},{""stimulus"":""img/green_ww/5.jpg"",""time"":253},{""stimulus"":""img/green_ww/6.jpg"",""time"":301},{""stimulus"":""img/green_ww/7.jpg"",""time"":354},{""stimulus"":""img/green_ww/8.jpg"",""time"":402},{""stimulus"":""img/green_ww/9.jpg"",""time"":452},{""stimulus"":""img/green_ww/10.jpg"",""time"":504},{""stimulus"":""img/green_ww/11.jpg"",""time"":552}]","[]"
"image-keyboard-response","117","110501","0.0-5.0-1.56","fertuck1","bdp_lott","Sun Feb 26 2023 12:59:13 GMT-0500 (Eastern Standard Time)","236126","green","red","","266","","","","","","","img/green_ww/choose11.jpg","1","169","green","0.6","0.6","0.6","l","",""
"animation","118","111103","0.0-5.0-2.56","fertuck1","bdp_lott","Sun Feb 26 2023 12:59:13 GMT-0500 (Eastern Standard Time)","236126","green","red","","","","","","","","","","","169","","","","","","[{""stimulus"":""img/green_lw/1.jpg"",""time"":51},{""stimulus"":""img/green_lw/2.jpg"",""time"":101},{""stimulus"":""img/green_lw/3.jpg"",""time"":152},{""stimulus"":""img/green_lw/4.jpg"",""time"":201},{""stimulus"":""img/green_lw/5.jpg"",""time"":252},{""stimulus"":""img/green_lw/6.jpg"",""time"":301},{""stimulus"":""img/green_lw/7.jpg"",""time"":351},{""stimulus"":""img/green_lw/8.jpg"",""time"":403},{""stimulus"":""img/green_lw/9.jpg"",""time"":451},{""stimulus"":""img/green_lw/10.jpg"",""time"":504},{""stimulus"":""img/green_lw/11.jpg"",""time"":552}]","[]"
"image-keyboard-response","119","111313","0.0-5.0-1.57","fertuck1","bdp_lott","Sun Feb 26 2023 12:59:13 GMT-0500 (Eastern Standard Time)","236126","green","red","","209","","","","","","","img/green_lw/choose11.jpg","1","168","green","0.6","0.6","0.6","w","",""
"animation","120","111918","0.0-5.0-2.57","fertuck1","bdp_lott","Sun Feb 26 2023 12:59:13 GMT-0500 (Eastern Standard Time)","236126","green","red","","","","","","","","","","","168","","","","","","[{""stimulus"":""img/green_ww/1.jpg"",""time"":56},{""stimulus"":""img/green_ww/2.jpg"",""time"":103},{""stimulus"":""img/green_ww/3.jpg"",""time"":153},{""stimulus"":""img/green_ww/4.jpg"",""time"":205},{""stimulus"":""img/green_ww/5.jpg"",""time"":254},{""stimulus"":""img/green_ww/6.jpg"",""time"":303},{""stimulus"":""img/green_ww/7.jpg"",""time"":354},{""stimulus"":""img/green_ww/8.jpg"",""time"":404},{""stimulus"":""img/green_ww/9.jpg"",""time"":456},{""stimulus"":""img/green_ww/10.jpg"",""time"":503},{""stimulus"":""img/green_ww/11.jpg"",""time"":553}]","[]"
"image-keyboard-response","121","112180","0.0-5.0-1.58","fertuck1","bdp_lott","Sun Feb 26 2023 12:59:13 GMT-0500 (Eastern Standard Time)","236126","green","red","","261","","","","","","","img/green_ww/choose11.jpg","1","167","green","0.6","0.6","0.6","l","",""
"animation","122","112785","0.0-5.0-2.58","fertuck1","bdp_lott","Sun Feb 26 2023 12:59:13 GMT-0500 (Eastern Standard Time)","236126","green","red","","","","","","","","","","","167","","","","","","[{""stimulus"":""img/green_lw/1.jpg"",""time"":56},{""stimulus"":""img/green_lw/2.jpg"",""time"":104},{""stimulus"":""img/green_lw/3.jpg"",""time"":156},{""stimulus"":""img/green_lw/4.jpg"",""time"":206},{""stimulus"":""img/green_lw/5.jpg"",""time"":256},{""stimulus"":""img/green_lw/6.jpg"",""time"":306},{""stimulus"":""img/green_lw/7.jpg"",""time"":356},{""stimulus"":""img/green_lw/8.jpg"",""time"":405},{""stimulus"":""img/green_lw/9.jpg"",""time"":455},{""stimulus"":""img/green_lw/10.jpg"",""time"":503},{""stimulus"":""img/green_lw/11.jpg"",""time"":555}]","[]"
"image-keyboard-response","123","112951","0.0-5.0-1.59","fertuck1","bdp_lott","Sun Feb 26 2023 12:59:13 GMT-0500 (Eastern Standard Time)","236126","green","red","","165","","","","","","","img/green_lw/choose11.jpg","1","166","green","0.6","0.6","0.6","w","",""
"animation","124","113555","0.0-5.0-2.59","fertuck1","bdp_lott","Sun Feb 26 2023 12:59:13 GMT-0500 (Eastern Standard Time)","236126","green","red","","","","","","","","","","","166","","","","","","[{""stimulus"":""img/green_ww/1.jpg"",""time"":54},{""stimulus"":""img/green_ww/2.jpg"",""time"":103},{""stimulus"":""img/green_ww/3.jpg"",""time"":155},{""stimulus"":""img/green_ww/4.jpg"",""time"":204},{""stimulus"":""img/green_ww/5.jpg"",""time"":252},{""stimulus"":""img/green_ww/6.jpg"",""time"":301},{""stimulus"":""img/green_ww/7.jpg"",""time"":353},{""stimulus"":""img/green_ww/8.jpg"",""time"":401},{""stimulus"":""img/green_ww/9.jpg"",""time"":455},{""stimulus"":""img/green_ww/10.jpg"",""time"":503},{""stimulus"":""img/green_ww/11.jpg"",""time"":552}]","[]"
"image-keyboard-response","125","113793","0.0-5.0-1.60","fertuck1","bdp_lott","Sun Feb 26 2023 12:59:13 GMT-0500 (Eastern Standard Time)","236126","green","red","","237","","","","","","","img/green_ww/choose11.jpg","1","165","green","0.6","0.6","0.6","l","",""
"animation","126","114393","0.0-5.0-2.60","fertuck1","bdp_lott","Sun Feb 26 2023 12:59:13 GMT-0500 (Eastern Standard Time)","236126","green","red","","","","","","","","","","","165","","","","","","[{""stimulus"":""img/green_lw/1.jpg"",""time"":51},{""stimulus"":""img/green_lw/2.jpg"",""time"":103},{""stimulus"":""img/green_lw/3.jpg"",""time"":151},{""stimulus"":""img/green_lw/4.jpg"",""time"":205},{""stimulus"":""img/green_lw/5.jpg"",""time"":253},{""stimulus"":""img/green_lw/6.jpg"",""time"":301},{""stimulus"":""img/green_lw/7.jpg"",""time"":354},{""stimulus"":""img/green_lw/8.jpg"",""time"":402},{""stimulus"":""img/green_lw/9.jpg"",""time"":451},{""stimulus"":""img/green_lw/10.jpg"",""time"":503},{""stimulus"":""img/green_lw/11.jpg"",""time"":551}]","[]"
"image-keyboard-response","127","114540","0.0-5.0-1.61","fertuck1","bdp_lott","Sun Feb 26 2023 12:59:13 GMT-0500 (Eastern Standard Time)","236126","green","red","","145","","","","","","","img/green_lw/choose11.jpg","1","164","green","0.6","0.6","0.6","l","",""
"animation","128","115144","0.0-5.0-2.61","fertuck1","bdp_lott","Sun Feb 26 2023 12:59:13 GMT-0500 (Eastern Standard Time)","236126","green","red","","","","","","","","","","","164","","","","","","[{""stimulus"":""img/green_lw/1.jpg"",""time"":54},{""stimulus"":""img/green_lw/2.jpg"",""time"":102},{""stimulus"":""img/green_lw/3.jpg"",""time"":151},{""stimulus"":""img/green_lw/4.jpg"",""time"":203},{""stimulus"":""img/green_lw/5.jpg"",""time"":251},{""stimulus"":""img/green_lw/6.jpg"",""time"":305},{""stimulus"":""img/green_lw/7.jpg"",""time"":353},{""stimulus"":""img/green_lw/8.jpg"",""time"":403},{""stimulus"":""img/green_lw/9.jpg"",""time"":454},{""stimulus"":""img/green_lw/10.jpg"",""time"":505},{""stimulus"":""img/green_lw/11.jpg"",""time"":551}]","[]"
"image-keyboard-response","129","115306","0.0-5.0-1.62","fertuck1","bdp_lott","Sun Feb 26 2023 12:59:13 GMT-0500 (Eastern Standard Time)","236126","green","red","","160","","","","","","","img/green_lw/choose11.jpg","1","163","green","0.6","0.6","0.6","w","",""
"animation","130","115908","0.0-5.0-2.62","fertuck1","bdp_lott","Sun Feb 26 2023 12:59:13 GMT-0500 (Eastern Standard Time)","236126","green","red","","","","","","","","","","","163","","","","","","[{""stimulus"":""img/green_ww/1.jpg"",""time"":53},{""stimulus"":""img/green_ww/2.jpg"",""time"":102},{""stimulus"":""img/green_ww/3.jpg"",""time"":153},{""stimulus"":""img/green_ww/4.jpg"",""time"":202},{""stimulus"":""img/green_ww/5.jpg"",""time"":254},{""stimulus"":""img/green_ww/6.jpg"",""time"":302},{""stimulus"":""img/green_ww/7.jpg"",""time"":352},{""stimulus"":""img/green_ww/8.jpg"",""time"":404},{""stimulus"":""img/green_ww/9.jpg"",""time"":453},{""stimulus"":""img/green_ww/10.jpg"",""time"":502},{""stimulus"":""img/green_ww/11.jpg"",""time"":553}]","[]"
"image-keyboard-response","131","116173","0.0-5.0-1.63","fertuck1","bdp_lott","Sun Feb 26 2023 12:59:13 GMT-0500 (Eastern Standard Time)","236126","green","red","","263","","","","","","","img/green_ww/choose11.jpg","1","162","green","0.6","0.6","0.6","w","",""
"animation","132","116776","0.0-5.0-2.63","fertuck1","bdp_lott","Sun Feb 26 2023 12:59:13 GMT-0500 (Eastern Standard Time)","236126","green","red","","","","","","","","","","","162","","","","","","[{""stimulus"":""img/green_ww/1.jpg"",""time"":54},{""stimulus"":""img/green_ww/2.jpg"",""time"":102},{""stimulus"":""img/green_ww/3.jpg"",""time"":155},{""stimulus"":""img/green_ww/4.jpg"",""time"":203},{""stimulus"":""img/green_ww/5.jpg"",""time"":252},{""stimulus"":""img/green_ww/6.jpg"",""time"":305},{""stimulus"":""img/green_ww/7.jpg"",""time"":353},{""stimulus"":""img/green_ww/8.jpg"",""time"":405},{""stimulus"":""img/green_ww/9.jpg"",""time"":454},{""stimulus"":""img/green_ww/10.jpg"",""time"":502},{""stimulus"":""img/green_ww/11.jpg"",""time"":555}]","[]"
"image-keyboard-response","133","116908","0.0-5.0-1.64","fertuck1","bdp_lott","Sun Feb 26 2023 12:59:13 GMT-0500 (Eastern Standard Time)","236126","green","red","","131","","","","","","","img/green_ww/choose11.jpg","1","161","green","0.6","0.6","0.6","w","",""
"animation","134","117512","0.0-5.0-2.64","fertuck1","bdp_lott","Sun Feb 26 2023 12:59:13 GMT-0500 (Eastern Standard Time)","236126","green","red","","","","","","","","","","","161","","","","","","[{""stimulus"":""img/green_ww/1.jpg"",""time"":54},{""stimulus"":""img/green_ww/2.jpg"",""time"":102},{""stimulus"":""img/green_ww/3.jpg"",""time"":151},{""stimulus"":""img/green_ww/4.jpg"",""time"":203},{""stimulus"":""img/green_ww/5.jpg"",""time"":251},{""stimulus"":""img/green_ww/6.jpg"",""time"":301},{""stimulus"":""img/green_ww/7.jpg"",""time"":353},{""stimulus"":""img/green_ww/8.jpg"",""time"":401},{""stimulus"":""img/green_ww/9.jpg"",""time"":454},{""stimulus"":""img/green_ww/10.jpg"",""time"":502},{""stimulus"":""img/green_ww/11.jpg"",""time"":551}]","[]"
"image-keyboard-response","135","117690","0.0-5.0-1.65","fertuck1","bdp_lott","Sun Feb 26 2023 12:59:13 GMT-0500 (Eastern Standard Time)","236126","green","red","","177","","","","","","","img/green_ww/choose11.jpg","1","160","green","0.6","0.6","0.6","l","",""
"animation","136","118292","0.0-5.0-2.65","fertuck1","bdp_lott","Sun Feb 26 2023 12:59:13 GMT-0500 (Eastern Standard Time)","236126","green","red","","","","","","","","","","","160","","","","","","[{""stimulus"":""img/green_lw/1.jpg"",""time"":51},{""stimulus"":""img/green_lw/2.jpg"",""time"":104},{""stimulus"":""img/green_lw/3.jpg"",""time"":153},{""stimulus"":""img/green_lw/4.jpg"",""time"":201},{""stimulus"":""img/green_lw/5.jpg"",""time"":253},{""stimulus"":""img/green_lw/6.jpg"",""time"":301},{""stimulus"":""img/green_lw/7.jpg"",""time"":351},{""stimulus"":""img/green_lw/8.jpg"",""time"":404},{""stimulus"":""img/green_lw/9.jpg"",""time"":450},{""stimulus"":""img/green_lw/10.jpg"",""time"":504},{""stimulus"":""img/green_lw/11.jpg"",""time"":552}]","[]"
"image-keyboard-response","137","118406","0.0-5.0-1.66","fertuck1","bdp_lott","Sun Feb 26 2023 12:59:13 GMT-0500 (Eastern Standard Time)","236126","green","red","","113","","","","","","","img/green_lw/choose11.jpg","1","159","green","0.6","0.6","0.6","w","",""
"animation","138","119011","0.0-5.0-2.66","fertuck1","bdp_lott","Sun Feb 26 2023 12:59:13 GMT-0500 (Eastern Standard Time)","236126","green","red","","","","","","","","","","","159","","","","","","[{""stimulus"":""img/green_ww/1.jpg"",""time"":51},{""stimulus"":""img/green_ww/2.jpg"",""time"":103},{""stimulus"":""img/green_ww/3.jpg"",""time"":152},{""stimulus"":""img/green_ww/4.jpg"",""time"":204},{""stimulus"":""img/green_ww/5.jpg"",""time"":252},{""stimulus"":""img/green_ww/6.jpg"",""time"":301},{""stimulus"":""img/green_ww/7.jpg"",""time"":351},{""stimulus"":""img/green_ww/8.jpg"",""time"":401},{""stimulus"":""img/green_ww/9.jpg"",""time"":455},{""stimulus"":""img/green_ww/10.jpg"",""time"":503},{""stimulus"":""img/green_ww/11.jpg"",""time"":552}]","[]"
"image-keyboard-response","139","119183","0.0-5.0-1.67","fertuck1","bdp_lott","Sun Feb 26 2023 12:59:13 GMT-0500 (Eastern Standard Time)","236126","green","red","","171","","","","","","","img/green_ww/choose11.jpg","1","158","green","0.6","0.6","0.6","w","",""
"animation","140","119788","0.0-5.0-2.67","fertuck1","bdp_lott","Sun Feb 26 2023 12:59:13 GMT-0500 (Eastern Standard Time)","236126","green","red","","","","","","","","","","","158","","","","","","[{""stimulus"":""img/green_ww/1.jpg"",""time"":52},{""stimulus"":""img/green_ww/2.jpg"",""time"":101},{""stimulus"":""img/green_ww/3.jpg"",""time"":153},{""stimulus"":""img/green_ww/4.jpg"",""time"":201},{""stimulus"":""img/green_ww/5.jpg"",""time"":252},{""stimulus"":""img/green_ww/6.jpg"",""time"":302},{""stimulus"":""img/green_ww/7.jpg"",""time"":352},{""stimulus"":""img/green_ww/8.jpg"",""time"":404},{""stimulus"":""img/green_ww/9.jpg"",""time"":452},{""stimulus"":""img/green_ww/10.jpg"",""time"":505},{""stimulus"":""img/green_ww/11.jpg"",""time"":553}]","[]"
"image-keyboard-response","141","119916","0.0-5.0-1.68","fertuck1","bdp_lott","Sun Feb 26 2023 12:59:13 GMT-0500 (Eastern Standard Time)","236126","green","red","","127","","","","","","","img/green_ww/choose11.jpg","1","157","green","0.6","0.6","0.6","l","",""
"animation","142","120520","0.0-5.0-2.68","fertuck1","bdp_lott","Sun Feb 26 2023 12:59:13 GMT-0500 (Eastern Standard Time)","236126","green","red","","","","","","","","","","","157","","","","","","[{""stimulus"":""img/green_lw/1.jpg"",""time"":54},{""stimulus"":""img/green_lw/2.jpg"",""time"":102},{""stimulus"":""img/green_lw/3.jpg"",""time"":151},{""stimulus"":""img/green_lw/4.jpg"",""time"":203},{""stimulus"":""img/green_lw/5.jpg"",""time"":253},{""stimulus"":""img/green_lw/6.jpg"",""time"":301},{""stimulus"":""img/green_lw/7.jpg"",""time"":353},{""stimulus"":""img/green_lw/8.jpg"",""time"":401},{""stimulus"":""img/green_lw/9.jpg"",""time"":454},{""stimulus"":""img/green_lw/10.jpg"",""time"":502},{""stimulus"":""img/green_lw/11.jpg"",""time"":555}]","[]"
"image-keyboard-response","143","120710","0.0-5.0-1.69","fertuck1","bdp_lott","Sun Feb 26 2023 12:59:13 GMT-0500 (Eastern Standard Time)","236126","green","red","","189","","","","","","","img/green_lw/choose11.jpg","1","156","green","0.6","0.6","0.6","w","",""
"animation","144","121310","0.0-5.0-2.69","fertuck1","bdp_lott","Sun Feb 26 2023 12:59:13 GMT-0500 (Eastern Standard Time)","236126","green","red","","","","","","","","","","","156","","","","","","[{""stimulus"":""img/green_ww/1.jpg"",""time"":52},{""stimulus"":""img/green_ww/2.jpg"",""time"":104},{""stimulus"":""img/green_ww/3.jpg"",""time"":152},{""stimulus"":""img/green_ww/4.jpg"",""time"":201},{""stimulus"":""img/green_ww/5.jpg"",""time"":253},{""stimulus"":""img/green_ww/6.jpg"",""time"":301},{""stimulus"":""img/green_ww/7.jpg"",""time"":354},{""stimulus"":""img/green_ww/8.jpg"",""time"":402},{""stimulus"":""img/green_ww/9.jpg"",""time"":452},{""stimulus"":""img/green_ww/10.jpg"",""time"":504},{""stimulus"":""img/green_ww/11.jpg"",""time"":552}]","[]"
"image-keyboard-response","145","121471","0.0-5.0-1.70","fertuck1","bdp_lott","Sun Feb 26 2023 12:59:13 GMT-0500 (Eastern Standard Time)","236126","green","red","","158","","","","","","","img/green_ww/choose11.jpg","1","155","green","0.6","0.6","0.6","w","",""
"animation","146","122074","0.0-5.0-2.70","fertuck1","bdp_lott","Sun Feb 26 2023 12:59:13 GMT-0500 (Eastern Standard Time)","236126","green","red","","","","","","","","","","","155","","","","","","[{""stimulus"":""img/green_ww/1.jpg"",""time"":52},{""stimulus"":""img/green_ww/2.jpg"",""time"":104},{""stimulus"":""img/green_ww/3.jpg"",""time"":155},{""stimulus"":""img/green_ww/4.jpg"",""time"":204},{""stimulus"":""img/green_ww/5.jpg"",""time"":254},{""stimulus"":""img/green_ww/6.jpg"",""time"":304},{""stimulus"":""img/green_ww/7.jpg"",""time"":354},{""stimulus"":""img/green_ww/8.jpg"",""time"":404},{""stimulus"":""img/green_ww/9.jpg"",""time"":454},{""stimulus"":""img/green_ww/10.jpg"",""time"":504},{""stimulus"":""img/green_ww/11.jpg"",""time"":555}]","[]"
"image-keyboard-response","147","122252","0.0-5.0-1.71","fertuck1","bdp_lott","Sun Feb 26 2023 12:59:13 GMT-0500 (Eastern Standard Time)","236126","green","red","","175","","","","","","","img/green_ww/choose11.jpg","1","154","green","0.6","0.6","0.6","w","",""
"animation","148","122856","0.0-5.0-2.71","fertuck1","bdp_lott","Sun Feb 26 2023 12:59:13 GMT-0500 (Eastern Standard Time)","236126","green","red","","","","","","","","","","","154","","","","","","[{""stimulus"":""img/green_ww/1.jpg"",""time"":51},{""stimulus"":""img/green_ww/2.jpg"",""time"":103},{""stimulus"":""img/green_ww/3.jpg"",""time"":151},{""stimulus"":""img/green_ww/4.jpg"",""time"":204},{""stimulus"":""img/green_ww/5.jpg"",""time"":252},{""stimulus"":""img/green_ww/6.jpg"",""time"":301},{""stimulus"":""img/green_ww/7.jpg"",""time"":353},{""stimulus"":""img/green_ww/8.jpg"",""time"":401},{""stimulus"":""img/green_ww/9.jpg"",""time"":451},{""stimulus"":""img/green_ww/10.jpg"",""time"":503},{""stimulus"":""img/green_ww/11.jpg"",""time"":551}]","[]"
"image-keyboard-response","149","122938","0.0-5.0-1.72","fertuck1","bdp_lott","Sun Feb 26 2023 12:59:13 GMT-0500 (Eastern Standard Time)","236126","green","red","","81","","","","","","","img/green_ww/choose11.jpg","1","153","green","0.6","0.6","0.6","w","",""
"animation","150","123541","0.0-5.0-2.72","fertuck1","bdp_lott","Sun Feb 26 2023 12:59:13 GMT-0500 (Eastern Standard Time)","236126","green","red","","","","","","","","","","","153","","","","","","[{""stimulus"":""img/green_ww/1.jpg"",""time"":55},{""stimulus"":""img/green_ww/2.jpg"",""time"":105},{""stimulus"":""img/green_ww/3.jpg"",""time"":156},{""stimulus"":""img/green_ww/4.jpg"",""time"":203},{""stimulus"":""img/green_ww/5.jpg"",""time"":254},{""stimulus"":""img/green_ww/6.jpg"",""time"":303},{""stimulus"":""img/green_ww/7.jpg"",""time"":353},{""stimulus"":""img/green_ww/8.jpg"",""time"":403},{""stimulus"":""img/green_ww/9.jpg"",""time"":453},{""stimulus"":""img/green_ww/10.jpg"",""time"":505},{""stimulus"":""img/green_ww/11.jpg"",""time"":554}]","[]"
"image-keyboard-response","151","123645","0.0-5.0-1.73","fertuck1","bdp_lott","Sun Feb 26 2023 12:59:13 GMT-0500 (Eastern Standard Time)","236126","green","red","","103","","","","","","","img/green_ww/choose11.jpg","1","152","green","0.6","0.6","0.6","w","",""
"animation","152","124249","0.0-5.0-2.73","fertuck1","bdp_lott","Sun Feb 26 2023 12:59:13 GMT-0500 (Eastern Standard Time)","236126","green","red","","","","","","","","","","","152","","","","","","[{""stimulus"":""img/green_ww/1.jpg"",""time"":54},{""stimulus"":""img/green_ww/2.jpg"",""time"":105},{""stimulus"":""img/green_ww/3.jpg"",""time"":155},{""stimulus"":""img/green_ww/4.jpg"",""time"":205},{""stimulus"":""img/green_ww/5.jpg"",""time"":255},{""stimulus"":""img/green_ww/6.jpg"",""time"":306},{""stimulus"":""img/green_ww/7.jpg"",""time"":356},{""stimulus"":""img/green_ww/8.jpg"",""time"":406},{""stimulus"":""img/green_ww/9.jpg"",""time"":455},{""stimulus"":""img/green_ww/10.jpg"",""time"":505},{""stimulus"":""img/green_ww/11.jpg"",""time"":555}]","[]"
"image-keyboard-response","153","124349","0.0-5.0-1.74","fertuck1","bdp_lott","Sun Feb 26 2023 12:59:13 GMT-0500 (Eastern Standard Time)","236126","green","red","","99","","","","","","","img/green_ww/choose11.jpg","1","151","green","0.6","0.6","0.6","w","",""
"animation","154","124952","0.0-5.0-2.74","fertuck1","bdp_lott","Sun Feb 26 2023 12:59:13 GMT-0500 (Eastern Standard Time)","236126","green","red","","","","","","","","","","","151","","","","","","[{""stimulus"":""img/green_ww/1.jpg"",""time"":55},{""stimulus"":""img/green_ww/2.jpg"",""time"":102},{""stimulus"":""img/green_ww/3.jpg"",""time"":151},{""stimulus"":""img/green_ww/4.jpg"",""time"":203},{""stimulus"":""img/green_ww/5.jpg"",""time"":256},{""stimulus"":""img/green_ww/6.jpg"",""time"":304},{""stimulus"":""img/green_ww/7.jpg"",""time"":352},{""stimulus"":""img/green_ww/8.jpg"",""time"":402},{""stimulus"":""img/green_ww/9.jpg"",""time"":454},{""stimulus"":""img/green_ww/10.jpg"",""time"":502},{""stimulus"":""img/green_ww/11.jpg"",""time"":551}]","[]"
"image-keyboard-response","155","125119","0.0-5.0-1.75","fertuck1","bdp_lott","Sun Feb 26 2023 12:59:13 GMT-0500 (Eastern Standard Time)","236126","green","red","","166","","","","","","","img/green_ww/choose11.jpg","1","150","green","0.6","0.6","0.6","l","",""
"animation","156","125724","0.0-5.0-2.75","fertuck1","bdp_lott","Sun Feb 26 2023 12:59:13 GMT-0500 (Eastern Standard Time)","236126","green","red","","","","","","","","","","","150","","","","","","[{""stimulus"":""img/green_lw/1.jpg"",""time"":51},{""stimulus"":""img/green_lw/2.jpg"",""time"":105},{""stimulus"":""img/green_lw/3.jpg"",""time"":155},{""stimulus"":""img/green_lw/4.jpg"",""time"":205},{""stimulus"":""img/green_lw/5.jpg"",""time"":253},{""stimulus"":""img/green_lw/6.jpg"",""time"":305},{""stimulus"":""img/green_lw/7.jpg"",""time"":355},{""stimulus"":""img/green_lw/8.jpg"",""time"":405},{""stimulus"":""img/green_lw/9.jpg"",""time"":455},{""stimulus"":""img/green_lw/10.jpg"",""time"":505},{""stimulus"":""img/green_lw/11.jpg"",""time"":555}]","[]"
"image-keyboard-response","157","125858","0.0-5.0-1.76","fertuck1","bdp_lott","Sun Feb 26 2023 12:59:13 GMT-0500 (Eastern Standard Time)","236126","green","red","","133","","","","","","","img/green_lw/choose11.jpg","1","149","green","0.6","0.2","0.6","l","",""
"animation","158","126461","0.0-5.0-2.76","fertuck1","bdp_lott","Sun Feb 26 2023 12:59:13 GMT-0500 (Eastern Standard Time)","236126","green","red","","","","","","","","","","","149","","","","","","[{""stimulus"":""img/green_lw/1.jpg"",""time"":53},{""stimulus"":""img/green_lw/2.jpg"",""time"":101},{""stimulus"":""img/green_lw/3.jpg"",""time"":150},{""stimulus"":""img/green_lw/4.jpg"",""time"":202},{""stimulus"":""img/green_lw/5.jpg"",""time"":250},{""stimulus"":""img/green_lw/6.jpg"",""time"":303},{""stimulus"":""img/green_lw/7.jpg"",""time"":352},{""stimulus"":""img/green_lw/8.jpg"",""time"":401},{""stimulus"":""img/green_lw/9.jpg"",""time"":453},{""stimulus"":""img/green_lw/10.jpg"",""time"":501},{""stimulus"":""img/green_lw/11.jpg"",""time"":550}]","[]"
"image-keyboard-response","159","126689","0.0-5.0-1.77","fertuck1","bdp_lott","Sun Feb 26 2023 12:59:13 GMT-0500 (Eastern Standard Time)","236126","green","red","","227","","","","","","","img/green_lw/choose11.jpg","1","148","green","0.6","0.2","0.6","w","",""
"animation","160","127290","0.0-5.0-2.77","fertuck1","bdp_lott","Sun Feb 26 2023 12:59:13 GMT-0500 (Eastern Standard Time)","236126","green","red","","","","","","","","","","","148","","","","","","[{""stimulus"":""img/green_ww/1.jpg"",""time"":51},{""stimulus"":""img/green_ww/2.jpg"",""time"":103},{""stimulus"":""img/green_ww/3.jpg"",""time"":152},{""stimulus"":""img/green_ww/4.jpg"",""time"":204},{""stimulus"":""img/green_ww/5.jpg"",""time"":254},{""stimulus"":""img/green_ww/6.jpg"",""time"":306},{""stimulus"":""img/green_ww/7.jpg"",""time"":354},{""stimulus"":""img/green_ww/8.jpg"",""time"":403},{""stimulus"":""img/green_ww/9.jpg"",""time"":455},{""stimulus"":""img/green_ww/10.jpg"",""time"":503},{""stimulus"":""img/green_ww/11.jpg"",""time"":552}]","[]"
"image-keyboard-response","161","127400","0.0-5.0-1.78","fertuck1","bdp_lott","Sun Feb 26 2023 12:59:13 GMT-0500 (Eastern Standard Time)","236126","green","red","","109","","","","","","","img/green_ww/choose11.jpg","1","147","green","0.6","0.2","0.6","w","",""
"animation","162","128002","0.0-5.0-2.78","fertuck1","bdp_lott","Sun Feb 26 2023 12:59:13 GMT-0500 (Eastern Standard Time)","236126","green","red","","","","","","","","","","","147","","","","","","[{""stimulus"":""img/green_ww/1.jpg"",""time"":53},{""stimulus"":""img/green_ww/2.jpg"",""time"":101},{""stimulus"":""img/green_ww/3.jpg"",""time"":150},{""stimulus"":""img/green_ww/4.jpg"",""time"":203},{""stimulus"":""img/green_ww/5.jpg"",""time"":251},{""stimulus"":""img/green_ww/6.jpg"",""time"":304},{""stimulus"":""img/green_ww/7.jpg"",""time"":352},{""stimulus"":""img/green_ww/8.jpg"",""time"":401},{""stimulus"":""img/green_ww/9.jpg"",""time"":453},{""stimulus"":""img/green_ww/10.jpg"",""time"":501},{""stimulus"":""img/green_ww/11.jpg"",""time"":551}]","[]"
"image-keyboard-response","163","128216","0.0-5.0-1.79","fertuck1","bdp_lott","Sun Feb 26 2023 12:59:13 GMT-0500 (Eastern Standard Time)","236126","green","red","","212","","","","","","","img/green_ww/choose11.jpg","1","146","green","0.6","0.2","0.6","w","",""
"animation","164","128818","0.0-5.0-2.79","fertuck1","bdp_lott","Sun Feb 26 2023 12:59:13 GMT-0500 (Eastern Standard Time)","236126","green","red","","","","","","","","","","","146","","","","","","[{""stimulus"":""img/green_ww/1.jpg"",""time"":53},{""stimulus"":""img/green_ww/2.jpg"",""time"":101},{""stimulus"":""img/green_ww/3.jpg"",""time"":155},{""stimulus"":""img/green_ww/4.jpg"",""time"":203},{""stimulus"":""img/green_ww/5.jpg"",""time"":252},{""stimulus"":""img/green_ww/6.jpg"",""time"":304},{""stimulus"":""img/green_ww/7.jpg"",""time"":352},{""stimulus"":""img/green_ww/8.jpg"",""time"":405},{""stimulus"":""img/green_ww/9.jpg"",""time"":453},{""stimulus"":""img/green_ww/10.jpg"",""time"":501},{""stimulus"":""img/green_ww/11.jpg"",""time"":552}]","[]"
"image-keyboard-response","165","129024","0.0-5.0-1.80","fertuck1","bdp_lott","Sun Feb 26 2023 12:59:13 GMT-0500 (Eastern Standard Time)","236126","green","red","","204","","","","","","","img/green_ww/choose11.jpg","1","145","green","0.6","0.2","0.6","w","",""
"animation","166","129625","0.0-5.0-2.80","fertuck1","bdp_lott","Sun Feb 26 2023 12:59:13 GMT-0500 (Eastern Standard Time)","236126","green","red","","","","","","","","","","","145","","","","","","[{""stimulus"":""img/green_ww/1.jpg"",""time"":52},{""stimulus"":""img/green_ww/2.jpg"",""time"":104},{""stimulus"":""img/green_ww/3.jpg"",""time"":152},{""stimulus"":""img/green_ww/4.jpg"",""time"":201},{""stimulus"":""img/green_ww/5.jpg"",""time"":253},{""stimulus"":""img/green_ww/6.jpg"",""time"":301},{""stimulus"":""img/green_ww/7.jpg"",""time"":355},{""stimulus"":""img/green_ww/8.jpg"",""time"":403},{""stimulus"":""img/green_ww/9.jpg"",""time"":452},{""stimulus"":""img/green_ww/10.jpg"",""time"":504},{""stimulus"":""img/green_ww/11.jpg"",""time"":552}]","[]"
"image-keyboard-response","167","129772","0.0-5.0-1.81","fertuck1","bdp_lott","Sun Feb 26 2023 12:59:13 GMT-0500 (Eastern Standard Time)","236126","green","red","","146","","","","","","","img/green_ww/choose11.jpg","1","144","green","0.6","0.2","0.6","w","",""
"animation","168","130376","0.0-5.0-2.81","fertuck1","bdp_lott","Sun Feb 26 2023 12:59:13 GMT-0500 (Eastern Standard Time)","236126","green","red","","","","","","","","","","","144","","","","","","[{""stimulus"":""img/green_ww/1.jpg"",""time"":55},{""stimulus"":""img/green_ww/2.jpg"",""time"":104},{""stimulus"":""img/green_ww/3.jpg"",""time"":153},{""stimulus"":""img/green_ww/4.jpg"",""time"":204},{""stimulus"":""img/green_ww/5.jpg"",""time"":253},{""stimulus"":""img/green_ww/6.jpg"",""time"":305},{""stimulus"":""img/green_ww/7.jpg"",""time"":353},{""stimulus"":""img/green_ww/8.jpg"",""time"":403},{""stimulus"":""img/green_ww/9.jpg"",""time"":455},{""stimulus"":""img/green_ww/10.jpg"",""time"":504},{""stimulus"":""img/green_ww/11.jpg"",""time"":553}]","[]"
"image-keyboard-response","169","130540","0.0-5.0-1.82","fertuck1","bdp_lott","Sun Feb 26 2023 12:59:13 GMT-0500 (Eastern Standard Time)","236126","green","red","","163","","","","","","","img/green_ww/choose11.jpg","1","143","green","0.6","0.2","0.6","l","",""
"animation","170","131143","0.0-5.0-2.82","fertuck1","bdp_lott","Sun Feb 26 2023 12:59:13 GMT-0500 (Eastern Standard Time)","236126","green","red","","","","","","","","","","","143","","","","","","[{""stimulus"":""img/green_lw/1.jpg"",""time"":55},{""stimulus"":""img/green_lw/2.jpg"",""time"":103},{""stimulus"":""img/green_lw/3.jpg"",""time"":152},{""stimulus"":""img/green_lw/4.jpg"",""time"":204},{""stimulus"":""img/green_lw/5.jpg"",""time"":251},{""stimulus"":""img/green_lw/6.jpg"",""time"":305},{""stimulus"":""img/green_lw/7.jpg"",""time"":353},{""stimulus"":""img/green_lw/8.jpg"",""time"":402},{""stimulus"":""img/green_lw/9.jpg"",""time"":455},{""stimulus"":""img/green_lw/10.jpg"",""time"":503},{""stimulus"":""img/green_lw/11.jpg"",""time"":552}]","[]"
"image-keyboard-response","171","131361","0.0-5.0-1.83","fertuck1","bdp_lott","Sun Feb 26 2023 12:59:13 GMT-0500 (Eastern Standard Time)","236126","green","red","","216","","","","","","","img/green_lw/choose11.jpg","1","142","green","0.6","0.2","0.6","w","",""
"animation","172","131966","0.0-5.0-2.83","fertuck1","bdp_lott","Sun Feb 26 2023 12:59:13 GMT-0500 (Eastern Standard Time)","236126","green","red","","","","","","","","","","","142","","","","","","[{""stimulus"":""img/green_ww/1.jpg"",""time"":55},{""stimulus"":""img/green_ww/2.jpg"",""time"":103},{""stimulus"":""img/green_ww/3.jpg"",""time"":155},{""stimulus"":""img/green_ww/4.jpg"",""time"":205},{""stimulus"":""img/green_ww/5.jpg"",""time"":255},{""stimulus"":""img/green_ww/6.jpg"",""time"":306},{""stimulus"":""img/green_ww/7.jpg"",""time"":356},{""stimulus"":""img/green_ww/8.jpg"",""time"":405},{""stimulus"":""img/green_ww/9.jpg"",""time"":455},{""stimulus"":""img/green_ww/10.jpg"",""time"":503},{""stimulus"":""img/green_ww/11.jpg"",""time"":555}]","[]"
"image-keyboard-response","173","132128","0.0-5.0-1.84","fertuck1","bdp_lott","Sun Feb 26 2023 12:59:13 GMT-0500 (Eastern Standard Time)","236126","green","red","","161","","","","","","","img/green_ww/choose11.jpg","1","141","green","0.6","0.2","0.6","l","",""
"animation","174","132733","0.0-5.0-2.84","fertuck1","bdp_lott","Sun Feb 26 2023 12:59:13 GMT-0500 (Eastern Standard Time)","236126","green","red","","","","","","","","","","","141","","","","","","[{""stimulus"":""img/green_lw/1.jpg"",""time"":52},{""stimulus"":""img/green_lw/2.jpg"",""time"":105},{""stimulus"":""img/green_lw/3.jpg"",""time"":155},{""stimulus"":""img/green_lw/4.jpg"",""time"":205},{""stimulus"":""img/green_lw/5.jpg"",""time"":255},{""stimulus"":""img/green_lw/6.jpg"",""time"":305},{""stimulus"":""img/green_lw/7.jpg"",""time"":356},{""stimulus"":""img/green_lw/8.jpg"",""time"":405},{""stimulus"":""img/green_lw/9.jpg"",""time"":456},{""stimulus"":""img/green_lw/10.jpg"",""time"":504},{""stimulus"":""img/green_lw/11.jpg"",""time"":555}]","[]"
"image-keyboard-response","175","132930","0.0-5.0-1.85","fertuck1","bdp_lott","Sun Feb 26 2023 12:59:13 GMT-0500 (Eastern Standard Time)","236126","green","red","","196","","","","","","","img/green_lw/choose11.jpg","1","140","green","0.6","0.2","0.6","l","",""
"animation","176","133534","0.0-5.0-2.85","fertuck1","bdp_lott","Sun Feb 26 2023 12:59:13 GMT-0500 (Eastern Standard Time)","236126","green","red","","","","","","","","","","","140","","","","","","[{""stimulus"":""img/green_lw/1.jpg"",""time"":54},{""stimulus"":""img/green_lw/2.jpg"",""time"":103},{""stimulus"":""img/green_lw/3.jpg"",""time"":155},{""stimulus"":""img/green_lw/4.jpg"",""time"":204},{""stimulus"":""img/green_lw/5.jpg"",""time"":253},{""stimulus"":""img/green_lw/6.jpg"",""time"":304},{""stimulus"":""img/green_lw/7.jpg"",""time"":354},{""stimulus"":""img/green_lw/8.jpg"",""time"":406},{""stimulus"":""img/green_lw/9.jpg"",""time"":454},{""stimulus"":""img/green_lw/10.jpg"",""time"":503},{""stimulus"":""img/green_lw/11.jpg"",""time"":555}]","[]"
"image-keyboard-response","177","133677","0.0-5.0-1.86","fertuck1","bdp_lott","Sun Feb 26 2023 12:59:13 GMT-0500 (Eastern Standard Time)","236126","green","red","","142","","","","","","","img/green_lw/choose11.jpg","1","139","green","0.6","0.2","0.6","w","",""
"animation","178","134279","0.0-5.0-2.86","fertuck1","bdp_lott","Sun Feb 26 2023 12:59:13 GMT-0500 (Eastern Standard Time)","236126","green","red","","","","","","","","","","","139","","","","","","[{""stimulus"":""img/green_ww/1.jpg"",""time"":53},{""stimulus"":""img/green_ww/2.jpg"",""time"":101},{""stimulus"":""img/green_ww/3.jpg"",""time"":155},{""stimulus"":""img/green_ww/4.jpg"",""time"":203},{""stimulus"":""img/green_ww/5.jpg"",""time"":252},{""stimulus"":""img/green_ww/6.jpg"",""time"":304},{""stimulus"":""img/green_ww/7.jpg"",""time"":352},{""stimulus"":""img/green_ww/8.jpg"",""time"":401},{""stimulus"":""img/green_ww/9.jpg"",""time"":453},{""stimulus"":""img/green_ww/10.jpg"",""time"":501},{""stimulus"":""img/green_ww/11.jpg"",""time"":555}]","[]"
"image-keyboard-response","179","134435","0.0-5.0-1.87","fertuck1","bdp_lott","Sun Feb 26 2023 12:59:13 GMT-0500 (Eastern Standard Time)","236126","green","red","","154","","","","","","","img/green_ww/choose11.jpg","1","138","green","0.6","0.2","0.6","l","",""
"animation","180","135037","0.0-5.0-2.87","fertuck1","bdp_lott","Sun Feb 26 2023 12:59:13 GMT-0500 (Eastern Standard Time)","236126","green","red","","","","","","","","","","","138","","","","","","[{""stimulus"":""img/green_lw/1.jpg"",""time"":53},{""stimulus"":""img/green_lw/2.jpg"",""time"":101},{""stimulus"":""img/green_lw/3.jpg"",""time"":154},{""stimulus"":""img/green_lw/4.jpg"",""time"":202},{""stimulus"":""img/green_lw/5.jpg"",""time"":251},{""stimulus"":""img/green_lw/6.jpg"",""time"":303},{""stimulus"":""img/green_lw/7.jpg"",""time"":351},{""stimulus"":""img/green_lw/8.jpg"",""time"":405},{""stimulus"":""img/green_lw/9.jpg"",""time"":453},{""stimulus"":""img/green_lw/10.jpg"",""time"":501},{""stimulus"":""img/green_lw/11.jpg"",""time"":554}]","[]"
"image-keyboard-response","181","135154","0.0-5.0-1.88","fertuck1","bdp_lott","Sun Feb 26 2023 12:59:13 GMT-0500 (Eastern Standard Time)","236126","green","red","","116","","","","","","","img/green_lw/choose11.jpg","1","137","green","0.6","0.2","0.6","l","",""
"animation","182","135758","0.0-5.0-2.88","fertuck1","bdp_lott","Sun Feb 26 2023 12:59:13 GMT-0500 (Eastern Standard Time)","236126","green","red","","","","","","","","","","","137","","","","","","[{""stimulus"":""img/green_lw/1.jpg"",""time"":53},{""stimulus"":""img/green_lw/2.jpg"",""time"":103},{""stimulus"":""img/green_lw/3.jpg"",""time"":154},{""stimulus"":""img/green_lw/4.jpg"",""time"":203},{""stimulus"":""img/green_lw/5.jpg"",""time"":255},{""stimulus"":""img/green_lw/6.jpg"",""time"":303},{""stimulus"":""img/green_lw/7.jpg"",""time"":353},{""stimulus"":""img/green_lw/8.jpg"",""time"":405},{""stimulus"":""img/green_lw/9.jpg"",""time"":454},{""stimulus"":""img/green_lw/10.jpg"",""time"":503},{""stimulus"":""img/green_lw/11.jpg"",""time"":554}]","[]"
"image-keyboard-response","183","135795","0.0-5.0-1.89","fertuck1","bdp_lott","Sun Feb 26 2023 12:59:13 GMT-0500 (Eastern Standard Time)","236126","green","red","","36","","","","","","","img/green_lw/choose11.jpg","1","136","green","0.6","0.2","0.6","l","",""
"animation","184","136399","0.0-5.0-2.89","fertuck1","bdp_lott","Sun Feb 26 2023 12:59:13 GMT-0500 (Eastern Standard Time)","236126","green","red","","","","","","","","","","","136","","","","","","[{""stimulus"":""img/green_lw/1.jpg"",""time"":52},{""stimulus"":""img/green_lw/2.jpg"",""time"":104},{""stimulus"":""img/green_lw/3.jpg"",""time"":154},{""stimulus"":""img/green_lw/4.jpg"",""time"":204},{""stimulus"":""img/green_lw/5.jpg"",""time"":252},{""stimulus"":""img/green_lw/6.jpg"",""time"":304},{""stimulus"":""img/green_lw/7.jpg"",""time"":354},{""stimulus"":""img/green_lw/8.jpg"",""time"":405},{""stimulus"":""img/green_lw/9.jpg"",""time"":454},{""stimulus"":""img/green_lw/10.jpg"",""time"":504},{""stimulus"":""img/green_lw/11.jpg"",""time"":554}]","[]"
"image-keyboard-response","185","136496","0.0-5.0-1.90","fertuck1","bdp_lott","Sun Feb 26 2023 12:59:13 GMT-0500 (Eastern Standard Time)","236126","green","red","","95","","","","","","","img/green_lw/choose11.jpg","1","135","green","0.6","0.2","0.6","w","",""
"animation","186","137101","0.0-5.0-2.90","fertuck1","bdp_lott","Sun Feb 26 2023 12:59:13 GMT-0500 (Eastern Standard Time)","236126","green","red","","","","","","","","","","","135","","","","","","[{""stimulus"":""img/green_ww/1.jpg"",""time"":52},{""stimulus"":""img/green_ww/2.jpg"",""time"":105},{""stimulus"":""img/green_ww/3.jpg"",""time"":153},{""stimulus"":""img/green_ww/4.jpg"",""time"":205},{""stimulus"":""img/green_ww/5.jpg"",""time"":254},{""stimulus"":""img/green_ww/6.jpg"",""time"":304},{""stimulus"":""img/green_ww/7.jpg"",""time"":354},{""stimulus"":""img/green_ww/8.jpg"",""time"":404},{""stimulus"":""img/green_ww/9.jpg"",""time"":456},{""stimulus"":""img/green_ww/10.jpg"",""time"":505},{""stimulus"":""img/green_ww/11.jpg"",""time"":554}]","[]"
"image-keyboard-response","187","137449","0.0-5.0-1.91","fertuck1","bdp_lott","Sun Feb 26 2023 12:59:13 GMT-0500 (Eastern Standard Time)","236126","green","red","","346","","","","","","","img/green_ww/choose11.jpg","1","134","green","0.6","0.2","0.6","l","",""
"animation","188","138049","0.0-5.0-2.91","fertuck1","bdp_lott","Sun Feb 26 2023 12:59:13 GMT-0500 (Eastern Standard Time)","236126","green","red","","","","","","","","","","","134","","","","","","[{""stimulus"":""img/green_lw/1.jpg"",""time"":52},{""stimulus"":""img/green_lw/2.jpg"",""time"":101},{""stimulus"":""img/green_lw/3.jpg"",""time"":153},{""stimulus"":""img/green_lw/4.jpg"",""time"":201},{""stimulus"":""img/green_lw/5.jpg"",""time"":251},{""stimulus"":""img/green_lw/6.jpg"",""time"":303},{""stimulus"":""img/green_lw/7.jpg"",""time"":352},{""stimulus"":""img/green_lw/8.jpg"",""time"":404},{""stimulus"":""img/green_lw/9.jpg"",""time"":452},{""stimulus"":""img/green_lw/10.jpg"",""time"":501},{""stimulus"":""img/green_lw/11.jpg"",""time"":553}]","[]"
"image-keyboard-response","189","138118","0.0-5.0-1.92","fertuck1","bdp_lott","Sun Feb 26 2023 12:59:13 GMT-0500 (Eastern Standard Time)","236126","green","red","","67","","","","","","","img/green_lw/choose11.jpg","1","133","green","0.6","0.2","0.6","l","",""
"animation","190","138722","0.0-5.0-2.92","fertuck1","bdp_lott","Sun Feb 26 2023 12:59:13 GMT-0500 (Eastern Standard Time)","236126","green","red","","","","","","","","","","","133","","","","","","[{""stimulus"":""img/green_lw/1.jpg"",""time"":51},{""stimulus"":""img/green_lw/2.jpg"",""time"":103},{""stimulus"":""img/green_lw/3.jpg"",""time"":151},{""stimulus"":""img/green_lw/4.jpg"",""time"":201},{""stimulus"":""img/green_lw/5.jpg"",""time"":252},{""stimulus"":""img/green_lw/6.jpg"",""time"":301},{""stimulus"":""img/green_lw/7.jpg"",""time"":353},{""stimulus"":""img/green_lw/8.jpg"",""time"":401},{""stimulus"":""img/green_lw/9.jpg"",""time"":451},{""stimulus"":""img/green_lw/10.jpg"",""time"":503},{""stimulus"":""img/green_lw/11.jpg"",""time"":551}]","[]"
"image-keyboard-response","191","138869","0.0-5.0-1.93","fertuck1","bdp_lott","Sun Feb 26 2023 12:59:13 GMT-0500 (Eastern Standard Time)","236126","green","red","","146","","","","","","","img/green_lw/choose11.jpg","1","132","green","0.6","0.2","0.6","w","",""
"animation","192","139470","0.0-5.0-2.93","fertuck1","bdp_lott","Sun Feb 26 2023 12:59:13 GMT-0500 (Eastern Standard Time)","236126","green","red","","","","","","","","","","","132","","","","","","[{""stimulus"":""img/green_ww/1.jpg"",""time"":52},{""stimulus"":""img/green_ww/2.jpg"",""time"":104},{""stimulus"":""img/green_ww/3.jpg"",""time"":151},{""stimulus"":""img/green_ww/4.jpg"",""time"":201},{""stimulus"":""img/green_ww/5.jpg"",""time"":251},{""stimulus"":""img/green_ww/6.jpg"",""time"":305},{""stimulus"":""img/green_ww/7.jpg"",""time"":355},{""stimulus"":""img/green_ww/8.jpg"",""time"":403},{""stimulus"":""img/green_ww/9.jpg"",""time"":451},{""stimulus"":""img/green_ww/10.jpg"",""time"":504},{""stimulus"":""img/green_ww/11.jpg"",""time"":552}]","[]"
"image-keyboard-response","193","139701","0.0-5.0-1.94","fertuck1","bdp_lott","Sun Feb 26 2023 12:59:13 GMT-0500 (Eastern Standard Time)","236126","green","red","","229","","","","","","","img/green_ww/choose11.jpg","1","131","green","0.6","0.2","0.6","w","",""
"animation","194","140302","0.0-5.0-2.94","fertuck1","bdp_lott","Sun Feb 26 2023 12:59:13 GMT-0500 (Eastern Standard Time)","236126","green","red","","","","","","","","","","","131","","","","","","[{""stimulus"":""img/green_ww/1.jpg"",""time"":51},{""stimulus"":""img/green_ww/2.jpg"",""time"":104},{""stimulus"":""img/green_ww/3.jpg"",""time"":152},{""stimulus"":""img/green_ww/4.jpg"",""time"":201},{""stimulus"":""img/green_ww/5.jpg"",""time"":253},{""stimulus"":""img/green_ww/6.jpg"",""time"":301},{""stimulus"":""img/green_ww/7.jpg"",""time"":351},{""stimulus"":""img/green_ww/8.jpg"",""time"":403},{""stimulus"":""img/green_ww/9.jpg"",""time"":451},{""stimulus"":""img/green_ww/10.jpg"",""time"":504},{""stimulus"":""img/green_ww/11.jpg"",""time"":552}]","[]"
"image-keyboard-response","195","140472","0.0-5.0-1.95","fertuck1","bdp_lott","Sun Feb 26 2023 12:59:13 GMT-0500 (Eastern Standard Time)","236126","green","red","","169","","","","","","","img/green_ww/choose11.jpg","1","130","green","0.6","0.2","0.6","w","",""
