"trial_type","trial_index","time_elapsed","internal_node_id","subject_id","task","startTime","totalTime","fairMachine","unfairMachine","view_history","rt","event","trial","time","trialtype","success","stimulus","key_press","roundsLeft","chosen","pFairMachWin","pUnfairMachWin","pTrialWin","outcome","animation_sequence","responses","numBlurs"
"pavlovia","0","2","0.0-0.0","5b184f9768a5ed0001734190","bdp_lott","Mon Mar 27 2023 00:37:12 GMT-0700 (Pacific Daylight Time)","576229","green","red","","","","","","","","","","","","","","","","","",""
"instructions","1","9173","0.0-1.0","5b184f9768a5ed0001734190","bdp_lott","Mon Mar 27 2023 00:37:12 GMT-0700 (Pacific Daylight Time)","576229","green","red","[{""page_index"":0,""viewing_time"":9171}]","9171","","","","","","","","","","","","","","","",""
"","","","","5b184f9768a5ed0001734190","bdp_lott","Mon Mar 27 2023 00:37:12 GMT-0700 (Pacific Daylight Time)","576229","green","red","","","fullscreenenter","2","13052","fullscreenenter","","","","","","","","","","","",""
"fullscreen","2","14041","0.0-2.0","5b184f9768a5ed0001734190","bdp_lott","Mon Mar 27 2023 00:37:12 GMT-0700 (Pacific Daylight Time)","576229","green","red","","","","","","","true","","","","","","","","","","",""
"instructions","3","46244","0.0-4.0","5b184f9768a5ed0001734190","bdp_lott","Mon Mar 27 2023 00:37:12 GMT-0700 (Pacific Daylight Time)","576229","green","red","[{""page_index"":0,""viewing_time"":32200}]","32200","","","","","","","","","","","","","","","",""
"image-keyboard-response","4","46875","0.0-5.0-1.0","5b184f9768a5ed0001734190","bdp_lott","Mon Mar 27 2023 00:37:12 GMT-0700 (Pacific Daylight Time)","576229","green","red","","630","","","","choice","","img/red_ll/initchoose11.jpg","1","225","green","0.5","0.5","0.5","l","","",""
"animation","5","47481","0.0-5.0-2.0","5b184f9768a5ed0001734190","bdp_lott","Mon Mar 27 2023 00:37:12 GMT-0700 (Pacific Daylight Time)","576229","green","red","","","","","","","","","","225","","","","","","[{""stimulus"":""img/green_ll/1.jpg"",""time"":56},{""stimulus"":""img/green_ll/2.jpg"",""time"":103},{""stimulus"":""img/green_ll/3.jpg"",""time"":151},{""stimulus"":""img/green_ll/4.jpg"",""time"":214},{""stimulus"":""img/green_ll/5.jpg"",""time"":252},{""stimulus"":""img/green_ll/6.jpg"",""time"":302},{""stimulus"":""img/green_ll/7.jpg"",""time"":352},{""stimulus"":""img/green_ll/8.jpg"",""time"":402},{""stimulus"":""img/green_ll/9.jpg"",""time"":452},{""stimulus"":""img/green_ll/10.jpg"",""time"":501},{""stimulus"":""img/green_ll/11.jpg"",""time"":550}]","[]",""
"image-keyboard-response","6","48931","0.0-5.0-1.1","5b184f9768a5ed0001734190","bdp_lott","Mon Mar 27 2023 00:37:12 GMT-0700 (Pacific Daylight Time)","576229","green","red","","1449","","","","choice","","img/green_ll/choose11.jpg","2","224","red","0.5","0.5","0.5","l","","",""
"animation","7","49534","0.0-5.0-2.1","5b184f9768a5ed0001734190","bdp_lott","Mon Mar 27 2023 00:37:12 GMT-0700 (Pacific Daylight Time)","576229","green","red","","","","","","","","","","224","","","","","","[{""stimulus"":""img/red_ll/1.jpg"",""time"":51},{""stimulus"":""img/red_ll/2.jpg"",""time"":102},{""stimulus"":""img/red_ll/3.jpg"",""time"":165},{""stimulus"":""img/red_ll/4.jpg"",""time"":201},{""stimulus"":""img/red_ll/5.jpg"",""time"":259},{""stimulus"":""img/red_ll/6.jpg"",""time"":301},{""stimulus"":""img/red_ll/7.jpg"",""time"":351},{""stimulus"":""img/red_ll/8.jpg"",""time"":401},{""stimulus"":""img/red_ll/9.jpg"",""time"":451},{""stimulus"":""img/red_ll/10.jpg"",""time"":509},{""stimulus"":""img/red_ll/11.jpg"",""time"":551}]","[]",""
"image-keyboard-response","8","50483","0.0-5.0-1.2","5b184f9768a5ed0001734190","bdp_lott","Mon Mar 27 2023 00:37:12 GMT-0700 (Pacific Daylight Time)","576229","green","red","","948","","","","choice","","img/red_ll/choose11.jpg","2","223","red","0.5","0.5","0.5","w","","",""
"animation","9","51084","0.0-5.0-2.2","5b184f9768a5ed0001734190","bdp_lott","Mon Mar 27 2023 00:37:12 GMT-0700 (Pacific Daylight Time)","576229","green","red","","","","","","","","","","223","","","","","","[{""stimulus"":""img/red_lw/1.jpg"",""time"":52},{""stimulus"":""img/red_lw/2.jpg"",""time"":104},{""stimulus"":""img/red_lw/3.jpg"",""time"":157},{""stimulus"":""img/red_lw/4.jpg"",""time"":205},{""stimulus"":""img/red_lw/5.jpg"",""time"":253},{""stimulus"":""img/red_lw/6.jpg"",""time"":300},{""stimulus"":""img/red_lw/7.jpg"",""time"":351},{""stimulus"":""img/red_lw/8.jpg"",""time"":412},{""stimulus"":""img/red_lw/9.jpg"",""time"":459},{""stimulus"":""img/red_lw/10.jpg"",""time"":507},{""stimulus"":""img/red_lw/11.jpg"",""time"":551}]","[]",""
"image-keyboard-response","10","52434","0.0-5.0-1.3","5b184f9768a5ed0001734190","bdp_lott","Mon Mar 27 2023 00:37:12 GMT-0700 (Pacific Daylight Time)","576229","green","red","","1350","","","","choice","","img/red_lw/choose11.jpg","2","222","red","0.5","0.5","0.5","w","","",""
"animation","11","53047","0.0-5.0-2.3","5b184f9768a5ed0001734190","bdp_lott","Mon Mar 27 2023 00:37:12 GMT-0700 (Pacific Daylight Time)","576229","green","red","","","","","","","","","","222","","","","","","[{""stimulus"":""img/red_lw/1.jpg"",""time"":51},{""stimulus"":""img/red_lw/2.jpg"",""time"":105},{""stimulus"":""img/red_lw/3.jpg"",""time"":153},{""stimulus"":""img/red_lw/4.jpg"",""time"":201},{""stimulus"":""img/red_lw/5.jpg"",""time"":263},{""stimulus"":""img/red_lw/6.jpg"",""time"":301},{""stimulus"":""img/red_lw/7.jpg"",""time"":350},{""stimulus"":""img/red_lw/8.jpg"",""time"":400},{""stimulus"":""img/red_lw/9.jpg"",""time"":454},{""stimulus"":""img/red_lw/10.jpg"",""time"":501},{""stimulus"":""img/red_lw/11.jpg"",""time"":551}]","[]",""
"image-keyboard-response","12","54082","0.0-5.0-1.4","5b184f9768a5ed0001734190","bdp_lott","Mon Mar 27 2023 00:37:12 GMT-0700 (Pacific Daylight Time)","576229","green","red","","1035","","","","choice","","img/red_lw/choose11.jpg","2","221","red","0.5","0.5","0.5","w","","",""
"animation","13","54683","0.0-5.0-2.4","5b184f9768a5ed0001734190","bdp_lott","Mon Mar 27 2023 00:37:12 GMT-0700 (Pacific Daylight Time)","576229","green","red","","","","","","","","","","221","","","","","","[{""stimulus"":""img/red_lw/1.jpg"",""time"":57},{""stimulus"":""img/red_lw/2.jpg"",""time"":104},{""stimulus"":""img/red_lw/3.jpg"",""time"":167},{""stimulus"":""img/red_lw/4.jpg"",""time"":213},{""stimulus"":""img/red_lw/5.jpg"",""time"":261},{""stimulus"":""img/red_lw/6.jpg"",""time"":301},{""stimulus"":""img/red_lw/7.jpg"",""time"":353},{""stimulus"":""img/red_lw/8.jpg"",""time"":401},{""stimulus"":""img/red_lw/9.jpg"",""time"":463},{""stimulus"":""img/red_lw/10.jpg"",""time"":510},{""stimulus"":""img/red_lw/11.jpg"",""time"":557}]","[]",""
"image-keyboard-response","14","55906","0.0-5.0-1.5","5b184f9768a5ed0001734190","bdp_lott","Mon Mar 27 2023 00:37:12 GMT-0700 (Pacific Daylight Time)","576229","green","red","","1223","","","","choice","","img/red_lw/choose11.jpg","2","220","red","0.5","0.5","0.5","l","","",""
"animation","15","56519","0.0-5.0-2.5","5b184f9768a5ed0001734190","bdp_lott","Mon Mar 27 2023 00:37:12 GMT-0700 (Pacific Daylight Time)","576229","green","red","","","","","","","","","","220","","","","","","[{""stimulus"":""img/red_ll/1.jpg"",""time"":50},{""stimulus"":""img/red_ll/2.jpg"",""time"":100},{""stimulus"":""img/red_ll/3.jpg"",""time"":154},{""stimulus"":""img/red_ll/4.jpg"",""time"":200},{""stimulus"":""img/red_ll/5.jpg"",""time"":264},{""stimulus"":""img/red_ll/6.jpg"",""time"":312},{""stimulus"":""img/red_ll/7.jpg"",""time"":359},{""stimulus"":""img/red_ll/8.jpg"",""time"":400},{""stimulus"":""img/red_ll/9.jpg"",""time"":450},{""stimulus"":""img/red_ll/10.jpg"",""time"":501},{""stimulus"":""img/red_ll/11.jpg"",""time"":564}]","[]",""
"image-keyboard-response","16","57571","0.0-5.0-1.6","5b184f9768a5ed0001734190","bdp_lott","Mon Mar 27 2023 00:37:12 GMT-0700 (Pacific Daylight Time)","576229","green","red","","1051","","","","choice","","img/red_ll/choose11.jpg","1","219","green","0.5","0.5","0.5","l","","",""
"animation","17","58175","0.0-5.0-2.6","5b184f9768a5ed0001734190","bdp_lott","Mon Mar 27 2023 00:37:12 GMT-0700 (Pacific Daylight Time)","576229","green","red","","","","","","","","","","219","","","","","","[{""stimulus"":""img/green_ll/1.jpg"",""time"":51},{""stimulus"":""img/green_ll/2.jpg"",""time"":115},{""stimulus"":""img/green_ll/3.jpg"",""time"":151},{""stimulus"":""img/green_ll/4.jpg"",""time"":201},{""stimulus"":""img/green_ll/5.jpg"",""time"":251},{""stimulus"":""img/green_ll/6.jpg"",""time"":304},{""stimulus"":""img/green_ll/7.jpg"",""time"":350},{""stimulus"":""img/green_ll/8.jpg"",""time"":415},{""stimulus"":""img/green_ll/9.jpg"",""time"":450},{""stimulus"":""img/green_ll/10.jpg"",""time"":508},{""stimulus"":""img/green_ll/11.jpg"",""time"":556}]","[]",""
"image-keyboard-response","18","59106","0.0-5.0-1.7","5b184f9768a5ed0001734190","bdp_lott","Mon Mar 27 2023 00:37:12 GMT-0700 (Pacific Daylight Time)","576229","green","red","","931","","","","choice","","img/green_ll/choose11.jpg","1","218","green","0.5","0.5","0.5","w","","",""
"animation","19","59707","0.0-5.0-2.7","5b184f9768a5ed0001734190","bdp_lott","Mon Mar 27 2023 00:37:12 GMT-0700 (Pacific Daylight Time)","576229","green","red","","","","","","","","","","218","","","","","","[{""stimulus"":""img/green_wl/1.jpg"",""time"":66},{""stimulus"":""img/green_wl/2.jpg"",""time"":101},{""stimulus"":""img/green_wl/3.jpg"",""time"":159},{""stimulus"":""img/green_wl/4.jpg"",""time"":201},{""stimulus"":""img/green_wl/5.jpg"",""time"":251},{""stimulus"":""img/green_wl/6.jpg"",""time"":316},{""stimulus"":""img/green_wl/7.jpg"",""time"":351},{""stimulus"":""img/green_wl/8.jpg"",""time"":401},{""stimulus"":""img/green_wl/9.jpg"",""time"":451},{""stimulus"":""img/green_wl/10.jpg"",""time"":504},{""stimulus"":""img/green_wl/11.jpg"",""time"":566}]","[]",""
"image-keyboard-response","20","60786","0.0-5.0-1.8","5b184f9768a5ed0001734190","bdp_lott","Mon Mar 27 2023 00:37:12 GMT-0700 (Pacific Daylight Time)","576229","green","red","","1079","","","","choice","","img/green_wl/choose11.jpg","1","217","green","0.5","0.5","0.5","w","","",""
"animation","21","61387","0.0-5.0-2.8","5b184f9768a5ed0001734190","bdp_lott","Mon Mar 27 2023 00:37:12 GMT-0700 (Pacific Daylight Time)","576229","green","red","","","","","","","","","","217","","","","","","[{""stimulus"":""img/green_wl/1.jpg"",""time"":53},{""stimulus"":""img/green_wl/2.jpg"",""time"":100},{""stimulus"":""img/green_wl/3.jpg"",""time"":165},{""stimulus"":""img/green_wl/4.jpg"",""time"":201},{""stimulus"":""img/green_wl/5.jpg"",""time"":251},{""stimulus"":""img/green_wl/6.jpg"",""time"":300},{""stimulus"":""img/green_wl/7.jpg"",""time"":352},{""stimulus"":""img/green_wl/8.jpg"",""time"":401},{""stimulus"":""img/green_wl/9.jpg"",""time"":450},{""stimulus"":""img/green_wl/10.jpg"",""time"":513},{""stimulus"":""img/green_wl/11.jpg"",""time"":551}]","[]",""
"image-keyboard-response","22","62266","0.0-5.0-1.9","5b184f9768a5ed0001734190","bdp_lott","Mon Mar 27 2023 00:37:12 GMT-0700 (Pacific Daylight Time)","576229","green","red","","879","","","","choice","","img/green_wl/choose11.jpg","1","216","green","0.5","0.5","0.5","w","","",""
"animation","23","62866","0.0-5.0-2.9","5b184f9768a5ed0001734190","bdp_lott","Mon Mar 27 2023 00:37:12 GMT-0700 (Pacific Daylight Time)","576229","green","red","","","","","","","","","","216","","","","","","[{""stimulus"":""img/green_wl/1.jpg"",""time"":56},{""stimulus"":""img/green_wl/2.jpg"",""time"":112},{""stimulus"":""img/green_wl/3.jpg"",""time"":158},{""stimulus"":""img/green_wl/4.jpg"",""time"":206},{""stimulus"":""img/green_wl/5.jpg"",""time"":253},{""stimulus"":""img/green_wl/6.jpg"",""time"":301},{""stimulus"":""img/green_wl/7.jpg"",""time"":351},{""stimulus"":""img/green_wl/8.jpg"",""time"":412},{""stimulus"":""img/green_wl/9.jpg"",""time"":451},{""stimulus"":""img/green_wl/10.jpg"",""time"":507},{""stimulus"":""img/green_wl/11.jpg"",""time"":554}]","[]",""
"image-keyboard-response","24","63722","0.0-5.0-1.10","5b184f9768a5ed0001734190","bdp_lott","Mon Mar 27 2023 00:37:12 GMT-0700 (Pacific Daylight Time)","576229","green","red","","855","","","","choice","","img/green_wl/choose11.jpg","2","215","red","0.5","0.5","0.5","l","","",""
"animation","25","64322","0.0-5.0-2.10","5b184f9768a5ed0001734190","bdp_lott","Mon Mar 27 2023 00:37:12 GMT-0700 (Pacific Daylight Time)","576229","green","red","","","","","","","","","","215","","","","","","[{""stimulus"":""img/red_wl/1.jpg"",""time"":50},{""stimulus"":""img/red_wl/2.jpg"",""time"":112},{""stimulus"":""img/red_wl/3.jpg"",""time"":151},{""stimulus"":""img/red_wl/4.jpg"",""time"":202},{""stimulus"":""img/red_wl/5.jpg"",""time"":251},{""stimulus"":""img/red_wl/6.jpg"",""time"":316},{""stimulus"":""img/red_wl/7.jpg"",""time"":352},{""stimulus"":""img/red_wl/8.jpg"",""time"":401},{""stimulus"":""img/red_wl/9.jpg"",""time"":456},{""stimulus"":""img/red_wl/10.jpg"",""time"":502},{""stimulus"":""img/red_wl/11.jpg"",""time"":551}]","[]",""
"image-keyboard-response","26","65346","0.0-5.0-1.11","5b184f9768a5ed0001734190","bdp_lott","Mon Mar 27 2023 00:37:12 GMT-0700 (Pacific Daylight Time)","576229","green","red","","1023","","","","choice","","img/red_wl/choose11.jpg","2","214","red","0.5","0.5","0.5","l","","",""
"animation","27","65960","0.0-5.0-2.11","5b184f9768a5ed0001734190","bdp_lott","Mon Mar 27 2023 00:37:12 GMT-0700 (Pacific Daylight Time)","576229","green","red","","","","","","","","","","214","","","","","","[{""stimulus"":""img/red_wl/1.jpg"",""time"":59},{""stimulus"":""img/red_wl/2.jpg"",""time"":106},{""stimulus"":""img/red_wl/3.jpg"",""time"":151},{""stimulus"":""img/red_wl/4.jpg"",""time"":216},{""stimulus"":""img/red_wl/5.jpg"",""time"":251},{""stimulus"":""img/red_wl/6.jpg"",""time"":312},{""stimulus"":""img/red_wl/7.jpg"",""time"":359},{""stimulus"":""img/red_wl/8.jpg"",""time"":408},{""stimulus"":""img/red_wl/9.jpg"",""time"":455},{""stimulus"":""img/red_wl/10.jpg"",""time"":503},{""stimulus"":""img/red_wl/11.jpg"",""time"":551}]","[]",""
"image-keyboard-response","28","66538","0.0-5.0-1.12","5b184f9768a5ed0001734190","bdp_lott","Mon Mar 27 2023 00:37:12 GMT-0700 (Pacific Daylight Time)","576229","green","red","","578","","","","choice","","img/red_wl/choose11.jpg","1","213","green","0.5","0.5","0.5","l","","",""
"animation","29","67146","0.0-5.0-2.12","5b184f9768a5ed0001734190","bdp_lott","Mon Mar 27 2023 00:37:12 GMT-0700 (Pacific Daylight Time)","576229","green","red","","","","","","","","","","213","","","","","","[{""stimulus"":""img/green_ll/1.jpg"",""time"":51},{""stimulus"":""img/green_ll/2.jpg"",""time"":112},{""stimulus"":""img/green_ll/3.jpg"",""time"":150},{""stimulus"":""img/green_ll/4.jpg"",""time"":211},{""stimulus"":""img/green_ll/5.jpg"",""time"":259},{""stimulus"":""img/green_ll/6.jpg"",""time"":306},{""stimulus"":""img/green_ll/7.jpg"",""time"":353},{""stimulus"":""img/green_ll/8.jpg"",""time"":400},{""stimulus"":""img/green_ll/9.jpg"",""time"":451},{""stimulus"":""img/green_ll/10.jpg"",""time"":512},{""stimulus"":""img/green_ll/11.jpg"",""time"":550}]","[]",""
"image-keyboard-response","30","67963","0.0-5.0-1.13","5b184f9768a5ed0001734190","bdp_lott","Mon Mar 27 2023 00:37:12 GMT-0700 (Pacific Daylight Time)","576229","green","red","","816","","","","choice","","img/green_ll/choose11.jpg","1","212","green","0.5","0.5","0.5","l","","",""
"animation","31","68569","0.0-5.0-2.13","5b184f9768a5ed0001734190","bdp_lott","Mon Mar 27 2023 00:37:12 GMT-0700 (Pacific Daylight Time)","576229","green","red","","","","","","","","","","212","","","","","","[{""stimulus"":""img/green_ll/1.jpg"",""time"":50},{""stimulus"":""img/green_ll/2.jpg"",""time"":100},{""stimulus"":""img/green_ll/3.jpg"",""time"":151},{""stimulus"":""img/green_ll/4.jpg"",""time"":209},{""stimulus"":""img/green_ll/5.jpg"",""time"":257},{""stimulus"":""img/green_ll/6.jpg"",""time"":300},{""stimulus"":""img/green_ll/7.jpg"",""time"":352},{""stimulus"":""img/green_ll/8.jpg"",""time"":400},{""stimulus"":""img/green_ll/9.jpg"",""time"":463},{""stimulus"":""img/green_ll/10.jpg"",""time"":511},{""stimulus"":""img/green_ll/11.jpg"",""time"":558}]","[]",""
"image-keyboard-response","32","69306","0.0-5.0-1.14","5b184f9768a5ed0001734190","bdp_lott","Mon Mar 27 2023 00:37:12 GMT-0700 (Pacific Daylight Time)","576229","green","red","","737","","","","choice","","img/green_ll/choose11.jpg","2","211","red","0.5","0.5","0.5","l","","",""
"animation","33","69911","0.0-5.0-2.14","5b184f9768a5ed0001734190","bdp_lott","Mon Mar 27 2023 00:37:12 GMT-0700 (Pacific Daylight Time)","576229","green","red","","","","","","","","","","211","","","","","","[{""stimulus"":""img/red_ll/1.jpg"",""time"":51},{""stimulus"":""img/red_ll/2.jpg"",""time"":115},{""stimulus"":""img/red_ll/3.jpg"",""time"":163},{""stimulus"":""img/red_ll/4.jpg"",""time"":210},{""stimulus"":""img/red_ll/5.jpg"",""time"":258},{""stimulus"":""img/red_ll/6.jpg"",""time"":306},{""stimulus"":""img/red_ll/7.jpg"",""time"":353},{""stimulus"":""img/red_ll/8.jpg"",""time"":416},{""stimulus"":""img/red_ll/9.jpg"",""time"":463},{""stimulus"":""img/red_ll/10.jpg"",""time"":511},{""stimulus"":""img/red_ll/11.jpg"",""time"":558}]","[]",""
"image-keyboard-response","34","70706","0.0-5.0-1.15","5b184f9768a5ed0001734190","bdp_lott","Mon Mar 27 2023 00:37:12 GMT-0700 (Pacific Daylight Time)","576229","green","red","","795","","","","choice","","img/red_ll/choose11.jpg","2","210","red","0.5","0.5","0.5","l","","",""
"animation","35","71315","0.0-5.0-2.15","5b184f9768a5ed0001734190","bdp_lott","Mon Mar 27 2023 00:37:12 GMT-0700 (Pacific Daylight Time)","576229","green","red","","","","","","","","","","210","","","","","","[{""stimulus"":""img/red_ll/1.jpg"",""time"":57},{""stimulus"":""img/red_ll/2.jpg"",""time"":104},{""stimulus"":""img/red_ll/3.jpg"",""time"":152},{""stimulus"":""img/red_ll/4.jpg"",""time"":214},{""stimulus"":""img/red_ll/5.jpg"",""time"":261},{""stimulus"":""img/red_ll/6.jpg"",""time"":300},{""stimulus"":""img/red_ll/7.jpg"",""time"":356},{""stimulus"":""img/red_ll/8.jpg"",""time"":403},{""stimulus"":""img/red_ll/9.jpg"",""time"":451},{""stimulus"":""img/red_ll/10.jpg"",""time"":515},{""stimulus"":""img/red_ll/11.jpg"",""time"":562}]","[]",""
"image-keyboard-response","36","72506","0.0-5.0-1.16","5b184f9768a5ed0001734190","bdp_lott","Mon Mar 27 2023 00:37:12 GMT-0700 (Pacific Daylight Time)","576229","green","red","","1190","","","","choice","","img/red_ll/choose11.jpg","1","209","green","0.5","0.5","0.5","w","","",""
"animation","37","73107","0.0-5.0-2.16","5b184f9768a5ed0001734190","bdp_lott","Mon Mar 27 2023 00:37:12 GMT-0700 (Pacific Daylight Time)","576229","green","red","","","","","","","","","","209","","","","","","[{""stimulus"":""img/green_wl/1.jpg"",""time"":60},{""stimulus"":""img/green_wl/2.jpg"",""time"":109},{""stimulus"":""img/green_wl/3.jpg"",""time"":156},{""stimulus"":""img/green_wl/4.jpg"",""time"":201},{""stimulus"":""img/green_wl/5.jpg"",""time"":250},{""stimulus"":""img/green_wl/6.jpg"",""time"":301},{""stimulus"":""img/green_wl/7.jpg"",""time"":363},{""stimulus"":""img/green_wl/8.jpg"",""time"":410},{""stimulus"":""img/green_wl/9.jpg"",""time"":450},{""stimulus"":""img/green_wl/10.jpg"",""time"":504},{""stimulus"":""img/green_wl/11.jpg"",""time"":551}]","[]",""
"image-keyboard-response","38","74138","0.0-5.0-1.17","5b184f9768a5ed0001734190","bdp_lott","Mon Mar 27 2023 00:37:12 GMT-0700 (Pacific Daylight Time)","576229","green","red","","1031","","","","choice","","img/green_wl/choose11.jpg","1","208","green","0.5","0.5","0.5","w","","",""
"animation","39","74748","0.0-5.0-2.17","5b184f9768a5ed0001734190","bdp_lott","Mon Mar 27 2023 00:37:12 GMT-0700 (Pacific Daylight Time)","576229","green","red","","","","","","","","","","208","","","","","","[{""stimulus"":""img/green_wl/1.jpg"",""time"":54},{""stimulus"":""img/green_wl/2.jpg"",""time"":102},{""stimulus"":""img/green_wl/3.jpg"",""time"":151},{""stimulus"":""img/green_wl/4.jpg"",""time"":214},{""stimulus"":""img/green_wl/5.jpg"",""time"":261},{""stimulus"":""img/green_wl/6.jpg"",""time"":301},{""stimulus"":""img/green_wl/7.jpg"",""time"":355},{""stimulus"":""img/green_wl/8.jpg"",""time"":403},{""stimulus"":""img/green_wl/9.jpg"",""time"":451},{""stimulus"":""img/green_wl/10.jpg"",""time"":515},{""stimulus"":""img/green_wl/11.jpg"",""time"":551}]","[]",""
"image-keyboard-response","40","75985","0.0-5.0-1.18","5b184f9768a5ed0001734190","bdp_lott","Mon Mar 27 2023 00:37:12 GMT-0700 (Pacific Daylight Time)","576229","green","red","","1237","","","","choice","","img/green_wl/choose11.jpg","1","207","green","0.5","0.5","0.5","l","","",""
"animation","41","76600","0.0-5.0-2.18","5b184f9768a5ed0001734190","bdp_lott","Mon Mar 27 2023 00:37:12 GMT-0700 (Pacific Daylight Time)","576229","green","red","","","","","","","","","","207","","","","","","[{""stimulus"":""img/green_ll/1.jpg"",""time"":60},{""stimulus"":""img/green_ll/2.jpg"",""time"":108},{""stimulus"":""img/green_ll/3.jpg"",""time"":150},{""stimulus"":""img/green_ll/4.jpg"",""time"":200},{""stimulus"":""img/green_ll/5.jpg"",""time"":250},{""stimulus"":""img/green_ll/6.jpg"",""time"":300},{""stimulus"":""img/green_ll/7.jpg"",""time"":350},{""stimulus"":""img/green_ll/8.jpg"",""time"":401},{""stimulus"":""img/green_ll/9.jpg"",""time"":456},{""stimulus"":""img/green_ll/10.jpg"",""time"":503},{""stimulus"":""img/green_ll/11.jpg"",""time"":550}]","[]",""
"image-keyboard-response","42","77961","0.0-5.0-1.19","5b184f9768a5ed0001734190","bdp_lott","Mon Mar 27 2023 00:37:12 GMT-0700 (Pacific Daylight Time)","576229","green","red","","1361","","","","choice","","img/green_ll/choose11.jpg","1","206","green","0.5","0.5","0.5","l","","",""
"animation","43","78571","0.0-5.0-2.19","5b184f9768a5ed0001734190","bdp_lott","Mon Mar 27 2023 00:37:12 GMT-0700 (Pacific Daylight Time)","576229","green","red","","","","","","","","","","206","","","","","","[{""stimulus"":""img/green_ll/1.jpg"",""time"":55},{""stimulus"":""img/green_ll/2.jpg"",""time"":103},{""stimulus"":""img/green_ll/3.jpg"",""time"":150},{""stimulus"":""img/green_ll/4.jpg"",""time"":215},{""stimulus"":""img/green_ll/5.jpg"",""time"":261},{""stimulus"":""img/green_ll/6.jpg"",""time"":309},{""stimulus"":""img/green_ll/7.jpg"",""time"":357},{""stimulus"":""img/green_ll/8.jpg"",""time"":400},{""stimulus"":""img/green_ll/9.jpg"",""time"":450},{""stimulus"":""img/green_ll/10.jpg"",""time"":500},{""stimulus"":""img/green_ll/11.jpg"",""time"":562}]","[]",""
"image-keyboard-response","44","79170","0.0-5.0-1.20","5b184f9768a5ed0001734190","bdp_lott","Mon Mar 27 2023 00:37:12 GMT-0700 (Pacific Daylight Time)","576229","green","red","","599","","","","choice","","img/green_ll/choose11.jpg","2","205","red","0.5","0.5","0.5","l","","",""
"animation","45","79770","0.0-5.0-2.20","5b184f9768a5ed0001734190","bdp_lott","Mon Mar 27 2023 00:37:12 GMT-0700 (Pacific Daylight Time)","576229","green","red","","","","","","","","","","205","","","","","","[{""stimulus"":""img/red_ll/1.jpg"",""time"":51},{""stimulus"":""img/red_ll/2.jpg"",""time"":101},{""stimulus"":""img/red_ll/3.jpg"",""time"":150},{""stimulus"":""img/red_ll/4.jpg"",""time"":205},{""stimulus"":""img/red_ll/5.jpg"",""time"":251},{""stimulus"":""img/red_ll/6.jpg"",""time"":300},{""stimulus"":""img/red_ll/7.jpg"",""time"":351},{""stimulus"":""img/red_ll/8.jpg"",""time"":410},{""stimulus"":""img/red_ll/9.jpg"",""time"":451},{""stimulus"":""img/red_ll/10.jpg"",""time"":506},{""stimulus"":""img/red_ll/11.jpg"",""time"":553}]","[]",""
"image-keyboard-response","46","80682","0.0-5.0-1.21","5b184f9768a5ed0001734190","bdp_lott","Mon Mar 27 2023 00:37:12 GMT-0700 (Pacific Daylight Time)","576229","green","red","","911","","","","choice","","img/red_ll/choose11.jpg","2","204","red","0.5","0.5","0.5","w","","",""
"animation","47","81283","0.0-5.0-2.21","5b184f9768a5ed0001734190","bdp_lott","Mon Mar 27 2023 00:37:12 GMT-0700 (Pacific Daylight Time)","576229","green","red","","","","","","","","","","204","","","","","","[{""stimulus"":""img/red_lw/1.jpg"",""time"":50},{""stimulus"":""img/red_lw/2.jpg"",""time"":101},{""stimulus"":""img/red_lw/3.jpg"",""time"":151},{""stimulus"":""img/red_lw/4.jpg"",""time"":200},{""stimulus"":""img/red_lw/5.jpg"",""time"":257},{""stimulus"":""img/red_lw/6.jpg"",""time"":305},{""stimulus"":""img/red_lw/7.jpg"",""time"":352},{""stimulus"":""img/red_lw/8.jpg"",""time"":400},{""stimulus"":""img/red_lw/9.jpg"",""time"":462},{""stimulus"":""img/red_lw/10.jpg"",""time"":510},{""stimulus"":""img/red_lw/11.jpg"",""time"":551}]","[]",""
"image-keyboard-response","48","82145","0.0-5.0-1.22","5b184f9768a5ed0001734190","bdp_lott","Mon Mar 27 2023 00:37:12 GMT-0700 (Pacific Daylight Time)","576229","green","red","","861","","","","choice","","img/red_lw/choose11.jpg","2","203","red","0.5","0.5","0.5","l","","",""
"animation","49","82747","0.0-5.0-2.22","5b184f9768a5ed0001734190","bdp_lott","Mon Mar 27 2023 00:37:12 GMT-0700 (Pacific Daylight Time)","576229","green","red","","","","","","","","","","203","","","","","","[{""stimulus"":""img/red_ll/1.jpg"",""time"":50},{""stimulus"":""img/red_ll/2.jpg"",""time"":103},{""stimulus"":""img/red_ll/3.jpg"",""time"":152},{""stimulus"":""img/red_ll/4.jpg"",""time"":214},{""stimulus"":""img/red_ll/5.jpg"",""time"":262},{""stimulus"":""img/red_ll/6.jpg"",""time"":300},{""stimulus"":""img/red_ll/7.jpg"",""time"":358},{""stimulus"":""img/red_ll/8.jpg"",""time"":407},{""stimulus"":""img/red_ll/9.jpg"",""time"":450},{""stimulus"":""img/red_ll/10.jpg"",""time"":502},{""stimulus"":""img/red_ll/11.jpg"",""time"":551}]","[]",""
"image-keyboard-response","50","83761","0.0-5.0-1.23","5b184f9768a5ed0001734190","bdp_lott","Mon Mar 27 2023 00:37:12 GMT-0700 (Pacific Daylight Time)","576229","green","red","","1014","","","","choice","","img/red_ll/choose11.jpg","1","202","green","0.5","0.5","0.5","l","","",""
"animation","51","84372","0.0-5.0-2.23","5b184f9768a5ed0001734190","bdp_lott","Mon Mar 27 2023 00:37:12 GMT-0700 (Pacific Daylight Time)","576229","green","red","","","","","","","","","","202","","","","","","[{""stimulus"":""img/green_ll/1.jpg"",""time"":51},{""stimulus"":""img/green_ll/2.jpg"",""time"":104},{""stimulus"":""img/green_ll/3.jpg"",""time"":152},{""stimulus"":""img/green_ll/4.jpg"",""time"":201},{""stimulus"":""img/green_ll/5.jpg"",""time"":251},{""stimulus"":""img/green_ll/6.jpg"",""time"":311},{""stimulus"":""img/green_ll/7.jpg"",""time"":351},{""stimulus"":""img/green_ll/8.jpg"",""time"":401},{""stimulus"":""img/green_ll/9.jpg"",""time"":451},{""stimulus"":""img/green_ll/10.jpg"",""time"":501},{""stimulus"":""img/green_ll/11.jpg"",""time"":551}]","[]",""
"image-keyboard-response","52","85201","0.0-5.0-1.24","5b184f9768a5ed0001734190","bdp_lott","Mon Mar 27 2023 00:37:12 GMT-0700 (Pacific Daylight Time)","576229","green","red","","829","","","","choice","","img/green_ll/choose11.jpg","1","201","green","0.5","0.5","0.5","w","","",""
"animation","53","85802","0.0-5.0-2.24","5b184f9768a5ed0001734190","bdp_lott","Mon Mar 27 2023 00:37:12 GMT-0700 (Pacific Daylight Time)","576229","green","red","","","","","","","","","","201","","","","","","[{""stimulus"":""img/green_wl/1.jpg"",""time"":54},{""stimulus"":""img/green_wl/2.jpg"",""time"":101},{""stimulus"":""img/green_wl/3.jpg"",""time"":165},{""stimulus"":""img/green_wl/4.jpg"",""time"":201},{""stimulus"":""img/green_wl/5.jpg"",""time"":260},{""stimulus"":""img/green_wl/6.jpg"",""time"":301},{""stimulus"":""img/green_wl/7.jpg"",""time"":356},{""stimulus"":""img/green_wl/8.jpg"",""time"":401},{""stimulus"":""img/green_wl/9.jpg"",""time"":451},{""stimulus"":""img/green_wl/10.jpg"",""time"":501},{""stimulus"":""img/green_wl/11.jpg"",""time"":551}]","[]",""
"image-keyboard-response","54","87385","0.0-5.0-1.25","5b184f9768a5ed0001734190","bdp_lott","Mon Mar 27 2023 00:37:12 GMT-0700 (Pacific Daylight Time)","576229","green","red","","1582","","","","choice","","img/green_wl/choose11.jpg","1","200","green","0.5","0.5","0.5","l","","",""
"animation","55","87987","0.0-5.0-2.25","5b184f9768a5ed0001734190","bdp_lott","Mon Mar 27 2023 00:37:12 GMT-0700 (Pacific Daylight Time)","576229","green","red","","","","","","","","","","200","","","","","","[{""stimulus"":""img/green_ll/1.jpg"",""time"":52},{""stimulus"":""img/green_ll/2.jpg"",""time"":116},{""stimulus"":""img/green_ll/3.jpg"",""time"":151},{""stimulus"":""img/green_ll/4.jpg"",""time"":209},{""stimulus"":""img/green_ll/5.jpg"",""time"":257},{""stimulus"":""img/green_ll/6.jpg"",""time"":304},{""stimulus"":""img/green_ll/7.jpg"",""time"":351},{""stimulus"":""img/green_ll/8.jpg"",""time"":415},{""stimulus"":""img/green_ll/9.jpg"",""time"":463},{""stimulus"":""img/green_ll/10.jpg"",""time"":510},{""stimulus"":""img/green_ll/11.jpg"",""time"":558}]","[]",""
"image-keyboard-response","56","89065","0.0-5.0-1.26","5b184f9768a5ed0001734190","bdp_lott","Mon Mar 27 2023 00:37:12 GMT-0700 (Pacific Daylight Time)","576229","green","red","","1078","","","","choice","","img/green_ll/choose11.jpg","2","199","red","0.5","0.5","0.5","l","","",""
"animation","57","89666","0.0-5.0-2.26","5b184f9768a5ed0001734190","bdp_lott","Mon Mar 27 2023 00:37:12 GMT-0700 (Pacific Daylight Time)","576229","green","red","","","","","","","","","","199","","","","","","[{""stimulus"":""img/red_ll/1.jpg"",""time"":51},{""stimulus"":""img/red_ll/2.jpg"",""time"":106},{""stimulus"":""img/red_ll/3.jpg"",""time"":153},{""stimulus"":""img/red_ll/4.jpg"",""time"":216},{""stimulus"":""img/red_ll/5.jpg"",""time"":264},{""stimulus"":""img/red_ll/6.jpg"",""time"":310},{""stimulus"":""img/red_ll/7.jpg"",""time"":358},{""stimulus"":""img/red_ll/8.jpg"",""time"":405},{""stimulus"":""img/red_ll/9.jpg"",""time"":450},{""stimulus"":""img/red_ll/10.jpg"",""time"":514},{""stimulus"":""img/red_ll/11.jpg"",""time"":550}]","[]",""
"image-keyboard-response","58","90465","0.0-5.0-1.27","5b184f9768a5ed0001734190","bdp_lott","Mon Mar 27 2023 00:37:12 GMT-0700 (Pacific Daylight Time)","576229","green","red","","799","","","","choice","","img/red_ll/choose11.jpg","2","198","red","0.5","0.5","0.5","w","","",""
"animation","59","91067","0.0-5.0-2.27","5b184f9768a5ed0001734190","bdp_lott","Mon Mar 27 2023 00:37:12 GMT-0700 (Pacific Daylight Time)","576229","green","red","","","","","","","","","","198","","","","","","[{""stimulus"":""img/red_lw/1.jpg"",""time"":50},{""stimulus"":""img/red_lw/2.jpg"",""time"":108},{""stimulus"":""img/red_lw/3.jpg"",""time"":155},{""stimulus"":""img/red_lw/4.jpg"",""time"":200},{""stimulus"":""img/red_lw/5.jpg"",""time"":251},{""stimulus"":""img/red_lw/6.jpg"",""time"":301},{""stimulus"":""img/red_lw/7.jpg"",""time"":350},{""stimulus"":""img/red_lw/8.jpg"",""time"":401},{""stimulus"":""img/red_lw/9.jpg"",""time"":451},{""stimulus"":""img/red_lw/10.jpg"",""time"":513},{""stimulus"":""img/red_lw/11.jpg"",""time"":551}]","[]",""
"image-keyboard-response","60","92145","0.0-5.0-1.28","5b184f9768a5ed0001734190","bdp_lott","Mon Mar 27 2023 00:37:12 GMT-0700 (Pacific Daylight Time)","576229","green","red","","1078","","","","choice","","img/red_lw/choose11.jpg","2","197","red","0.5","0.5","0.5","l","","",""
"animation","61","92751","0.0-5.0-2.28","5b184f9768a5ed0001734190","bdp_lott","Mon Mar 27 2023 00:37:12 GMT-0700 (Pacific Daylight Time)","576229","green","red","","","","","","","","","","197","","","","","","[{""stimulus"":""img/red_ll/1.jpg"",""time"":53},{""stimulus"":""img/red_ll/2.jpg"",""time"":117},{""stimulus"":""img/red_ll/3.jpg"",""time"":164},{""stimulus"":""img/red_ll/4.jpg"",""time"":212},{""stimulus"":""img/red_ll/5.jpg"",""time"":259},{""stimulus"":""img/red_ll/6.jpg"",""time"":306},{""stimulus"":""img/red_ll/7.jpg"",""time"":351},{""stimulus"":""img/red_ll/8.jpg"",""time"":401},{""stimulus"":""img/red_ll/9.jpg"",""time"":451},{""stimulus"":""img/red_ll/10.jpg"",""time"":501},{""stimulus"":""img/red_ll/11.jpg"",""time"":551}]","[]",""
"image-keyboard-response","62","93289","0.0-5.0-1.29","5b184f9768a5ed0001734190","bdp_lott","Mon Mar 27 2023 00:37:12 GMT-0700 (Pacific Daylight Time)","576229","green","red","","537","","","","choice","","img/red_ll/choose11.jpg","2","196","red","0.5","0.5","0.5","l","","",""
"animation","63","93901","0.0-5.0-2.29","5b184f9768a5ed0001734190","bdp_lott","Mon Mar 27 2023 00:37:12 GMT-0700 (Pacific Daylight Time)","576229","green","red","","","","","","","","","","196","","","","","","[{""stimulus"":""img/red_ll/1.jpg"",""time"":63},{""stimulus"":""img/red_ll/2.jpg"",""time"":101},{""stimulus"":""img/red_ll/3.jpg"",""time"":151},{""stimulus"":""img/red_ll/4.jpg"",""time"":206},{""stimulus"":""img/red_ll/5.jpg"",""time"":251},{""stimulus"":""img/red_ll/6.jpg"",""time"":301},{""stimulus"":""img/red_ll/7.jpg"",""time"":351},{""stimulus"":""img/red_ll/8.jpg"",""time"":401},{""stimulus"":""img/red_ll/9.jpg"",""time"":452},{""stimulus"":""img/red_ll/10.jpg"",""time"":502},{""stimulus"":""img/red_ll/11.jpg"",""time"":551}]","[]",""
"image-keyboard-response","64","94625","0.0-5.0-1.30","5b184f9768a5ed0001734190","bdp_lott","Mon Mar 27 2023 00:37:12 GMT-0700 (Pacific Daylight Time)","576229","green","red","","724","","","","choice","","img/red_ll/choose11.jpg","2","195","red","0.5","0.5","0.5","w","","",""
"animation","65","95230","0.0-5.0-2.30","5b184f9768a5ed0001734190","bdp_lott","Mon Mar 27 2023 00:37:12 GMT-0700 (Pacific Daylight Time)","576229","green","red","","","","","","","","","","195","","","","","","[{""stimulus"":""img/red_lw/1.jpg"",""time"":51},{""stimulus"":""img/red_lw/2.jpg"",""time"":113},{""stimulus"":""img/red_lw/3.jpg"",""time"":151},{""stimulus"":""img/red_lw/4.jpg"",""time"":208},{""stimulus"":""img/red_lw/5.jpg"",""time"":256},{""stimulus"":""img/red_lw/6.jpg"",""time"":303},{""stimulus"":""img/red_lw/7.jpg"",""time"":351},{""stimulus"":""img/red_lw/8.jpg"",""time"":415},{""stimulus"":""img/red_lw/9.jpg"",""time"":451},{""stimulus"":""img/red_lw/10.jpg"",""time"":501},{""stimulus"":""img/red_lw/11.jpg"",""time"":558}]","[]",""
"image-keyboard-response","66","96217","0.0-5.0-1.31","5b184f9768a5ed0001734190","bdp_lott","Mon Mar 27 2023 00:37:12 GMT-0700 (Pacific Daylight Time)","576229","green","red","","987","","","","choice","","img/red_lw/choose11.jpg","2","194","red","0.5","0.5","0.5","l","","",""
"animation","67","96817","0.0-5.0-2.31","5b184f9768a5ed0001734190","bdp_lott","Mon Mar 27 2023 00:37:12 GMT-0700 (Pacific Daylight Time)","576229","green","red","","","","","","","","","","194","","","","","","[{""stimulus"":""img/red_ll/1.jpg"",""time"":51},{""stimulus"":""img/red_ll/2.jpg"",""time"":106},{""stimulus"":""img/red_ll/3.jpg"",""time"":151},{""stimulus"":""img/red_ll/4.jpg"",""time"":200},{""stimulus"":""img/red_ll/5.jpg"",""time"":264},{""stimulus"":""img/red_ll/6.jpg"",""time"":312},{""stimulus"":""img/red_ll/7.jpg"",""time"":359},{""stimulus"":""img/red_ll/8.jpg"",""time"":400},{""stimulus"":""img/red_ll/9.jpg"",""time"":450},{""stimulus"":""img/red_ll/10.jpg"",""time"":501},{""stimulus"":""img/red_ll/11.jpg"",""time"":551}]","[]",""
"image-keyboard-response","68","97281","0.0-5.0-1.32","5b184f9768a5ed0001734190","bdp_lott","Mon Mar 27 2023 00:37:12 GMT-0700 (Pacific Daylight Time)","576229","green","red","","463","","","","choice","","img/red_ll/choose11.jpg","2","193","red","0.5","0.5","0.5","w","","",""
"animation","69","97888","0.0-5.0-2.32","5b184f9768a5ed0001734190","bdp_lott","Mon Mar 27 2023 00:37:12 GMT-0700 (Pacific Daylight Time)","576229","green","red","","","","","","","","","","193","","","","","","[{""stimulus"":""img/red_lw/1.jpg"",""time"":53},{""stimulus"":""img/red_lw/2.jpg"",""time"":116},{""stimulus"":""img/red_lw/3.jpg"",""time"":151},{""stimulus"":""img/red_lw/4.jpg"",""time"":211},{""stimulus"":""img/red_lw/5.jpg"",""time"":259},{""stimulus"":""img/red_lw/6.jpg"",""time"":306},{""stimulus"":""img/red_lw/7.jpg"",""time"":355},{""stimulus"":""img/red_lw/8.jpg"",""time"":401},{""stimulus"":""img/red_lw/9.jpg"",""time"":451},{""stimulus"":""img/red_lw/10.jpg"",""time"":501},{""stimulus"":""img/red_lw/11.jpg"",""time"":560}]","[]",""
"image-keyboard-response","70","98089","0.0-5.0-1.33","5b184f9768a5ed0001734190","bdp_lott","Mon Mar 27 2023 00:37:12 GMT-0700 (Pacific Daylight Time)","576229","green","red","","201","","","","choice","","img/red_lw/choose11.jpg","1","192","green","0.5","0.5","0.5","l","","",""
"animation","71","98694","0.0-5.0-2.33","5b184f9768a5ed0001734190","bdp_lott","Mon Mar 27 2023 00:37:12 GMT-0700 (Pacific Daylight Time)","576229","green","red","","","","","","","","","","192","","","","","","[{""stimulus"":""img/green_lw/1.jpg"",""time"":66},{""stimulus"":""img/green_lw/2.jpg"",""time"":114},{""stimulus"":""img/green_lw/3.jpg"",""time"":150},{""stimulus"":""img/green_lw/4.jpg"",""time"":201},{""stimulus"":""img/green_lw/5.jpg"",""time"":250},{""stimulus"":""img/green_lw/6.jpg"",""time"":305},{""stimulus"":""img/green_lw/7.jpg"",""time"":350},{""stimulus"":""img/green_lw/8.jpg"",""time"":400},{""stimulus"":""img/green_lw/9.jpg"",""time"":450},{""stimulus"":""img/green_lw/10.jpg"",""time"":510},{""stimulus"":""img/green_lw/11.jpg"",""time"":551}]","[]",""
"image-keyboard-response","72","99233","0.0-5.0-1.34","5b184f9768a5ed0001734190","bdp_lott","Mon Mar 27 2023 00:37:12 GMT-0700 (Pacific Daylight Time)","576229","green","red","","538","","","","choice","","img/green_lw/choose11.jpg","1","191","green","0.5","0.5","0.5","l","","",""
"animation","73","99846","0.0-5.0-2.34","5b184f9768a5ed0001734190","bdp_lott","Mon Mar 27 2023 00:37:12 GMT-0700 (Pacific Daylight Time)","576229","green","red","","","","","","","","","","191","","","","","","[{""stimulus"":""img/green_lw/1.jpg"",""time"":51},{""stimulus"":""img/green_lw/2.jpg"",""time"":111},{""stimulus"":""img/green_lw/3.jpg"",""time"":151},{""stimulus"":""img/green_lw/4.jpg"",""time"":201},{""stimulus"":""img/green_lw/5.jpg"",""time"":251},{""stimulus"":""img/green_lw/6.jpg"",""time"":315},{""stimulus"":""img/green_lw/7.jpg"",""time"":351},{""stimulus"":""img/green_lw/8.jpg"",""time"":401},{""stimulus"":""img/green_lw/9.jpg"",""time"":451},{""stimulus"":""img/green_lw/10.jpg"",""time"":501},{""stimulus"":""img/green_lw/11.jpg"",""time"":552}]","[]",""
"image-keyboard-response","74","100929","0.0-5.0-1.35","5b184f9768a5ed0001734190","bdp_lott","Mon Mar 27 2023 00:37:12 GMT-0700 (Pacific Daylight Time)","576229","green","red","","1082","","","","choice","","img/green_lw/choose11.jpg","1","190","green","0.5","0.5","0.5","w","","",""
"animation","75","101543","0.0-5.0-2.35","5b184f9768a5ed0001734190","bdp_lott","Mon Mar 27 2023 00:37:12 GMT-0700 (Pacific Daylight Time)","576229","green","red","","","","","","","","","","190","","","","","","[{""stimulus"":""img/green_ww/1.jpg"",""time"":51},{""stimulus"":""img/green_ww/2.jpg"",""time"":107},{""stimulus"":""img/green_ww/3.jpg"",""time"":152},{""stimulus"":""img/green_ww/4.jpg"",""time"":203},{""stimulus"":""img/green_ww/5.jpg"",""time"":251},{""stimulus"":""img/green_ww/6.jpg"",""time"":301},{""stimulus"":""img/green_ww/7.jpg"",""time"":351},{""stimulus"":""img/green_ww/8.jpg"",""time"":402},{""stimulus"":""img/green_ww/9.jpg"",""time"":451},{""stimulus"":""img/green_ww/10.jpg"",""time"":503},{""stimulus"":""img/green_ww/11.jpg"",""time"":551}]","[]",""
"image-keyboard-response","76","102537","0.0-5.0-1.36","5b184f9768a5ed0001734190","bdp_lott","Mon Mar 27 2023 00:37:12 GMT-0700 (Pacific Daylight Time)","576229","green","red","","993","","","","choice","","img/green_ww/choose11.jpg","1","189","green","0.5","0.5","0.5","w","","",""
"animation","77","103139","0.0-5.0-2.36","5b184f9768a5ed0001734190","bdp_lott","Mon Mar 27 2023 00:37:12 GMT-0700 (Pacific Daylight Time)","576229","green","red","","","","","","","","","","189","","","","","","[{""stimulus"":""img/green_ww/1.jpg"",""time"":51},{""stimulus"":""img/green_ww/2.jpg"",""time"":100},{""stimulus"":""img/green_ww/3.jpg"",""time"":160},{""stimulus"":""img/green_ww/4.jpg"",""time"":207},{""stimulus"":""img/green_ww/5.jpg"",""time"":255},{""stimulus"":""img/green_ww/6.jpg"",""time"":301},{""stimulus"":""img/green_ww/7.jpg"",""time"":350},{""stimulus"":""img/green_ww/8.jpg"",""time"":400},{""stimulus"":""img/green_ww/9.jpg"",""time"":460},{""stimulus"":""img/green_ww/10.jpg"",""time"":507},{""stimulus"":""img/green_ww/11.jpg"",""time"":551}]","[]",""
"image-keyboard-response","78","104401","0.0-5.0-1.37","5b184f9768a5ed0001734190","bdp_lott","Mon Mar 27 2023 00:37:12 GMT-0700 (Pacific Daylight Time)","576229","green","red","","1261","","","","choice","","img/green_ww/choose11.jpg","1","188","green","0.5","0.5","0.5","w","","",""
"animation","79","105013","0.0-5.0-2.37","5b184f9768a5ed0001734190","bdp_lott","Mon Mar 27 2023 00:37:12 GMT-0700 (Pacific Daylight Time)","576229","green","red","","","","","","","","","","188","","","","","","[{""stimulus"":""img/green_ww/1.jpg"",""time"":57},{""stimulus"":""img/green_ww/2.jpg"",""time"":104},{""stimulus"":""img/green_ww/3.jpg"",""time"":152},{""stimulus"":""img/green_ww/4.jpg"",""time"":214},{""stimulus"":""img/green_ww/5.jpg"",""time"":250},{""stimulus"":""img/green_ww/6.jpg"",""time"":300},{""stimulus"":""img/green_ww/7.jpg"",""time"":358},{""stimulus"":""img/green_ww/8.jpg"",""time"":400},{""stimulus"":""img/green_ww/9.jpg"",""time"":450},{""stimulus"":""img/green_ww/10.jpg"",""time"":502},{""stimulus"":""img/green_ww/11.jpg"",""time"":550}]","[]",""
"image-keyboard-response","80","105928","0.0-5.0-1.38","5b184f9768a5ed0001734190","bdp_lott","Mon Mar 27 2023 00:37:12 GMT-0700 (Pacific Daylight Time)","576229","green","red","","914","","","","choice","","img/green_ww/choose11.jpg","2","187","red","0.5","0.5","0.5","w","","",""
"animation","81","106545","0.0-5.0-2.38","5b184f9768a5ed0001734190","bdp_lott","Mon Mar 27 2023 00:37:12 GMT-0700 (Pacific Daylight Time)","576229","green","red","","","","","","","","","","187","","","","","","[{""stimulus"":""img/red_ww/1.jpg"",""time"":62},{""stimulus"":""img/red_ww/2.jpg"",""time"":104},{""stimulus"":""img/red_ww/3.jpg"",""time"":157},{""stimulus"":""img/red_ww/4.jpg"",""time"":205},{""stimulus"":""img/red_ww/5.jpg"",""time"":250},{""stimulus"":""img/red_ww/6.jpg"",""time"":300},{""stimulus"":""img/red_ww/7.jpg"",""time"":350},{""stimulus"":""img/red_ww/8.jpg"",""time"":409},{""stimulus"":""img/red_ww/9.jpg"",""time"":451},{""stimulus"":""img/red_ww/10.jpg"",""time"":501},{""stimulus"":""img/red_ww/11.jpg"",""time"":550}]","[]",""
"image-keyboard-response","82","107408","0.0-5.0-1.39","5b184f9768a5ed0001734190","bdp_lott","Mon Mar 27 2023 00:37:12 GMT-0700 (Pacific Daylight Time)","576229","green","red","","863","","","","choice","","img/red_ww/choose11.jpg","2","186","red","0.5","0.5","0.5","w","","",""
"animation","83","108014","0.0-5.0-2.39","5b184f9768a5ed0001734190","bdp_lott","Mon Mar 27 2023 00:37:12 GMT-0700 (Pacific Daylight Time)","576229","green","red","","","","","","","","","","186","","","","","","[{""stimulus"":""img/red_ww/1.jpg"",""time"":50},{""stimulus"":""img/red_ww/2.jpg"",""time"":100},{""stimulus"":""img/red_ww/3.jpg"",""time"":164},{""stimulus"":""img/red_ww/4.jpg"",""time"":212},{""stimulus"":""img/red_ww/5.jpg"",""time"":250},{""stimulus"":""img/red_ww/6.jpg"",""time"":300},{""stimulus"":""img/red_ww/7.jpg"",""time"":350},{""stimulus"":""img/red_ww/8.jpg"",""time"":401},{""stimulus"":""img/red_ww/9.jpg"",""time"":450},{""stimulus"":""img/red_ww/10.jpg"",""time"":500},{""stimulus"":""img/red_ww/11.jpg"",""time"":550}]","[]",""
"image-keyboard-response","84","108792","0.0-5.0-1.40","5b184f9768a5ed0001734190","bdp_lott","Mon Mar 27 2023 00:37:12 GMT-0700 (Pacific Daylight Time)","576229","green","red","","778","","","","choice","","img/red_ww/choose11.jpg","2","185","red","0.5","0.5","0.5","l","","",""
"animation","85","109401","0.0-5.0-2.40","5b184f9768a5ed0001734190","bdp_lott","Mon Mar 27 2023 00:37:12 GMT-0700 (Pacific Daylight Time)","576229","green","red","","","","","","","","","","185","","","","","","[{""stimulus"":""img/red_wl/1.jpg"",""time"":54},{""stimulus"":""img/red_wl/2.jpg"",""time"":100},{""stimulus"":""img/red_wl/3.jpg"",""time"":150},{""stimulus"":""img/red_wl/4.jpg"",""time"":214},{""stimulus"":""img/red_wl/5.jpg"",""time"":251},{""stimulus"":""img/red_wl/6.jpg"",""time"":309},{""stimulus"":""img/red_wl/7.jpg"",""time"":350},{""stimulus"":""img/red_wl/8.jpg"",""time"":404},{""stimulus"":""img/red_wl/9.jpg"",""time"":451},{""stimulus"":""img/red_wl/10.jpg"",""time"":514},{""stimulus"":""img/red_wl/11.jpg"",""time"":560}]","[]",""
"image-keyboard-response","86","110016","0.0-5.0-1.41","5b184f9768a5ed0001734190","bdp_lott","Mon Mar 27 2023 00:37:12 GMT-0700 (Pacific Daylight Time)","576229","green","red","","615","","","","choice","","img/red_wl/choose11.jpg","1","184","green","0.5","0.5","0.5","l","","",""
"animation","87","110618","0.0-5.0-2.41","5b184f9768a5ed0001734190","bdp_lott","Mon Mar 27 2023 00:37:12 GMT-0700 (Pacific Daylight Time)","576229","green","red","","","","","","","","","","184","","","","","","[{""stimulus"":""img/green_ll/1.jpg"",""time"":50},{""stimulus"":""img/green_ll/2.jpg"",""time"":100},{""stimulus"":""img/green_ll/3.jpg"",""time"":150},{""stimulus"":""img/green_ll/4.jpg"",""time"":205},{""stimulus"":""img/green_ll/5.jpg"",""time"":252},{""stimulus"":""img/green_ll/6.jpg"",""time"":301},{""stimulus"":""img/green_ll/7.jpg"",""time"":350},{""stimulus"":""img/green_ll/8.jpg"",""time"":411},{""stimulus"":""img/green_ll/9.jpg"",""time"":450},{""stimulus"":""img/green_ll/10.jpg"",""time"":500},{""stimulus"":""img/green_ll/11.jpg"",""time"":553}]","[]",""
"image-keyboard-response","88","111913","0.0-5.0-1.42","5b184f9768a5ed0001734190","bdp_lott","Mon Mar 27 2023 00:37:12 GMT-0700 (Pacific Daylight Time)","576229","green","red","","1295","","","","choice","","img/green_ll/choose11.jpg","1","183","green","0.5","0.5","0.5","l","","",""
"animation","89","112527","0.0-5.0-2.42","5b184f9768a5ed0001734190","bdp_lott","Mon Mar 27 2023 00:37:12 GMT-0700 (Pacific Daylight Time)","576229","green","red","","","","","","","","","","183","","","","","","[{""stimulus"":""img/green_ll/1.jpg"",""time"":51},{""stimulus"":""img/green_ll/2.jpg"",""time"":111},{""stimulus"":""img/green_ll/3.jpg"",""time"":157},{""stimulus"":""img/green_ll/4.jpg"",""time"":200},{""stimulus"":""img/green_ll/5.jpg"",""time"":252},{""stimulus"":""img/green_ll/6.jpg"",""time"":300},{""stimulus"":""img/green_ll/7.jpg"",""time"":351},{""stimulus"":""img/green_ll/8.jpg"",""time"":400},{""stimulus"":""img/green_ll/9.jpg"",""time"":451},{""stimulus"":""img/green_ll/10.jpg"",""time"":503},{""stimulus"":""img/green_ll/11.jpg"",""time"":551}]","[]",""
"image-keyboard-response","90","119928","0.0-5.0-1.43","5b184f9768a5ed0001734190","bdp_lott","Mon Mar 27 2023 00:37:12 GMT-0700 (Pacific Daylight Time)","576229","green","red","","7401","","","","choice","","img/green_ll/choose11.jpg","2","182","red","0.5","0.5","0.5","w","","",""
"animation","91","120529","0.0-5.0-2.43","5b184f9768a5ed0001734190","bdp_lott","Mon Mar 27 2023 00:37:12 GMT-0700 (Pacific Daylight Time)","576229","green","red","","","","","","","","","","182","","","","","","[{""stimulus"":""img/red_lw/1.jpg"",""time"":51},{""stimulus"":""img/red_lw/2.jpg"",""time"":108},{""stimulus"":""img/red_lw/3.jpg"",""time"":156},{""stimulus"":""img/red_lw/4.jpg"",""time"":203},{""stimulus"":""img/red_lw/5.jpg"",""time"":250},{""stimulus"":""img/red_lw/6.jpg"",""time"":312},{""stimulus"":""img/red_lw/7.jpg"",""time"":351},{""stimulus"":""img/red_lw/8.jpg"",""time"":400},{""stimulus"":""img/red_lw/9.jpg"",""time"":455},{""stimulus"":""img/red_lw/10.jpg"",""time"":503},{""stimulus"":""img/red_lw/11.jpg"",""time"":550}]","[]",""
"image-keyboard-response","92","121488","0.0-5.0-1.44","5b184f9768a5ed0001734190","bdp_lott","Mon Mar 27 2023 00:37:12 GMT-0700 (Pacific Daylight Time)","576229","green","red","","958","","","","choice","","img/red_lw/choose11.jpg","2","181","red","0.5","0.5","0.5","w","","",""
"animation","93","122094","0.0-5.0-2.44","5b184f9768a5ed0001734190","bdp_lott","Mon Mar 27 2023 00:37:12 GMT-0700 (Pacific Daylight Time)","576229","green","red","","","","","","","","","","181","","","","","","[{""stimulus"":""img/red_lw/1.jpg"",""time"":51},{""stimulus"":""img/red_lw/2.jpg"",""time"":114},{""stimulus"":""img/red_lw/3.jpg"",""time"":152},{""stimulus"":""img/red_lw/4.jpg"",""time"":209},{""stimulus"":""img/red_lw/5.jpg"",""time"":250},{""stimulus"":""img/red_lw/6.jpg"",""time"":300},{""stimulus"":""img/red_lw/7.jpg"",""time"":351},{""stimulus"":""img/red_lw/8.jpg"",""time"":401},{""stimulus"":""img/red_lw/9.jpg"",""time"":463},{""stimulus"":""img/red_lw/10.jpg"",""time"":501},{""stimulus"":""img/red_lw/11.jpg"",""time"":551}]","[]",""
"image-keyboard-response","94","123289","0.0-5.0-1.45","5b184f9768a5ed0001734190","bdp_lott","Mon Mar 27 2023 00:37:12 GMT-0700 (Pacific Daylight Time)","576229","green","red","","1195","","","","choice","","img/red_lw/choose11.jpg","2","180","red","0.5","0.5","0.5","l","","",""
"animation","95","123890","0.0-5.0-2.45","5b184f9768a5ed0001734190","bdp_lott","Mon Mar 27 2023 00:37:12 GMT-0700 (Pacific Daylight Time)","576229","green","red","","","","","","","","","","180","","","","","","[{""stimulus"":""img/red_ll/1.jpg"",""time"":51},{""stimulus"":""img/red_ll/2.jpg"",""time"":102},{""stimulus"":""img/red_ll/3.jpg"",""time"":151},{""stimulus"":""img/red_ll/4.jpg"",""time"":201},{""stimulus"":""img/red_ll/5.jpg"",""time"":251},{""stimulus"":""img/red_ll/6.jpg"",""time"":306},{""stimulus"":""img/red_ll/7.jpg"",""time"":351},{""stimulus"":""img/red_ll/8.jpg"",""time"":402},{""stimulus"":""img/red_ll/9.jpg"",""time"":465},{""stimulus"":""img/red_ll/10.jpg"",""time"":513},{""stimulus"":""img/red_ll/11.jpg"",""time"":551}]","[]",""
"image-keyboard-response","96","124592","0.0-5.0-1.46","5b184f9768a5ed0001734190","bdp_lott","Mon Mar 27 2023 00:37:12 GMT-0700 (Pacific Daylight Time)","576229","green","red","","702","","","","choice","","img/red_ll/choose11.jpg","2","179","red","0.5","0.5","0.5","w","","",""
"animation","97","125194","0.0-5.0-2.46","5b184f9768a5ed0001734190","bdp_lott","Mon Mar 27 2023 00:37:12 GMT-0700 (Pacific Daylight Time)","576229","green","red","","","","","","","","","","179","","","","","","[{""stimulus"":""img/red_lw/1.jpg"",""time"":65},{""stimulus"":""img/red_lw/2.jpg"",""time"":105},{""stimulus"":""img/red_lw/3.jpg"",""time"":160},{""stimulus"":""img/red_lw/4.jpg"",""time"":208},{""stimulus"":""img/red_lw/5.jpg"",""time"":254},{""stimulus"":""img/red_lw/6.jpg"",""time"":301},{""stimulus"":""img/red_lw/7.jpg"",""time"":366},{""stimulus"":""img/red_lw/8.jpg"",""time"":413},{""stimulus"":""img/red_lw/9.jpg"",""time"":462},{""stimulus"":""img/red_lw/10.jpg"",""time"":501},{""stimulus"":""img/red_lw/11.jpg"",""time"":557}]","[]",""
"image-keyboard-response","98","126320","0.0-5.0-1.47","5b184f9768a5ed0001734190","bdp_lott","Mon Mar 27 2023 00:37:12 GMT-0700 (Pacific Daylight Time)","576229","green","red","","1126","","","","choice","","img/red_lw/choose11.jpg","2","178","red","0.5","0.5","0.5","w","","",""
"animation","99","126921","0.0-5.0-2.47","5b184f9768a5ed0001734190","bdp_lott","Mon Mar 27 2023 00:37:12 GMT-0700 (Pacific Daylight Time)","576229","green","red","","","","","","","","","","178","","","","","","[{""stimulus"":""img/red_lw/1.jpg"",""time"":51},{""stimulus"":""img/red_lw/2.jpg"",""time"":102},{""stimulus"":""img/red_lw/3.jpg"",""time"":151},{""stimulus"":""img/red_lw/4.jpg"",""time"":202},{""stimulus"":""img/red_lw/5.jpg"",""time"":252},{""stimulus"":""img/red_lw/6.jpg"",""time"":302},{""stimulus"":""img/red_lw/7.jpg"",""time"":352},{""stimulus"":""img/red_lw/8.jpg"",""time"":402},{""stimulus"":""img/red_lw/9.jpg"",""time"":452},{""stimulus"":""img/red_lw/10.jpg"",""time"":501},{""stimulus"":""img/red_lw/11.jpg"",""time"":551}]","[]",""
"image-keyboard-response","100","127664","0.0-5.0-1.48","5b184f9768a5ed0001734190","bdp_lott","Mon Mar 27 2023 00:37:12 GMT-0700 (Pacific Daylight Time)","576229","green","red","","743","","","","choice","","img/red_lw/choose11.jpg","2","177","red","0.5","0.5","0.5","w","","",""
"animation","101","128265","0.0-5.0-2.48","5b184f9768a5ed0001734190","bdp_lott","Mon Mar 27 2023 00:37:12 GMT-0700 (Pacific Daylight Time)","576229","green","red","","","","","","","","","","177","","","","","","[{""stimulus"":""img/red_lw/1.jpg"",""time"":51},{""stimulus"":""img/red_lw/2.jpg"",""time"":101},{""stimulus"":""img/red_lw/3.jpg"",""time"":158},{""stimulus"":""img/red_lw/4.jpg"",""time"":206},{""stimulus"":""img/red_lw/5.jpg"",""time"":251},{""stimulus"":""img/red_lw/6.jpg"",""time"":317},{""stimulus"":""img/red_lw/7.jpg"",""time"":352},{""stimulus"":""img/red_lw/8.jpg"",""time"":411},{""stimulus"":""img/red_lw/9.jpg"",""time"":459},{""stimulus"":""img/red_lw/10.jpg"",""time"":506},{""stimulus"":""img/red_lw/11.jpg"",""time"":551}]","[]",""
"image-keyboard-response","102","129104","0.0-5.0-1.49","5b184f9768a5ed0001734190","bdp_lott","Mon Mar 27 2023 00:37:12 GMT-0700 (Pacific Daylight Time)","576229","green","red","","839","","","","choice","","img/red_lw/choose11.jpg","2","176","red","0.5","0.5","0.5","w","","",""
"animation","103","129705","0.0-5.0-2.49","5b184f9768a5ed0001734190","bdp_lott","Mon Mar 27 2023 00:37:12 GMT-0700 (Pacific Daylight Time)","576229","green","red","","","","","","","","","","176","","","","","","[{""stimulus"":""img/red_lw/1.jpg"",""time"":51},{""stimulus"":""img/red_lw/2.jpg"",""time"":100},{""stimulus"":""img/red_lw/3.jpg"",""time"":151},{""stimulus"":""img/red_lw/4.jpg"",""time"":200},{""stimulus"":""img/red_lw/5.jpg"",""time"":251},{""stimulus"":""img/red_lw/6.jpg"",""time"":300},{""stimulus"":""img/red_lw/7.jpg"",""time"":361},{""stimulus"":""img/red_lw/8.jpg"",""time"":400},{""stimulus"":""img/red_lw/9.jpg"",""time"":456},{""stimulus"":""img/red_lw/10.jpg"",""time"":504},{""stimulus"":""img/red_lw/11.jpg"",""time"":550}]","[]",""
"image-keyboard-response","104","130552","0.0-5.0-1.50","5b184f9768a5ed0001734190","bdp_lott","Mon Mar 27 2023 00:37:12 GMT-0700 (Pacific Daylight Time)","576229","green","red","","847","","","","choice","","img/red_lw/choose11.jpg","2","175","red","0.5","0.5","0.5","l","","",""
"animation","105","131152","0.0-5.0-2.50","5b184f9768a5ed0001734190","bdp_lott","Mon Mar 27 2023 00:37:12 GMT-0700 (Pacific Daylight Time)","576229","green","red","","","","","","","","","","175","","","","","","[{""stimulus"":""img/red_ll/1.jpg"",""time"":66},{""stimulus"":""img/red_ll/2.jpg"",""time"":112},{""stimulus"":""img/red_ll/3.jpg"",""time"":151},{""stimulus"":""img/red_ll/4.jpg"",""time"":202},{""stimulus"":""img/red_ll/5.jpg"",""time"":252},{""stimulus"":""img/red_ll/6.jpg"",""time"":301},{""stimulus"":""img/red_ll/7.jpg"",""time"":351},{""stimulus"":""img/red_ll/8.jpg"",""time"":401},{""stimulus"":""img/red_ll/9.jpg"",""time"":461},{""stimulus"":""img/red_ll/10.jpg"",""time"":508},{""stimulus"":""img/red_ll/11.jpg"",""time"":555}]","[]",""
"image-keyboard-response","106","131968","0.0-5.0-1.51","5b184f9768a5ed0001734190","bdp_lott","Mon Mar 27 2023 00:37:12 GMT-0700 (Pacific Daylight Time)","576229","green","red","","815","","","","choice","","img/red_ll/choose11.jpg","2","174","red","0.5","0.5","0.5","l","","",""
"animation","107","132569","0.0-5.0-2.51","5b184f9768a5ed0001734190","bdp_lott","Mon Mar 27 2023 00:37:12 GMT-0700 (Pacific Daylight Time)","576229","green","red","","","","","","","","","","174","","","","","","[{""stimulus"":""img/red_ll/1.jpg"",""time"":57},{""stimulus"":""img/red_ll/2.jpg"",""time"":105},{""stimulus"":""img/red_ll/3.jpg"",""time"":152},{""stimulus"":""img/red_ll/4.jpg"",""time"":215},{""stimulus"":""img/red_ll/5.jpg"",""time"":250},{""stimulus"":""img/red_ll/6.jpg"",""time"":310},{""stimulus"":""img/red_ll/7.jpg"",""time"":358},{""stimulus"":""img/red_ll/8.jpg"",""time"":402},{""stimulus"":""img/red_ll/9.jpg"",""time"":453},{""stimulus"":""img/red_ll/10.jpg"",""time"":516},{""stimulus"":""img/red_ll/11.jpg"",""time"":551}]","[]",""
"image-keyboard-response","108","133168","0.0-5.0-1.52","5b184f9768a5ed0001734190","bdp_lott","Mon Mar 27 2023 00:37:12 GMT-0700 (Pacific Daylight Time)","576229","green","red","","599","","","","choice","","img/red_ll/choose11.jpg","1","173","green","0.5","0.5","0.5","w","","",""
"animation","109","133768","0.0-5.0-2.52","5b184f9768a5ed0001734190","bdp_lott","Mon Mar 27 2023 00:37:12 GMT-0700 (Pacific Daylight Time)","576229","green","red","","","","","","","","","","173","","","","","","[{""stimulus"":""img/green_wl/1.jpg"",""time"":54},{""stimulus"":""img/green_wl/2.jpg"",""time"":101},{""stimulus"":""img/green_wl/3.jpg"",""time"":151},{""stimulus"":""img/green_wl/4.jpg"",""time"":213},{""stimulus"":""img/green_wl/5.jpg"",""time"":261},{""stimulus"":""img/green_wl/6.jpg"",""time"":301},{""stimulus"":""img/green_wl/7.jpg"",""time"":351},{""stimulus"":""img/green_wl/8.jpg"",""time"":401},{""stimulus"":""img/green_wl/9.jpg"",""time"":451},{""stimulus"":""img/green_wl/10.jpg"",""time"":513},{""stimulus"":""img/green_wl/11.jpg"",""time"":559}]","[]",""
"image-keyboard-response","110","134617","0.0-5.0-1.53","5b184f9768a5ed0001734190","bdp_lott","Mon Mar 27 2023 00:37:12 GMT-0700 (Pacific Daylight Time)","576229","green","red","","848","","","","choice","","img/green_wl/choose11.jpg","1","172","green","0.5","0.5","0.5","l","","",""
"animation","111","135229","0.0-5.0-2.53","5b184f9768a5ed0001734190","bdp_lott","Mon Mar 27 2023 00:37:12 GMT-0700 (Pacific Daylight Time)","576229","green","red","","","","","","","","","","172","","","","","","[{""stimulus"":""img/green_ll/1.jpg"",""time"":50},{""stimulus"":""img/green_ll/2.jpg"",""time"":107},{""stimulus"":""img/green_ll/3.jpg"",""time"":151},{""stimulus"":""img/green_ll/4.jpg"",""time"":203},{""stimulus"":""img/green_ll/5.jpg"",""time"":265},{""stimulus"":""img/green_ll/6.jpg"",""time"":313},{""stimulus"":""img/green_ll/7.jpg"",""time"":361},{""stimulus"":""img/green_ll/8.jpg"",""time"":408},{""stimulus"":""img/green_ll/9.jpg"",""time"":450},{""stimulus"":""img/green_ll/10.jpg"",""time"":503},{""stimulus"":""img/green_ll/11.jpg"",""time"":565}]","[]",""
"image-keyboard-response","112","135936","0.0-5.0-1.54","5b184f9768a5ed0001734190","bdp_lott","Mon Mar 27 2023 00:37:12 GMT-0700 (Pacific Daylight Time)","576229","green","red","","707","","","","choice","","img/green_ll/choose11.jpg","1","171","green","0.5","0.5","0.5","w","","",""
"animation","113","136544","0.0-5.0-2.54","5b184f9768a5ed0001734190","bdp_lott","Mon Mar 27 2023 00:37:12 GMT-0700 (Pacific Daylight Time)","576229","green","red","","","","","","","","","","171","","","","","","[{""stimulus"":""img/green_wl/1.jpg"",""time"":54},{""stimulus"":""img/green_wl/2.jpg"",""time"":101},{""stimulus"":""img/green_wl/3.jpg"",""time"":151},{""stimulus"":""img/green_wl/4.jpg"",""time"":212},{""stimulus"":""img/green_wl/5.jpg"",""time"":259},{""stimulus"":""img/green_wl/6.jpg"",""time"":301},{""stimulus"":""img/green_wl/7.jpg"",""time"":355},{""stimulus"":""img/green_wl/8.jpg"",""time"":403},{""stimulus"":""img/green_wl/9.jpg"",""time"":451},{""stimulus"":""img/green_wl/10.jpg"",""time"":501},{""stimulus"":""img/green_wl/11.jpg"",""time"":551}]","[]",""
"image-keyboard-response","114","137504","0.0-5.0-1.55","5b184f9768a5ed0001734190","bdp_lott","Mon Mar 27 2023 00:37:12 GMT-0700 (Pacific Daylight Time)","576229","green","red","","959","","","","choice","","img/green_wl/choose11.jpg","1","170","green","0.5","0.5","0.5","w","","",""
"animation","115","138105","0.0-5.0-2.55","5b184f9768a5ed0001734190","bdp_lott","Mon Mar 27 2023 00:37:12 GMT-0700 (Pacific Daylight Time)","576229","green","red","","","","","","","","","","170","","","","","","[{""stimulus"":""img/green_wl/1.jpg"",""time"":53},{""stimulus"":""img/green_wl/2.jpg"",""time"":101},{""stimulus"":""img/green_wl/3.jpg"",""time"":162},{""stimulus"":""img/green_wl/4.jpg"",""time"":210},{""stimulus"":""img/green_wl/5.jpg"",""time"":257},{""stimulus"":""img/green_wl/6.jpg"",""time"":303},{""stimulus"":""img/green_wl/7.jpg"",""time"":366},{""stimulus"":""img/green_wl/8.jpg"",""time"":412},{""stimulus"":""img/green_wl/9.jpg"",""time"":460},{""stimulus"":""img/green_wl/10.jpg"",""time"":507},{""stimulus"":""img/green_wl/11.jpg"",""time"":554}]","[]",""
"image-keyboard-response","116","139176","0.0-5.0-1.56","5b184f9768a5ed0001734190","bdp_lott","Mon Mar 27 2023 00:37:12 GMT-0700 (Pacific Daylight Time)","576229","green","red","","1071","","","","choice","","img/green_wl/choose11.jpg","1","169","green","0.5","0.5","0.5","l","","",""
"animation","117","139777","0.0-5.0-2.56","5b184f9768a5ed0001734190","bdp_lott","Mon Mar 27 2023 00:37:12 GMT-0700 (Pacific Daylight Time)","576229","green","red","","","","","","","","","","169","","","","","","[{""stimulus"":""img/green_ll/1.jpg"",""time"":63},{""stimulus"":""img/green_ll/2.jpg"",""time"":100},{""stimulus"":""img/green_ll/3.jpg"",""time"":150},{""stimulus"":""img/green_ll/4.jpg"",""time"":207},{""stimulus"":""img/green_ll/5.jpg"",""time"":253},{""stimulus"":""img/green_ll/6.jpg"",""time"":301},{""stimulus"":""img/green_ll/7.jpg"",""time"":351},{""stimulus"":""img/green_ll/8.jpg"",""time"":412},{""stimulus"":""img/green_ll/9.jpg"",""time"":460},{""stimulus"":""img/green_ll/10.jpg"",""time"":501},{""stimulus"":""img/green_ll/11.jpg"",""time"":555}]","[]",""
"image-keyboard-response","118","140776","0.0-5.0-1.57","5b184f9768a5ed0001734190","bdp_lott","Mon Mar 27 2023 00:37:12 GMT-0700 (Pacific Daylight Time)","576229","green","red","","999","","","","choice","","img/green_ll/choose11.jpg","2","168","red","0.5","0.5","0.5","w","","",""
"animation","119","141377","0.0-5.0-2.57","5b184f9768a5ed0001734190","bdp_lott","Mon Mar 27 2023 00:37:12 GMT-0700 (Pacific Daylight Time)","576229","green","red","","","","","","","","","","168","","","","","","[{""stimulus"":""img/red_lw/1.jpg"",""time"":61},{""stimulus"":""img/red_lw/2.jpg"",""time"":104},{""stimulus"":""img/red_lw/3.jpg"",""time"":157},{""stimulus"":""img/red_lw/4.jpg"",""time"":205},{""stimulus"":""img/red_lw/5.jpg"",""time"":250},{""stimulus"":""img/red_lw/6.jpg"",""time"":314},{""stimulus"":""img/red_lw/7.jpg"",""time"":350},{""stimulus"":""img/red_lw/8.jpg"",""time"":401},{""stimulus"":""img/red_lw/9.jpg"",""time"":451},{""stimulus"":""img/red_lw/10.jpg"",""time"":505},{""stimulus"":""img/red_lw/11.jpg"",""time"":551}]","[]",""
"image-keyboard-response","120","143032","0.0-5.0-1.58","5b184f9768a5ed0001734190","bdp_lott","Mon Mar 27 2023 00:37:12 GMT-0700 (Pacific Daylight Time)","576229","green","red","","1655","","","","choice","","img/red_lw/choose11.jpg","2","167","red","0.5","0.5","0.5","l","","",""
"animation","121","143634","0.0-5.0-2.58","5b184f9768a5ed0001734190","bdp_lott","Mon Mar 27 2023 00:37:12 GMT-0700 (Pacific Daylight Time)","576229","green","red","","","","","","","","","","167","","","","","","[{""stimulus"":""img/red_ll/1.jpg"",""time"":51},{""stimulus"":""img/red_ll/2.jpg"",""time"":111},{""stimulus"":""img/red_ll/3.jpg"",""time"":156},{""stimulus"":""img/red_ll/4.jpg"",""time"":201},{""stimulus"":""img/red_ll/5.jpg"",""time"":252},{""stimulus"":""img/red_ll/6.jpg"",""time"":300},{""stimulus"":""img/red_ll/7.jpg"",""time"":363},{""stimulus"":""img/red_ll/8.jpg"",""time"":411},{""stimulus"":""img/red_ll/9.jpg"",""time"":458},{""stimulus"":""img/red_ll/10.jpg"",""time"":506},{""stimulus"":""img/red_ll/11.jpg"",""time"":551}]","[]",""
"image-keyboard-response","122","144032","0.0-5.0-1.59","5b184f9768a5ed0001734190","bdp_lott","Mon Mar 27 2023 00:37:12 GMT-0700 (Pacific Daylight Time)","576229","green","red","","398","","","","choice","","img/red_ll/choose11.jpg","1","166","green","0.5","0.5","0.5","w","","",""
"animation","123","144632","0.0-5.0-2.59","5b184f9768a5ed0001734190","bdp_lott","Mon Mar 27 2023 00:37:12 GMT-0700 (Pacific Daylight Time)","576229","green","red","","","","","","","","","","166","","","","","","[{""stimulus"":""img/green_wl/1.jpg"",""time"":50},{""stimulus"":""img/green_wl/2.jpg"",""time"":108},{""stimulus"":""img/green_wl/3.jpg"",""time"":155},{""stimulus"":""img/green_wl/4.jpg"",""time"":203},{""stimulus"":""img/green_wl/5.jpg"",""time"":251},{""stimulus"":""img/green_wl/6.jpg"",""time"":315},{""stimulus"":""img/green_wl/7.jpg"",""time"":362},{""stimulus"":""img/green_wl/8.jpg"",""time"":401},{""stimulus"":""img/green_wl/9.jpg"",""time"":457},{""stimulus"":""img/green_wl/10.jpg"",""time"":504},{""stimulus"":""img/green_wl/11.jpg"",""time"":550}]","[]",""
"image-keyboard-response","124","146112","0.0-5.0-1.60","5b184f9768a5ed0001734190","bdp_lott","Mon Mar 27 2023 00:37:12 GMT-0700 (Pacific Daylight Time)","576229","green","red","","1480","","","","choice","","img/green_wl/choose11.jpg","1","165","green","0.5","0.5","0.5","w","","",""
"animation","125","146713","0.0-5.0-2.60","5b184f9768a5ed0001734190","bdp_lott","Mon Mar 27 2023 00:37:12 GMT-0700 (Pacific Daylight Time)","576229","green","red","","","","","","","","","","165","","","","","","[{""stimulus"":""img/green_wl/1.jpg"",""time"":62},{""stimulus"":""img/green_wl/2.jpg"",""time"":110},{""stimulus"":""img/green_wl/3.jpg"",""time"":158},{""stimulus"":""img/green_wl/4.jpg"",""time"":200},{""stimulus"":""img/green_wl/5.jpg"",""time"":253},{""stimulus"":""img/green_wl/6.jpg"",""time"":300},{""stimulus"":""img/green_wl/7.jpg"",""time"":350},{""stimulus"":""img/green_wl/8.jpg"",""time"":401},{""stimulus"":""img/green_wl/9.jpg"",""time"":458},{""stimulus"":""img/green_wl/10.jpg"",""time"":504},{""stimulus"":""img/green_wl/11.jpg"",""time"":551}]","[]",""
"image-keyboard-response","126","146743","0.0-5.0-1.61","5b184f9768a5ed0001734190","bdp_lott","Mon Mar 27 2023 00:37:12 GMT-0700 (Pacific Daylight Time)","576229","green","red","","30","","","","choice","","img/green_wl/choose11.jpg","1","164","green","0.5","0.5","0.5","w","","",""
"animation","127","147356","0.0-5.0-2.61","5b184f9768a5ed0001734190","bdp_lott","Mon Mar 27 2023 00:37:12 GMT-0700 (Pacific Daylight Time)","576229","green","red","","","","","","","","","","164","","","","","","[{""stimulus"":""img/green_wl/1.jpg"",""time"":51},{""stimulus"":""img/green_wl/2.jpg"",""time"":109},{""stimulus"":""img/green_wl/3.jpg"",""time"":156},{""stimulus"":""img/green_wl/4.jpg"",""time"":202},{""stimulus"":""img/green_wl/5.jpg"",""time"":265},{""stimulus"":""img/green_wl/6.jpg"",""time"":301},{""stimulus"":""img/green_wl/7.jpg"",""time"":359},{""stimulus"":""img/green_wl/8.jpg"",""time"":407},{""stimulus"":""img/green_wl/9.jpg"",""time"":455},{""stimulus"":""img/green_wl/10.jpg"",""time"":503},{""stimulus"":""img/green_wl/11.jpg"",""time"":551}]","[]",""
"image-keyboard-response","128","148296","0.0-5.0-1.62","5b184f9768a5ed0001734190","bdp_lott","Mon Mar 27 2023 00:37:12 GMT-0700 (Pacific Daylight Time)","576229","green","red","","939","","","","choice","","img/green_wl/choose11.jpg","2","163","red","0.5","0.5","0.5","l","","",""
"animation","129","148896","0.0-5.0-2.62","5b184f9768a5ed0001734190","bdp_lott","Mon Mar 27 2023 00:37:12 GMT-0700 (Pacific Daylight Time)","576229","green","red","","","","","","","","","","163","","","","","","[{""stimulus"":""img/red_wl/1.jpg"",""time"":59},{""stimulus"":""img/red_wl/2.jpg"",""time"":105},{""stimulus"":""img/red_wl/3.jpg"",""time"":153},{""stimulus"":""img/red_wl/4.jpg"",""time"":201},{""stimulus"":""img/red_wl/5.jpg"",""time"":264},{""stimulus"":""img/red_wl/6.jpg"",""time"":301},{""stimulus"":""img/red_wl/7.jpg"",""time"":358},{""stimulus"":""img/red_wl/8.jpg"",""time"":405},{""stimulus"":""img/red_wl/9.jpg"",""time"":451},{""stimulus"":""img/red_wl/10.jpg"",""time"":515},{""stimulus"":""img/red_wl/11.jpg"",""time"":562}]","[]",""
"image-keyboard-response","130","149344","0.0-5.0-1.63","5b184f9768a5ed0001734190","bdp_lott","Mon Mar 27 2023 00:37:12 GMT-0700 (Pacific Daylight Time)","576229","green","red","","447","","","","choice","","img/red_wl/choose11.jpg","2","162","red","0.5","0.5","0.5","l","","",""
"animation","131","149948","0.0-5.0-2.63","5b184f9768a5ed0001734190","bdp_lott","Mon Mar 27 2023 00:37:12 GMT-0700 (Pacific Daylight Time)","576229","green","red","","","","","","","","","","162","","","","","","[{""stimulus"":""img/red_wl/1.jpg"",""time"":51},{""stimulus"":""img/red_wl/2.jpg"",""time"":101},{""stimulus"":""img/red_wl/3.jpg"",""time"":150},{""stimulus"":""img/red_wl/4.jpg"",""time"":210},{""stimulus"":""img/red_wl/5.jpg"",""time"":250},{""stimulus"":""img/red_wl/6.jpg"",""time"":305},{""stimulus"":""img/red_wl/7.jpg"",""time"":350},{""stimulus"":""img/red_wl/8.jpg"",""time"":400},{""stimulus"":""img/red_wl/9.jpg"",""time"":464},{""stimulus"":""img/red_wl/10.jpg"",""time"":511},{""stimulus"":""img/red_wl/11.jpg"",""time"":558}]","[]",""
"image-keyboard-response","132","150416","0.0-5.0-1.64","5b184f9768a5ed0001734190","bdp_lott","Mon Mar 27 2023 00:37:12 GMT-0700 (Pacific Daylight Time)","576229","green","red","","466","","","","choice","","img/red_wl/choose11.jpg","1","161","green","0.5","0.5","0.5","l","","",""
"animation","133","151027","0.0-5.0-2.64","5b184f9768a5ed0001734190","bdp_lott","Mon Mar 27 2023 00:37:12 GMT-0700 (Pacific Daylight Time)","576229","green","red","","","","","","","","","","161","","","","","","[{""stimulus"":""img/green_ll/1.jpg"",""time"":56},{""stimulus"":""img/green_ll/2.jpg"",""time"":104},{""stimulus"":""img/green_ll/3.jpg"",""time"":151},{""stimulus"":""img/green_ll/4.jpg"",""time"":215},{""stimulus"":""img/green_ll/5.jpg"",""time"":250},{""stimulus"":""img/green_ll/6.jpg"",""time"":300},{""stimulus"":""img/green_ll/7.jpg"",""time"":358},{""stimulus"":""img/green_ll/8.jpg"",""time"":400},{""stimulus"":""img/green_ll/9.jpg"",""time"":450},{""stimulus"":""img/green_ll/10.jpg"",""time"":515},{""stimulus"":""img/green_ll/11.jpg"",""time"":563}]","[]",""
"image-keyboard-response","134","151687","0.0-5.0-1.65","5b184f9768a5ed0001734190","bdp_lott","Mon Mar 27 2023 00:37:12 GMT-0700 (Pacific Daylight Time)","576229","green","red","","660","","","","choice","","img/green_ll/choose11.jpg","1","160","green","0.5","0.5","0.5","l","","",""
"animation","135","152288","0.0-5.0-2.65","5b184f9768a5ed0001734190","bdp_lott","Mon Mar 27 2023 00:37:12 GMT-0700 (Pacific Daylight Time)","576229","green","red","","","","","","","","","","160","","","","","","[{""stimulus"":""img/green_ll/1.jpg"",""time"":51},{""stimulus"":""img/green_ll/2.jpg"",""time"":113},{""stimulus"":""img/green_ll/3.jpg"",""time"":160},{""stimulus"":""img/green_ll/4.jpg"",""time"":209},{""stimulus"":""img/green_ll/5.jpg"",""time"":256},{""stimulus"":""img/green_ll/6.jpg"",""time"":302},{""stimulus"":""img/green_ll/7.jpg"",""time"":351},{""stimulus"":""img/green_ll/8.jpg"",""time"":414},{""stimulus"":""img/green_ll/9.jpg"",""time"":462},{""stimulus"":""img/green_ll/10.jpg"",""time"":510},{""stimulus"":""img/green_ll/11.jpg"",""time"":556}]","[]",""
"image-keyboard-response","136","152968","0.0-5.0-1.66","5b184f9768a5ed0001734190","bdp_lott","Mon Mar 27 2023 00:37:12 GMT-0700 (Pacific Daylight Time)","576229","green","red","","679","","","","choice","","img/green_ll/choose11.jpg","1","159","green","0.5","0.5","0.5","w","","",""
"animation","137","153571","0.0-5.0-2.66","5b184f9768a5ed0001734190","bdp_lott","Mon Mar 27 2023 00:37:12 GMT-0700 (Pacific Daylight Time)","576229","green","red","","","","","","","","","","159","","","","","","[{""stimulus"":""img/green_wl/1.jpg"",""time"":50},{""stimulus"":""img/green_wl/2.jpg"",""time"":114},{""stimulus"":""img/green_wl/3.jpg"",""time"":161},{""stimulus"":""img/green_wl/4.jpg"",""time"":200},{""stimulus"":""img/green_wl/5.jpg"",""time"":256},{""stimulus"":""img/green_wl/6.jpg"",""time"":303},{""stimulus"":""img/green_wl/7.jpg"",""time"":351},{""stimulus"":""img/green_wl/8.jpg"",""time"":400},{""stimulus"":""img/green_wl/9.jpg"",""time"":461},{""stimulus"":""img/green_wl/10.jpg"",""time"":509},{""stimulus"":""img/green_wl/11.jpg"",""time"":556}]","[]",""
"image-keyboard-response","138","153975","0.0-5.0-1.67","5b184f9768a5ed0001734190","bdp_lott","Mon Mar 27 2023 00:37:12 GMT-0700 (Pacific Daylight Time)","576229","green","red","","403","","","","choice","","img/green_wl/choose11.jpg","1","158","green","0.5","0.5","0.5","w","","",""
"animation","139","154582","0.0-5.0-2.67","5b184f9768a5ed0001734190","bdp_lott","Mon Mar 27 2023 00:37:12 GMT-0700 (Pacific Daylight Time)","576229","green","red","","","","","","","","","","158","","","","","","[{""stimulus"":""img/green_wl/1.jpg"",""time"":56},{""stimulus"":""img/green_wl/2.jpg"",""time"":103},{""stimulus"":""img/green_wl/3.jpg"",""time"":151},{""stimulus"":""img/green_wl/4.jpg"",""time"":213},{""stimulus"":""img/green_wl/5.jpg"",""time"":250},{""stimulus"":""img/green_wl/6.jpg"",""time"":308},{""stimulus"":""img/green_wl/7.jpg"",""time"":350},{""stimulus"":""img/green_wl/8.jpg"",""time"":403},{""stimulus"":""img/green_wl/9.jpg"",""time"":450},{""stimulus"":""img/green_wl/10.jpg"",""time"":510},{""stimulus"":""img/green_wl/11.jpg"",""time"":558}]","[]",""
"image-keyboard-response","140","155271","0.0-5.0-1.68","5b184f9768a5ed0001734190","bdp_lott","Mon Mar 27 2023 00:37:12 GMT-0700 (Pacific Daylight Time)","576229","green","red","","689","","","","choice","","img/green_wl/choose11.jpg","2","157","red","0.5","0.5","0.5","w","","",""
"animation","141","155872","0.0-5.0-2.68","5b184f9768a5ed0001734190","bdp_lott","Mon Mar 27 2023 00:37:12 GMT-0700 (Pacific Daylight Time)","576229","green","red","","","","","","","","","","157","","","","","","[{""stimulus"":""img/red_ww/1.jpg"",""time"":50},{""stimulus"":""img/red_ww/2.jpg"",""time"":114},{""stimulus"":""img/red_ww/3.jpg"",""time"":159},{""stimulus"":""img/red_ww/4.jpg"",""time"":200},{""stimulus"":""img/red_ww/5.jpg"",""time"":256},{""stimulus"":""img/red_ww/6.jpg"",""time"":300},{""stimulus"":""img/red_ww/7.jpg"",""time"":366},{""stimulus"":""img/red_ww/8.jpg"",""time"":400},{""stimulus"":""img/red_ww/9.jpg"",""time"":450},{""stimulus"":""img/red_ww/10.jpg"",""time"":500},{""stimulus"":""img/red_ww/11.jpg"",""time"":550}]","[]",""
"image-keyboard-response","142","156280","0.0-5.0-1.69","5b184f9768a5ed0001734190","bdp_lott","Mon Mar 27 2023 00:37:12 GMT-0700 (Pacific Daylight Time)","576229","green","red","","408","","","","choice","","img/red_ww/choose11.jpg","2","156","red","0.5","0.5","0.5","l","","",""
"animation","143","156881","0.0-5.0-2.69","5b184f9768a5ed0001734190","bdp_lott","Mon Mar 27 2023 00:37:12 GMT-0700 (Pacific Daylight Time)","576229","green","red","","","","","","","","","","156","","","","","","[{""stimulus"":""img/red_wl/1.jpg"",""time"":63},{""stimulus"":""img/red_wl/2.jpg"",""time"":111},{""stimulus"":""img/red_wl/3.jpg"",""time"":157},{""stimulus"":""img/red_wl/4.jpg"",""time"":204},{""stimulus"":""img/red_wl/5.jpg"",""time"":251},{""stimulus"":""img/red_wl/6.jpg"",""time"":314},{""stimulus"":""img/red_wl/7.jpg"",""time"":350},{""stimulus"":""img/red_wl/8.jpg"",""time"":408},{""stimulus"":""img/red_wl/9.jpg"",""time"":450},{""stimulus"":""img/red_wl/10.jpg"",""time"":502},{""stimulus"":""img/red_wl/11.jpg"",""time"":551}]","[]",""
"image-keyboard-response","144","157607","0.0-5.0-1.70","5b184f9768a5ed0001734190","bdp_lott","Mon Mar 27 2023 00:37:12 GMT-0700 (Pacific Daylight Time)","576229","green","red","","726","","","","choice","","img/red_wl/choose11.jpg","1","155","green","0.5","0.5","0.5","w","","",""
"animation","145","158216","0.0-5.0-2.70","5b184f9768a5ed0001734190","bdp_lott","Mon Mar 27 2023 00:37:12 GMT-0700 (Pacific Daylight Time)","576229","green","red","","","","","","","","","","155","","","","","","[{""stimulus"":""img/green_wl/1.jpg"",""time"":51},{""stimulus"":""img/green_wl/2.jpg"",""time"":105},{""stimulus"":""img/green_wl/3.jpg"",""time"":150},{""stimulus"":""img/green_wl/4.jpg"",""time"":213},{""stimulus"":""img/green_wl/5.jpg"",""time"":250},{""stimulus"":""img/green_wl/6.jpg"",""time"":308},{""stimulus"":""img/green_wl/7.jpg"",""time"":351},{""stimulus"":""img/green_wl/8.jpg"",""time"":404},{""stimulus"":""img/green_wl/9.jpg"",""time"":450},{""stimulus"":""img/green_wl/10.jpg"",""time"":514},{""stimulus"":""img/green_wl/11.jpg"",""time"":551}]","[]",""
"image-keyboard-response","146","158760","0.0-5.0-1.71","5b184f9768a5ed0001734190","bdp_lott","Mon Mar 27 2023 00:37:12 GMT-0700 (Pacific Daylight Time)","576229","green","red","","542","","","","choice","","img/green_wl/choose11.jpg","1","154","green","0.5","0.5","0.5","w","","",""
"animation","147","159360","0.0-5.0-2.71","5b184f9768a5ed0001734190","bdp_lott","Mon Mar 27 2023 00:37:12 GMT-0700 (Pacific Daylight Time)","576229","green","red","","","","","","","","","","154","","","","","","[{""stimulus"":""img/green_wl/1.jpg"",""time"":58},{""stimulus"":""img/green_wl/2.jpg"",""time"":106},{""stimulus"":""img/green_wl/3.jpg"",""time"":154},{""stimulus"":""img/green_wl/4.jpg"",""time"":200},{""stimulus"":""img/green_wl/5.jpg"",""time"":264},{""stimulus"":""img/green_wl/6.jpg"",""time"":312},{""stimulus"":""img/green_wl/7.jpg"",""time"":360},{""stimulus"":""img/green_wl/8.jpg"",""time"":401},{""stimulus"":""img/green_wl/9.jpg"",""time"":454},{""stimulus"":""img/green_wl/10.jpg"",""time"":501},{""stimulus"":""img/green_wl/11.jpg"",""time"":550}]","[]",""
"image-keyboard-response","148","159695","0.0-5.0-1.72","5b184f9768a5ed0001734190","bdp_lott","Mon Mar 27 2023 00:37:12 GMT-0700 (Pacific Daylight Time)","576229","green","red","","335","","","","choice","","img/green_wl/choose11.jpg","1","153","green","0.5","0.5","0.5","w","","",""
"animation","149","160304","0.0-5.0-2.72","5b184f9768a5ed0001734190","bdp_lott","Mon Mar 27 2023 00:37:12 GMT-0700 (Pacific Daylight Time)","576229","green","red","","","","","","","","","","153","","","","","","[{""stimulus"":""img/green_wl/1.jpg"",""time"":57},{""stimulus"":""img/green_wl/2.jpg"",""time"":103},{""stimulus"":""img/green_wl/3.jpg"",""time"":151},{""stimulus"":""img/green_wl/4.jpg"",""time"":214},{""stimulus"":""img/green_wl/5.jpg"",""time"":262},{""stimulus"":""img/green_wl/6.jpg"",""time"":301},{""stimulus"":""img/green_wl/7.jpg"",""time"":357},{""stimulus"":""img/green_wl/8.jpg"",""time"":401},{""stimulus"":""img/green_wl/9.jpg"",""time"":451},{""stimulus"":""img/green_wl/10.jpg"",""time"":515},{""stimulus"":""img/green_wl/11.jpg"",""time"":563}]","[]",""
"image-keyboard-response","150","161783","0.0-5.0-1.73","5b184f9768a5ed0001734190","bdp_lott","Mon Mar 27 2023 00:37:12 GMT-0700 (Pacific Daylight Time)","576229","green","red","","1479","","","","choice","","img/green_wl/choose11.jpg","1","152","green","0.5","0.5","0.5","w","","",""
"animation","151","162385","0.0-5.0-2.73","5b184f9768a5ed0001734190","bdp_lott","Mon Mar 27 2023 00:37:12 GMT-0700 (Pacific Daylight Time)","576229","green","red","","","","","","","","","","152","","","","","","[{""stimulus"":""img/green_wl/1.jpg"",""time"":51},{""stimulus"":""img/green_wl/2.jpg"",""time"":101},{""stimulus"":""img/green_wl/3.jpg"",""time"":163},{""stimulus"":""img/green_wl/4.jpg"",""time"":211},{""stimulus"":""img/green_wl/5.jpg"",""time"":251},{""stimulus"":""img/green_wl/6.jpg"",""time"":306},{""stimulus"":""img/green_wl/7.jpg"",""time"":353},{""stimulus"":""img/green_wl/8.jpg"",""time"":402},{""stimulus"":""img/green_wl/9.jpg"",""time"":463},{""stimulus"":""img/green_wl/10.jpg"",""time"":510},{""stimulus"":""img/green_wl/11.jpg"",""time"":551}]","[]",""
"image-keyboard-response","152","162783","0.0-5.0-1.74","5b184f9768a5ed0001734190","bdp_lott","Mon Mar 27 2023 00:37:12 GMT-0700 (Pacific Daylight Time)","576229","green","red","","398","","","","choice","","img/green_wl/choose11.jpg","1","151","green","0.5","0.5","0.5","l","","",""
"animation","153","163384","0.0-5.0-2.74","5b184f9768a5ed0001734190","bdp_lott","Mon Mar 27 2023 00:37:12 GMT-0700 (Pacific Daylight Time)","576229","green","red","","","","","","","","","","151","","","","","","[{""stimulus"":""img/green_ll/1.jpg"",""time"":51},{""stimulus"":""img/green_ll/2.jpg"",""time"":101},{""stimulus"":""img/green_ll/3.jpg"",""time"":151},{""stimulus"":""img/green_ll/4.jpg"",""time"":205},{""stimulus"":""img/green_ll/5.jpg"",""time"":251},{""stimulus"":""img/green_ll/6.jpg"",""time"":301},{""stimulus"":""img/green_ll/7.jpg"",""time"":364},{""stimulus"":""img/green_ll/8.jpg"",""time"":412},{""stimulus"":""img/green_ll/9.jpg"",""time"":452},{""stimulus"":""img/green_ll/10.jpg"",""time"":505},{""stimulus"":""img/green_ll/11.jpg"",""time"":553}]","[]",""
"image-keyboard-response","154","218477","0.0-5.0-1.75","5b184f9768a5ed0001734190","bdp_lott","Mon Mar 27 2023 00:37:12 GMT-0700 (Pacific Daylight Time)","576229","green","red","","55093","","","","choice","","img/green_ll/choose11.jpg","1","150","green","0.5","0.5","0.5","l","","",""
"animation","155","219089","0.0-5.0-2.75","5b184f9768a5ed0001734190","bdp_lott","Mon Mar 27 2023 00:37:12 GMT-0700 (Pacific Daylight Time)","576229","green","red","","","","","","","","","","150","","","","","","[{""stimulus"":""img/green_ll/1.jpg"",""time"":51},{""stimulus"":""img/green_ll/2.jpg"",""time"":109},{""stimulus"":""img/green_ll/3.jpg"",""time"":151},{""stimulus"":""img/green_ll/4.jpg"",""time"":201},{""stimulus"":""img/green_ll/5.jpg"",""time"":265},{""stimulus"":""img/green_ll/6.jpg"",""time"":301},{""stimulus"":""img/green_ll/7.jpg"",""time"":351},{""stimulus"":""img/green_ll/8.jpg"",""time"":401},{""stimulus"":""img/green_ll/9.jpg"",""time"":451},{""stimulus"":""img/green_ll/10.jpg"",""time"":502},{""stimulus"":""img/green_ll/11.jpg"",""time"":564}]","[]",""
"image-keyboard-response","156","219156","0.0-5.0-1.76","5b184f9768a5ed0001734190","bdp_lott","Mon Mar 27 2023 00:37:12 GMT-0700 (Pacific Daylight Time)","576229","green","red","","67","","","","choice","","img/green_ll/choose11.jpg","1","149","green","0.5","0.1","0.5","l","","",""
"animation","157","219757","0.0-5.0-2.76","5b184f9768a5ed0001734190","bdp_lott","Mon Mar 27 2023 00:37:12 GMT-0700 (Pacific Daylight Time)","576229","green","red","","","","","","","","","","149","","","","","","[{""stimulus"":""img/green_ll/1.jpg"",""time"":58},{""stimulus"":""img/green_ll/2.jpg"",""time"":105},{""stimulus"":""img/green_ll/3.jpg"",""time"":153},{""stimulus"":""img/green_ll/4.jpg"",""time"":201},{""stimulus"":""img/green_ll/5.jpg"",""time"":251},{""stimulus"":""img/green_ll/6.jpg"",""time"":302},{""stimulus"":""img/green_ll/7.jpg"",""time"":360},{""stimulus"":""img/green_ll/8.jpg"",""time"":408},{""stimulus"":""img/green_ll/9.jpg"",""time"":450},{""stimulus"":""img/green_ll/10.jpg"",""time"":503},{""stimulus"":""img/green_ll/11.jpg"",""time"":551}]","[]",""
"image-keyboard-response","158","220172","0.0-5.0-1.77","5b184f9768a5ed0001734190","bdp_lott","Mon Mar 27 2023 00:37:12 GMT-0700 (Pacific Daylight Time)","576229","green","red","","415","","","","choice","","img/green_ll/choose11.jpg","2","148","red","0.5","0.1","0.1","l","","",""
"animation","159","220787","0.0-5.0-2.77","5b184f9768a5ed0001734190","bdp_lott","Mon Mar 27 2023 00:37:12 GMT-0700 (Pacific Daylight Time)","576229","green","red","","","","","","","","","","148","","","","","","[{""stimulus"":""img/red_ll/1.jpg"",""time"":59},{""stimulus"":""img/red_ll/2.jpg"",""time"":107},{""stimulus"":""img/red_ll/3.jpg"",""time"":155},{""stimulus"":""img/red_ll/4.jpg"",""time"":203},{""stimulus"":""img/red_ll/5.jpg"",""time"":250},{""stimulus"":""img/red_ll/6.jpg"",""time"":314},{""stimulus"":""img/red_ll/7.jpg"",""time"":362},{""stimulus"":""img/red_ll/8.jpg"",""time"":410},{""stimulus"":""img/red_ll/9.jpg"",""time"":450},{""stimulus"":""img/red_ll/10.jpg"",""time"":505},{""stimulus"":""img/red_ll/11.jpg"",""time"":552}]","[]",""
"image-keyboard-response","160","221132","0.0-5.0-1.78","5b184f9768a5ed0001734190","bdp_lott","Mon Mar 27 2023 00:37:12 GMT-0700 (Pacific Daylight Time)","576229","green","red","","345","","","","choice","","img/red_ll/choose11.jpg","1","147","green","0.5","0.1","0.5","l","","",""
"animation","161","221733","0.0-5.0-2.78","5b184f9768a5ed0001734190","bdp_lott","Mon Mar 27 2023 00:37:12 GMT-0700 (Pacific Daylight Time)","576229","green","red","","","","","","","","","","147","","","","","","[{""stimulus"":""img/green_ll/1.jpg"",""time"":50},{""stimulus"":""img/green_ll/2.jpg"",""time"":103},{""stimulus"":""img/green_ll/3.jpg"",""time"":150},{""stimulus"":""img/green_ll/4.jpg"",""time"":201},{""stimulus"":""img/green_ll/5.jpg"",""time"":252},{""stimulus"":""img/green_ll/6.jpg"",""time"":301},{""stimulus"":""img/green_ll/7.jpg"",""time"":350},{""stimulus"":""img/green_ll/8.jpg"",""time"":408},{""stimulus"":""img/green_ll/9.jpg"",""time"":456},{""stimulus"":""img/green_ll/10.jpg"",""time"":500},{""stimulus"":""img/green_ll/11.jpg"",""time"":550}]","[]",""
"image-keyboard-response","162","221940","0.0-5.0-1.79","5b184f9768a5ed0001734190","bdp_lott","Mon Mar 27 2023 00:37:12 GMT-0700 (Pacific Daylight Time)","576229","green","red","","206","","","","choice","","img/green_ll/choose11.jpg","1","146","green","0.5","0.1","0.5","w","","",""
"animation","163","222552","0.0-5.0-2.79","5b184f9768a5ed0001734190","bdp_lott","Mon Mar 27 2023 00:37:12 GMT-0700 (Pacific Daylight Time)","576229","green","red","","","","","","","","","","146","","","","","","[{""stimulus"":""img/green_wl/1.jpg"",""time"":51},{""stimulus"":""img/green_wl/2.jpg"",""time"":105},{""stimulus"":""img/green_wl/3.jpg"",""time"":153},{""stimulus"":""img/green_wl/4.jpg"",""time"":216},{""stimulus"":""img/green_wl/5.jpg"",""time"":264},{""stimulus"":""img/green_wl/6.jpg"",""time"":312},{""stimulus"":""img/green_wl/7.jpg"",""time"":359},{""stimulus"":""img/green_wl/8.jpg"",""time"":401},{""stimulus"":""img/green_wl/9.jpg"",""time"":451},{""stimulus"":""img/green_wl/10.jpg"",""time"":501},{""stimulus"":""img/green_wl/11.jpg"",""time"":565}]","[]",""
"image-keyboard-response","164","222716","0.0-5.0-1.80","5b184f9768a5ed0001734190","bdp_lott","Mon Mar 27 2023 00:37:12 GMT-0700 (Pacific Daylight Time)","576229","green","red","","163","","","","choice","","img/green_wl/choose11.jpg","1","145","green","0.5","0.1","0.5","l","","",""
"animation","165","223318","0.0-5.0-2.80","5b184f9768a5ed0001734190","bdp_lott","Mon Mar 27 2023 00:37:12 GMT-0700 (Pacific Daylight Time)","576229","green","red","","","","","","","","","","145","","","","","","[{""stimulus"":""img/green_ll/1.jpg"",""time"":51},{""stimulus"":""img/green_ll/2.jpg"",""time"":106},{""stimulus"":""img/green_ll/3.jpg"",""time"":151},{""stimulus"":""img/green_ll/4.jpg"",""time"":201},{""stimulus"":""img/green_ll/5.jpg"",""time"":252},{""stimulus"":""img/green_ll/6.jpg"",""time"":301},{""stimulus"":""img/green_ll/7.jpg"",""time"":360},{""stimulus"":""img/green_ll/8.jpg"",""time"":406},{""stimulus"":""img/green_ll/9.jpg"",""time"":452},{""stimulus"":""img/green_ll/10.jpg"",""time"":501},{""stimulus"":""img/green_ll/11.jpg"",""time"":563}]","[]",""
"image-keyboard-response","166","223508","0.0-5.0-1.81","5b184f9768a5ed0001734190","bdp_lott","Mon Mar 27 2023 00:37:12 GMT-0700 (Pacific Daylight Time)","576229","green","red","","190","","","","choice","","img/green_ll/choose11.jpg","2","144","red","0.5","0.1","0.1","l","","",""
"animation","167","224119","0.0-5.0-2.81","5b184f9768a5ed0001734190","bdp_lott","Mon Mar 27 2023 00:37:12 GMT-0700 (Pacific Daylight Time)","576229","green","red","","","","","","","","","","144","","","","","","[{""stimulus"":""img/red_ll/1.jpg"",""time"":56},{""stimulus"":""img/red_ll/2.jpg"",""time"":104},{""stimulus"":""img/red_ll/3.jpg"",""time"":151},{""stimulus"":""img/red_ll/4.jpg"",""time"":215},{""stimulus"":""img/red_ll/5.jpg"",""time"":262},{""stimulus"":""img/red_ll/6.jpg"",""time"":310},{""stimulus"":""img/red_ll/7.jpg"",""time"":358},{""stimulus"":""img/red_ll/8.jpg"",""time"":406},{""stimulus"":""img/red_ll/9.jpg"",""time"":454},{""stimulus"":""img/red_ll/10.jpg"",""time"":501},{""stimulus"":""img/red_ll/11.jpg"",""time"":564}]","[]",""
"image-keyboard-response","168","224284","0.0-5.0-1.82","5b184f9768a5ed0001734190","bdp_lott","Mon Mar 27 2023 00:37:12 GMT-0700 (Pacific Daylight Time)","576229","green","red","","165","","","","choice","","img/red_ll/choose11.jpg","2","143","red","0.5","0.1","0.1","l","","",""
"animation","169","224885","0.0-5.0-2.82","5b184f9768a5ed0001734190","bdp_lott","Mon Mar 27 2023 00:37:12 GMT-0700 (Pacific Daylight Time)","576229","green","red","","","","","","","","","","143","","","","","","[{""stimulus"":""img/red_ll/1.jpg"",""time"":55},{""stimulus"":""img/red_ll/2.jpg"",""time"":104},{""stimulus"":""img/red_ll/3.jpg"",""time"":151},{""stimulus"":""img/red_ll/4.jpg"",""time"":215},{""stimulus"":""img/red_ll/5.jpg"",""time"":263},{""stimulus"":""img/red_ll/6.jpg"",""time"":310},{""stimulus"":""img/red_ll/7.jpg"",""time"":357},{""stimulus"":""img/red_ll/8.jpg"",""time"":405},{""stimulus"":""img/red_ll/9.jpg"",""time"":451},{""stimulus"":""img/red_ll/10.jpg"",""time"":516},{""stimulus"":""img/red_ll/11.jpg"",""time"":551}]","[]",""
"image-keyboard-response","170","225156","0.0-5.0-1.83","5b184f9768a5ed0001734190","bdp_lott","Mon Mar 27 2023 00:37:12 GMT-0700 (Pacific Daylight Time)","576229","green","red","","271","","","","choice","","img/red_ll/choose11.jpg","2","142","red","0.5","0.1","0.1","l","","",""
"animation","171","225757","0.0-5.0-2.83","5b184f9768a5ed0001734190","bdp_lott","Mon Mar 27 2023 00:37:12 GMT-0700 (Pacific Daylight Time)","576229","green","red","","","","","","","","","","142","","","","","","[{""stimulus"":""img/red_ll/1.jpg"",""time"":56},{""stimulus"":""img/red_ll/2.jpg"",""time"":103},{""stimulus"":""img/red_ll/3.jpg"",""time"":166},{""stimulus"":""img/red_ll/4.jpg"",""time"":213},{""stimulus"":""img/red_ll/5.jpg"",""time"":261},{""stimulus"":""img/red_ll/6.jpg"",""time"":301},{""stimulus"":""img/red_ll/7.jpg"",""time"":354},{""stimulus"":""img/red_ll/8.jpg"",""time"":401},{""stimulus"":""img/red_ll/9.jpg"",""time"":465},{""stimulus"":""img/red_ll/10.jpg"",""time"":501},{""stimulus"":""img/red_ll/11.jpg"",""time"":551}]","[]",""
"image-keyboard-response","172","225956","0.0-5.0-1.84","5b184f9768a5ed0001734190","bdp_lott","Mon Mar 27 2023 00:37:12 GMT-0700 (Pacific Daylight Time)","576229","green","red","","198","","","","choice","","img/red_ll/choose11.jpg","1","141","green","0.5","0.1","0.5","w","","",""
"animation","173","226570","0.0-5.0-2.84","5b184f9768a5ed0001734190","bdp_lott","Mon Mar 27 2023 00:37:12 GMT-0700 (Pacific Daylight Time)","576229","green","red","","","","","","","","","","141","","","","","","[{""stimulus"":""img/green_wl/1.jpg"",""time"":62},{""stimulus"":""img/green_wl/2.jpg"",""time"":109},{""stimulus"":""img/green_wl/3.jpg"",""time"":157},{""stimulus"":""img/green_wl/4.jpg"",""time"":204},{""stimulus"":""img/green_wl/5.jpg"",""time"":252},{""stimulus"":""img/green_wl/6.jpg"",""time"":314},{""stimulus"":""img/green_wl/7.jpg"",""time"":362},{""stimulus"":""img/green_wl/8.jpg"",""time"":409},{""stimulus"":""img/green_wl/9.jpg"",""time"":456},{""stimulus"":""img/green_wl/10.jpg"",""time"":501},{""stimulus"":""img/green_wl/11.jpg"",""time"":551}]","[]",""
"image-keyboard-response","174","226884","0.0-5.0-1.85","5b184f9768a5ed0001734190","bdp_lott","Mon Mar 27 2023 00:37:12 GMT-0700 (Pacific Daylight Time)","576229","green","red","","314","","","","choice","","img/green_wl/choose11.jpg","1","140","green","0.5","0.1","0.5","l","","",""
"animation","175","227489","0.0-5.0-2.85","5b184f9768a5ed0001734190","bdp_lott","Mon Mar 27 2023 00:37:12 GMT-0700 (Pacific Daylight Time)","576229","green","red","","","","","","","","","","140","","","","","","[{""stimulus"":""img/green_ll/1.jpg"",""time"":64},{""stimulus"":""img/green_ll/2.jpg"",""time"":111},{""stimulus"":""img/green_ll/3.jpg"",""time"":151},{""stimulus"":""img/green_ll/4.jpg"",""time"":207},{""stimulus"":""img/green_ll/5.jpg"",""time"":255},{""stimulus"":""img/green_ll/6.jpg"",""time"":302},{""stimulus"":""img/green_ll/7.jpg"",""time"":351},{""stimulus"":""img/green_ll/8.jpg"",""time"":415},{""stimulus"":""img/green_ll/9.jpg"",""time"":451},{""stimulus"":""img/green_ll/10.jpg"",""time"":502},{""stimulus"":""img/green_ll/11.jpg"",""time"":557}]","[]",""
"image-keyboard-response","176","227620","0.0-5.0-1.86","5b184f9768a5ed0001734190","bdp_lott","Mon Mar 27 2023 00:37:12 GMT-0700 (Pacific Daylight Time)","576229","green","red","","130","","","","choice","","img/green_ll/choose11.jpg","1","139","green","0.5","0.1","0.5","w","","",""
"animation","177","228230","0.0-5.0-2.86","5b184f9768a5ed0001734190","bdp_lott","Mon Mar 27 2023 00:37:12 GMT-0700 (Pacific Daylight Time)","576229","green","red","","","","","","","","","","139","","","","","","[{""stimulus"":""img/green_wl/1.jpg"",""time"":60},{""stimulus"":""img/green_wl/2.jpg"",""time"":107},{""stimulus"":""img/green_wl/3.jpg"",""time"":151},{""stimulus"":""img/green_wl/4.jpg"",""time"":202},{""stimulus"":""img/green_wl/5.jpg"",""time"":251},{""stimulus"":""img/green_wl/6.jpg"",""time"":313},{""stimulus"":""img/green_wl/7.jpg"",""time"":360},{""stimulus"":""img/green_wl/8.jpg"",""time"":407},{""stimulus"":""img/green_wl/9.jpg"",""time"":454},{""stimulus"":""img/green_wl/10.jpg"",""time"":516},{""stimulus"":""img/green_wl/11.jpg"",""time"":563}]","[]",""
"image-keyboard-response","178","228404","0.0-5.0-1.87","5b184f9768a5ed0001734190","bdp_lott","Mon Mar 27 2023 00:37:12 GMT-0700 (Pacific Daylight Time)","576229","green","red","","174","","","","choice","","img/green_wl/choose11.jpg","1","138","green","0.5","0.1","0.5","l","","",""
"animation","179","229005","0.0-5.0-2.87","5b184f9768a5ed0001734190","bdp_lott","Mon Mar 27 2023 00:37:12 GMT-0700 (Pacific Daylight Time)","576229","green","red","","","","","","","","","","138","","","","","","[{""stimulus"":""img/green_ll/1.jpg"",""time"":61},{""stimulus"":""img/green_ll/2.jpg"",""time"":104},{""stimulus"":""img/green_ll/3.jpg"",""time"":154},{""stimulus"":""img/green_ll/4.jpg"",""time"":202},{""stimulus"":""img/green_ll/5.jpg"",""time"":266},{""stimulus"":""img/green_ll/6.jpg"",""time"":301},{""stimulus"":""img/green_ll/7.jpg"",""time"":361},{""stimulus"":""img/green_ll/8.jpg"",""time"":407},{""stimulus"":""img/green_ll/9.jpg"",""time"":453},{""stimulus"":""img/green_ll/10.jpg"",""time"":501},{""stimulus"":""img/green_ll/11.jpg"",""time"":562}]","[]",""
"image-keyboard-response","180","229189","0.0-5.0-1.88","5b184f9768a5ed0001734190","bdp_lott","Mon Mar 27 2023 00:37:12 GMT-0700 (Pacific Daylight Time)","576229","green","red","","184","","","","choice","","img/green_ll/choose11.jpg","1","137","green","0.5","0.1","0.5","l","","",""
"animation","181","229790","0.0-5.0-2.88","5b184f9768a5ed0001734190","bdp_lott","Mon Mar 27 2023 00:37:12 GMT-0700 (Pacific Daylight Time)","576229","green","red","","","","","","","","","","137","","","","","","[{""stimulus"":""img/green_ll/1.jpg"",""time"":60},{""stimulus"":""img/green_ll/2.jpg"",""time"":106},{""stimulus"":""img/green_ll/3.jpg"",""time"":151},{""stimulus"":""img/green_ll/4.jpg"",""time"":215},{""stimulus"":""img/green_ll/5.jpg"",""time"":263},{""stimulus"":""img/green_ll/6.jpg"",""time"":311},{""stimulus"":""img/green_ll/7.jpg"",""time"":350},{""stimulus"":""img/green_ll/8.jpg"",""time"":400},{""stimulus"":""img/green_ll/9.jpg"",""time"":450},{""stimulus"":""img/green_ll/10.jpg"",""time"":504},{""stimulus"":""img/green_ll/11.jpg"",""time"":551}]","[]",""
"image-keyboard-response","182","229964","0.0-5.0-1.89","5b184f9768a5ed0001734190","bdp_lott","Mon Mar 27 2023 00:37:12 GMT-0700 (Pacific Daylight Time)","576229","green","red","","174","","","","choice","","img/green_ll/choose11.jpg","2","136","red","0.5","0.1","0.1","l","","",""
"animation","183","230577","0.0-5.0-2.89","5b184f9768a5ed0001734190","bdp_lott","Mon Mar 27 2023 00:37:12 GMT-0700 (Pacific Daylight Time)","576229","green","red","","","","","","","","","","136","","","","","","[{""stimulus"":""img/red_ll/1.jpg"",""time"":59},{""stimulus"":""img/red_ll/2.jpg"",""time"":107},{""stimulus"":""img/red_ll/3.jpg"",""time"":155},{""stimulus"":""img/red_ll/4.jpg"",""time"":202},{""stimulus"":""img/red_ll/5.jpg"",""time"":251},{""stimulus"":""img/red_ll/6.jpg"",""time"":312},{""stimulus"":""img/red_ll/7.jpg"",""time"":360},{""stimulus"":""img/red_ll/8.jpg"",""time"":401},{""stimulus"":""img/red_ll/9.jpg"",""time"":455},{""stimulus"":""img/red_ll/10.jpg"",""time"":502},{""stimulus"":""img/red_ll/11.jpg"",""time"":565}]","[]",""
"image-keyboard-response","184","230756","0.0-5.0-1.90","5b184f9768a5ed0001734190","bdp_lott","Mon Mar 27 2023 00:37:12 GMT-0700 (Pacific Daylight Time)","576229","green","red","","179","","","","choice","","img/red_ll/choose11.jpg","2","135","red","0.5","0.1","0.1","l","","",""
"animation","185","231365","0.0-5.0-2.90","5b184f9768a5ed0001734190","bdp_lott","Mon Mar 27 2023 00:37:12 GMT-0700 (Pacific Daylight Time)","576229","green","red","","","","","","","","","","135","","","","","","[{""stimulus"":""img/red_ll/1.jpg"",""time"":57},{""stimulus"":""img/red_ll/2.jpg"",""time"":104},{""stimulus"":""img/red_ll/3.jpg"",""time"":152},{""stimulus"":""img/red_ll/4.jpg"",""time"":215},{""stimulus"":""img/red_ll/5.jpg"",""time"":262},{""stimulus"":""img/red_ll/6.jpg"",""time"":301},{""stimulus"":""img/red_ll/7.jpg"",""time"":351},{""stimulus"":""img/red_ll/8.jpg"",""time"":404},{""stimulus"":""img/red_ll/9.jpg"",""time"":452},{""stimulus"":""img/red_ll/10.jpg"",""time"":514},{""stimulus"":""img/red_ll/11.jpg"",""time"":561}]","[]",""
"image-keyboard-response","186","231532","0.0-5.0-1.91","5b184f9768a5ed0001734190","bdp_lott","Mon Mar 27 2023 00:37:12 GMT-0700 (Pacific Daylight Time)","576229","green","red","","167","","","","choice","","img/red_ll/choose11.jpg","2","134","red","0.5","0.1","0.1","l","","",""
"animation","187","232138","0.0-5.0-2.91","5b184f9768a5ed0001734190","bdp_lott","Mon Mar 27 2023 00:37:12 GMT-0700 (Pacific Daylight Time)","576229","green","red","","","","","","","","","","134","","","","","","[{""stimulus"":""img/red_ll/1.jpg"",""time"":53},{""stimulus"":""img/red_ll/2.jpg"",""time"":101},{""stimulus"":""img/red_ll/3.jpg"",""time"":151},{""stimulus"":""img/red_ll/4.jpg"",""time"":202},{""stimulus"":""img/red_ll/5.jpg"",""time"":251},{""stimulus"":""img/red_ll/6.jpg"",""time"":301},{""stimulus"":""img/red_ll/7.jpg"",""time"":352},{""stimulus"":""img/red_ll/8.jpg"",""time"":415},{""stimulus"":""img/red_ll/9.jpg"",""time"":463},{""stimulus"":""img/red_ll/10.jpg"",""time"":501},{""stimulus"":""img/red_ll/11.jpg"",""time"":558}]","[]",""
"image-keyboard-response","188","232332","0.0-5.0-1.92","5b184f9768a5ed0001734190","bdp_lott","Mon Mar 27 2023 00:37:12 GMT-0700 (Pacific Daylight Time)","576229","green","red","","194","","","","choice","","img/red_ll/choose11.jpg","2","133","red","0.5","0.1","0.1","l","","",""
"animation","189","232945","0.0-5.0-2.92","5b184f9768a5ed0001734190","bdp_lott","Mon Mar 27 2023 00:37:12 GMT-0700 (Pacific Daylight Time)","576229","green","red","","","","","","","","","","133","","","","","","[{""stimulus"":""img/red_ll/1.jpg"",""time"":59},{""stimulus"":""img/red_ll/2.jpg"",""time"":106},{""stimulus"":""img/red_ll/3.jpg"",""time"":151},{""stimulus"":""img/red_ll/4.jpg"",""time"":201},{""stimulus"":""img/red_ll/5.jpg"",""time"":264},{""stimulus"":""img/red_ll/6.jpg"",""time"":301},{""stimulus"":""img/red_ll/7.jpg"",""time"":351},{""stimulus"":""img/red_ll/8.jpg"",""time"":406},{""stimulus"":""img/red_ll/9.jpg"",""time"":451},{""stimulus"":""img/red_ll/10.jpg"",""time"":501},{""stimulus"":""img/red_ll/11.jpg"",""time"":565}]","[]",""
"image-keyboard-response","190","233100","0.0-5.0-1.93","5b184f9768a5ed0001734190","bdp_lott","Mon Mar 27 2023 00:37:12 GMT-0700 (Pacific Daylight Time)","576229","green","red","","155","","","","choice","","img/red_ll/choose11.jpg","2","132","red","0.5","0.1","0.1","l","","",""
