"trial_type","trial_index","time_elapsed","internal_node_id","subject_id","task","startTime","totalTime","fairMachine","unfairMachine","view_history","rt","success","stimulus","key_press","trialtype","roundsLeft","chosen","pFairMachWin","pUnfairMachWin","pTrialWin","outcome","animation_sequence","responses"
"pavlovia","0","2","0.0-0.0","63e51ddb19fccd05514c629c","bdp_lott","Sat Mar 25 2023 22:44:15 GMT-0700 (Pacific Daylight Time)","292011","red","green","","","","","","","","","","","","","",""
"instructions","1","1077","0.0-1.0","63e51ddb19fccd05514c629c","bdp_lott","Sat Mar 25 2023 22:44:15 GMT-0700 (Pacific Daylight Time)","292011","red","green","[{""page_index"":0,""viewing_time"":1074}]","1074","","","","","","","","","","","",""
"fullscreen","2","3426","0.0-2.0","63e51ddb19fccd05514c629c","bdp_lott","Sat Mar 25 2023 22:44:15 GMT-0700 (Pacific Daylight Time)","292011","red","green","","","true","","","","","","","","","","",""
"image-keyboard-response","3","3980","0.0-3.0-0.0","63e51ddb19fccd05514c629c","bdp_lott","Sat Mar 25 2023 22:44:15 GMT-0700 (Pacific Daylight Time)","292011","red","green","","553","","","32","fullscreenfail","","","","","","","",""
"instructions","4","8391","0.0-4.0","63e51ddb19fccd05514c629c","bdp_lott","Sat Mar 25 2023 22:44:15 GMT-0700 (Pacific Daylight Time)","292011","red","green","[{""page_index"":0,""viewing_time"":4154}]","4154","","","","","","","","","","","",""
"image-keyboard-response","5","10328","0.0-5.0-1.0","63e51ddb19fccd05514c629c","bdp_lott","Sat Mar 25 2023 22:44:15 GMT-0700 (Pacific Daylight Time)","292011","red","green","","1937","","img/red_ll/initchoose11.jpg","1","choice","225","green","0.5","0.5","0.5","w","",""
"animation","6","10929","0.0-5.0-2.0","63e51ddb19fccd05514c629c","bdp_lott","Sat Mar 25 2023 22:44:15 GMT-0700 (Pacific Daylight Time)","292011","red","green","","","","","","","225","","","","","","[{""stimulus"":""img/green_wl/1.jpg"",""time"":55},{""stimulus"":""img/green_wl/2.jpg"",""time"":102},{""stimulus"":""img/green_wl/3.jpg"",""time"":165},{""stimulus"":""img/green_wl/4.jpg"",""time"":202},{""stimulus"":""img/green_wl/5.jpg"",""time"":260},{""stimulus"":""img/green_wl/6.jpg"",""time"":303},{""stimulus"":""img/green_wl/7.jpg"",""time"":353},{""stimulus"":""img/green_wl/8.jpg"",""time"":403},{""stimulus"":""img/green_wl/9.jpg"",""time"":453},{""stimulus"":""img/green_wl/10.jpg"",""time"":503},{""stimulus"":""img/green_wl/11.jpg"",""time"":555}]","[]"
"image-keyboard-response","7","12305","0.0-5.0-1.1","63e51ddb19fccd05514c629c","bdp_lott","Sat Mar 25 2023 22:44:15 GMT-0700 (Pacific Daylight Time)","292011","red","green","","1375","","img/green_wl/choose11.jpg","1","choice","224","green","0.5","0.5","0.5","l","",""
"animation","8","12909","0.0-5.0-2.1","63e51ddb19fccd05514c629c","bdp_lott","Sat Mar 25 2023 22:44:15 GMT-0700 (Pacific Daylight Time)","292011","red","green","","","","","","","224","","","","","","[{""stimulus"":""img/green_ll/1.jpg"",""time"":60},{""stimulus"":""img/green_ll/2.jpg"",""time"":100},{""stimulus"":""img/green_ll/3.jpg"",""time"":154},{""stimulus"":""img/green_ll/4.jpg"",""time"":216},{""stimulus"":""img/green_ll/5.jpg"",""time"":264},{""stimulus"":""img/green_ll/6.jpg"",""time"":311},{""stimulus"":""img/green_ll/7.jpg"",""time"":351},{""stimulus"":""img/green_ll/8.jpg"",""time"":401},{""stimulus"":""img/green_ll/9.jpg"",""time"":466},{""stimulus"":""img/green_ll/10.jpg"",""time"":500},{""stimulus"":""img/green_ll/11.jpg"",""time"":557}]","[]"
"image-keyboard-response","9","13650","0.0-5.0-1.2","63e51ddb19fccd05514c629c","bdp_lott","Sat Mar 25 2023 22:44:15 GMT-0700 (Pacific Daylight Time)","292011","red","green","","741","","img/green_ll/choose11.jpg","1","choice","223","green","0.5","0.5","0.5","l","",""
"animation","10","14251","0.0-5.0-2.2","63e51ddb19fccd05514c629c","bdp_lott","Sat Mar 25 2023 22:44:15 GMT-0700 (Pacific Daylight Time)","292011","red","green","","","","","","","223","","","","","","[{""stimulus"":""img/green_ll/1.jpg"",""time"":54},{""stimulus"":""img/green_ll/2.jpg"",""time"":101},{""stimulus"":""img/green_ll/3.jpg"",""time"":151},{""stimulus"":""img/green_ll/4.jpg"",""time"":211},{""stimulus"":""img/green_ll/5.jpg"",""time"":251},{""stimulus"":""img/green_ll/6.jpg"",""time"":301},{""stimulus"":""img/green_ll/7.jpg"",""time"":351},{""stimulus"":""img/green_ll/8.jpg"",""time"":402},{""stimulus"":""img/green_ll/9.jpg"",""time"":463},{""stimulus"":""img/green_ll/10.jpg"",""time"":501},{""stimulus"":""img/green_ll/11.jpg"",""time"":551}]","[]"
"image-keyboard-response","11","14842","0.0-5.0-1.3","63e51ddb19fccd05514c629c","bdp_lott","Sat Mar 25 2023 22:44:15 GMT-0700 (Pacific Daylight Time)","292011","red","green","","590","","img/green_ll/choose11.jpg","1","choice","222","green","0.5","0.5","0.5","w","",""
"animation","12","15454","0.0-5.0-2.3","63e51ddb19fccd05514c629c","bdp_lott","Sat Mar 25 2023 22:44:15 GMT-0700 (Pacific Daylight Time)","292011","red","green","","","","","","","222","","","","","","[{""stimulus"":""img/green_wl/1.jpg"",""time"":65},{""stimulus"":""img/green_wl/2.jpg"",""time"":111},{""stimulus"":""img/green_wl/3.jpg"",""time"":158},{""stimulus"":""img/green_wl/4.jpg"",""time"":206},{""stimulus"":""img/green_wl/5.jpg"",""time"":252},{""stimulus"":""img/green_wl/6.jpg"",""time"":314},{""stimulus"":""img/green_wl/7.jpg"",""time"":361},{""stimulus"":""img/green_wl/8.jpg"",""time"":400},{""stimulus"":""img/green_wl/9.jpg"",""time"":455},{""stimulus"":""img/green_wl/10.jpg"",""time"":501},{""stimulus"":""img/green_wl/11.jpg"",""time"":551}]","[]"
"image-keyboard-response","13","16426","0.0-5.0-1.4","63e51ddb19fccd05514c629c","bdp_lott","Sat Mar 25 2023 22:44:15 GMT-0700 (Pacific Daylight Time)","292011","red","green","","971","","img/green_wl/choose11.jpg","2","choice","221","red","0.5","0.5","0.5","l","",""
"animation","14","17026","0.0-5.0-2.4","63e51ddb19fccd05514c629c","bdp_lott","Sat Mar 25 2023 22:44:15 GMT-0700 (Pacific Daylight Time)","292011","red","green","","","","","","","221","","","","","","[{""stimulus"":""img/red_wl/1.jpg"",""time"":53},{""stimulus"":""img/red_wl/2.jpg"",""time"":101},{""stimulus"":""img/red_wl/3.jpg"",""time"":163},{""stimulus"":""img/red_wl/4.jpg"",""time"":200},{""stimulus"":""img/red_wl/5.jpg"",""time"":257},{""stimulus"":""img/red_wl/6.jpg"",""time"":304},{""stimulus"":""img/red_wl/7.jpg"",""time"":351},{""stimulus"":""img/red_wl/8.jpg"",""time"":401},{""stimulus"":""img/red_wl/9.jpg"",""time"":460},{""stimulus"":""img/red_wl/10.jpg"",""time"":507},{""stimulus"":""img/red_wl/11.jpg"",""time"":553}]","[]"
"image-keyboard-response","15","17520","0.0-5.0-1.5","63e51ddb19fccd05514c629c","bdp_lott","Sat Mar 25 2023 22:44:15 GMT-0700 (Pacific Daylight Time)","292011","red","green","","494","","img/red_wl/choose11.jpg","2","choice","220","red","0.5","0.5","0.5","w","",""
"animation","16","18136","0.0-5.0-2.5","63e51ddb19fccd05514c629c","bdp_lott","Sat Mar 25 2023 22:44:15 GMT-0700 (Pacific Daylight Time)","292011","red","green","","","","","","","220","","","","","","[{""stimulus"":""img/red_ww/1.jpg"",""time"":65},{""stimulus"":""img/red_ww/2.jpg"",""time"":104},{""stimulus"":""img/red_ww/3.jpg"",""time"":159},{""stimulus"":""img/red_ww/4.jpg"",""time"":201},{""stimulus"":""img/red_ww/5.jpg"",""time"":254},{""stimulus"":""img/red_ww/6.jpg"",""time"":302},{""stimulus"":""img/red_ww/7.jpg"",""time"":351},{""stimulus"":""img/red_ww/8.jpg"",""time"":401},{""stimulus"":""img/red_ww/9.jpg"",""time"":451},{""stimulus"":""img/red_ww/10.jpg"",""time"":508},{""stimulus"":""img/red_ww/11.jpg"",""time"":554}]","[]"
"image-keyboard-response","17","18975","0.0-5.0-1.6","63e51ddb19fccd05514c629c","bdp_lott","Sat Mar 25 2023 22:44:15 GMT-0700 (Pacific Daylight Time)","292011","red","green","","839","","img/red_ww/choose11.jpg","2","choice","219","red","0.5","0.5","0.5","l","",""
"animation","18","19591","0.0-5.0-2.6","63e51ddb19fccd05514c629c","bdp_lott","Sat Mar 25 2023 22:44:15 GMT-0700 (Pacific Daylight Time)","292011","red","green","","","","","","","219","","","","","","[{""stimulus"":""img/red_wl/1.jpg"",""time"":54},{""stimulus"":""img/red_wl/2.jpg"",""time"":116},{""stimulus"":""img/red_wl/3.jpg"",""time"":151},{""stimulus"":""img/red_wl/4.jpg"",""time"":202},{""stimulus"":""img/red_wl/5.jpg"",""time"":256},{""stimulus"":""img/red_wl/6.jpg"",""time"":302},{""stimulus"":""img/red_wl/7.jpg"",""time"":351},{""stimulus"":""img/red_wl/8.jpg"",""time"":412},{""stimulus"":""img/red_wl/9.jpg"",""time"":459},{""stimulus"":""img/red_wl/10.jpg"",""time"":506},{""stimulus"":""img/red_wl/11.jpg"",""time"":552}]","[]"
"image-keyboard-response","19","20082","0.0-5.0-1.7","63e51ddb19fccd05514c629c","bdp_lott","Sat Mar 25 2023 22:44:15 GMT-0700 (Pacific Daylight Time)","292011","red","green","","491","","img/red_wl/choose11.jpg","2","choice","218","red","0.5","0.5","0.5","l","",""
"animation","20","20689","0.0-5.0-2.7","63e51ddb19fccd05514c629c","bdp_lott","Sat Mar 25 2023 22:44:15 GMT-0700 (Pacific Daylight Time)","292011","red","green","","","","","","","218","","","","","","[{""stimulus"":""img/red_wl/1.jpg"",""time"":59},{""stimulus"":""img/red_wl/2.jpg"",""time"":101},{""stimulus"":""img/red_wl/3.jpg"",""time"":152},{""stimulus"":""img/red_wl/4.jpg"",""time"":201},{""stimulus"":""img/red_wl/5.jpg"",""time"":252},{""stimulus"":""img/red_wl/6.jpg"",""time"":310},{""stimulus"":""img/red_wl/7.jpg"",""time"":351},{""stimulus"":""img/red_wl/8.jpg"",""time"":405},{""stimulus"":""img/red_wl/9.jpg"",""time"":451},{""stimulus"":""img/red_wl/10.jpg"",""time"":501},{""stimulus"":""img/red_wl/11.jpg"",""time"":561}]","[]"
"image-keyboard-response","21","21287","0.0-5.0-1.8","63e51ddb19fccd05514c629c","bdp_lott","Sat Mar 25 2023 22:44:15 GMT-0700 (Pacific Daylight Time)","292011","red","green","","598","","img/red_wl/choose11.jpg","2","choice","217","red","0.5","0.5","0.5","w","",""
"animation","22","21888","0.0-5.0-2.8","63e51ddb19fccd05514c629c","bdp_lott","Sat Mar 25 2023 22:44:15 GMT-0700 (Pacific Daylight Time)","292011","red","green","","","","","","","217","","","","","","[{""stimulus"":""img/red_ww/1.jpg"",""time"":57},{""stimulus"":""img/red_ww/2.jpg"",""time"":100},{""stimulus"":""img/red_ww/3.jpg"",""time"":150},{""stimulus"":""img/red_ww/4.jpg"",""time"":201},{""stimulus"":""img/red_ww/5.jpg"",""time"":250},{""stimulus"":""img/red_ww/6.jpg"",""time"":300},{""stimulus"":""img/red_ww/7.jpg"",""time"":352},{""stimulus"":""img/red_ww/8.jpg"",""time"":400},{""stimulus"":""img/red_ww/9.jpg"",""time"":452},{""stimulus"":""img/red_ww/10.jpg"",""time"":501},{""stimulus"":""img/red_ww/11.jpg"",""time"":551}]","[]"
"image-keyboard-response","23","22923","0.0-5.0-1.9","63e51ddb19fccd05514c629c","bdp_lott","Sat Mar 25 2023 22:44:15 GMT-0700 (Pacific Daylight Time)","292011","red","green","","1035","","img/red_ww/choose11.jpg","1","choice","216","green","0.5","0.5","0.5","l","",""
"animation","24","23527","0.0-5.0-2.9","63e51ddb19fccd05514c629c","bdp_lott","Sat Mar 25 2023 22:44:15 GMT-0700 (Pacific Daylight Time)","292011","red","green","","","","","","","216","","","","","","[{""stimulus"":""img/green_lw/1.jpg"",""time"":61},{""stimulus"":""img/green_lw/2.jpg"",""time"":108},{""stimulus"":""img/green_lw/3.jpg"",""time"":151},{""stimulus"":""img/green_lw/4.jpg"",""time"":201},{""stimulus"":""img/green_lw/5.jpg"",""time"":251},{""stimulus"":""img/green_lw/6.jpg"",""time"":308},{""stimulus"":""img/green_lw/7.jpg"",""time"":352},{""stimulus"":""img/green_lw/8.jpg"",""time"":402},{""stimulus"":""img/green_lw/9.jpg"",""time"":452},{""stimulus"":""img/green_lw/10.jpg"",""time"":511},{""stimulus"":""img/green_lw/11.jpg"",""time"":552}]","[]"
"image-keyboard-response","25","24248","0.0-5.0-1.10","63e51ddb19fccd05514c629c","bdp_lott","Sat Mar 25 2023 22:44:15 GMT-0700 (Pacific Daylight Time)","292011","red","green","","721","","img/green_lw/choose11.jpg","2","choice","215","red","0.5","0.5","0.5","w","",""
"animation","26","24849","0.0-5.0-2.10","63e51ddb19fccd05514c629c","bdp_lott","Sat Mar 25 2023 22:44:15 GMT-0700 (Pacific Daylight Time)","292011","red","green","","","","","","","215","","","","","","[{""stimulus"":""img/red_lw/1.jpg"",""time"":58},{""stimulus"":""img/red_lw/2.jpg"",""time"":105},{""stimulus"":""img/red_lw/3.jpg"",""time"":152},{""stimulus"":""img/red_lw/4.jpg"",""time"":213},{""stimulus"":""img/red_lw/5.jpg"",""time"":260},{""stimulus"":""img/red_lw/6.jpg"",""time"":300},{""stimulus"":""img/red_lw/7.jpg"",""time"":354},{""stimulus"":""img/red_lw/8.jpg"",""time"":402},{""stimulus"":""img/red_lw/9.jpg"",""time"":451},{""stimulus"":""img/red_lw/10.jpg"",""time"":501},{""stimulus"":""img/red_lw/11.jpg"",""time"":551}]","[]"
"image-keyboard-response","27","25555","0.0-5.0-1.11","63e51ddb19fccd05514c629c","bdp_lott","Sat Mar 25 2023 22:44:15 GMT-0700 (Pacific Daylight Time)","292011","red","green","","706","","img/red_lw/choose11.jpg","2","choice","214","red","0.5","0.5","0.5","l","",""
"animation","28","26156","0.0-5.0-2.11","63e51ddb19fccd05514c629c","bdp_lott","Sat Mar 25 2023 22:44:15 GMT-0700 (Pacific Daylight Time)","292011","red","green","","","","","","","214","","","","","","[{""stimulus"":""img/red_ll/1.jpg"",""time"":65},{""stimulus"":""img/red_ll/2.jpg"",""time"":113},{""stimulus"":""img/red_ll/3.jpg"",""time"":151},{""stimulus"":""img/red_ll/4.jpg"",""time"":200},{""stimulus"":""img/red_ll/5.jpg"",""time"":251},{""stimulus"":""img/red_ll/6.jpg"",""time"":300},{""stimulus"":""img/red_ll/7.jpg"",""time"":361},{""stimulus"":""img/red_ll/8.jpg"",""time"":401},{""stimulus"":""img/red_ll/9.jpg"",""time"":451},{""stimulus"":""img/red_ll/10.jpg"",""time"":501},{""stimulus"":""img/red_ll/11.jpg"",""time"":550}]","[]"
"image-keyboard-response","29","26600","0.0-5.0-1.12","63e51ddb19fccd05514c629c","bdp_lott","Sat Mar 25 2023 22:44:15 GMT-0700 (Pacific Daylight Time)","292011","red","green","","444","","img/red_ll/choose11.jpg","2","choice","213","red","0.5","0.5","0.5","w","",""
"animation","30","27210","0.0-5.0-2.12","63e51ddb19fccd05514c629c","bdp_lott","Sat Mar 25 2023 22:44:15 GMT-0700 (Pacific Daylight Time)","292011","red","green","","","","","","","213","","","","","","[{""stimulus"":""img/red_lw/1.jpg"",""time"":62},{""stimulus"":""img/red_lw/2.jpg"",""time"":109},{""stimulus"":""img/red_lw/3.jpg"",""time"":156},{""stimulus"":""img/red_lw/4.jpg"",""time"":203},{""stimulus"":""img/red_lw/5.jpg"",""time"":252},{""stimulus"":""img/red_lw/6.jpg"",""time"":313},{""stimulus"":""img/red_lw/7.jpg"",""time"":351},{""stimulus"":""img/red_lw/8.jpg"",""time"":406},{""stimulus"":""img/red_lw/9.jpg"",""time"":452},{""stimulus"":""img/red_lw/10.jpg"",""time"":516},{""stimulus"":""img/red_lw/11.jpg"",""time"":551}]","[]"
"image-keyboard-response","31","27940","0.0-5.0-1.13","63e51ddb19fccd05514c629c","bdp_lott","Sat Mar 25 2023 22:44:15 GMT-0700 (Pacific Daylight Time)","292011","red","green","","729","","img/red_lw/choose11.jpg","1","choice","212","green","0.5","0.5","0.5","w","",""
"animation","32","28540","0.0-5.0-2.13","63e51ddb19fccd05514c629c","bdp_lott","Sat Mar 25 2023 22:44:15 GMT-0700 (Pacific Daylight Time)","292011","red","green","","","","","","","212","","","","","","[{""stimulus"":""img/green_ww/1.jpg"",""time"":53},{""stimulus"":""img/green_ww/2.jpg"",""time"":114},{""stimulus"":""img/green_ww/3.jpg"",""time"":162},{""stimulus"":""img/green_ww/4.jpg"",""time"":201},{""stimulus"":""img/green_ww/5.jpg"",""time"":251},{""stimulus"":""img/green_ww/6.jpg"",""time"":301},{""stimulus"":""img/green_ww/7.jpg"",""time"":351},{""stimulus"":""img/green_ww/8.jpg"",""time"":402},{""stimulus"":""img/green_ww/9.jpg"",""time"":459},{""stimulus"":""img/green_ww/10.jpg"",""time"":506},{""stimulus"":""img/green_ww/11.jpg"",""time"":551}]","[]"
"image-keyboard-response","33","29315","0.0-5.0-1.14","63e51ddb19fccd05514c629c","bdp_lott","Sat Mar 25 2023 22:44:15 GMT-0700 (Pacific Daylight Time)","292011","red","green","","775","","img/green_ww/choose11.jpg","2","choice","211","red","0.5","0.5","0.5","w","",""
"animation","34","29915","0.0-5.0-2.14","63e51ddb19fccd05514c629c","bdp_lott","Sat Mar 25 2023 22:44:15 GMT-0700 (Pacific Daylight Time)","292011","red","green","","","","","","","211","","","","","","[{""stimulus"":""img/red_ww/1.jpg"",""time"":56},{""stimulus"":""img/red_ww/2.jpg"",""time"":101},{""stimulus"":""img/red_ww/3.jpg"",""time"":151},{""stimulus"":""img/red_ww/4.jpg"",""time"":200},{""stimulus"":""img/red_ww/5.jpg"",""time"":257},{""stimulus"":""img/red_ww/6.jpg"",""time"":306},{""stimulus"":""img/red_ww/7.jpg"",""time"":351},{""stimulus"":""img/red_ww/8.jpg"",""time"":400},{""stimulus"":""img/red_ww/9.jpg"",""time"":461},{""stimulus"":""img/red_ww/10.jpg"",""time"":508},{""stimulus"":""img/red_ww/11.jpg"",""time"":555}]","[]"
"image-keyboard-response","35","30566","0.0-5.0-1.15","63e51ddb19fccd05514c629c","bdp_lott","Sat Mar 25 2023 22:44:15 GMT-0700 (Pacific Daylight Time)","292011","red","green","","650","","img/red_ww/choose11.jpg","1","choice","210","green","0.5","0.5","0.5","l","",""
"animation","36","31168","0.0-5.0-2.15","63e51ddb19fccd05514c629c","bdp_lott","Sat Mar 25 2023 22:44:15 GMT-0700 (Pacific Daylight Time)","292011","red","green","","","","","","","210","","","","","","[{""stimulus"":""img/green_lw/1.jpg"",""time"":52},{""stimulus"":""img/green_lw/2.jpg"",""time"":115},{""stimulus"":""img/green_lw/3.jpg"",""time"":150},{""stimulus"":""img/green_lw/4.jpg"",""time"":208},{""stimulus"":""img/green_lw/5.jpg"",""time"":250},{""stimulus"":""img/green_lw/6.jpg"",""time"":315},{""stimulus"":""img/green_lw/7.jpg"",""time"":351},{""stimulus"":""img/green_lw/8.jpg"",""time"":400},{""stimulus"":""img/green_lw/9.jpg"",""time"":451},{""stimulus"":""img/green_lw/10.jpg"",""time"":503},{""stimulus"":""img/green_lw/11.jpg"",""time"":565}]","[]"
"image-keyboard-response","37","32039","0.0-5.0-1.16","63e51ddb19fccd05514c629c","bdp_lott","Sat Mar 25 2023 22:44:15 GMT-0700 (Pacific Daylight Time)","292011","red","green","","871","","img/green_lw/choose11.jpg","2","choice","209","red","0.5","0.5","0.5","l","",""
"animation","38","32640","0.0-5.0-2.16","63e51ddb19fccd05514c629c","bdp_lott","Sat Mar 25 2023 22:44:15 GMT-0700 (Pacific Daylight Time)","292011","red","green","","","","","","","209","","","","","","[{""stimulus"":""img/red_ll/1.jpg"",""time"":57},{""stimulus"":""img/red_ll/2.jpg"",""time"":101},{""stimulus"":""img/red_ll/3.jpg"",""time"":166},{""stimulus"":""img/red_ll/4.jpg"",""time"":212},{""stimulus"":""img/red_ll/5.jpg"",""time"":251},{""stimulus"":""img/red_ll/6.jpg"",""time"":302},{""stimulus"":""img/red_ll/7.jpg"",""time"":351},{""stimulus"":""img/red_ll/8.jpg"",""time"":402},{""stimulus"":""img/red_ll/9.jpg"",""time"":464},{""stimulus"":""img/red_ll/10.jpg"",""time"":501},{""stimulus"":""img/red_ll/11.jpg"",""time"":551}]","[]"
"image-keyboard-response","39","33276","0.0-5.0-1.17","63e51ddb19fccd05514c629c","bdp_lott","Sat Mar 25 2023 22:44:15 GMT-0700 (Pacific Daylight Time)","292011","red","green","","636","","img/red_ll/choose11.jpg","1","choice","208","green","0.5","0.5","0.5","w","",""
"animation","40","33876","0.0-5.0-2.17","63e51ddb19fccd05514c629c","bdp_lott","Sat Mar 25 2023 22:44:15 GMT-0700 (Pacific Daylight Time)","292011","red","green","","","","","","","208","","","","","","[{""stimulus"":""img/green_wl/1.jpg"",""time"":57},{""stimulus"":""img/green_wl/2.jpg"",""time"":101},{""stimulus"":""img/green_wl/3.jpg"",""time"":150},{""stimulus"":""img/green_wl/4.jpg"",""time"":202},{""stimulus"":""img/green_wl/5.jpg"",""time"":251},{""stimulus"":""img/green_wl/6.jpg"",""time"":300},{""stimulus"":""img/green_wl/7.jpg"",""time"":350},{""stimulus"":""img/green_wl/8.jpg"",""time"":401},{""stimulus"":""img/green_wl/9.jpg"",""time"":464},{""stimulus"":""img/green_wl/10.jpg"",""time"":511},{""stimulus"":""img/green_wl/11.jpg"",""time"":550}]","[]"
"image-keyboard-response","41","34336","0.0-5.0-1.18","63e51ddb19fccd05514c629c","bdp_lott","Sat Mar 25 2023 22:44:15 GMT-0700 (Pacific Daylight Time)","292011","red","green","","459","","img/green_wl/choose11.jpg","2","choice","207","red","0.5","0.5","0.5","w","",""
"animation","42","34937","0.0-5.0-2.18","63e51ddb19fccd05514c629c","bdp_lott","Sat Mar 25 2023 22:44:15 GMT-0700 (Pacific Daylight Time)","292011","red","green","","","","","","","207","","","","","","[{""stimulus"":""img/red_ww/1.jpg"",""time"":57},{""stimulus"":""img/red_ww/2.jpg"",""time"":101},{""stimulus"":""img/red_ww/3.jpg"",""time"":152},{""stimulus"":""img/red_ww/4.jpg"",""time"":213},{""stimulus"":""img/red_ww/5.jpg"",""time"":250},{""stimulus"":""img/red_ww/6.jpg"",""time"":307},{""stimulus"":""img/red_ww/7.jpg"",""time"":353},{""stimulus"":""img/red_ww/8.jpg"",""time"":401},{""stimulus"":""img/red_ww/9.jpg"",""time"":464},{""stimulus"":""img/red_ww/10.jpg"",""time"":501},{""stimulus"":""img/red_ww/11.jpg"",""time"":558}]","[]"
"image-keyboard-response","43","35734","0.0-5.0-1.19","63e51ddb19fccd05514c629c","bdp_lott","Sat Mar 25 2023 22:44:15 GMT-0700 (Pacific Daylight Time)","292011","red","green","","797","","img/red_ww/choose11.jpg","1","choice","206","green","0.5","0.5","0.5","w","",""
"animation","44","36335","0.0-5.0-2.19","63e51ddb19fccd05514c629c","bdp_lott","Sat Mar 25 2023 22:44:15 GMT-0700 (Pacific Daylight Time)","292011","red","green","","","","","","","206","","","","","","[{""stimulus"":""img/green_ww/1.jpg"",""time"":54},{""stimulus"":""img/green_ww/2.jpg"",""time"":116},{""stimulus"":""img/green_ww/3.jpg"",""time"":152},{""stimulus"":""img/green_ww/4.jpg"",""time"":202},{""stimulus"":""img/green_ww/5.jpg"",""time"":255},{""stimulus"":""img/green_ww/6.jpg"",""time"":303},{""stimulus"":""img/green_ww/7.jpg"",""time"":365},{""stimulus"":""img/green_ww/8.jpg"",""time"":402},{""stimulus"":""img/green_ww/9.jpg"",""time"":451},{""stimulus"":""img/green_ww/10.jpg"",""time"":503},{""stimulus"":""img/green_ww/11.jpg"",""time"":566}]","[]"
"image-keyboard-response","45","36868","0.0-5.0-1.20","63e51ddb19fccd05514c629c","bdp_lott","Sat Mar 25 2023 22:44:15 GMT-0700 (Pacific Daylight Time)","292011","red","green","","532","","img/green_ww/choose11.jpg","2","choice","205","red","0.5","0.5","0.5","w","",""
"animation","46","37469","0.0-5.0-2.20","63e51ddb19fccd05514c629c","bdp_lott","Sat Mar 25 2023 22:44:15 GMT-0700 (Pacific Daylight Time)","292011","red","green","","","","","","","205","","","","","","[{""stimulus"":""img/red_ww/1.jpg"",""time"":56},{""stimulus"":""img/red_ww/2.jpg"",""time"":101},{""stimulus"":""img/red_ww/3.jpg"",""time"":151},{""stimulus"":""img/red_ww/4.jpg"",""time"":210},{""stimulus"":""img/red_ww/5.jpg"",""time"":252},{""stimulus"":""img/red_ww/6.jpg"",""time"":302},{""stimulus"":""img/red_ww/7.jpg"",""time"":351},{""stimulus"":""img/red_ww/8.jpg"",""time"":402},{""stimulus"":""img/red_ww/9.jpg"",""time"":451},{""stimulus"":""img/red_ww/10.jpg"",""time"":509},{""stimulus"":""img/red_ww/11.jpg"",""time"":556}]","[]"
"image-keyboard-response","47","38600","0.0-5.0-1.21","63e51ddb19fccd05514c629c","bdp_lott","Sat Mar 25 2023 22:44:15 GMT-0700 (Pacific Daylight Time)","292011","red","green","","1130","","img/red_ww/choose11.jpg","1","choice","204","green","0.5","0.5","0.5","w","",""
"animation","48","39201","0.0-5.0-2.21","63e51ddb19fccd05514c629c","bdp_lott","Sat Mar 25 2023 22:44:15 GMT-0700 (Pacific Daylight Time)","292011","red","green","","","","","","","204","","","","","","[{""stimulus"":""img/green_ww/1.jpg"",""time"":56},{""stimulus"":""img/green_ww/2.jpg"",""time"":101},{""stimulus"":""img/green_ww/3.jpg"",""time"":163},{""stimulus"":""img/green_ww/4.jpg"",""time"":211},{""stimulus"":""img/green_ww/5.jpg"",""time"":251},{""stimulus"":""img/green_ww/6.jpg"",""time"":305},{""stimulus"":""img/green_ww/7.jpg"",""time"":366},{""stimulus"":""img/green_ww/8.jpg"",""time"":401},{""stimulus"":""img/green_ww/9.jpg"",""time"":459},{""stimulus"":""img/green_ww/10.jpg"",""time"":501},{""stimulus"":""img/green_ww/11.jpg"",""time"":553}]","[]"
"image-keyboard-response","49","39947","0.0-5.0-1.22","63e51ddb19fccd05514c629c","bdp_lott","Sat Mar 25 2023 22:44:15 GMT-0700 (Pacific Daylight Time)","292011","red","green","","745","","img/green_ww/choose11.jpg","2","choice","203","red","0.5","0.5","0.5","l","",""
"animation","50","40558","0.0-5.0-2.22","63e51ddb19fccd05514c629c","bdp_lott","Sat Mar 25 2023 22:44:15 GMT-0700 (Pacific Daylight Time)","292011","red","green","","","","","","","203","","","","","","[{""stimulus"":""img/red_wl/1.jpg"",""time"":65},{""stimulus"":""img/red_wl/2.jpg"",""time"":111},{""stimulus"":""img/red_wl/3.jpg"",""time"":151},{""stimulus"":""img/red_wl/4.jpg"",""time"":201},{""stimulus"":""img/red_wl/5.jpg"",""time"":251},{""stimulus"":""img/red_wl/6.jpg"",""time"":301},{""stimulus"":""img/red_wl/7.jpg"",""time"":362},{""stimulus"":""img/red_wl/8.jpg"",""time"":401},{""stimulus"":""img/red_wl/9.jpg"",""time"":451},{""stimulus"":""img/red_wl/10.jpg"",""time"":502},{""stimulus"":""img/red_wl/11.jpg"",""time"":551}]","[]"
"image-keyboard-response","51","41219","0.0-5.0-1.23","63e51ddb19fccd05514c629c","bdp_lott","Sat Mar 25 2023 22:44:15 GMT-0700 (Pacific Daylight Time)","292011","red","green","","660","","img/red_wl/choose11.jpg","1","choice","202","green","0.5","0.5","0.5","w","",""
"animation","52","41824","0.0-5.0-2.23","63e51ddb19fccd05514c629c","bdp_lott","Sat Mar 25 2023 22:44:15 GMT-0700 (Pacific Daylight Time)","292011","red","green","","","","","","","202","","","","","","[{""stimulus"":""img/green_wl/1.jpg"",""time"":57},{""stimulus"":""img/green_wl/2.jpg"",""time"":104},{""stimulus"":""img/green_wl/3.jpg"",""time"":151},{""stimulus"":""img/green_wl/4.jpg"",""time"":214},{""stimulus"":""img/green_wl/5.jpg"",""time"":260},{""stimulus"":""img/green_wl/6.jpg"",""time"":304},{""stimulus"":""img/green_wl/7.jpg"",""time"":351},{""stimulus"":""img/green_wl/8.jpg"",""time"":402},{""stimulus"":""img/green_wl/9.jpg"",""time"":451},{""stimulus"":""img/green_wl/10.jpg"",""time"":500},{""stimulus"":""img/green_wl/11.jpg"",""time"":552}]","[]"
"image-keyboard-response","53","42699","0.0-5.0-1.24","63e51ddb19fccd05514c629c","bdp_lott","Sat Mar 25 2023 22:44:15 GMT-0700 (Pacific Daylight Time)","292011","red","green","","875","","img/green_wl/choose11.jpg","2","choice","201","red","0.5","0.5","0.5","w","",""
"animation","54","43300","0.0-5.0-2.24","63e51ddb19fccd05514c629c","bdp_lott","Sat Mar 25 2023 22:44:15 GMT-0700 (Pacific Daylight Time)","292011","red","green","","","","","","","201","","","","","","[{""stimulus"":""img/red_ww/1.jpg"",""time"":63},{""stimulus"":""img/red_ww/2.jpg"",""time"":101},{""stimulus"":""img/red_ww/3.jpg"",""time"":152},{""stimulus"":""img/red_ww/4.jpg"",""time"":201},{""stimulus"":""img/red_ww/5.jpg"",""time"":266},{""stimulus"":""img/red_ww/6.jpg"",""time"":301},{""stimulus"":""img/red_ww/7.jpg"",""time"":352},{""stimulus"":""img/red_ww/8.jpg"",""time"":401},{""stimulus"":""img/red_ww/9.jpg"",""time"":451},{""stimulus"":""img/red_ww/10.jpg"",""time"":516},{""stimulus"":""img/red_ww/11.jpg"",""time"":552}]","[]"
"image-keyboard-response","55","44088","0.0-5.0-1.25","63e51ddb19fccd05514c629c","bdp_lott","Sat Mar 25 2023 22:44:15 GMT-0700 (Pacific Daylight Time)","292011","red","green","","788","","img/red_ww/choose11.jpg","1","choice","200","green","0.5","0.5","0.5","w","",""
"animation","56","44701","0.0-5.0-2.25","63e51ddb19fccd05514c629c","bdp_lott","Sat Mar 25 2023 22:44:15 GMT-0700 (Pacific Daylight Time)","292011","red","green","","","","","","","200","","","","","","[{""stimulus"":""img/green_ww/1.jpg"",""time"":64},{""stimulus"":""img/green_ww/2.jpg"",""time"":100},{""stimulus"":""img/green_ww/3.jpg"",""time"":158},{""stimulus"":""img/green_ww/4.jpg"",""time"":206},{""stimulus"":""img/green_ww/5.jpg"",""time"":250},{""stimulus"":""img/green_ww/6.jpg"",""time"":315},{""stimulus"":""img/green_ww/7.jpg"",""time"":362},{""stimulus"":""img/green_ww/8.jpg"",""time"":400},{""stimulus"":""img/green_ww/9.jpg"",""time"":450},{""stimulus"":""img/green_ww/10.jpg"",""time"":502},{""stimulus"":""img/green_ww/11.jpg"",""time"":565}]","[]"
"image-keyboard-response","57","45195","0.0-5.0-1.26","63e51ddb19fccd05514c629c","bdp_lott","Sat Mar 25 2023 22:44:15 GMT-0700 (Pacific Daylight Time)","292011","red","green","","494","","img/green_ww/choose11.jpg","1","choice","199","green","0.5","0.5","0.5","l","",""
"animation","58","45810","0.0-5.0-2.26","63e51ddb19fccd05514c629c","bdp_lott","Sat Mar 25 2023 22:44:15 GMT-0700 (Pacific Daylight Time)","292011","red","green","","","","","","","199","","","","","","[{""stimulus"":""img/green_lw/1.jpg"",""time"":52},{""stimulus"":""img/green_lw/2.jpg"",""time"":100},{""stimulus"":""img/green_lw/3.jpg"",""time"":161},{""stimulus"":""img/green_lw/4.jpg"",""time"":201},{""stimulus"":""img/green_lw/5.jpg"",""time"":255},{""stimulus"":""img/green_lw/6.jpg"",""time"":300},{""stimulus"":""img/green_lw/7.jpg"",""time"":350},{""stimulus"":""img/green_lw/8.jpg"",""time"":401},{""stimulus"":""img/green_lw/9.jpg"",""time"":451},{""stimulus"":""img/green_lw/10.jpg"",""time"":506},{""stimulus"":""img/green_lw/11.jpg"",""time"":553}]","[]"
"image-keyboard-response","59","46261","0.0-5.0-1.27","63e51ddb19fccd05514c629c","bdp_lott","Sat Mar 25 2023 22:44:15 GMT-0700 (Pacific Daylight Time)","292011","red","green","","450","","img/green_lw/choose11.jpg","2","choice","198","red","0.5","0.5","0.5","l","",""
"animation","60","46862","0.0-5.0-2.27","63e51ddb19fccd05514c629c","bdp_lott","Sat Mar 25 2023 22:44:15 GMT-0700 (Pacific Daylight Time)","292011","red","green","","","","","","","198","","","","","","[{""stimulus"":""img/red_ll/1.jpg"",""time"":64},{""stimulus"":""img/red_ll/2.jpg"",""time"":101},{""stimulus"":""img/red_ll/3.jpg"",""time"":150},{""stimulus"":""img/red_ll/4.jpg"",""time"":201},{""stimulus"":""img/red_ll/5.jpg"",""time"":251},{""stimulus"":""img/red_ll/6.jpg"",""time"":301},{""stimulus"":""img/red_ll/7.jpg"",""time"":350},{""stimulus"":""img/red_ll/8.jpg"",""time"":406},{""stimulus"":""img/red_ll/9.jpg"",""time"":454},{""stimulus"":""img/red_ll/10.jpg"",""time"":501},{""stimulus"":""img/red_ll/11.jpg"",""time"":563}]","[]"
"image-keyboard-response","61","47697","0.0-5.0-1.28","63e51ddb19fccd05514c629c","bdp_lott","Sat Mar 25 2023 22:44:15 GMT-0700 (Pacific Daylight Time)","292011","red","green","","834","","img/red_ll/choose11.jpg","1","choice","197","green","0.5","0.5","0.5","w","",""
"animation","62","48311","0.0-5.0-2.28","63e51ddb19fccd05514c629c","bdp_lott","Sat Mar 25 2023 22:44:15 GMT-0700 (Pacific Daylight Time)","292011","red","green","","","","","","","197","","","","","","[{""stimulus"":""img/green_wl/1.jpg"",""time"":52},{""stimulus"":""img/green_wl/2.jpg"",""time"":111},{""stimulus"":""img/green_wl/3.jpg"",""time"":151},{""stimulus"":""img/green_wl/4.jpg"",""time"":201},{""stimulus"":""img/green_wl/5.jpg"",""time"":252},{""stimulus"":""img/green_wl/6.jpg"",""time"":302},{""stimulus"":""img/green_wl/7.jpg"",""time"":351},{""stimulus"":""img/green_wl/8.jpg"",""time"":412},{""stimulus"":""img/green_wl/9.jpg"",""time"":452},{""stimulus"":""img/green_wl/10.jpg"",""time"":505},{""stimulus"":""img/green_wl/11.jpg"",""time"":551}]","[]"
"image-keyboard-response","63","48877","0.0-5.0-1.29","63e51ddb19fccd05514c629c","bdp_lott","Sat Mar 25 2023 22:44:15 GMT-0700 (Pacific Daylight Time)","292011","red","green","","565","","img/green_wl/choose11.jpg","2","choice","196","red","0.5","0.5","0.5","l","",""
"animation","64","49493","0.0-5.0-2.29","63e51ddb19fccd05514c629c","bdp_lott","Sat Mar 25 2023 22:44:15 GMT-0700 (Pacific Daylight Time)","292011","red","green","","","","","","","196","","","","","","[{""stimulus"":""img/red_wl/1.jpg"",""time"":57},{""stimulus"":""img/red_wl/2.jpg"",""time"":103},{""stimulus"":""img/red_wl/3.jpg"",""time"":165},{""stimulus"":""img/red_wl/4.jpg"",""time"":200},{""stimulus"":""img/red_wl/5.jpg"",""time"":250},{""stimulus"":""img/red_wl/6.jpg"",""time"":305},{""stimulus"":""img/red_wl/7.jpg"",""time"":350},{""stimulus"":""img/red_wl/8.jpg"",""time"":413},{""stimulus"":""img/red_wl/9.jpg"",""time"":450},{""stimulus"":""img/red_wl/10.jpg"",""time"":501},{""stimulus"":""img/red_wl/11.jpg"",""time"":552}]","[]"
"image-keyboard-response","65","50209","0.0-5.0-1.30","63e51ddb19fccd05514c629c","bdp_lott","Sat Mar 25 2023 22:44:15 GMT-0700 (Pacific Daylight Time)","292011","red","green","","716","","img/red_wl/choose11.jpg","1","choice","195","green","0.5","0.5","0.5","w","",""
"animation","66","50810","0.0-5.0-2.30","63e51ddb19fccd05514c629c","bdp_lott","Sat Mar 25 2023 22:44:15 GMT-0700 (Pacific Daylight Time)","292011","red","green","","","","","","","195","","","","","","[{""stimulus"":""img/green_wl/1.jpg"",""time"":51},{""stimulus"":""img/green_wl/2.jpg"",""time"":114},{""stimulus"":""img/green_wl/3.jpg"",""time"":160},{""stimulus"":""img/green_wl/4.jpg"",""time"":202},{""stimulus"":""img/green_wl/5.jpg"",""time"":251},{""stimulus"":""img/green_wl/6.jpg"",""time"":315},{""stimulus"":""img/green_wl/7.jpg"",""time"":353},{""stimulus"":""img/green_wl/8.jpg"",""time"":407},{""stimulus"":""img/green_wl/9.jpg"",""time"":452},{""stimulus"":""img/green_wl/10.jpg"",""time"":515},{""stimulus"":""img/green_wl/11.jpg"",""time"":551}]","[]"
"image-keyboard-response","67","51417","0.0-5.0-1.31","63e51ddb19fccd05514c629c","bdp_lott","Sat Mar 25 2023 22:44:15 GMT-0700 (Pacific Daylight Time)","292011","red","green","","607","","img/green_wl/choose11.jpg","2","choice","194","red","0.5","0.5","0.5","l","",""
"animation","68","52019","0.0-5.0-2.31","63e51ddb19fccd05514c629c","bdp_lott","Sat Mar 25 2023 22:44:15 GMT-0700 (Pacific Daylight Time)","292011","red","green","","","","","","","194","","","","","","[{""stimulus"":""img/red_wl/1.jpg"",""time"":56},{""stimulus"":""img/red_wl/2.jpg"",""time"":103},{""stimulus"":""img/red_wl/3.jpg"",""time"":151},{""stimulus"":""img/red_wl/4.jpg"",""time"":212},{""stimulus"":""img/red_wl/5.jpg"",""time"":260},{""stimulus"":""img/red_wl/6.jpg"",""time"":302},{""stimulus"":""img/red_wl/7.jpg"",""time"":352},{""stimulus"":""img/red_wl/8.jpg"",""time"":414},{""stimulus"":""img/red_wl/9.jpg"",""time"":462},{""stimulus"":""img/red_wl/10.jpg"",""time"":501},{""stimulus"":""img/red_wl/11.jpg"",""time"":551}]","[]"
"image-keyboard-response","69","52606","0.0-5.0-1.32","63e51ddb19fccd05514c629c","bdp_lott","Sat Mar 25 2023 22:44:15 GMT-0700 (Pacific Daylight Time)","292011","red","green","","586","","img/red_wl/choose11.jpg","1","choice","193","green","0.5","0.5","0.5","w","",""
"animation","70","53207","0.0-5.0-2.32","63e51ddb19fccd05514c629c","bdp_lott","Sat Mar 25 2023 22:44:15 GMT-0700 (Pacific Daylight Time)","292011","red","green","","","","","","","193","","","","","","[{""stimulus"":""img/green_wl/1.jpg"",""time"":55},{""stimulus"":""img/green_wl/2.jpg"",""time"":101},{""stimulus"":""img/green_wl/3.jpg"",""time"":166},{""stimulus"":""img/green_wl/4.jpg"",""time"":201},{""stimulus"":""img/green_wl/5.jpg"",""time"":259},{""stimulus"":""img/green_wl/6.jpg"",""time"":306},{""stimulus"":""img/green_wl/7.jpg"",""time"":352},{""stimulus"":""img/green_wl/8.jpg"",""time"":416},{""stimulus"":""img/green_wl/9.jpg"",""time"":451},{""stimulus"":""img/green_wl/10.jpg"",""time"":501},{""stimulus"":""img/green_wl/11.jpg"",""time"":557}]","[]"
"image-keyboard-response","71","53646","0.0-5.0-1.33","63e51ddb19fccd05514c629c","bdp_lott","Sat Mar 25 2023 22:44:15 GMT-0700 (Pacific Daylight Time)","292011","red","green","","439","","img/green_wl/choose11.jpg","2","choice","192","red","0.5","0.5","0.5","w","",""
"animation","72","54247","0.0-5.0-2.33","63e51ddb19fccd05514c629c","bdp_lott","Sat Mar 25 2023 22:44:15 GMT-0700 (Pacific Daylight Time)","292011","red","green","","","","","","","192","","","","","","[{""stimulus"":""img/red_ww/1.jpg"",""time"":62},{""stimulus"":""img/red_ww/2.jpg"",""time"":101},{""stimulus"":""img/red_ww/3.jpg"",""time"":154},{""stimulus"":""img/red_ww/4.jpg"",""time"":217},{""stimulus"":""img/red_ww/5.jpg"",""time"":264},{""stimulus"":""img/red_ww/6.jpg"",""time"":302},{""stimulus"":""img/red_ww/7.jpg"",""time"":352},{""stimulus"":""img/red_ww/8.jpg"",""time"":401},{""stimulus"":""img/red_ww/9.jpg"",""time"":451},{""stimulus"":""img/red_ww/10.jpg"",""time"":514},{""stimulus"":""img/red_ww/11.jpg"",""time"":552}]","[]"
"image-keyboard-response","73","54868","0.0-5.0-1.34","63e51ddb19fccd05514c629c","bdp_lott","Sat Mar 25 2023 22:44:15 GMT-0700 (Pacific Daylight Time)","292011","red","green","","619","","img/red_ww/choose11.jpg","1","choice","191","green","0.5","0.5","0.5","l","",""
"animation","74","55470","0.0-5.0-2.34","63e51ddb19fccd05514c629c","bdp_lott","Sat Mar 25 2023 22:44:15 GMT-0700 (Pacific Daylight Time)","292011","red","green","","","","","","","191","","","","","","[{""stimulus"":""img/green_lw/1.jpg"",""time"":54},{""stimulus"":""img/green_lw/2.jpg"",""time"":101},{""stimulus"":""img/green_lw/3.jpg"",""time"":150},{""stimulus"":""img/green_lw/4.jpg"",""time"":211},{""stimulus"":""img/green_lw/5.jpg"",""time"":258},{""stimulus"":""img/green_lw/6.jpg"",""time"":301},{""stimulus"":""img/green_lw/7.jpg"",""time"":351},{""stimulus"":""img/green_lw/8.jpg"",""time"":413},{""stimulus"":""img/green_lw/9.jpg"",""time"":450},{""stimulus"":""img/green_lw/10.jpg"",""time"":500},{""stimulus"":""img/green_lw/11.jpg"",""time"":551}]","[]"
"image-keyboard-response","75","55840","0.0-5.0-1.35","63e51ddb19fccd05514c629c","bdp_lott","Sat Mar 25 2023 22:44:15 GMT-0700 (Pacific Daylight Time)","292011","red","green","","369","","img/green_lw/choose11.jpg","2","choice","190","red","0.5","0.5","0.5","w","",""
"animation","76","56441","0.0-5.0-2.35","63e51ddb19fccd05514c629c","bdp_lott","Sat Mar 25 2023 22:44:15 GMT-0700 (Pacific Daylight Time)","292011","red","green","","","","","","","190","","","","","","[{""stimulus"":""img/red_lw/1.jpg"",""time"":53},{""stimulus"":""img/red_lw/2.jpg"",""time"":101},{""stimulus"":""img/red_lw/3.jpg"",""time"":150},{""stimulus"":""img/red_lw/4.jpg"",""time"":201},{""stimulus"":""img/red_lw/5.jpg"",""time"":255},{""stimulus"":""img/red_lw/6.jpg"",""time"":301},{""stimulus"":""img/red_lw/7.jpg"",""time"":351},{""stimulus"":""img/red_lw/8.jpg"",""time"":400},{""stimulus"":""img/red_lw/9.jpg"",""time"":451},{""stimulus"":""img/red_lw/10.jpg"",""time"":504},{""stimulus"":""img/red_lw/11.jpg"",""time"":551}]","[]"
"image-keyboard-response","77","56727","0.0-5.0-1.36","63e51ddb19fccd05514c629c","bdp_lott","Sat Mar 25 2023 22:44:15 GMT-0700 (Pacific Daylight Time)","292011","red","green","","286","","img/red_lw/choose11.jpg","1","choice","189","green","0.5","0.5","0.5","w","",""
"animation","78","57340","0.0-5.0-2.36","63e51ddb19fccd05514c629c","bdp_lott","Sat Mar 25 2023 22:44:15 GMT-0700 (Pacific Daylight Time)","292011","red","green","","","","","","","189","","","","","","[{""stimulus"":""img/green_ww/1.jpg"",""time"":55},{""stimulus"":""img/green_ww/2.jpg"",""time"":101},{""stimulus"":""img/green_ww/3.jpg"",""time"":151},{""stimulus"":""img/green_ww/4.jpg"",""time"":201},{""stimulus"":""img/green_ww/5.jpg"",""time"":251},{""stimulus"":""img/green_ww/6.jpg"",""time"":303},{""stimulus"":""img/green_ww/7.jpg"",""time"":351},{""stimulus"":""img/green_ww/8.jpg"",""time"":401},{""stimulus"":""img/green_ww/9.jpg"",""time"":451},{""stimulus"":""img/green_ww/10.jpg"",""time"":505},{""stimulus"":""img/green_ww/11.jpg"",""time"":567}]","[]"
"image-keyboard-response","79","57481","0.0-5.0-1.37","63e51ddb19fccd05514c629c","bdp_lott","Sat Mar 25 2023 22:44:15 GMT-0700 (Pacific Daylight Time)","292011","red","green","","141","","img/green_ww/choose11.jpg","2","choice","188","red","0.5","0.5","0.5","w","",""
"animation","80","58088","0.0-5.0-2.37","63e51ddb19fccd05514c629c","bdp_lott","Sat Mar 25 2023 22:44:15 GMT-0700 (Pacific Daylight Time)","292011","red","green","","","","","","","188","","","","","","[{""stimulus"":""img/red_ww/1.jpg"",""time"":63},{""stimulus"":""img/red_ww/2.jpg"",""time"":101},{""stimulus"":""img/red_ww/3.jpg"",""time"":152},{""stimulus"":""img/red_ww/4.jpg"",""time"":201},{""stimulus"":""img/red_ww/5.jpg"",""time"":251},{""stimulus"":""img/red_ww/6.jpg"",""time"":314},{""stimulus"":""img/red_ww/7.jpg"",""time"":361},{""stimulus"":""img/red_ww/8.jpg"",""time"":407},{""stimulus"":""img/red_ww/9.jpg"",""time"":451},{""stimulus"":""img/red_ww/10.jpg"",""time"":516},{""stimulus"":""img/red_ww/11.jpg"",""time"":551}]","[]"
"image-keyboard-response","81","58221","0.0-5.0-1.38","63e51ddb19fccd05514c629c","bdp_lott","Sat Mar 25 2023 22:44:15 GMT-0700 (Pacific Daylight Time)","292011","red","green","","132","","img/red_ww/choose11.jpg","1","choice","187","green","0.5","0.5","0.5","l","",""
"animation","82","58824","0.0-5.0-2.38","63e51ddb19fccd05514c629c","bdp_lott","Sat Mar 25 2023 22:44:15 GMT-0700 (Pacific Daylight Time)","292011","red","green","","","","","","","187","","","","","","[{""stimulus"":""img/green_lw/1.jpg"",""time"":55},{""stimulus"":""img/green_lw/2.jpg"",""time"":102},{""stimulus"":""img/green_lw/3.jpg"",""time"":150},{""stimulus"":""img/green_lw/4.jpg"",""time"":213},{""stimulus"":""img/green_lw/5.jpg"",""time"":259},{""stimulus"":""img/green_lw/6.jpg"",""time"":300},{""stimulus"":""img/green_lw/7.jpg"",""time"":350},{""stimulus"":""img/green_lw/8.jpg"",""time"":401},{""stimulus"":""img/green_lw/9.jpg"",""time"":450},{""stimulus"":""img/green_lw/10.jpg"",""time"":501},{""stimulus"":""img/green_lw/11.jpg"",""time"":551}]","[]"
"image-keyboard-response","83","59319","0.0-5.0-1.39","63e51ddb19fccd05514c629c","bdp_lott","Sat Mar 25 2023 22:44:15 GMT-0700 (Pacific Daylight Time)","292011","red","green","","494","","img/green_lw/choose11.jpg","2","choice","186","red","0.5","0.5","0.5","l","",""
"animation","84","59920","0.0-5.0-2.39","63e51ddb19fccd05514c629c","bdp_lott","Sat Mar 25 2023 22:44:15 GMT-0700 (Pacific Daylight Time)","292011","red","green","","","","","","","186","","","","","","[{""stimulus"":""img/red_ll/1.jpg"",""time"":63},{""stimulus"":""img/red_ll/2.jpg"",""time"":110},{""stimulus"":""img/red_ll/3.jpg"",""time"":151},{""stimulus"":""img/red_ll/4.jpg"",""time"":200},{""stimulus"":""img/red_ll/5.jpg"",""time"":251},{""stimulus"":""img/red_ll/6.jpg"",""time"":301},{""stimulus"":""img/red_ll/7.jpg"",""time"":351},{""stimulus"":""img/red_ll/8.jpg"",""time"":406},{""stimulus"":""img/red_ll/9.jpg"",""time"":451},{""stimulus"":""img/red_ll/10.jpg"",""time"":501},{""stimulus"":""img/red_ll/11.jpg"",""time"":551}]","[]"
"image-keyboard-response","85","60109","0.0-5.0-1.40","63e51ddb19fccd05514c629c","bdp_lott","Sat Mar 25 2023 22:44:15 GMT-0700 (Pacific Daylight Time)","292011","red","green","","189","","img/red_ll/choose11.jpg","1","choice","185","green","0.5","0.5","0.5","w","",""
"animation","86","60710","0.0-5.0-2.40","63e51ddb19fccd05514c629c","bdp_lott","Sat Mar 25 2023 22:44:15 GMT-0700 (Pacific Daylight Time)","292011","red","green","","","","","","","185","","","","","","[{""stimulus"":""img/green_wl/1.jpg"",""time"":54},{""stimulus"":""img/green_wl/2.jpg"",""time"":101},{""stimulus"":""img/green_wl/3.jpg"",""time"":151},{""stimulus"":""img/green_wl/4.jpg"",""time"":201},{""stimulus"":""img/green_wl/5.jpg"",""time"":251},{""stimulus"":""img/green_wl/6.jpg"",""time"":302},{""stimulus"":""img/green_wl/7.jpg"",""time"":351},{""stimulus"":""img/green_wl/8.jpg"",""time"":402},{""stimulus"":""img/green_wl/9.jpg"",""time"":451},{""stimulus"":""img/green_wl/10.jpg"",""time"":509},{""stimulus"":""img/green_wl/11.jpg"",""time"":555}]","[]"
"image-keyboard-response","87","60929","0.0-5.0-1.41","63e51ddb19fccd05514c629c","bdp_lott","Sat Mar 25 2023 22:44:15 GMT-0700 (Pacific Daylight Time)","292011","red","green","","217","","img/green_wl/choose11.jpg","2","choice","184","red","0.5","0.5","0.5","w","",""
"animation","88","61529","0.0-5.0-2.41","63e51ddb19fccd05514c629c","bdp_lott","Sat Mar 25 2023 22:44:15 GMT-0700 (Pacific Daylight Time)","292011","red","green","","","","","","","184","","","","","","[{""stimulus"":""img/red_ww/1.jpg"",""time"":51},{""stimulus"":""img/red_ww/2.jpg"",""time"":101},{""stimulus"":""img/red_ww/3.jpg"",""time"":161},{""stimulus"":""img/red_ww/4.jpg"",""time"":200},{""stimulus"":""img/red_ww/5.jpg"",""time"":250},{""stimulus"":""img/red_ww/6.jpg"",""time"":301},{""stimulus"":""img/red_ww/7.jpg"",""time"":364},{""stimulus"":""img/red_ww/8.jpg"",""time"":401},{""stimulus"":""img/red_ww/9.jpg"",""time"":451},{""stimulus"":""img/red_ww/10.jpg"",""time"":500},{""stimulus"":""img/red_ww/11.jpg"",""time"":550}]","[]"
"image-keyboard-response","89","61842","0.0-5.0-1.42","63e51ddb19fccd05514c629c","bdp_lott","Sat Mar 25 2023 22:44:15 GMT-0700 (Pacific Daylight Time)","292011","red","green","","312","","img/red_ww/choose11.jpg","2","choice","183","red","0.5","0.5","0.5","l","",""
"animation","90","62443","0.0-5.0-2.42","63e51ddb19fccd05514c629c","bdp_lott","Sat Mar 25 2023 22:44:15 GMT-0700 (Pacific Daylight Time)","292011","red","green","","","","","","","183","","","","","","[{""stimulus"":""img/red_wl/1.jpg"",""time"":57},{""stimulus"":""img/red_wl/2.jpg"",""time"":100},{""stimulus"":""img/red_wl/3.jpg"",""time"":150},{""stimulus"":""img/red_wl/4.jpg"",""time"":201},{""stimulus"":""img/red_wl/5.jpg"",""time"":251},{""stimulus"":""img/red_wl/6.jpg"",""time"":307},{""stimulus"":""img/red_wl/7.jpg"",""time"":350},{""stimulus"":""img/red_wl/8.jpg"",""time"":402},{""stimulus"":""img/red_wl/9.jpg"",""time"":465},{""stimulus"":""img/red_wl/10.jpg"",""time"":501},{""stimulus"":""img/red_wl/11.jpg"",""time"":559}]","[]"
"image-keyboard-response","91","62646","0.0-5.0-1.43","63e51ddb19fccd05514c629c","bdp_lott","Sat Mar 25 2023 22:44:15 GMT-0700 (Pacific Daylight Time)","292011","red","green","","203","","img/red_wl/choose11.jpg","1","choice","182","green","0.5","0.5","0.5","l","",""
"animation","92","63255","0.0-5.0-2.43","63e51ddb19fccd05514c629c","bdp_lott","Sat Mar 25 2023 22:44:15 GMT-0700 (Pacific Daylight Time)","292011","red","green","","","","","","","182","","","","","","[{""stimulus"":""img/green_ll/1.jpg"",""time"":52},{""stimulus"":""img/green_ll/2.jpg"",""time"":114},{""stimulus"":""img/green_ll/3.jpg"",""time"":151},{""stimulus"":""img/green_ll/4.jpg"",""time"":200},{""stimulus"":""img/green_ll/5.jpg"",""time"":250},{""stimulus"":""img/green_ll/6.jpg"",""time"":300},{""stimulus"":""img/green_ll/7.jpg"",""time"":350},{""stimulus"":""img/green_ll/8.jpg"",""time"":409},{""stimulus"":""img/green_ll/9.jpg"",""time"":455},{""stimulus"":""img/green_ll/10.jpg"",""time"":501},{""stimulus"":""img/green_ll/11.jpg"",""time"":552}]","[]"
"image-keyboard-response","93","63449","0.0-5.0-1.44","63e51ddb19fccd05514c629c","bdp_lott","Sat Mar 25 2023 22:44:15 GMT-0700 (Pacific Daylight Time)","292011","red","green","","194","","img/green_ll/choose11.jpg","1","choice","181","green","0.5","0.5","0.5","l","",""
"animation","94","64065","0.0-5.0-2.44","63e51ddb19fccd05514c629c","bdp_lott","Sat Mar 25 2023 22:44:15 GMT-0700 (Pacific Daylight Time)","292011","red","green","","","","","","","181","","","","","","[{""stimulus"":""img/green_ll/1.jpg"",""time"":54},{""stimulus"":""img/green_ll/2.jpg"",""time"":100},{""stimulus"":""img/green_ll/3.jpg"",""time"":150},{""stimulus"":""img/green_ll/4.jpg"",""time"":209},{""stimulus"":""img/green_ll/5.jpg"",""time"":257},{""stimulus"":""img/green_ll/6.jpg"",""time"":300},{""stimulus"":""img/green_ll/7.jpg"",""time"":350},{""stimulus"":""img/green_ll/8.jpg"",""time"":400},{""stimulus"":""img/green_ll/9.jpg"",""time"":451},{""stimulus"":""img/green_ll/10.jpg"",""time"":501},{""stimulus"":""img/green_ll/11.jpg"",""time"":551}]","[]"
"image-keyboard-response","95","64142","0.0-5.0-1.45","63e51ddb19fccd05514c629c","bdp_lott","Sat Mar 25 2023 22:44:15 GMT-0700 (Pacific Daylight Time)","292011","red","green","","77","","img/green_ll/choose11.jpg","2","choice","180","red","0.5","0.5","0.5","l","",""
"animation","96","64743","0.0-5.0-2.45","63e51ddb19fccd05514c629c","bdp_lott","Sat Mar 25 2023 22:44:15 GMT-0700 (Pacific Daylight Time)","292011","red","green","","","","","","","180","","","","","","[{""stimulus"":""img/red_ll/1.jpg"",""time"":63},{""stimulus"":""img/red_ll/2.jpg"",""time"":110},{""stimulus"":""img/red_ll/3.jpg"",""time"":156},{""stimulus"":""img/red_ll/4.jpg"",""time"":200},{""stimulus"":""img/red_ll/5.jpg"",""time"":264},{""stimulus"":""img/red_ll/6.jpg"",""time"":300},{""stimulus"":""img/red_ll/7.jpg"",""time"":350},{""stimulus"":""img/red_ll/8.jpg"",""time"":400},{""stimulus"":""img/red_ll/9.jpg"",""time"":450},{""stimulus"":""img/red_ll/10.jpg"",""time"":501},{""stimulus"":""img/red_ll/11.jpg"",""time"":550}]","[]"
"image-keyboard-response","97","64942","0.0-5.0-1.46","63e51ddb19fccd05514c629c","bdp_lott","Sat Mar 25 2023 22:44:15 GMT-0700 (Pacific Daylight Time)","292011","red","green","","199","","img/red_ll/choose11.jpg","1","choice","179","green","0.5","0.5","0.5","l","",""
"animation","98","65543","0.0-5.0-2.46","63e51ddb19fccd05514c629c","bdp_lott","Sat Mar 25 2023 22:44:15 GMT-0700 (Pacific Daylight Time)","292011","red","green","","","","","","","179","","","","","","[{""stimulus"":""img/green_ll/1.jpg"",""time"":57},{""stimulus"":""img/green_ll/2.jpg"",""time"":103},{""stimulus"":""img/green_ll/3.jpg"",""time"":151},{""stimulus"":""img/green_ll/4.jpg"",""time"":201},{""stimulus"":""img/green_ll/5.jpg"",""time"":257},{""stimulus"":""img/green_ll/6.jpg"",""time"":301},{""stimulus"":""img/green_ll/7.jpg"",""time"":351},{""stimulus"":""img/green_ll/8.jpg"",""time"":401},{""stimulus"":""img/green_ll/9.jpg"",""time"":461},{""stimulus"":""img/green_ll/10.jpg"",""time"":508},{""stimulus"":""img/green_ll/11.jpg"",""time"":551}]","[]"
"image-keyboard-response","99","65741","0.0-5.0-1.47","63e51ddb19fccd05514c629c","bdp_lott","Sat Mar 25 2023 22:44:15 GMT-0700 (Pacific Daylight Time)","292011","red","green","","197","","img/green_ll/choose11.jpg","2","choice","178","red","0.5","0.5","0.5","w","",""
"animation","100","66344","0.0-5.0-2.47","63e51ddb19fccd05514c629c","bdp_lott","Sat Mar 25 2023 22:44:15 GMT-0700 (Pacific Daylight Time)","292011","red","green","","","","","","","178","","","","","","[{""stimulus"":""img/red_lw/1.jpg"",""time"":65},{""stimulus"":""img/red_lw/2.jpg"",""time"":112},{""stimulus"":""img/red_lw/3.jpg"",""time"":159},{""stimulus"":""img/red_lw/4.jpg"",""time"":205},{""stimulus"":""img/red_lw/5.jpg"",""time"":251},{""stimulus"":""img/red_lw/6.jpg"",""time"":300},{""stimulus"":""img/red_lw/7.jpg"",""time"":350},{""stimulus"":""img/red_lw/8.jpg"",""time"":401},{""stimulus"":""img/red_lw/9.jpg"",""time"":453},{""stimulus"":""img/red_lw/10.jpg"",""time"":503},{""stimulus"":""img/red_lw/11.jpg"",""time"":553}]","[]"
"image-keyboard-response","101","66535","0.0-5.0-1.48","63e51ddb19fccd05514c629c","bdp_lott","Sat Mar 25 2023 22:44:15 GMT-0700 (Pacific Daylight Time)","292011","red","green","","191","","img/red_lw/choose11.jpg","1","choice","177","green","0.5","0.5","0.5","w","",""
"animation","102","67148","0.0-5.0-2.48","63e51ddb19fccd05514c629c","bdp_lott","Sat Mar 25 2023 22:44:15 GMT-0700 (Pacific Daylight Time)","292011","red","green","","","","","","","177","","","","","","[{""stimulus"":""img/green_ww/1.jpg"",""time"":65},{""stimulus"":""img/green_ww/2.jpg"",""time"":112},{""stimulus"":""img/green_ww/3.jpg"",""time"":158},{""stimulus"":""img/green_ww/4.jpg"",""time"":205},{""stimulus"":""img/green_ww/5.jpg"",""time"":250},{""stimulus"":""img/green_ww/6.jpg"",""time"":315},{""stimulus"":""img/green_ww/7.jpg"",""time"":362},{""stimulus"":""img/green_ww/8.jpg"",""time"":408},{""stimulus"":""img/green_ww/9.jpg"",""time"":450},{""stimulus"":""img/green_ww/10.jpg"",""time"":500},{""stimulus"":""img/green_ww/11.jpg"",""time"":550}]","[]"
"image-keyboard-response","103","67356","0.0-5.0-1.49","63e51ddb19fccd05514c629c","bdp_lott","Sat Mar 25 2023 22:44:15 GMT-0700 (Pacific Daylight Time)","292011","red","green","","207","","img/green_ww/choose11.jpg","1","choice","176","green","0.5","0.5","0.5","l","",""
"animation","104","67959","0.0-5.0-2.49","63e51ddb19fccd05514c629c","bdp_lott","Sat Mar 25 2023 22:44:15 GMT-0700 (Pacific Daylight Time)","292011","red","green","","","","","","","176","","","","","","[{""stimulus"":""img/green_lw/1.jpg"",""time"":57},{""stimulus"":""img/green_lw/2.jpg"",""time"":104},{""stimulus"":""img/green_lw/3.jpg"",""time"":151},{""stimulus"":""img/green_lw/4.jpg"",""time"":200},{""stimulus"":""img/green_lw/5.jpg"",""time"":250},{""stimulus"":""img/green_lw/6.jpg"",""time"":301},{""stimulus"":""img/green_lw/7.jpg"",""time"":353},{""stimulus"":""img/green_lw/8.jpg"",""time"":402},{""stimulus"":""img/green_lw/9.jpg"",""time"":450},{""stimulus"":""img/green_lw/10.jpg"",""time"":501},{""stimulus"":""img/green_lw/11.jpg"",""time"":550}]","[]"
"image-keyboard-response","105","68147","0.0-5.0-1.50","63e51ddb19fccd05514c629c","bdp_lott","Sat Mar 25 2023 22:44:15 GMT-0700 (Pacific Daylight Time)","292011","red","green","","187","","img/green_lw/choose11.jpg","2","choice","175","red","0.5","0.5","0.5","l","",""
"animation","106","68747","0.0-5.0-2.50","63e51ddb19fccd05514c629c","bdp_lott","Sat Mar 25 2023 22:44:15 GMT-0700 (Pacific Daylight Time)","292011","red","green","","","","","","","175","","","","","","[{""stimulus"":""img/red_ll/1.jpg"",""time"":63},{""stimulus"":""img/red_ll/2.jpg"",""time"":109},{""stimulus"":""img/red_ll/3.jpg"",""time"":156},{""stimulus"":""img/red_ll/4.jpg"",""time"":201},{""stimulus"":""img/red_ll/5.jpg"",""time"":251},{""stimulus"":""img/red_ll/6.jpg"",""time"":301},{""stimulus"":""img/red_ll/7.jpg"",""time"":358},{""stimulus"":""img/red_ll/8.jpg"",""time"":406},{""stimulus"":""img/red_ll/9.jpg"",""time"":451},{""stimulus"":""img/red_ll/10.jpg"",""time"":501},{""stimulus"":""img/red_ll/11.jpg"",""time"":551}]","[]"
"image-keyboard-response","107","69073","0.0-5.0-1.51","63e51ddb19fccd05514c629c","bdp_lott","Sat Mar 25 2023 22:44:15 GMT-0700 (Pacific Daylight Time)","292011","red","green","","325","","img/red_ll/choose11.jpg","1","choice","174","green","0.5","0.5","0.5","l","",""
"animation","108","69674","0.0-5.0-2.51","63e51ddb19fccd05514c629c","bdp_lott","Sat Mar 25 2023 22:44:15 GMT-0700 (Pacific Daylight Time)","292011","red","green","","","","","","","174","","","","","","[{""stimulus"":""img/green_ll/1.jpg"",""time"":54},{""stimulus"":""img/green_ll/2.jpg"",""time"":101},{""stimulus"":""img/green_ll/3.jpg"",""time"":165},{""stimulus"":""img/green_ll/4.jpg"",""time"":211},{""stimulus"":""img/green_ll/5.jpg"",""time"":257},{""stimulus"":""img/green_ll/6.jpg"",""time"":304},{""stimulus"":""img/green_ll/7.jpg"",""time"":366},{""stimulus"":""img/green_ll/8.jpg"",""time"":401},{""stimulus"":""img/green_ll/9.jpg"",""time"":451},{""stimulus"":""img/green_ll/10.jpg"",""time"":500},{""stimulus"":""img/green_ll/11.jpg"",""time"":552}]","[]"
"image-keyboard-response","109","69714","0.0-5.0-1.52","63e51ddb19fccd05514c629c","bdp_lott","Sat Mar 25 2023 22:44:15 GMT-0700 (Pacific Daylight Time)","292011","red","green","","40","","img/green_ll/choose11.jpg","1","choice","173","green","0.5","0.5","0.5","l","",""
"animation","110","70327","0.0-5.0-2.52","63e51ddb19fccd05514c629c","bdp_lott","Sat Mar 25 2023 22:44:15 GMT-0700 (Pacific Daylight Time)","292011","red","green","","","","","","","173","","","","","","[{""stimulus"":""img/green_ll/1.jpg"",""time"":52},{""stimulus"":""img/green_ll/2.jpg"",""time"":101},{""stimulus"":""img/green_ll/3.jpg"",""time"":152},{""stimulus"":""img/green_ll/4.jpg"",""time"":208},{""stimulus"":""img/green_ll/5.jpg"",""time"":254},{""stimulus"":""img/green_ll/6.jpg"",""time"":301},{""stimulus"":""img/green_ll/7.jpg"",""time"":364},{""stimulus"":""img/green_ll/8.jpg"",""time"":411},{""stimulus"":""img/green_ll/9.jpg"",""time"":458},{""stimulus"":""img/green_ll/10.jpg"",""time"":504},{""stimulus"":""img/green_ll/11.jpg"",""time"":551}]","[]"
"image-keyboard-response","111","70467","0.0-5.0-1.53","63e51ddb19fccd05514c629c","bdp_lott","Sat Mar 25 2023 22:44:15 GMT-0700 (Pacific Daylight Time)","292011","red","green","","140","","img/green_ll/choose11.jpg","1","choice","172","green","0.5","0.5","0.5","l","",""
"animation","112","71068","0.0-5.0-2.53","63e51ddb19fccd05514c629c","bdp_lott","Sat Mar 25 2023 22:44:15 GMT-0700 (Pacific Daylight Time)","292011","red","green","","","","","","","172","","","","","","[{""stimulus"":""img/green_ll/1.jpg"",""time"":61},{""stimulus"":""img/green_ll/2.jpg"",""time"":108},{""stimulus"":""img/green_ll/3.jpg"",""time"":151},{""stimulus"":""img/green_ll/4.jpg"",""time"":201},{""stimulus"":""img/green_ll/5.jpg"",""time"":263},{""stimulus"":""img/green_ll/6.jpg"",""time"":301},{""stimulus"":""img/green_ll/7.jpg"",""time"":357},{""stimulus"":""img/green_ll/8.jpg"",""time"":401},{""stimulus"":""img/green_ll/9.jpg"",""time"":451},{""stimulus"":""img/green_ll/10.jpg"",""time"":501},{""stimulus"":""img/green_ll/11.jpg"",""time"":561}]","[]"
"image-keyboard-response","113","71094","0.0-5.0-1.54","63e51ddb19fccd05514c629c","bdp_lott","Sat Mar 25 2023 22:44:15 GMT-0700 (Pacific Daylight Time)","292011","red","green","","25","","img/green_ll/choose11.jpg","2","choice","171","red","0.5","0.5","0.5","l","",""
"animation","114","71699","0.0-5.0-2.54","63e51ddb19fccd05514c629c","bdp_lott","Sat Mar 25 2023 22:44:15 GMT-0700 (Pacific Daylight Time)","292011","red","green","","","","","","","171","","","","","","[{""stimulus"":""img/red_ll/1.jpg"",""time"":56},{""stimulus"":""img/red_ll/2.jpg"",""time"":103},{""stimulus"":""img/red_ll/3.jpg"",""time"":150},{""stimulus"":""img/red_ll/4.jpg"",""time"":214},{""stimulus"":""img/red_ll/5.jpg"",""time"":250},{""stimulus"":""img/red_ll/6.jpg"",""time"":305},{""stimulus"":""img/red_ll/7.jpg"",""time"":350},{""stimulus"":""img/red_ll/8.jpg"",""time"":400},{""stimulus"":""img/red_ll/9.jpg"",""time"":450},{""stimulus"":""img/red_ll/10.jpg"",""time"":509},{""stimulus"":""img/red_ll/11.jpg"",""time"":556}]","[]"
"image-keyboard-response","115","71786","0.0-5.0-1.55","63e51ddb19fccd05514c629c","bdp_lott","Sat Mar 25 2023 22:44:15 GMT-0700 (Pacific Daylight Time)","292011","red","green","","87","","img/red_ll/choose11.jpg","2","choice","170","red","0.5","0.5","0.5","w","",""
"animation","116","72388","0.0-5.0-2.55","63e51ddb19fccd05514c629c","bdp_lott","Sat Mar 25 2023 22:44:15 GMT-0700 (Pacific Daylight Time)","292011","red","green","","","","","","","170","","","","","","[{""stimulus"":""img/red_lw/1.jpg"",""time"":55},{""stimulus"":""img/red_lw/2.jpg"",""time"":113},{""stimulus"":""img/red_lw/3.jpg"",""time"":153},{""stimulus"":""img/red_lw/4.jpg"",""time"":211},{""stimulus"":""img/red_lw/5.jpg"",""time"":251},{""stimulus"":""img/red_lw/6.jpg"",""time"":301},{""stimulus"":""img/red_lw/7.jpg"",""time"":353},{""stimulus"":""img/red_lw/8.jpg"",""time"":414},{""stimulus"":""img/red_lw/9.jpg"",""time"":451},{""stimulus"":""img/red_lw/10.jpg"",""time"":502},{""stimulus"":""img/red_lw/11.jpg"",""time"":552}]","[]"
"image-keyboard-response","117","72427","0.0-5.0-1.56","63e51ddb19fccd05514c629c","bdp_lott","Sat Mar 25 2023 22:44:15 GMT-0700 (Pacific Daylight Time)","292011","red","green","","38","","img/red_lw/choose11.jpg","1","choice","169","green","0.5","0.5","0.5","l","",""
"animation","118","73039","0.0-5.0-2.56","63e51ddb19fccd05514c629c","bdp_lott","Sat Mar 25 2023 22:44:15 GMT-0700 (Pacific Daylight Time)","292011","red","green","","","","","","","169","","","","","","[{""stimulus"":""img/green_lw/1.jpg"",""time"":53},{""stimulus"":""img/green_lw/2.jpg"",""time"":115},{""stimulus"":""img/green_lw/3.jpg"",""time"":150},{""stimulus"":""img/green_lw/4.jpg"",""time"":208},{""stimulus"":""img/green_lw/5.jpg"",""time"":251},{""stimulus"":""img/green_lw/6.jpg"",""time"":302},{""stimulus"":""img/green_lw/7.jpg"",""time"":364},{""stimulus"":""img/green_lw/8.jpg"",""time"":412},{""stimulus"":""img/green_lw/9.jpg"",""time"":452},{""stimulus"":""img/green_lw/10.jpg"",""time"":502},{""stimulus"":""img/green_lw/11.jpg"",""time"":550}]","[]"
"image-keyboard-response","119","73344","0.0-5.0-1.57","63e51ddb19fccd05514c629c","bdp_lott","Sat Mar 25 2023 22:44:15 GMT-0700 (Pacific Daylight Time)","292011","red","green","","305","","img/green_lw/choose11.jpg","1","choice","168","green","0.5","0.5","0.5","w","",""
"animation","120","73945","0.0-5.0-2.57","63e51ddb19fccd05514c629c","bdp_lott","Sat Mar 25 2023 22:44:15 GMT-0700 (Pacific Daylight Time)","292011","red","green","","","","","","","168","","","","","","[{""stimulus"":""img/green_ww/1.jpg"",""time"":56},{""stimulus"":""img/green_ww/2.jpg"",""time"":103},{""stimulus"":""img/green_ww/3.jpg"",""time"":151},{""stimulus"":""img/green_ww/4.jpg"",""time"":201},{""stimulus"":""img/green_ww/5.jpg"",""time"":258},{""stimulus"":""img/green_ww/6.jpg"",""time"":304},{""stimulus"":""img/green_ww/7.jpg"",""time"":351},{""stimulus"":""img/green_ww/8.jpg"",""time"":400},{""stimulus"":""img/green_ww/9.jpg"",""time"":460},{""stimulus"":""img/green_ww/10.jpg"",""time"":501},{""stimulus"":""img/green_ww/11.jpg"",""time"":551}]","[]"
"image-keyboard-response","121","74191","0.0-5.0-1.58","63e51ddb19fccd05514c629c","bdp_lott","Sat Mar 25 2023 22:44:15 GMT-0700 (Pacific Daylight Time)","292011","red","green","","244","","img/green_ww/choose11.jpg","2","choice","167","red","0.5","0.5","0.5","w","",""
"animation","122","74791","0.0-5.0-2.58","63e51ddb19fccd05514c629c","bdp_lott","Sat Mar 25 2023 22:44:15 GMT-0700 (Pacific Daylight Time)","292011","red","green","","","","","","","167","","","","","","[{""stimulus"":""img/red_ww/1.jpg"",""time"":52},{""stimulus"":""img/red_ww/2.jpg"",""time"":114},{""stimulus"":""img/red_ww/3.jpg"",""time"":150},{""stimulus"":""img/red_ww/4.jpg"",""time"":209},{""stimulus"":""img/red_ww/5.jpg"",""time"":252},{""stimulus"":""img/red_ww/6.jpg"",""time"":304},{""stimulus"":""img/red_ww/7.jpg"",""time"":351},{""stimulus"":""img/red_ww/8.jpg"",""time"":401},{""stimulus"":""img/red_ww/9.jpg"",""time"":459},{""stimulus"":""img/red_ww/10.jpg"",""time"":506},{""stimulus"":""img/red_ww/11.jpg"",""time"":552}]","[]"
"image-keyboard-response","123","75123","0.0-5.0-1.59","63e51ddb19fccd05514c629c","bdp_lott","Sat Mar 25 2023 22:44:15 GMT-0700 (Pacific Daylight Time)","292011","red","green","","331","","img/red_ww/choose11.jpg","2","choice","166","red","0.5","0.5","0.5","l","",""
"animation","124","75724","0.0-5.0-2.59","63e51ddb19fccd05514c629c","bdp_lott","Sat Mar 25 2023 22:44:15 GMT-0700 (Pacific Daylight Time)","292011","red","green","","","","","","","166","","","","","","[{""stimulus"":""img/red_wl/1.jpg"",""time"":59},{""stimulus"":""img/red_wl/2.jpg"",""time"":102},{""stimulus"":""img/red_wl/3.jpg"",""time"":154},{""stimulus"":""img/red_wl/4.jpg"",""time"":201},{""stimulus"":""img/red_wl/5.jpg"",""time"":251},{""stimulus"":""img/red_wl/6.jpg"",""time"":301},{""stimulus"":""img/red_wl/7.jpg"",""time"":356},{""stimulus"":""img/red_wl/8.jpg"",""time"":402},{""stimulus"":""img/red_wl/9.jpg"",""time"":466},{""stimulus"":""img/red_wl/10.jpg"",""time"":513},{""stimulus"":""img/red_wl/11.jpg"",""time"":560}]","[]"
"image-keyboard-response","125","76049","0.0-5.0-1.60","63e51ddb19fccd05514c629c","bdp_lott","Sat Mar 25 2023 22:44:15 GMT-0700 (Pacific Daylight Time)","292011","red","green","","325","","img/red_wl/choose11.jpg","1","choice","165","green","0.5","0.5","0.5","l","",""
"animation","126","76650","0.0-5.0-2.60","63e51ddb19fccd05514c629c","bdp_lott","Sat Mar 25 2023 22:44:15 GMT-0700 (Pacific Daylight Time)","292011","red","green","","","","","","","165","","","","","","[{""stimulus"":""img/green_ll/1.jpg"",""time"":55},{""stimulus"":""img/green_ll/2.jpg"",""time"":101},{""stimulus"":""img/green_ll/3.jpg"",""time"":163},{""stimulus"":""img/green_ll/4.jpg"",""time"":202},{""stimulus"":""img/green_ll/5.jpg"",""time"":251},{""stimulus"":""img/green_ll/6.jpg"",""time"":305},{""stimulus"":""img/green_ll/7.jpg"",""time"":351},{""stimulus"":""img/green_ll/8.jpg"",""time"":402},{""stimulus"":""img/green_ll/9.jpg"",""time"":460},{""stimulus"":""img/green_ll/10.jpg"",""time"":507},{""stimulus"":""img/green_ll/11.jpg"",""time"":552}]","[]"
"image-keyboard-response","127","76996","0.0-5.0-1.61","63e51ddb19fccd05514c629c","bdp_lott","Sat Mar 25 2023 22:44:15 GMT-0700 (Pacific Daylight Time)","292011","red","green","","346","","img/green_ll/choose11.jpg","1","choice","164","green","0.5","0.5","0.5","w","",""
"animation","128","77603","0.0-5.0-2.61","63e51ddb19fccd05514c629c","bdp_lott","Sat Mar 25 2023 22:44:15 GMT-0700 (Pacific Daylight Time)","292011","red","green","","","","","","","164","","","","","","[{""stimulus"":""img/green_wl/1.jpg"",""time"":63},{""stimulus"":""img/green_wl/2.jpg"",""time"":102},{""stimulus"":""img/green_wl/3.jpg"",""time"":151},{""stimulus"":""img/green_wl/4.jpg"",""time"":203},{""stimulus"":""img/green_wl/5.jpg"",""time"":267},{""stimulus"":""img/green_wl/6.jpg"",""time"":301},{""stimulus"":""img/green_wl/7.jpg"",""time"":352},{""stimulus"":""img/green_wl/8.jpg"",""time"":402},{""stimulus"":""img/green_wl/9.jpg"",""time"":453},{""stimulus"":""img/green_wl/10.jpg"",""time"":515},{""stimulus"":""img/green_wl/11.jpg"",""time"":561}]","[]"
"image-keyboard-response","129","77839","0.0-5.0-1.62","63e51ddb19fccd05514c629c","bdp_lott","Sat Mar 25 2023 22:44:15 GMT-0700 (Pacific Daylight Time)","292011","red","green","","235","","img/green_wl/choose11.jpg","2","choice","163","red","0.5","0.5","0.5","l","",""
"animation","130","78439","0.0-5.0-2.62","63e51ddb19fccd05514c629c","bdp_lott","Sat Mar 25 2023 22:44:15 GMT-0700 (Pacific Daylight Time)","292011","red","green","","","","","","","163","","","","","","[{""stimulus"":""img/red_wl/1.jpg"",""time"":61},{""stimulus"":""img/red_wl/2.jpg"",""time"":101},{""stimulus"":""img/red_wl/3.jpg"",""time"":154},{""stimulus"":""img/red_wl/4.jpg"",""time"":201},{""stimulus"":""img/red_wl/5.jpg"",""time"":251},{""stimulus"":""img/red_wl/6.jpg"",""time"":301},{""stimulus"":""img/red_wl/7.jpg"",""time"":351},{""stimulus"":""img/red_wl/8.jpg"",""time"":401},{""stimulus"":""img/red_wl/9.jpg"",""time"":451},{""stimulus"":""img/red_wl/10.jpg"",""time"":514},{""stimulus"":""img/red_wl/11.jpg"",""time"":561}]","[]"
"image-keyboard-response","131","78629","0.0-5.0-1.63","63e51ddb19fccd05514c629c","bdp_lott","Sat Mar 25 2023 22:44:15 GMT-0700 (Pacific Daylight Time)","292011","red","green","","189","","img/red_wl/choose11.jpg","1","choice","162","green","0.5","0.5","0.5","l","",""
"animation","132","79242","0.0-5.0-2.63","63e51ddb19fccd05514c629c","bdp_lott","Sat Mar 25 2023 22:44:15 GMT-0700 (Pacific Daylight Time)","292011","red","green","","","","","","","162","","","","","","[{""stimulus"":""img/green_ll/1.jpg"",""time"":51},{""stimulus"":""img/green_ll/2.jpg"",""time"":101},{""stimulus"":""img/green_ll/3.jpg"",""time"":160},{""stimulus"":""img/green_ll/4.jpg"",""time"":201},{""stimulus"":""img/green_ll/5.jpg"",""time"":253},{""stimulus"":""img/green_ll/6.jpg"",""time"":315},{""stimulus"":""img/green_ll/7.jpg"",""time"":351},{""stimulus"":""img/green_ll/8.jpg"",""time"":402},{""stimulus"":""img/green_ll/9.jpg"",""time"":451},{""stimulus"":""img/green_ll/10.jpg"",""time"":501},{""stimulus"":""img/green_ll/11.jpg"",""time"":550}]","[]"
"image-keyboard-response","133","79404","0.0-5.0-1.64","63e51ddb19fccd05514c629c","bdp_lott","Sat Mar 25 2023 22:44:15 GMT-0700 (Pacific Daylight Time)","292011","red","green","","162","","img/green_ll/choose11.jpg","2","choice","161","red","0.5","0.5","0.5","l","",""
"animation","134","80006","0.0-5.0-2.64","63e51ddb19fccd05514c629c","bdp_lott","Sat Mar 25 2023 22:44:15 GMT-0700 (Pacific Daylight Time)","292011","red","green","","","","","","","161","","","","","","[{""stimulus"":""img/red_ll/1.jpg"",""time"":57},{""stimulus"":""img/red_ll/2.jpg"",""time"":105},{""stimulus"":""img/red_ll/3.jpg"",""time"":151},{""stimulus"":""img/red_ll/4.jpg"",""time"":201},{""stimulus"":""img/red_ll/5.jpg"",""time"":261},{""stimulus"":""img/red_ll/6.jpg"",""time"":301},{""stimulus"":""img/red_ll/7.jpg"",""time"":351},{""stimulus"":""img/red_ll/8.jpg"",""time"":415},{""stimulus"":""img/red_ll/9.jpg"",""time"":451},{""stimulus"":""img/red_ll/10.jpg"",""time"":501},{""stimulus"":""img/red_ll/11.jpg"",""time"":552}]","[]"
"image-keyboard-response","135","80299","0.0-5.0-1.65","63e51ddb19fccd05514c629c","bdp_lott","Sat Mar 25 2023 22:44:15 GMT-0700 (Pacific Daylight Time)","292011","red","green","","293","","img/red_ll/choose11.jpg","1","choice","160","green","0.5","0.5","0.5","w","",""
"animation","136","80912","0.0-5.0-2.65","63e51ddb19fccd05514c629c","bdp_lott","Sat Mar 25 2023 22:44:15 GMT-0700 (Pacific Daylight Time)","292011","red","green","","","","","","","160","","","","","","[{""stimulus"":""img/green_wl/1.jpg"",""time"":50},{""stimulus"":""img/green_wl/2.jpg"",""time"":101},{""stimulus"":""img/green_wl/3.jpg"",""time"":152},{""stimulus"":""img/green_wl/4.jpg"",""time"":202},{""stimulus"":""img/green_wl/5.jpg"",""time"":253},{""stimulus"":""img/green_wl/6.jpg"",""time"":301},{""stimulus"":""img/green_wl/7.jpg"",""time"":351},{""stimulus"":""img/green_wl/8.jpg"",""time"":401},{""stimulus"":""img/green_wl/9.jpg"",""time"":452},{""stimulus"":""img/green_wl/10.jpg"",""time"":501},{""stimulus"":""img/green_wl/11.jpg"",""time"":551}]","[]"
"image-keyboard-response","137","81098","0.0-5.0-1.66","63e51ddb19fccd05514c629c","bdp_lott","Sat Mar 25 2023 22:44:15 GMT-0700 (Pacific Daylight Time)","292011","red","green","","185","","img/green_wl/choose11.jpg","2","choice","159","red","0.5","0.5","0.5","w","",""
"animation","138","81707","0.0-5.0-2.66","63e51ddb19fccd05514c629c","bdp_lott","Sat Mar 25 2023 22:44:15 GMT-0700 (Pacific Daylight Time)","292011","red","green","","","","","","","159","","","","","","[{""stimulus"":""img/red_ww/1.jpg"",""time"":62},{""stimulus"":""img/red_ww/2.jpg"",""time"":101},{""stimulus"":""img/red_ww/3.jpg"",""time"":150},{""stimulus"":""img/red_ww/4.jpg"",""time"":201},{""stimulus"":""img/red_ww/5.jpg"",""time"":265},{""stimulus"":""img/red_ww/6.jpg"",""time"":300},{""stimulus"":""img/red_ww/7.jpg"",""time"":359},{""stimulus"":""img/red_ww/8.jpg"",""time"":406},{""stimulus"":""img/red_ww/9.jpg"",""time"":450},{""stimulus"":""img/red_ww/10.jpg"",""time"":501},{""stimulus"":""img/red_ww/11.jpg"",""time"":565}]","[]"
"image-keyboard-response","139","81946","0.0-5.0-1.67","63e51ddb19fccd05514c629c","bdp_lott","Sat Mar 25 2023 22:44:15 GMT-0700 (Pacific Daylight Time)","292011","red","green","","239","","img/red_ww/choose11.jpg","2","choice","158","red","0.5","0.5","0.5","l","",""
"animation","140","82547","0.0-5.0-2.67","63e51ddb19fccd05514c629c","bdp_lott","Sat Mar 25 2023 22:44:15 GMT-0700 (Pacific Daylight Time)","292011","red","green","","","","","","","158","","","","","","[{""stimulus"":""img/red_wl/1.jpg"",""time"":58},{""stimulus"":""img/red_wl/2.jpg"",""time"":105},{""stimulus"":""img/red_wl/3.jpg"",""time"":152},{""stimulus"":""img/red_wl/4.jpg"",""time"":215},{""stimulus"":""img/red_wl/5.jpg"",""time"":261},{""stimulus"":""img/red_wl/6.jpg"",""time"":308},{""stimulus"":""img/red_wl/7.jpg"",""time"":352},{""stimulus"":""img/red_wl/8.jpg"",""time"":402},{""stimulus"":""img/red_wl/9.jpg"",""time"":464},{""stimulus"":""img/red_wl/10.jpg"",""time"":502},{""stimulus"":""img/red_wl/11.jpg"",""time"":551}]","[]"
"image-keyboard-response","141","82726","0.0-5.0-1.68","63e51ddb19fccd05514c629c","bdp_lott","Sat Mar 25 2023 22:44:15 GMT-0700 (Pacific Daylight Time)","292011","red","green","","179","","img/red_wl/choose11.jpg","1","choice","157","green","0.5","0.5","0.5","l","",""
"animation","142","83326","0.0-5.0-2.68","63e51ddb19fccd05514c629c","bdp_lott","Sat Mar 25 2023 22:44:15 GMT-0700 (Pacific Daylight Time)","292011","red","green","","","","","","","157","","","","","","[{""stimulus"":""img/green_ll/1.jpg"",""time"":58},{""stimulus"":""img/green_ll/2.jpg"",""time"":100},{""stimulus"":""img/green_ll/3.jpg"",""time"":152},{""stimulus"":""img/green_ll/4.jpg"",""time"":214},{""stimulus"":""img/green_ll/5.jpg"",""time"":251},{""stimulus"":""img/green_ll/6.jpg"",""time"":310},{""stimulus"":""img/green_ll/7.jpg"",""time"":352},{""stimulus"":""img/green_ll/8.jpg"",""time"":404},{""stimulus"":""img/green_ll/9.jpg"",""time"":451},{""stimulus"":""img/green_ll/10.jpg"",""time"":500},{""stimulus"":""img/green_ll/11.jpg"",""time"":550}]","[]"
"image-keyboard-response","143","83494","0.0-5.0-1.69","63e51ddb19fccd05514c629c","bdp_lott","Sat Mar 25 2023 22:44:15 GMT-0700 (Pacific Daylight Time)","292011","red","green","","167","","img/green_ll/choose11.jpg","1","choice","156","green","0.5","0.5","0.5","w","",""
"animation","144","84095","0.0-5.0-2.69","63e51ddb19fccd05514c629c","bdp_lott","Sat Mar 25 2023 22:44:15 GMT-0700 (Pacific Daylight Time)","292011","red","green","","","","","","","156","","","","","","[{""stimulus"":""img/green_wl/1.jpg"",""time"":59},{""stimulus"":""img/green_wl/2.jpg"",""time"":101},{""stimulus"":""img/green_wl/3.jpg"",""time"":151},{""stimulus"":""img/green_wl/4.jpg"",""time"":202},{""stimulus"":""img/green_wl/5.jpg"",""time"":264},{""stimulus"":""img/green_wl/6.jpg"",""time"":311},{""stimulus"":""img/green_wl/7.jpg"",""time"":356},{""stimulus"":""img/green_wl/8.jpg"",""time"":403},{""stimulus"":""img/green_wl/9.jpg"",""time"":451},{""stimulus"":""img/green_wl/10.jpg"",""time"":501},{""stimulus"":""img/green_wl/11.jpg"",""time"":551}]","[]"
"image-keyboard-response","145","84175","0.0-5.0-1.70","63e51ddb19fccd05514c629c","bdp_lott","Sat Mar 25 2023 22:44:15 GMT-0700 (Pacific Daylight Time)","292011","red","green","","80","","img/green_wl/choose11.jpg","2","choice","155","red","0.5","0.5","0.5","w","",""
"animation","146","84777","0.0-5.0-2.70","63e51ddb19fccd05514c629c","bdp_lott","Sat Mar 25 2023 22:44:15 GMT-0700 (Pacific Daylight Time)","292011","red","green","","","","","","","155","","","","","","[{""stimulus"":""img/red_ww/1.jpg"",""time"":64},{""stimulus"":""img/red_ww/2.jpg"",""time"":110},{""stimulus"":""img/red_ww/3.jpg"",""time"":152},{""stimulus"":""img/red_ww/4.jpg"",""time"":201},{""stimulus"":""img/red_ww/5.jpg"",""time"":251},{""stimulus"":""img/red_ww/6.jpg"",""time"":311},{""stimulus"":""img/red_ww/7.jpg"",""time"":353},{""stimulus"":""img/red_ww/8.jpg"",""time"":405},{""stimulus"":""img/red_ww/9.jpg"",""time"":453},{""stimulus"":""img/red_ww/10.jpg"",""time"":502},{""stimulus"":""img/red_ww/11.jpg"",""time"":561}]","[]"
"image-keyboard-response","147","84930","0.0-5.0-1.71","63e51ddb19fccd05514c629c","bdp_lott","Sat Mar 25 2023 22:44:15 GMT-0700 (Pacific Daylight Time)","292011","red","green","","152","","img/red_ww/choose11.jpg","1","choice","154","green","0.5","0.5","0.5","w","",""
"animation","148","85532","0.0-5.0-2.71","63e51ddb19fccd05514c629c","bdp_lott","Sat Mar 25 2023 22:44:15 GMT-0700 (Pacific Daylight Time)","292011","red","green","","","","","","","154","","","","","","[{""stimulus"":""img/green_ww/1.jpg"",""time"":55},{""stimulus"":""img/green_ww/2.jpg"",""time"":101},{""stimulus"":""img/green_ww/3.jpg"",""time"":150},{""stimulus"":""img/green_ww/4.jpg"",""time"":211},{""stimulus"":""img/green_ww/5.jpg"",""time"":257},{""stimulus"":""img/green_ww/6.jpg"",""time"":304},{""stimulus"":""img/green_ww/7.jpg"",""time"":351},{""stimulus"":""img/green_ww/8.jpg"",""time"":401},{""stimulus"":""img/green_ww/9.jpg"",""time"":451},{""stimulus"":""img/green_ww/10.jpg"",""time"":501},{""stimulus"":""img/green_ww/11.jpg"",""time"":551}]","[]"
"image-keyboard-response","149","85662","0.0-5.0-1.72","63e51ddb19fccd05514c629c","bdp_lott","Sat Mar 25 2023 22:44:15 GMT-0700 (Pacific Daylight Time)","292011","red","green","","129","","img/green_ww/choose11.jpg","2","choice","153","red","0.5","0.5","0.5","l","",""
"animation","150","86264","0.0-5.0-2.72","63e51ddb19fccd05514c629c","bdp_lott","Sat Mar 25 2023 22:44:15 GMT-0700 (Pacific Daylight Time)","292011","red","green","","","","","","","153","","","","","","[{""stimulus"":""img/red_wl/1.jpg"",""time"":58},{""stimulus"":""img/red_wl/2.jpg"",""time"":104},{""stimulus"":""img/red_wl/3.jpg"",""time"":165},{""stimulus"":""img/red_wl/4.jpg"",""time"":201},{""stimulus"":""img/red_wl/5.jpg"",""time"":259},{""stimulus"":""img/red_wl/6.jpg"",""time"":301},{""stimulus"":""img/red_wl/7.jpg"",""time"":352},{""stimulus"":""img/red_wl/8.jpg"",""time"":401},{""stimulus"":""img/red_wl/9.jpg"",""time"":452},{""stimulus"":""img/red_wl/10.jpg"",""time"":510},{""stimulus"":""img/red_wl/11.jpg"",""time"":556}]","[]"
"image-keyboard-response","151","86454","0.0-5.0-1.73","63e51ddb19fccd05514c629c","bdp_lott","Sat Mar 25 2023 22:44:15 GMT-0700 (Pacific Daylight Time)","292011","red","green","","190","","img/red_wl/choose11.jpg","1","choice","152","green","0.5","0.5","0.5","l","",""
"animation","152","87055","0.0-5.0-2.73","63e51ddb19fccd05514c629c","bdp_lott","Sat Mar 25 2023 22:44:15 GMT-0700 (Pacific Daylight Time)","292011","red","green","","","","","","","152","","","","","","[{""stimulus"":""img/green_ll/1.jpg"",""time"":59},{""stimulus"":""img/green_ll/2.jpg"",""time"":101},{""stimulus"":""img/green_ll/3.jpg"",""time"":151},{""stimulus"":""img/green_ll/4.jpg"",""time"":201},{""stimulus"":""img/green_ll/5.jpg"",""time"":251},{""stimulus"":""img/green_ll/6.jpg"",""time"":301},{""stimulus"":""img/green_ll/7.jpg"",""time"":351},{""stimulus"":""img/green_ll/8.jpg"",""time"":401},{""stimulus"":""img/green_ll/9.jpg"",""time"":452},{""stimulus"":""img/green_ll/10.jpg"",""time"":501},{""stimulus"":""img/green_ll/11.jpg"",""time"":551}]","[]"
"image-keyboard-response","153","87212","0.0-5.0-1.74","63e51ddb19fccd05514c629c","bdp_lott","Sat Mar 25 2023 22:44:15 GMT-0700 (Pacific Daylight Time)","292011","red","green","","157","","img/green_ll/choose11.jpg","2","choice","151","red","0.5","0.5","0.5","l","",""
"animation","154","87813","0.0-5.0-2.74","63e51ddb19fccd05514c629c","bdp_lott","Sat Mar 25 2023 22:44:15 GMT-0700 (Pacific Daylight Time)","292011","red","green","","","","","","","151","","","","","","[{""stimulus"":""img/red_ll/1.jpg"",""time"":53},{""stimulus"":""img/red_ll/2.jpg"",""time"":116},{""stimulus"":""img/red_ll/3.jpg"",""time"":162},{""stimulus"":""img/red_ll/4.jpg"",""time"":201},{""stimulus"":""img/red_ll/5.jpg"",""time"":255},{""stimulus"":""img/red_ll/6.jpg"",""time"":301},{""stimulus"":""img/red_ll/7.jpg"",""time"":364},{""stimulus"":""img/red_ll/8.jpg"",""time"":401},{""stimulus"":""img/red_ll/9.jpg"",""time"":451},{""stimulus"":""img/red_ll/10.jpg"",""time"":503},{""stimulus"":""img/red_ll/11.jpg"",""time"":565}]","[]"
"image-keyboard-response","155","88071","0.0-5.0-1.75","63e51ddb19fccd05514c629c","bdp_lott","Sat Mar 25 2023 22:44:15 GMT-0700 (Pacific Daylight Time)","292011","red","green","","258","","img/red_ll/choose11.jpg","1","choice","150","green","0.5","0.5","0.5","w","",""
"animation","156","88672","0.0-5.0-2.75","63e51ddb19fccd05514c629c","bdp_lott","Sat Mar 25 2023 22:44:15 GMT-0700 (Pacific Daylight Time)","292011","red","green","","","","","","","150","","","","","","[{""stimulus"":""img/green_wl/1.jpg"",""time"":65},{""stimulus"":""img/green_wl/2.jpg"",""time"":100},{""stimulus"":""img/green_wl/3.jpg"",""time"":151},{""stimulus"":""img/green_wl/4.jpg"",""time"":200},{""stimulus"":""img/green_wl/5.jpg"",""time"":250},{""stimulus"":""img/green_wl/6.jpg"",""time"":301},{""stimulus"":""img/green_wl/7.jpg"",""time"":351},{""stimulus"":""img/green_wl/8.jpg"",""time"":401},{""stimulus"":""img/green_wl/9.jpg"",""time"":451},{""stimulus"":""img/green_wl/10.jpg"",""time"":501},{""stimulus"":""img/green_wl/11.jpg"",""time"":550}]","[]"
"image-keyboard-response","157","88947","0.0-5.0-1.76","63e51ddb19fccd05514c629c","bdp_lott","Sat Mar 25 2023 22:44:15 GMT-0700 (Pacific Daylight Time)","292011","red","green","","273","","img/green_wl/choose11.jpg","1","choice","149","green","0.5","0.1","0.1","l","",""
"animation","158","89547","0.0-5.0-2.76","63e51ddb19fccd05514c629c","bdp_lott","Sat Mar 25 2023 22:44:15 GMT-0700 (Pacific Daylight Time)","292011","red","green","","","","","","","149","","","","","","[{""stimulus"":""img/green_ll/1.jpg"",""time"":64},{""stimulus"":""img/green_ll/2.jpg"",""time"":100},{""stimulus"":""img/green_ll/3.jpg"",""time"":158},{""stimulus"":""img/green_ll/4.jpg"",""time"":201},{""stimulus"":""img/green_ll/5.jpg"",""time"":252},{""stimulus"":""img/green_ll/6.jpg"",""time"":301},{""stimulus"":""img/green_ll/7.jpg"",""time"":362},{""stimulus"":""img/green_ll/8.jpg"",""time"":400},{""stimulus"":""img/green_ll/9.jpg"",""time"":453},{""stimulus"":""img/green_ll/10.jpg"",""time"":516},{""stimulus"":""img/green_ll/11.jpg"",""time"":551}]","[]"
"image-keyboard-response","159","89816","0.0-5.0-1.77","63e51ddb19fccd05514c629c","bdp_lott","Sat Mar 25 2023 22:44:15 GMT-0700 (Pacific Daylight Time)","292011","red","green","","268","","img/green_ll/choose11.jpg","1","choice","148","green","0.5","0.1","0.1","l","",""
"animation","160","90431","0.0-5.0-2.77","63e51ddb19fccd05514c629c","bdp_lott","Sat Mar 25 2023 22:44:15 GMT-0700 (Pacific Daylight Time)","292011","red","green","","","","","","","148","","","","","","[{""stimulus"":""img/green_ll/1.jpg"",""time"":53},{""stimulus"":""img/green_ll/2.jpg"",""time"":100},{""stimulus"":""img/green_ll/3.jpg"",""time"":162},{""stimulus"":""img/green_ll/4.jpg"",""time"":210},{""stimulus"":""img/green_ll/5.jpg"",""time"":250},{""stimulus"":""img/green_ll/6.jpg"",""time"":302},{""stimulus"":""img/green_ll/7.jpg"",""time"":365},{""stimulus"":""img/green_ll/8.jpg"",""time"":411},{""stimulus"":""img/green_ll/9.jpg"",""time"":451},{""stimulus"":""img/green_ll/10.jpg"",""time"":502},{""stimulus"":""img/green_ll/11.jpg"",""time"":550}]","[]"
"image-keyboard-response","161","90490","0.0-5.0-1.78","63e51ddb19fccd05514c629c","bdp_lott","Sat Mar 25 2023 22:44:15 GMT-0700 (Pacific Daylight Time)","292011","red","green","","59","","img/green_ll/choose11.jpg","1","choice","147","green","0.5","0.1","0.1","l","",""
"animation","162","91090","0.0-5.0-2.78","63e51ddb19fccd05514c629c","bdp_lott","Sat Mar 25 2023 22:44:15 GMT-0700 (Pacific Daylight Time)","292011","red","green","","","","","","","147","","","","","","[{""stimulus"":""img/green_ll/1.jpg"",""time"":65},{""stimulus"":""img/green_ll/2.jpg"",""time"":100},{""stimulus"":""img/green_ll/3.jpg"",""time"":151},{""stimulus"":""img/green_ll/4.jpg"",""time"":201},{""stimulus"":""img/green_ll/5.jpg"",""time"":251},{""stimulus"":""img/green_ll/6.jpg"",""time"":316},{""stimulus"":""img/green_ll/7.jpg"",""time"":350},{""stimulus"":""img/green_ll/8.jpg"",""time"":409},{""stimulus"":""img/green_ll/9.jpg"",""time"":451},{""stimulus"":""img/green_ll/10.jpg"",""time"":502},{""stimulus"":""img/green_ll/11.jpg"",""time"":565}]","[]"
"image-keyboard-response","163","91204","0.0-5.0-1.79","63e51ddb19fccd05514c629c","bdp_lott","Sat Mar 25 2023 22:44:15 GMT-0700 (Pacific Daylight Time)","292011","red","green","","114","","img/green_ll/choose11.jpg","1","choice","146","green","0.5","0.1","0.1","l","",""
"animation","164","91820","0.0-5.0-2.79","63e51ddb19fccd05514c629c","bdp_lott","Sat Mar 25 2023 22:44:15 GMT-0700 (Pacific Daylight Time)","292011","red","green","","","","","","","146","","","","","","[{""stimulus"":""img/green_ll/1.jpg"",""time"":54},{""stimulus"":""img/green_ll/2.jpg"",""time"":101},{""stimulus"":""img/green_ll/3.jpg"",""time"":150},{""stimulus"":""img/green_ll/4.jpg"",""time"":209},{""stimulus"":""img/green_ll/5.jpg"",""time"":255},{""stimulus"":""img/green_ll/6.jpg"",""time"":301},{""stimulus"":""img/green_ll/7.jpg"",""time"":350},{""stimulus"":""img/green_ll/8.jpg"",""time"":410},{""stimulus"":""img/green_ll/9.jpg"",""time"":451},{""stimulus"":""img/green_ll/10.jpg"",""time"":504},{""stimulus"":""img/green_ll/11.jpg"",""time"":550}]","[]"
"image-keyboard-response","165","91966","0.0-5.0-1.80","63e51ddb19fccd05514c629c","bdp_lott","Sat Mar 25 2023 22:44:15 GMT-0700 (Pacific Daylight Time)","292011","red","green","","146","","img/green_ll/choose11.jpg","1","choice","145","green","0.5","0.1","0.1","l","",""
"animation","166","92568","0.0-5.0-2.80","63e51ddb19fccd05514c629c","bdp_lott","Sat Mar 25 2023 22:44:15 GMT-0700 (Pacific Daylight Time)","292011","red","green","","","","","","","145","","","","","","[{""stimulus"":""img/green_ll/1.jpg"",""time"":57},{""stimulus"":""img/green_ll/2.jpg"",""time"":102},{""stimulus"":""img/green_ll/3.jpg"",""time"":150},{""stimulus"":""img/green_ll/4.jpg"",""time"":201},{""stimulus"":""img/green_ll/5.jpg"",""time"":251},{""stimulus"":""img/green_ll/6.jpg"",""time"":307},{""stimulus"":""img/green_ll/7.jpg"",""time"":351},{""stimulus"":""img/green_ll/8.jpg"",""time"":400},{""stimulus"":""img/green_ll/9.jpg"",""time"":461},{""stimulus"":""img/green_ll/10.jpg"",""time"":500},{""stimulus"":""img/green_ll/11.jpg"",""time"":554}]","[]"
"image-keyboard-response","167","92796","0.0-5.0-1.81","63e51ddb19fccd05514c629c","bdp_lott","Sat Mar 25 2023 22:44:15 GMT-0700 (Pacific Daylight Time)","292011","red","green","","227","","img/green_ll/choose11.jpg","2","choice","144","red","0.5","0.1","0.5","w","",""
"animation","168","93410","0.0-5.0-2.81","63e51ddb19fccd05514c629c","bdp_lott","Sat Mar 25 2023 22:44:15 GMT-0700 (Pacific Daylight Time)","292011","red","green","","","","","","","144","","","","","","[{""stimulus"":""img/red_lw/1.jpg"",""time"":53},{""stimulus"":""img/red_lw/2.jpg"",""time"":105},{""stimulus"":""img/red_lw/3.jpg"",""time"":162},{""stimulus"":""img/red_lw/4.jpg"",""time"":202},{""stimulus"":""img/red_lw/5.jpg"",""time"":251},{""stimulus"":""img/red_lw/6.jpg"",""time"":302},{""stimulus"":""img/red_lw/7.jpg"",""time"":364},{""stimulus"":""img/red_lw/8.jpg"",""time"":410},{""stimulus"":""img/red_lw/9.jpg"",""time"":451},{""stimulus"":""img/red_lw/10.jpg"",""time"":500},{""stimulus"":""img/red_lw/11.jpg"",""time"":552}]","[]"
"image-keyboard-response","169","94064","0.0-5.0-1.82","63e51ddb19fccd05514c629c","bdp_lott","Sat Mar 25 2023 22:44:15 GMT-0700 (Pacific Daylight Time)","292011","red","green","","654","","img/red_lw/choose11.jpg","1","choice","143","green","0.5","0.1","0.1","w","",""
"animation","170","94673","0.0-5.0-2.82","63e51ddb19fccd05514c629c","bdp_lott","Sat Mar 25 2023 22:44:15 GMT-0700 (Pacific Daylight Time)","292011","red","green","","","","","","","143","","","","","","[{""stimulus"":""img/green_ww/1.jpg"",""time"":63},{""stimulus"":""img/green_ww/2.jpg"",""time"":100},{""stimulus"":""img/green_ww/3.jpg"",""time"":150},{""stimulus"":""img/green_ww/4.jpg"",""time"":201},{""stimulus"":""img/green_ww/5.jpg"",""time"":251},{""stimulus"":""img/green_ww/6.jpg"",""time"":311},{""stimulus"":""img/green_ww/7.jpg"",""time"":358},{""stimulus"":""img/green_ww/8.jpg"",""time"":401},{""stimulus"":""img/green_ww/9.jpg"",""time"":453},{""stimulus"":""img/green_ww/10.jpg"",""time"":500},{""stimulus"":""img/green_ww/11.jpg"",""time"":562}]","[]"
"image-keyboard-response","171","95164","0.0-5.0-1.83","63e51ddb19fccd05514c629c","bdp_lott","Sat Mar 25 2023 22:44:15 GMT-0700 (Pacific Daylight Time)","292011","red","green","","490","","img/green_ww/choose11.jpg","1","choice","142","green","0.5","0.1","0.1","l","",""
"animation","172","95765","0.0-5.0-2.83","63e51ddb19fccd05514c629c","bdp_lott","Sat Mar 25 2023 22:44:15 GMT-0700 (Pacific Daylight Time)","292011","red","green","","","","","","","142","","","","","","[{""stimulus"":""img/green_lw/1.jpg"",""time"":55},{""stimulus"":""img/green_lw/2.jpg"",""time"":101},{""stimulus"":""img/green_lw/3.jpg"",""time"":152},{""stimulus"":""img/green_lw/4.jpg"",""time"":201},{""stimulus"":""img/green_lw/5.jpg"",""time"":259},{""stimulus"":""img/green_lw/6.jpg"",""time"":301},{""stimulus"":""img/green_lw/7.jpg"",""time"":351},{""stimulus"":""img/green_lw/8.jpg"",""time"":402},{""stimulus"":""img/green_lw/9.jpg"",""time"":464},{""stimulus"":""img/green_lw/10.jpg"",""time"":501},{""stimulus"":""img/green_lw/11.jpg"",""time"":555}]","[]"
"image-keyboard-response","173","96238","0.0-5.0-1.84","63e51ddb19fccd05514c629c","bdp_lott","Sat Mar 25 2023 22:44:15 GMT-0700 (Pacific Daylight Time)","292011","red","green","","471","","img/green_lw/choose11.jpg","2","choice","141","red","0.5","0.1","0.5","w","",""
"animation","174","96838","0.0-5.0-2.84","63e51ddb19fccd05514c629c","bdp_lott","Sat Mar 25 2023 22:44:15 GMT-0700 (Pacific Daylight Time)","292011","red","green","","","","","","","141","","","","","","[{""stimulus"":""img/red_lw/1.jpg"",""time"":58},{""stimulus"":""img/red_lw/2.jpg"",""time"":100},{""stimulus"":""img/red_lw/3.jpg"",""time"":152},{""stimulus"":""img/red_lw/4.jpg"",""time"":200},{""stimulus"":""img/red_lw/5.jpg"",""time"":261},{""stimulus"":""img/red_lw/6.jpg"",""time"":307},{""stimulus"":""img/red_lw/7.jpg"",""time"":353},{""stimulus"":""img/red_lw/8.jpg"",""time"":401},{""stimulus"":""img/red_lw/9.jpg"",""time"":451},{""stimulus"":""img/red_lw/10.jpg"",""time"":508},{""stimulus"":""img/red_lw/11.jpg"",""time"":556}]","[]"
"image-keyboard-response","175","97329","0.0-5.0-1.85","63e51ddb19fccd05514c629c","bdp_lott","Sat Mar 25 2023 22:44:15 GMT-0700 (Pacific Daylight Time)","292011","red","green","","490","","img/red_lw/choose11.jpg","1","choice","140","green","0.5","0.1","0.1","w","",""
"animation","176","97930","0.0-5.0-2.85","63e51ddb19fccd05514c629c","bdp_lott","Sat Mar 25 2023 22:44:15 GMT-0700 (Pacific Daylight Time)","292011","red","green","","","","","","","140","","","","","","[{""stimulus"":""img/green_ww/1.jpg"",""time"":57},{""stimulus"":""img/green_ww/2.jpg"",""time"":104},{""stimulus"":""img/green_ww/3.jpg"",""time"":151},{""stimulus"":""img/green_ww/4.jpg"",""time"":201},{""stimulus"":""img/green_ww/5.jpg"",""time"":251},{""stimulus"":""img/green_ww/6.jpg"",""time"":307},{""stimulus"":""img/green_ww/7.jpg"",""time"":351},{""stimulus"":""img/green_ww/8.jpg"",""time"":401},{""stimulus"":""img/green_ww/9.jpg"",""time"":451},{""stimulus"":""img/green_ww/10.jpg"",""time"":511},{""stimulus"":""img/green_ww/11.jpg"",""time"":558}]","[]"
"image-keyboard-response","177","98243","0.0-5.0-1.86","63e51ddb19fccd05514c629c","bdp_lott","Sat Mar 25 2023 22:44:15 GMT-0700 (Pacific Daylight Time)","292011","red","green","","313","","img/green_ww/choose11.jpg","2","choice","139","red","0.5","0.1","0.5","w","",""
"animation","178","98844","0.0-5.0-2.86","63e51ddb19fccd05514c629c","bdp_lott","Sat Mar 25 2023 22:44:15 GMT-0700 (Pacific Daylight Time)","292011","red","green","","","","","","","139","","","","","","[{""stimulus"":""img/red_ww/1.jpg"",""time"":63},{""stimulus"":""img/red_ww/2.jpg"",""time"":101},{""stimulus"":""img/red_ww/3.jpg"",""time"":157},{""stimulus"":""img/red_ww/4.jpg"",""time"":203},{""stimulus"":""img/red_ww/5.jpg"",""time"":251},{""stimulus"":""img/red_ww/6.jpg"",""time"":312},{""stimulus"":""img/red_ww/7.jpg"",""time"":359},{""stimulus"":""img/red_ww/8.jpg"",""time"":406},{""stimulus"":""img/red_ww/9.jpg"",""time"":452},{""stimulus"":""img/red_ww/10.jpg"",""time"":502},{""stimulus"":""img/red_ww/11.jpg"",""time"":551}]","[]"
"image-keyboard-response","179","99912","0.0-5.0-1.87","63e51ddb19fccd05514c629c","bdp_lott","Sat Mar 25 2023 22:44:15 GMT-0700 (Pacific Daylight Time)","292011","red","green","","1067","","img/red_ww/choose11.jpg","1","choice","138","green","0.5","0.1","0.1","l","",""
"animation","180","100513","0.0-5.0-2.87","63e51ddb19fccd05514c629c","bdp_lott","Sat Mar 25 2023 22:44:15 GMT-0700 (Pacific Daylight Time)","292011","red","green","","","","","","","138","","","","","","[{""stimulus"":""img/green_lw/1.jpg"",""time"":66},{""stimulus"":""img/green_lw/2.jpg"",""time"":106},{""stimulus"":""img/green_lw/3.jpg"",""time"":160},{""stimulus"":""img/green_lw/4.jpg"",""time"":201},{""stimulus"":""img/green_lw/5.jpg"",""time"":251},{""stimulus"":""img/green_lw/6.jpg"",""time"":301},{""stimulus"":""img/green_lw/7.jpg"",""time"":362},{""stimulus"":""img/green_lw/8.jpg"",""time"":401},{""stimulus"":""img/green_lw/9.jpg"",""time"":452},{""stimulus"":""img/green_lw/10.jpg"",""time"":501},{""stimulus"":""img/green_lw/11.jpg"",""time"":552}]","[]"
"image-keyboard-response","181","101423","0.0-5.0-1.88","63e51ddb19fccd05514c629c","bdp_lott","Sat Mar 25 2023 22:44:15 GMT-0700 (Pacific Daylight Time)","292011","red","green","","910","","img/green_lw/choose11.jpg","2","choice","137","red","0.5","0.1","0.5","l","",""
"animation","182","102038","0.0-5.0-2.88","63e51ddb19fccd05514c629c","bdp_lott","Sat Mar 25 2023 22:44:15 GMT-0700 (Pacific Daylight Time)","292011","red","green","","","","","","","137","","","","","","[{""stimulus"":""img/red_ll/1.jpg"",""time"":51},{""stimulus"":""img/red_ll/2.jpg"",""time"":101},{""stimulus"":""img/red_ll/3.jpg"",""time"":152},{""stimulus"":""img/red_ll/4.jpg"",""time"":207},{""stimulus"":""img/red_ll/5.jpg"",""time"":251},{""stimulus"":""img/red_ll/6.jpg"",""time"":301},{""stimulus"":""img/red_ll/7.jpg"",""time"":351},{""stimulus"":""img/red_ll/8.jpg"",""time"":412},{""stimulus"":""img/red_ll/9.jpg"",""time"":452},{""stimulus"":""img/red_ll/10.jpg"",""time"":507},{""stimulus"":""img/red_ll/11.jpg"",""time"":553}]","[]"
"image-keyboard-response","183","102987","0.0-5.0-1.89","63e51ddb19fccd05514c629c","bdp_lott","Sat Mar 25 2023 22:44:15 GMT-0700 (Pacific Daylight Time)","292011","red","green","","947","","img/red_ll/choose11.jpg","1","choice","136","green","0.5","0.1","0.1","l","",""
"animation","184","103588","0.0-5.0-2.89","63e51ddb19fccd05514c629c","bdp_lott","Sat Mar 25 2023 22:44:15 GMT-0700 (Pacific Daylight Time)","292011","red","green","","","","","","","136","","","","","","[{""stimulus"":""img/green_ll/1.jpg"",""time"":65},{""stimulus"":""img/green_ll/2.jpg"",""time"":112},{""stimulus"":""img/green_ll/3.jpg"",""time"":159},{""stimulus"":""img/green_ll/4.jpg"",""time"":201},{""stimulus"":""img/green_ll/5.jpg"",""time"":252},{""stimulus"":""img/green_ll/6.jpg"",""time"":301},{""stimulus"":""img/green_ll/7.jpg"",""time"":362},{""stimulus"":""img/green_ll/8.jpg"",""time"":409},{""stimulus"":""img/green_ll/9.jpg"",""time"":456},{""stimulus"":""img/green_ll/10.jpg"",""time"":501},{""stimulus"":""img/green_ll/11.jpg"",""time"":550}]","[]"
"image-keyboard-response","185","104271","0.0-5.0-1.90","63e51ddb19fccd05514c629c","bdp_lott","Sat Mar 25 2023 22:44:15 GMT-0700 (Pacific Daylight Time)","292011","red","green","","683","","img/green_ll/choose11.jpg","2","choice","135","red","0.5","0.1","0.5","w","",""
"animation","186","104878","0.0-5.0-2.90","63e51ddb19fccd05514c629c","bdp_lott","Sat Mar 25 2023 22:44:15 GMT-0700 (Pacific Daylight Time)","292011","red","green","","","","","","","135","","","","","","[{""stimulus"":""img/red_lw/1.jpg"",""time"":58},{""stimulus"":""img/red_lw/2.jpg"",""time"":104},{""stimulus"":""img/red_lw/3.jpg"",""time"":151},{""stimulus"":""img/red_lw/4.jpg"",""time"":200},{""stimulus"":""img/red_lw/5.jpg"",""time"":262},{""stimulus"":""img/red_lw/6.jpg"",""time"":308},{""stimulus"":""img/red_lw/7.jpg"",""time"":356},{""stimulus"":""img/red_lw/8.jpg"",""time"":400},{""stimulus"":""img/red_lw/9.jpg"",""time"":450},{""stimulus"":""img/red_lw/10.jpg"",""time"":500},{""stimulus"":""img/red_lw/11.jpg"",""time"":550}]","[]"
"image-keyboard-response","187","105913","0.0-5.0-1.91","63e51ddb19fccd05514c629c","bdp_lott","Sat Mar 25 2023 22:44:15 GMT-0700 (Pacific Daylight Time)","292011","red","green","","1035","","img/red_lw/choose11.jpg","1","choice","134","green","0.5","0.1","0.1","w","",""
"animation","188","106514","0.0-5.0-2.91","63e51ddb19fccd05514c629c","bdp_lott","Sat Mar 25 2023 22:44:15 GMT-0700 (Pacific Daylight Time)","292011","red","green","","","","","","","134","","","","","","[{""stimulus"":""img/green_ww/1.jpg"",""time"":52},{""stimulus"":""img/green_ww/2.jpg"",""time"":115},{""stimulus"":""img/green_ww/3.jpg"",""time"":162},{""stimulus"":""img/green_ww/4.jpg"",""time"":201},{""stimulus"":""img/green_ww/5.jpg"",""time"":251},{""stimulus"":""img/green_ww/6.jpg"",""time"":302},{""stimulus"":""img/green_ww/7.jpg"",""time"":366},{""stimulus"":""img/green_ww/8.jpg"",""time"":401},{""stimulus"":""img/green_ww/9.jpg"",""time"":461},{""stimulus"":""img/green_ww/10.jpg"",""time"":508},{""stimulus"":""img/green_ww/11.jpg"",""time"":551}]","[]"
"image-keyboard-response","189","107356","0.0-5.0-1.92","63e51ddb19fccd05514c629c","bdp_lott","Sat Mar 25 2023 22:44:15 GMT-0700 (Pacific Daylight Time)","292011","red","green","","840","","img/green_ww/choose11.jpg","2","choice","133","red","0.5","0.1","0.5","w","",""
"animation","190","107956","0.0-5.0-2.92","63e51ddb19fccd05514c629c","bdp_lott","Sat Mar 25 2023 22:44:15 GMT-0700 (Pacific Daylight Time)","292011","red","green","","","","","","","133","","","","","","[{""stimulus"":""img/red_ww/1.jpg"",""time"":60},{""stimulus"":""img/red_ww/2.jpg"",""time"":106},{""stimulus"":""img/red_ww/3.jpg"",""time"":152},{""stimulus"":""img/red_ww/4.jpg"",""time"":201},{""stimulus"":""img/red_ww/5.jpg"",""time"":261},{""stimulus"":""img/red_ww/6.jpg"",""time"":300},{""stimulus"":""img/red_ww/7.jpg"",""time"":350},{""stimulus"":""img/red_ww/8.jpg"",""time"":401},{""stimulus"":""img/red_ww/9.jpg"",""time"":451},{""stimulus"":""img/red_ww/10.jpg"",""time"":510},{""stimulus"":""img/red_ww/11.jpg"",""time"":551}]","[]"
"image-keyboard-response","191","108518","0.0-5.0-1.93","63e51ddb19fccd05514c629c","bdp_lott","Sat Mar 25 2023 22:44:15 GMT-0700 (Pacific Daylight Time)","292011","red","green","","562","","img/red_ww/choose11.jpg","2","choice","132","red","0.5","0.1","0.5","w","",""
"animation","192","109119","0.0-5.0-2.93","63e51ddb19fccd05514c629c","bdp_lott","Sat Mar 25 2023 22:44:15 GMT-0700 (Pacific Daylight Time)","292011","red","green","","","","","","","132","","","","","","[{""stimulus"":""img/red_ww/1.jpg"",""time"":52},{""stimulus"":""img/red_ww/2.jpg"",""time"":114},{""stimulus"":""img/red_ww/3.jpg"",""time"":161},{""stimulus"":""img/red_ww/4.jpg"",""time"":208},{""stimulus"":""img/red_ww/5.jpg"",""time"":255},{""stimulus"":""img/red_ww/6.jpg"",""time"":301},{""stimulus"":""img/red_ww/7.jpg"",""time"":365},{""stimulus"":""img/red_ww/8.jpg"",""time"":402},{""stimulus"":""img/red_ww/9.jpg"",""time"":451},{""stimulus"":""img/red_ww/10.jpg"",""time"":505},{""stimulus"":""img/red_ww/11.jpg"",""time"":567}]","[]"
"image-keyboard-response","193","109497","0.0-5.0-1.94","63e51ddb19fccd05514c629c","bdp_lott","Sat Mar 25 2023 22:44:15 GMT-0700 (Pacific Daylight Time)","292011","red","green","","378","","img/red_ww/choose11.jpg","1","choice","131","green","0.5","0.1","0.1","l","",""
"animation","194","110112","0.0-5.0-2.94","63e51ddb19fccd05514c629c","bdp_lott","Sat Mar 25 2023 22:44:15 GMT-0700 (Pacific Daylight Time)","292011","red","green","","","","","","","131","","","","","","[{""stimulus"":""img/green_lw/1.jpg"",""time"":54},{""stimulus"":""img/green_lw/2.jpg"",""time"":102},{""stimulus"":""img/green_lw/3.jpg"",""time"":163},{""stimulus"":""img/green_lw/4.jpg"",""time"":211},{""stimulus"":""img/green_lw/5.jpg"",""time"":252},{""stimulus"":""img/green_lw/6.jpg"",""time"":304},{""stimulus"":""img/green_lw/7.jpg"",""time"":351},{""stimulus"":""img/green_lw/8.jpg"",""time"":402},{""stimulus"":""img/green_lw/9.jpg"",""time"":452},{""stimulus"":""img/green_lw/10.jpg"",""time"":506},{""stimulus"":""img/green_lw/11.jpg"",""time"":552}]","[]"
"image-keyboard-response","195","111055","0.0-5.0-1.95","63e51ddb19fccd05514c629c","bdp_lott","Sat Mar 25 2023 22:44:15 GMT-0700 (Pacific Daylight Time)","292011","red","green","","943","","img/green_lw/choose11.jpg","2","choice","130","red","0.5","0.1","0.5","l","",""
