"trial_type","trial_index","time_elapsed","internal_node_id","subject_id","task","startTime","totalTime","fairMachine","unfairMachine","view_history","rt","event","trial","time","trialtype","success","stimulus","key_press","roundsLeft","chosen","pFairMachWin","pUnfairMachWin","pTrialWin","outcome","animation_sequence","responses"
"pavlovia","0","2","0.0-0.0","63d2bc12a843f8466a8f83e0","bdp_lott","Sun Apr 09 2023 20:59:00 GMT-0400 (Eastern Daylight Time)","297538","green","red","","","","","","","","","","","","","","","","",""
"instructions","1","5304","0.0-1.0","63d2bc12a843f8466a8f83e0","bdp_lott","Sun Apr 09 2023 20:59:00 GMT-0400 (Eastern Daylight Time)","297538","green","red","[{""page_index"":0,""viewing_time"":5302}]","5302","","","","","","","","","","","","","","",""
"","","","","63d2bc12a843f8466a8f83e0","bdp_lott","Sun Apr 09 2023 20:59:00 GMT-0400 (Eastern Daylight Time)","297538","green","red","","","fullscreenenter","2","8038","fullscreenenter","","","","","","","","","","",""
"fullscreen","2","9040","0.0-2.0","63d2bc12a843f8466a8f83e0","bdp_lott","Sun Apr 09 2023 20:59:00 GMT-0400 (Eastern Daylight Time)","297538","green","red","","","","","","","true","","","","","","","","","",""
"instructions","3","41639","0.0-4.0","63d2bc12a843f8466a8f83e0","bdp_lott","Sun Apr 09 2023 20:59:00 GMT-0400 (Eastern Daylight Time)","297538","green","red","[{""page_index"":0,""viewing_time"":32599}]","32599","","","","","","","","","","","","","","",""
"image-keyboard-response","4","43820","0.0-5.0-1.0","63d2bc12a843f8466a8f83e0","bdp_lott","Sun Apr 09 2023 20:59:00 GMT-0400 (Eastern Daylight Time)","297538","green","red","","2180","","","","choice","","img/red_ll/initchoose11.jpg","1","225","green","0.5","0.5","0.5","w","",""
"animation","5","44427","0.0-5.0-2.0","63d2bc12a843f8466a8f83e0","bdp_lott","Sun Apr 09 2023 20:59:00 GMT-0400 (Eastern Daylight Time)","297538","green","red","","","","","","","","","","225","","","","","","[{""stimulus"":""img/green_wl/1.jpg"",""time"":66},{""stimulus"":""img/green_wl/2.jpg"",""time"":113},{""stimulus"":""img/green_wl/3.jpg"",""time"":162},{""stimulus"":""img/green_wl/4.jpg"",""time"":203},{""stimulus"":""img/green_wl/5.jpg"",""time"":257},{""stimulus"":""img/green_wl/6.jpg"",""time"":306},{""stimulus"":""img/green_wl/7.jpg"",""time"":353},{""stimulus"":""img/green_wl/8.jpg"",""time"":402},{""stimulus"":""img/green_wl/9.jpg"",""time"":451},{""stimulus"":""img/green_wl/10.jpg"",""time"":512},{""stimulus"":""img/green_wl/11.jpg"",""time"":551}]","[]"
"image-keyboard-response","6","45935","0.0-5.0-1.1","63d2bc12a843f8466a8f83e0","bdp_lott","Sun Apr 09 2023 20:59:00 GMT-0400 (Eastern Daylight Time)","297538","green","red","","1507","","","","choice","","img/green_wl/choose11.jpg","1","224","green","0.5","0.5","0.5","w","",""
"animation","7","46546","0.0-5.0-2.1","63d2bc12a843f8466a8f83e0","bdp_lott","Sun Apr 09 2023 20:59:00 GMT-0400 (Eastern Daylight Time)","297538","green","red","","","","","","","","","","224","","","","","","[{""stimulus"":""img/green_wl/1.jpg"",""time"":51},{""stimulus"":""img/green_wl/2.jpg"",""time"":105},{""stimulus"":""img/green_wl/3.jpg"",""time"":151},{""stimulus"":""img/green_wl/4.jpg"",""time"":201},{""stimulus"":""img/green_wl/5.jpg"",""time"":264},{""stimulus"":""img/green_wl/6.jpg"",""time"":310},{""stimulus"":""img/green_wl/7.jpg"",""time"":357},{""stimulus"":""img/green_wl/8.jpg"",""time"":401},{""stimulus"":""img/green_wl/9.jpg"",""time"":453},{""stimulus"":""img/green_wl/10.jpg"",""time"":516},{""stimulus"":""img/green_wl/11.jpg"",""time"":563}]","[]"
"image-keyboard-response","8","47941","0.0-5.0-1.2","63d2bc12a843f8466a8f83e0","bdp_lott","Sun Apr 09 2023 20:59:00 GMT-0400 (Eastern Daylight Time)","297538","green","red","","1395","","","","choice","","img/green_wl/choose11.jpg","1","223","green","0.5","0.5","0.5","w","",""
"animation","9","48541","0.0-5.0-2.2","63d2bc12a843f8466a8f83e0","bdp_lott","Sun Apr 09 2023 20:59:00 GMT-0400 (Eastern Daylight Time)","297538","green","red","","","","","","","","","","223","","","","","","[{""stimulus"":""img/green_wl/1.jpg"",""time"":50},{""stimulus"":""img/green_wl/2.jpg"",""time"":100},{""stimulus"":""img/green_wl/3.jpg"",""time"":165},{""stimulus"":""img/green_wl/4.jpg"",""time"":213},{""stimulus"":""img/green_wl/5.jpg"",""time"":261},{""stimulus"":""img/green_wl/6.jpg"",""time"":309},{""stimulus"":""img/green_wl/7.jpg"",""time"":350},{""stimulus"":""img/green_wl/8.jpg"",""time"":400},{""stimulus"":""img/green_wl/9.jpg"",""time"":450},{""stimulus"":""img/green_wl/10.jpg"",""time"":501},{""stimulus"":""img/green_wl/11.jpg"",""time"":565}]","[]"
"image-keyboard-response","10","49756","0.0-5.0-1.3","63d2bc12a843f8466a8f83e0","bdp_lott","Sun Apr 09 2023 20:59:00 GMT-0400 (Eastern Daylight Time)","297538","green","red","","1214","","","","choice","","img/green_wl/choose11.jpg","1","222","green","0.5","0.5","0.5","w","",""
"animation","11","50357","0.0-5.0-2.3","63d2bc12a843f8466a8f83e0","bdp_lott","Sun Apr 09 2023 20:59:00 GMT-0400 (Eastern Daylight Time)","297538","green","red","","","","","","","","","","222","","","","","","[{""stimulus"":""img/green_wl/1.jpg"",""time"":61},{""stimulus"":""img/green_wl/2.jpg"",""time"":109},{""stimulus"":""img/green_wl/3.jpg"",""time"":157},{""stimulus"":""img/green_wl/4.jpg"",""time"":205},{""stimulus"":""img/green_wl/5.jpg"",""time"":253},{""stimulus"":""img/green_wl/6.jpg"",""time"":301},{""stimulus"":""img/green_wl/7.jpg"",""time"":365},{""stimulus"":""img/green_wl/8.jpg"",""time"":413},{""stimulus"":""img/green_wl/9.jpg"",""time"":461},{""stimulus"":""img/green_wl/10.jpg"",""time"":508},{""stimulus"":""img/green_wl/11.jpg"",""time"":555}]","[]"
"image-keyboard-response","12","51493","0.0-5.0-1.4","63d2bc12a843f8466a8f83e0","bdp_lott","Sun Apr 09 2023 20:59:00 GMT-0400 (Eastern Daylight Time)","297538","green","red","","1136","","","","choice","","img/green_wl/choose11.jpg","1","221","green","0.5","0.5","0.5","l","",""
"animation","13","52101","0.0-5.0-2.4","63d2bc12a843f8466a8f83e0","bdp_lott","Sun Apr 09 2023 20:59:00 GMT-0400 (Eastern Daylight Time)","297538","green","red","","","","","","","","","","221","","","","","","[{""stimulus"":""img/green_ll/1.jpg"",""time"":50},{""stimulus"":""img/green_ll/2.jpg"",""time"":100},{""stimulus"":""img/green_ll/3.jpg"",""time"":160},{""stimulus"":""img/green_ll/4.jpg"",""time"":208},{""stimulus"":""img/green_ll/5.jpg"",""time"":250},{""stimulus"":""img/green_ll/6.jpg"",""time"":304},{""stimulus"":""img/green_ll/7.jpg"",""time"":350},{""stimulus"":""img/green_ll/8.jpg"",""time"":400},{""stimulus"":""img/green_ll/9.jpg"",""time"":450},{""stimulus"":""img/green_ll/10.jpg"",""time"":512},{""stimulus"":""img/green_ll/11.jpg"",""time"":550}]","[]"
"image-keyboard-response","14","52699","0.0-5.0-1.5","63d2bc12a843f8466a8f83e0","bdp_lott","Sun Apr 09 2023 20:59:00 GMT-0400 (Eastern Daylight Time)","297538","green","red","","597","","","","choice","","img/green_ll/choose11.jpg","2","220","red","0.5","0.5","0.5","l","",""
"animation","15","53299","0.0-5.0-2.5","63d2bc12a843f8466a8f83e0","bdp_lott","Sun Apr 09 2023 20:59:00 GMT-0400 (Eastern Daylight Time)","297538","green","red","","","","","","","","","","220","","","","","","[{""stimulus"":""img/red_ll/1.jpg"",""time"":58},{""stimulus"":""img/red_ll/2.jpg"",""time"":106},{""stimulus"":""img/red_ll/3.jpg"",""time"":154},{""stimulus"":""img/red_ll/4.jpg"",""time"":202},{""stimulus"":""img/red_ll/5.jpg"",""time"":251},{""stimulus"":""img/red_ll/6.jpg"",""time"":315},{""stimulus"":""img/red_ll/7.jpg"",""time"":351},{""stimulus"":""img/red_ll/8.jpg"",""time"":410},{""stimulus"":""img/red_ll/9.jpg"",""time"":457},{""stimulus"":""img/red_ll/10.jpg"",""time"":505},{""stimulus"":""img/red_ll/11.jpg"",""time"":553}]","[]"
"image-keyboard-response","16","53959","0.0-5.0-1.6","63d2bc12a843f8466a8f83e0","bdp_lott","Sun Apr 09 2023 20:59:00 GMT-0400 (Eastern Daylight Time)","297538","green","red","","659","","","","choice","","img/red_ll/choose11.jpg","1","219","green","0.5","0.5","0.5","w","",""
"animation","17","54574","0.0-5.0-2.6","63d2bc12a843f8466a8f83e0","bdp_lott","Sun Apr 09 2023 20:59:00 GMT-0400 (Eastern Daylight Time)","297538","green","red","","","","","","","","","","219","","","","","","[{""stimulus"":""img/green_wl/1.jpg"",""time"":57},{""stimulus"":""img/green_wl/2.jpg"",""time"":101},{""stimulus"":""img/green_wl/3.jpg"",""time"":151},{""stimulus"":""img/green_wl/4.jpg"",""time"":215},{""stimulus"":""img/green_wl/5.jpg"",""time"":263},{""stimulus"":""img/green_wl/6.jpg"",""time"":301},{""stimulus"":""img/green_wl/7.jpg"",""time"":359},{""stimulus"":""img/green_wl/8.jpg"",""time"":401},{""stimulus"":""img/green_wl/9.jpg"",""time"":451},{""stimulus"":""img/green_wl/10.jpg"",""time"":503},{""stimulus"":""img/green_wl/11.jpg"",""time"":551}]","[]"
"image-keyboard-response","18","55300","0.0-5.0-1.7","63d2bc12a843f8466a8f83e0","bdp_lott","Sun Apr 09 2023 20:59:00 GMT-0400 (Eastern Daylight Time)","297538","green","red","","726","","","","choice","","img/green_wl/choose11.jpg","1","218","green","0.5","0.5","0.5","l","",""
"animation","19","55916","0.0-5.0-2.7","63d2bc12a843f8466a8f83e0","bdp_lott","Sun Apr 09 2023 20:59:00 GMT-0400 (Eastern Daylight Time)","297538","green","red","","","","","","","","","","218","","","","","","[{""stimulus"":""img/green_ll/1.jpg"",""time"":58},{""stimulus"":""img/green_ll/2.jpg"",""time"":106},{""stimulus"":""img/green_ll/3.jpg"",""time"":154},{""stimulus"":""img/green_ll/4.jpg"",""time"":202},{""stimulus"":""img/green_ll/5.jpg"",""time"":266},{""stimulus"":""img/green_ll/6.jpg"",""time"":312},{""stimulus"":""img/green_ll/7.jpg"",""time"":360},{""stimulus"":""img/green_ll/8.jpg"",""time"":408},{""stimulus"":""img/green_ll/9.jpg"",""time"":456},{""stimulus"":""img/green_ll/10.jpg"",""time"":504},{""stimulus"":""img/green_ll/11.jpg"",""time"":552}]","[]"
"image-keyboard-response","20","56506","0.0-5.0-1.8","63d2bc12a843f8466a8f83e0","bdp_lott","Sun Apr 09 2023 20:59:00 GMT-0400 (Eastern Daylight Time)","297538","green","red","","590","","","","choice","","img/green_ll/choose11.jpg","2","217","red","0.5","0.5","0.5","w","",""
"animation","21","57110","0.0-5.0-2.8","63d2bc12a843f8466a8f83e0","bdp_lott","Sun Apr 09 2023 20:59:00 GMT-0400 (Eastern Daylight Time)","297538","green","red","","","","","","","","","","217","","","","","","[{""stimulus"":""img/red_lw/1.jpg"",""time"":51},{""stimulus"":""img/red_lw/2.jpg"",""time"":110},{""stimulus"":""img/red_lw/3.jpg"",""time"":151},{""stimulus"":""img/red_lw/4.jpg"",""time"":206},{""stimulus"":""img/red_lw/5.jpg"",""time"":251},{""stimulus"":""img/red_lw/6.jpg"",""time"":302},{""stimulus"":""img/red_lw/7.jpg"",""time"":365},{""stimulus"":""img/red_lw/8.jpg"",""time"":412},{""stimulus"":""img/red_lw/9.jpg"",""time"":460},{""stimulus"":""img/red_lw/10.jpg"",""time"":508},{""stimulus"":""img/red_lw/11.jpg"",""time"":556}]","[]"
"image-keyboard-response","22","58004","0.0-5.0-1.9","63d2bc12a843f8466a8f83e0","bdp_lott","Sun Apr 09 2023 20:59:00 GMT-0400 (Eastern Daylight Time)","297538","green","red","","894","","","","choice","","img/red_lw/choose11.jpg","2","216","red","0.5","0.5","0.5","l","",""
"animation","23","58604","0.0-5.0-2.9","63d2bc12a843f8466a8f83e0","bdp_lott","Sun Apr 09 2023 20:59:00 GMT-0400 (Eastern Daylight Time)","297538","green","red","","","","","","","","","","216","","","","","","[{""stimulus"":""img/red_ll/1.jpg"",""time"":59},{""stimulus"":""img/red_ll/2.jpg"",""time"":107},{""stimulus"":""img/red_ll/3.jpg"",""time"":150},{""stimulus"":""img/red_ll/4.jpg"",""time"":201},{""stimulus"":""img/red_ll/5.jpg"",""time"":265},{""stimulus"":""img/red_ll/6.jpg"",""time"":313},{""stimulus"":""img/red_ll/7.jpg"",""time"":350},{""stimulus"":""img/red_ll/8.jpg"",""time"":400},{""stimulus"":""img/red_ll/9.jpg"",""time"":450},{""stimulus"":""img/red_ll/10.jpg"",""time"":503},{""stimulus"":""img/red_ll/11.jpg"",""time"":550}]","[]"
"image-keyboard-response","24","59075","0.0-5.0-1.10","63d2bc12a843f8466a8f83e0","bdp_lott","Sun Apr 09 2023 20:59:00 GMT-0400 (Eastern Daylight Time)","297538","green","red","","470","","","","choice","","img/red_ll/choose11.jpg","1","215","green","0.5","0.5","0.5","l","",""
"animation","25","59675","0.0-5.0-2.10","63d2bc12a843f8466a8f83e0","bdp_lott","Sun Apr 09 2023 20:59:00 GMT-0400 (Eastern Daylight Time)","297538","green","red","","","","","","","","","","215","","","","","","[{""stimulus"":""img/green_ll/1.jpg"",""time"":56},{""stimulus"":""img/green_ll/2.jpg"",""time"":100},{""stimulus"":""img/green_ll/3.jpg"",""time"":150},{""stimulus"":""img/green_ll/4.jpg"",""time"":214},{""stimulus"":""img/green_ll/5.jpg"",""time"":250},{""stimulus"":""img/green_ll/6.jpg"",""time"":308},{""stimulus"":""img/green_ll/7.jpg"",""time"":351},{""stimulus"":""img/green_ll/8.jpg"",""time"":405},{""stimulus"":""img/green_ll/9.jpg"",""time"":453},{""stimulus"":""img/green_ll/10.jpg"",""time"":501},{""stimulus"":""img/green_ll/11.jpg"",""time"":565}]","[]"
"image-keyboard-response","26","60522","0.0-5.0-1.11","63d2bc12a843f8466a8f83e0","bdp_lott","Sun Apr 09 2023 20:59:00 GMT-0400 (Eastern Daylight Time)","297538","green","red","","846","","","","choice","","img/green_ll/choose11.jpg","2","214","red","0.5","0.5","0.5","w","",""
"animation","27","61132","0.0-5.0-2.11","63d2bc12a843f8466a8f83e0","bdp_lott","Sun Apr 09 2023 20:59:00 GMT-0400 (Eastern Daylight Time)","297538","green","red","","","","","","","","","","214","","","","","","[{""stimulus"":""img/red_lw/1.jpg"",""time"":58},{""stimulus"":""img/red_lw/2.jpg"",""time"":106},{""stimulus"":""img/red_lw/3.jpg"",""time"":151},{""stimulus"":""img/red_lw/4.jpg"",""time"":202},{""stimulus"":""img/red_lw/5.jpg"",""time"":266},{""stimulus"":""img/red_lw/6.jpg"",""time"":312},{""stimulus"":""img/red_lw/7.jpg"",""time"":360},{""stimulus"":""img/red_lw/8.jpg"",""time"":401},{""stimulus"":""img/red_lw/9.jpg"",""time"":454},{""stimulus"":""img/red_lw/10.jpg"",""time"":502},{""stimulus"":""img/red_lw/11.jpg"",""time"":563}]","[]"
"image-keyboard-response","28","62023","0.0-5.0-1.12","63d2bc12a843f8466a8f83e0","bdp_lott","Sun Apr 09 2023 20:59:00 GMT-0400 (Eastern Daylight Time)","297538","green","red","","891","","","","choice","","img/red_lw/choose11.jpg","2","213","red","0.5","0.5","0.5","l","",""
"animation","29","62630","0.0-5.0-2.12","63d2bc12a843f8466a8f83e0","bdp_lott","Sun Apr 09 2023 20:59:00 GMT-0400 (Eastern Daylight Time)","297538","green","red","","","","","","","","","","213","","","","","","[{""stimulus"":""img/red_ll/1.jpg"",""time"":65},{""stimulus"":""img/red_ll/2.jpg"",""time"":100},{""stimulus"":""img/red_ll/3.jpg"",""time"":151},{""stimulus"":""img/red_ll/4.jpg"",""time"":208},{""stimulus"":""img/red_ll/5.jpg"",""time"":255},{""stimulus"":""img/red_ll/6.jpg"",""time"":303},{""stimulus"":""img/red_ll/7.jpg"",""time"":350},{""stimulus"":""img/red_ll/8.jpg"",""time"":400},{""stimulus"":""img/red_ll/9.jpg"",""time"":450},{""stimulus"":""img/red_ll/10.jpg"",""time"":511},{""stimulus"":""img/red_ll/11.jpg"",""time"":550}]","[]"
"image-keyboard-response","30","63240","0.0-5.0-1.13","63d2bc12a843f8466a8f83e0","bdp_lott","Sun Apr 09 2023 20:59:00 GMT-0400 (Eastern Daylight Time)","297538","green","red","","610","","","","choice","","img/red_ll/choose11.jpg","2","212","red","0.5","0.5","0.5","l","",""
"animation","31","63842","0.0-5.0-2.13","63d2bc12a843f8466a8f83e0","bdp_lott","Sun Apr 09 2023 20:59:00 GMT-0400 (Eastern Daylight Time)","297538","green","red","","","","","","","","","","212","","","","","","[{""stimulus"":""img/red_ll/1.jpg"",""time"":58},{""stimulus"":""img/red_ll/2.jpg"",""time"":106},{""stimulus"":""img/red_ll/3.jpg"",""time"":154},{""stimulus"":""img/red_ll/4.jpg"",""time"":202},{""stimulus"":""img/red_ll/5.jpg"",""time"":251},{""stimulus"":""img/red_ll/6.jpg"",""time"":314},{""stimulus"":""img/red_ll/7.jpg"",""time"":362},{""stimulus"":""img/red_ll/8.jpg"",""time"":410},{""stimulus"":""img/red_ll/9.jpg"",""time"":459},{""stimulus"":""img/red_ll/10.jpg"",""time"":506},{""stimulus"":""img/red_ll/11.jpg"",""time"":554}]","[]"
"image-keyboard-response","32","64390","0.0-5.0-1.14","63d2bc12a843f8466a8f83e0","bdp_lott","Sun Apr 09 2023 20:59:00 GMT-0400 (Eastern Daylight Time)","297538","green","red","","547","","","","choice","","img/red_ll/choose11.jpg","2","211","red","0.5","0.5","0.5","w","",""
"animation","33","64995","0.0-5.0-2.14","63d2bc12a843f8466a8f83e0","bdp_lott","Sun Apr 09 2023 20:59:00 GMT-0400 (Eastern Daylight Time)","297538","green","red","","","","","","","","","","211","","","","","","[{""stimulus"":""img/red_lw/1.jpg"",""time"":61},{""stimulus"":""img/red_lw/2.jpg"",""time"":101},{""stimulus"":""img/red_lw/3.jpg"",""time"":157},{""stimulus"":""img/red_lw/4.jpg"",""time"":205},{""stimulus"":""img/red_lw/5.jpg"",""time"":253},{""stimulus"":""img/red_lw/6.jpg"",""time"":301},{""stimulus"":""img/red_lw/7.jpg"",""time"":351},{""stimulus"":""img/red_lw/8.jpg"",""time"":413},{""stimulus"":""img/red_lw/9.jpg"",""time"":461},{""stimulus"":""img/red_lw/10.jpg"",""time"":509},{""stimulus"":""img/red_lw/11.jpg"",""time"":551}]","[]"
"image-keyboard-response","34","65824","0.0-5.0-1.15","63d2bc12a843f8466a8f83e0","bdp_lott","Sun Apr 09 2023 20:59:00 GMT-0400 (Eastern Daylight Time)","297538","green","red","","829","","","","choice","","img/red_lw/choose11.jpg","2","210","red","0.5","0.5","0.5","w","",""
"animation","35","66425","0.0-5.0-2.15","63d2bc12a843f8466a8f83e0","bdp_lott","Sun Apr 09 2023 20:59:00 GMT-0400 (Eastern Daylight Time)","297538","green","red","","","","","","","","","","210","","","","","","[{""stimulus"":""img/red_lw/1.jpg"",""time"":64},{""stimulus"":""img/red_lw/2.jpg"",""time"":110},{""stimulus"":""img/red_lw/3.jpg"",""time"":157},{""stimulus"":""img/red_lw/4.jpg"",""time"":205},{""stimulus"":""img/red_lw/5.jpg"",""time"":253},{""stimulus"":""img/red_lw/6.jpg"",""time"":301},{""stimulus"":""img/red_lw/7.jpg"",""time"":351},{""stimulus"":""img/red_lw/8.jpg"",""time"":413},{""stimulus"":""img/red_lw/9.jpg"",""time"":461},{""stimulus"":""img/red_lw/10.jpg"",""time"":509},{""stimulus"":""img/red_lw/11.jpg"",""time"":557}]","[]"
"image-keyboard-response","36","67011","0.0-5.0-1.16","63d2bc12a843f8466a8f83e0","bdp_lott","Sun Apr 09 2023 20:59:00 GMT-0400 (Eastern Daylight Time)","297538","green","red","","586","","","","choice","","img/red_lw/choose11.jpg","2","209","red","0.5","0.5","0.5","l","",""
"animation","37","67611","0.0-5.0-2.16","63d2bc12a843f8466a8f83e0","bdp_lott","Sun Apr 09 2023 20:59:00 GMT-0400 (Eastern Daylight Time)","297538","green","red","","","","","","","","","","209","","","","","","[{""stimulus"":""img/red_ll/1.jpg"",""time"":50},{""stimulus"":""img/red_ll/2.jpg"",""time"":106},{""stimulus"":""img/red_ll/3.jpg"",""time"":154},{""stimulus"":""img/red_ll/4.jpg"",""time"":200},{""stimulus"":""img/red_ll/5.jpg"",""time"":250},{""stimulus"":""img/red_ll/6.jpg"",""time"":312},{""stimulus"":""img/red_ll/7.jpg"",""time"":360},{""stimulus"":""img/red_ll/8.jpg"",""time"":400},{""stimulus"":""img/red_ll/9.jpg"",""time"":451},{""stimulus"":""img/red_ll/10.jpg"",""time"":504},{""stimulus"":""img/red_ll/11.jpg"",""time"":550}]","[]"
"image-keyboard-response","38","67974","0.0-5.0-1.17","63d2bc12a843f8466a8f83e0","bdp_lott","Sun Apr 09 2023 20:59:00 GMT-0400 (Eastern Daylight Time)","297538","green","red","","363","","","","choice","","img/red_ll/choose11.jpg","1","208","green","0.5","0.5","0.5","l","",""
"animation","39","68574","0.0-5.0-2.17","63d2bc12a843f8466a8f83e0","bdp_lott","Sun Apr 09 2023 20:59:00 GMT-0400 (Eastern Daylight Time)","297538","green","red","","","","","","","","","","208","","","","","","[{""stimulus"":""img/green_ll/1.jpg"",""time"":51},{""stimulus"":""img/green_ll/2.jpg"",""time"":116},{""stimulus"":""img/green_ll/3.jpg"",""time"":150},{""stimulus"":""img/green_ll/4.jpg"",""time"":211},{""stimulus"":""img/green_ll/5.jpg"",""time"":250},{""stimulus"":""img/green_ll/6.jpg"",""time"":307},{""stimulus"":""img/green_ll/7.jpg"",""time"":355},{""stimulus"":""img/green_ll/8.jpg"",""time"":400},{""stimulus"":""img/green_ll/9.jpg"",""time"":452},{""stimulus"":""img/green_ll/10.jpg"",""time"":516},{""stimulus"":""img/green_ll/11.jpg"",""time"":564}]","[]"
"image-keyboard-response","40","69376","0.0-5.0-1.18","63d2bc12a843f8466a8f83e0","bdp_lott","Sun Apr 09 2023 20:59:00 GMT-0400 (Eastern Daylight Time)","297538","green","red","","801","","","","choice","","img/green_ll/choose11.jpg","2","207","red","0.5","0.5","0.5","l","",""
"animation","41","69990","0.0-5.0-2.18","63d2bc12a843f8466a8f83e0","bdp_lott","Sun Apr 09 2023 20:59:00 GMT-0400 (Eastern Daylight Time)","297538","green","red","","","","","","","","","","207","","","","","","[{""stimulus"":""img/red_ll/1.jpg"",""time"":54},{""stimulus"":""img/red_ll/2.jpg"",""time"":102},{""stimulus"":""img/red_ll/3.jpg"",""time"":166},{""stimulus"":""img/red_ll/4.jpg"",""time"":201},{""stimulus"":""img/red_ll/5.jpg"",""time"":262},{""stimulus"":""img/red_ll/6.jpg"",""time"":310},{""stimulus"":""img/red_ll/7.jpg"",""time"":358},{""stimulus"":""img/red_ll/8.jpg"",""time"":406},{""stimulus"":""img/red_ll/9.jpg"",""time"":454},{""stimulus"":""img/red_ll/10.jpg"",""time"":502},{""stimulus"":""img/red_ll/11.jpg"",""time"":566}]","[]"
"image-keyboard-response","42","70391","0.0-5.0-1.19","63d2bc12a843f8466a8f83e0","bdp_lott","Sun Apr 09 2023 20:59:00 GMT-0400 (Eastern Daylight Time)","297538","green","red","","401","","","","choice","","img/red_ll/choose11.jpg","1","206","green","0.5","0.5","0.5","l","",""
"animation","43","70998","0.0-5.0-2.19","63d2bc12a843f8466a8f83e0","bdp_lott","Sun Apr 09 2023 20:59:00 GMT-0400 (Eastern Daylight Time)","297538","green","red","","","","","","","","","","206","","","","","","[{""stimulus"":""img/green_ll/1.jpg"",""time"":51},{""stimulus"":""img/green_ll/2.jpg"",""time"":111},{""stimulus"":""img/green_ll/3.jpg"",""time"":159},{""stimulus"":""img/green_ll/4.jpg"",""time"":207},{""stimulus"":""img/green_ll/5.jpg"",""time"":255},{""stimulus"":""img/green_ll/6.jpg"",""time"":303},{""stimulus"":""img/green_ll/7.jpg"",""time"":351},{""stimulus"":""img/green_ll/8.jpg"",""time"":415},{""stimulus"":""img/green_ll/9.jpg"",""time"":463},{""stimulus"":""img/green_ll/10.jpg"",""time"":511},{""stimulus"":""img/green_ll/11.jpg"",""time"":551}]","[]"
"image-keyboard-response","44","71455","0.0-5.0-1.20","63d2bc12a843f8466a8f83e0","bdp_lott","Sun Apr 09 2023 20:59:00 GMT-0400 (Eastern Daylight Time)","297538","green","red","","457","","","","choice","","img/green_ll/choose11.jpg","1","205","green","0.5","0.5","0.5","w","",""
"animation","45","72055","0.0-5.0-2.20","63d2bc12a843f8466a8f83e0","bdp_lott","Sun Apr 09 2023 20:59:00 GMT-0400 (Eastern Daylight Time)","297538","green","red","","","","","","","","","","205","","","","","","[{""stimulus"":""img/green_wl/1.jpg"",""time"":51},{""stimulus"":""img/green_wl/2.jpg"",""time"":100},{""stimulus"":""img/green_wl/3.jpg"",""time"":150},{""stimulus"":""img/green_wl/4.jpg"",""time"":211},{""stimulus"":""img/green_wl/5.jpg"",""time"":259},{""stimulus"":""img/green_wl/6.jpg"",""time"":300},{""stimulus"":""img/green_wl/7.jpg"",""time"":350},{""stimulus"":""img/green_wl/8.jpg"",""time"":400},{""stimulus"":""img/green_wl/9.jpg"",""time"":451},{""stimulus"":""img/green_wl/10.jpg"",""time"":513},{""stimulus"":""img/green_wl/11.jpg"",""time"":550}]","[]"
"image-keyboard-response","46","72737","0.0-5.0-1.21","63d2bc12a843f8466a8f83e0","bdp_lott","Sun Apr 09 2023 20:59:00 GMT-0400 (Eastern Daylight Time)","297538","green","red","","682","","","","choice","","img/green_wl/choose11.jpg","1","204","green","0.5","0.5","0.5","l","",""
"animation","47","73340","0.0-5.0-2.21","63d2bc12a843f8466a8f83e0","bdp_lott","Sun Apr 09 2023 20:59:00 GMT-0400 (Eastern Daylight Time)","297538","green","red","","","","","","","","","","204","","","","","","[{""stimulus"":""img/green_ll/1.jpg"",""time"":62},{""stimulus"":""img/green_ll/2.jpg"",""time"":110},{""stimulus"":""img/green_ll/3.jpg"",""time"":151},{""stimulus"":""img/green_ll/4.jpg"",""time"":206},{""stimulus"":""img/green_ll/5.jpg"",""time"":251},{""stimulus"":""img/green_ll/6.jpg"",""time"":302},{""stimulus"":""img/green_ll/7.jpg"",""time"":366},{""stimulus"":""img/green_ll/8.jpg"",""time"":401},{""stimulus"":""img/green_ll/9.jpg"",""time"":462},{""stimulus"":""img/green_ll/10.jpg"",""time"":510},{""stimulus"":""img/green_ll/11.jpg"",""time"":551}]","[]"
"image-keyboard-response","48","73860","0.0-5.0-1.22","63d2bc12a843f8466a8f83e0","bdp_lott","Sun Apr 09 2023 20:59:00 GMT-0400 (Eastern Daylight Time)","297538","green","red","","519","","","","choice","","img/green_ll/choose11.jpg","2","203","red","0.5","0.5","0.5","w","",""
"animation","49","74461","0.0-5.0-2.22","63d2bc12a843f8466a8f83e0","bdp_lott","Sun Apr 09 2023 20:59:00 GMT-0400 (Eastern Daylight Time)","297538","green","red","","","","","","","","","","203","","","","","","[{""stimulus"":""img/red_lw/1.jpg"",""time"":55},{""stimulus"":""img/red_lw/2.jpg"",""time"":101},{""stimulus"":""img/red_lw/3.jpg"",""time"":151},{""stimulus"":""img/red_lw/4.jpg"",""time"":215},{""stimulus"":""img/red_lw/5.jpg"",""time"":263},{""stimulus"":""img/red_lw/6.jpg"",""time"":311},{""stimulus"":""img/red_lw/7.jpg"",""time"":359},{""stimulus"":""img/red_lw/8.jpg"",""time"":401},{""stimulus"":""img/red_lw/9.jpg"",""time"":455},{""stimulus"":""img/red_lw/10.jpg"",""time"":501},{""stimulus"":""img/red_lw/11.jpg"",""time"":551}]","[]"
"image-keyboard-response","50","75321","0.0-5.0-1.23","63d2bc12a843f8466a8f83e0","bdp_lott","Sun Apr 09 2023 20:59:00 GMT-0400 (Eastern Daylight Time)","297538","green","red","","860","","","","choice","","img/red_lw/choose11.jpg","2","202","red","0.5","0.5","0.5","w","",""
"animation","51","75925","0.0-5.0-2.23","63d2bc12a843f8466a8f83e0","bdp_lott","Sun Apr 09 2023 20:59:00 GMT-0400 (Eastern Daylight Time)","297538","green","red","","","","","","","","","","202","","","","","","[{""stimulus"":""img/red_lw/1.jpg"",""time"":60},{""stimulus"":""img/red_lw/2.jpg"",""time"":100},{""stimulus"":""img/red_lw/3.jpg"",""time"":156},{""stimulus"":""img/red_lw/4.jpg"",""time"":204},{""stimulus"":""img/red_lw/5.jpg"",""time"":252},{""stimulus"":""img/red_lw/6.jpg"",""time"":300},{""stimulus"":""img/red_lw/7.jpg"",""time"":350},{""stimulus"":""img/red_lw/8.jpg"",""time"":412},{""stimulus"":""img/red_lw/9.jpg"",""time"":450},{""stimulus"":""img/red_lw/10.jpg"",""time"":500},{""stimulus"":""img/red_lw/11.jpg"",""time"":550}]","[]"
"image-keyboard-response","52","76440","0.0-5.0-1.24","63d2bc12a843f8466a8f83e0","bdp_lott","Sun Apr 09 2023 20:59:00 GMT-0400 (Eastern Daylight Time)","297538","green","red","","515","","","","choice","","img/red_lw/choose11.jpg","2","201","red","0.5","0.5","0.5","w","",""
"animation","53","77040","0.0-5.0-2.24","63d2bc12a843f8466a8f83e0","bdp_lott","Sun Apr 09 2023 20:59:00 GMT-0400 (Eastern Daylight Time)","297538","green","red","","","","","","","","","","201","","","","","","[{""stimulus"":""img/red_lw/1.jpg"",""time"":50},{""stimulus"":""img/red_lw/2.jpg"",""time"":100},{""stimulus"":""img/red_lw/3.jpg"",""time"":156},{""stimulus"":""img/red_lw/4.jpg"",""time"":200},{""stimulus"":""img/red_lw/5.jpg"",""time"":250},{""stimulus"":""img/red_lw/6.jpg"",""time"":315},{""stimulus"":""img/red_lw/7.jpg"",""time"":350},{""stimulus"":""img/red_lw/8.jpg"",""time"":411},{""stimulus"":""img/red_lw/9.jpg"",""time"":450},{""stimulus"":""img/red_lw/10.jpg"",""time"":500},{""stimulus"":""img/red_lw/11.jpg"",""time"":555}]","[]"
"image-keyboard-response","54","77479","0.0-5.0-1.25","63d2bc12a843f8466a8f83e0","bdp_lott","Sun Apr 09 2023 20:59:00 GMT-0400 (Eastern Daylight Time)","297538","green","red","","438","","","","choice","","img/red_lw/choose11.jpg","2","200","red","0.5","0.5","0.5","l","",""
"animation","55","78079","0.0-5.0-2.25","63d2bc12a843f8466a8f83e0","bdp_lott","Sun Apr 09 2023 20:59:00 GMT-0400 (Eastern Daylight Time)","297538","green","red","","","","","","","","","","200","","","","","","[{""stimulus"":""img/red_ll/1.jpg"",""time"":50},{""stimulus"":""img/red_ll/2.jpg"",""time"":100},{""stimulus"":""img/red_ll/3.jpg"",""time"":150},{""stimulus"":""img/red_ll/4.jpg"",""time"":200},{""stimulus"":""img/red_ll/5.jpg"",""time"":250},{""stimulus"":""img/red_ll/6.jpg"",""time"":312},{""stimulus"":""img/red_ll/7.jpg"",""time"":350},{""stimulus"":""img/red_ll/8.jpg"",""time"":400},{""stimulus"":""img/red_ll/9.jpg"",""time"":456},{""stimulus"":""img/red_ll/10.jpg"",""time"":504},{""stimulus"":""img/red_ll/11.jpg"",""time"":552}]","[]"
"image-keyboard-response","56","79376","0.0-5.0-1.26","63d2bc12a843f8466a8f83e0","bdp_lott","Sun Apr 09 2023 20:59:00 GMT-0400 (Eastern Daylight Time)","297538","green","red","","1296","","","","choice","","img/red_ll/choose11.jpg","2","199","red","0.5","0.5","0.5","l","",""
"animation","57","79977","0.0-5.0-2.26","63d2bc12a843f8466a8f83e0","bdp_lott","Sun Apr 09 2023 20:59:00 GMT-0400 (Eastern Daylight Time)","297538","green","red","","","","","","","","","","199","","","","","","[{""stimulus"":""img/red_ll/1.jpg"",""time"":51},{""stimulus"":""img/red_ll/2.jpg"",""time"":112},{""stimulus"":""img/red_ll/3.jpg"",""time"":151},{""stimulus"":""img/red_ll/4.jpg"",""time"":208},{""stimulus"":""img/red_ll/5.jpg"",""time"":251},{""stimulus"":""img/red_ll/6.jpg"",""time"":304},{""stimulus"":""img/red_ll/7.jpg"",""time"":352},{""stimulus"":""img/red_ll/8.jpg"",""time"":401},{""stimulus"":""img/red_ll/9.jpg"",""time"":464},{""stimulus"":""img/red_ll/10.jpg"",""time"":512},{""stimulus"":""img/red_ll/11.jpg"",""time"":560}]","[]"
"image-keyboard-response","58","81144","0.0-5.0-1.27","63d2bc12a843f8466a8f83e0","bdp_lott","Sun Apr 09 2023 20:59:00 GMT-0400 (Eastern Daylight Time)","297538","green","red","","1167","","","","choice","","img/red_ll/choose11.jpg","1","198","green","0.5","0.5","0.5","w","",""
"animation","59","81758","0.0-5.0-2.27","63d2bc12a843f8466a8f83e0","bdp_lott","Sun Apr 09 2023 20:59:00 GMT-0400 (Eastern Daylight Time)","297538","green","red","","","","","","","","","","198","","","","","","[{""stimulus"":""img/green_wl/1.jpg"",""time"":54},{""stimulus"":""img/green_wl/2.jpg"",""time"":102},{""stimulus"":""img/green_wl/3.jpg"",""time"":166},{""stimulus"":""img/green_wl/4.jpg"",""time"":214},{""stimulus"":""img/green_wl/5.jpg"",""time"":251},{""stimulus"":""img/green_wl/6.jpg"",""time"":310},{""stimulus"":""img/green_wl/7.jpg"",""time"":358},{""stimulus"":""img/green_wl/8.jpg"",""time"":401},{""stimulus"":""img/green_wl/9.jpg"",""time"":454},{""stimulus"":""img/green_wl/10.jpg"",""time"":502},{""stimulus"":""img/green_wl/11.jpg"",""time"":566}]","[]"
"image-keyboard-response","60","82396","0.0-5.0-1.28","63d2bc12a843f8466a8f83e0","bdp_lott","Sun Apr 09 2023 20:59:00 GMT-0400 (Eastern Daylight Time)","297538","green","red","","638","","","","choice","","img/green_wl/choose11.jpg","1","197","green","0.5","0.5","0.5","w","",""
"animation","61","83006","0.0-5.0-2.28","63d2bc12a843f8466a8f83e0","bdp_lott","Sun Apr 09 2023 20:59:00 GMT-0400 (Eastern Daylight Time)","297538","green","red","","","","","","","","","","197","","","","","","[{""stimulus"":""img/green_wl/1.jpg"",""time"":66},{""stimulus"":""img/green_wl/2.jpg"",""time"":114},{""stimulus"":""img/green_wl/3.jpg"",""time"":151},{""stimulus"":""img/green_wl/4.jpg"",""time"":210},{""stimulus"":""img/green_wl/5.jpg"",""time"":251},{""stimulus"":""img/green_wl/6.jpg"",""time"":306},{""stimulus"":""img/green_wl/7.jpg"",""time"":354},{""stimulus"":""img/green_wl/8.jpg"",""time"":402},{""stimulus"":""img/green_wl/9.jpg"",""time"":466},{""stimulus"":""img/green_wl/10.jpg"",""time"":514},{""stimulus"":""img/green_wl/11.jpg"",""time"":562}]","[]"
"image-keyboard-response","62","83425","0.0-5.0-1.29","63d2bc12a843f8466a8f83e0","bdp_lott","Sun Apr 09 2023 20:59:00 GMT-0400 (Eastern Daylight Time)","297538","green","red","","419","","","","choice","","img/green_wl/choose11.jpg","1","196","green","0.5","0.5","0.5","l","",""
"animation","63","84040","0.0-5.0-2.29","63d2bc12a843f8466a8f83e0","bdp_lott","Sun Apr 09 2023 20:59:00 GMT-0400 (Eastern Daylight Time)","297538","green","red","","","","","","","","","","196","","","","","","[{""stimulus"":""img/green_ll/1.jpg"",""time"":61},{""stimulus"":""img/green_ll/2.jpg"",""time"":100},{""stimulus"":""img/green_ll/3.jpg"",""time"":155},{""stimulus"":""img/green_ll/4.jpg"",""time"":203},{""stimulus"":""img/green_ll/5.jpg"",""time"":250},{""stimulus"":""img/green_ll/6.jpg"",""time"":315},{""stimulus"":""img/green_ll/7.jpg"",""time"":350},{""stimulus"":""img/green_ll/8.jpg"",""time"":400},{""stimulus"":""img/green_ll/9.jpg"",""time"":450},{""stimulus"":""img/green_ll/10.jpg"",""time"":505},{""stimulus"":""img/green_ll/11.jpg"",""time"":550}]","[]"
"image-keyboard-response","64","84583","0.0-5.0-1.30","63d2bc12a843f8466a8f83e0","bdp_lott","Sun Apr 09 2023 20:59:00 GMT-0400 (Eastern Daylight Time)","297538","green","red","","543","","","","choice","","img/green_ll/choose11.jpg","2","195","red","0.5","0.5","0.5","w","",""
"animation","65","85192","0.0-5.0-2.30","63d2bc12a843f8466a8f83e0","bdp_lott","Sun Apr 09 2023 20:59:00 GMT-0400 (Eastern Daylight Time)","297538","green","red","","","","","","","","","","195","","","","","","[{""stimulus"":""img/red_lw/1.jpg"",""time"":65},{""stimulus"":""img/red_lw/2.jpg"",""time"":113},{""stimulus"":""img/red_lw/3.jpg"",""time"":151},{""stimulus"":""img/red_lw/4.jpg"",""time"":209},{""stimulus"":""img/red_lw/5.jpg"",""time"":251},{""stimulus"":""img/red_lw/6.jpg"",""time"":305},{""stimulus"":""img/red_lw/7.jpg"",""time"":353},{""stimulus"":""img/red_lw/8.jpg"",""time"":401},{""stimulus"":""img/red_lw/9.jpg"",""time"":465},{""stimulus"":""img/red_lw/10.jpg"",""time"":513},{""stimulus"":""img/red_lw/11.jpg"",""time"":561}]","[]"
"image-keyboard-response","66","85789","0.0-5.0-1.31","63d2bc12a843f8466a8f83e0","bdp_lott","Sun Apr 09 2023 20:59:00 GMT-0400 (Eastern Daylight Time)","297538","green","red","","596","","","","choice","","img/red_lw/choose11.jpg","2","194","red","0.5","0.5","0.5","l","",""
"animation","67","86393","0.0-5.0-2.31","63d2bc12a843f8466a8f83e0","bdp_lott","Sun Apr 09 2023 20:59:00 GMT-0400 (Eastern Daylight Time)","297538","green","red","","","","","","","","","","194","","","","","","[{""stimulus"":""img/red_ll/1.jpg"",""time"":60},{""stimulus"":""img/red_ll/2.jpg"",""time"":108},{""stimulus"":""img/red_ll/3.jpg"",""time"":151},{""stimulus"":""img/red_ll/4.jpg"",""time"":204},{""stimulus"":""img/red_ll/5.jpg"",""time"":251},{""stimulus"":""img/red_ll/6.jpg"",""time"":316},{""stimulus"":""img/red_ll/7.jpg"",""time"":364},{""stimulus"":""img/red_ll/8.jpg"",""time"":412},{""stimulus"":""img/red_ll/9.jpg"",""time"":460},{""stimulus"":""img/red_ll/10.jpg"",""time"":508},{""stimulus"":""img/red_ll/11.jpg"",""time"":556}]","[]"
"image-keyboard-response","68","86903","0.0-5.0-1.32","63d2bc12a843f8466a8f83e0","bdp_lott","Sun Apr 09 2023 20:59:00 GMT-0400 (Eastern Daylight Time)","297538","green","red","","510","","","","choice","","img/red_ll/choose11.jpg","1","193","green","0.5","0.5","0.5","l","",""
"animation","69","87517","0.0-5.0-2.32","63d2bc12a843f8466a8f83e0","bdp_lott","Sun Apr 09 2023 20:59:00 GMT-0400 (Eastern Daylight Time)","297538","green","red","","","","","","","","","","193","","","","","","[{""stimulus"":""img/green_ll/1.jpg"",""time"":64},{""stimulus"":""img/green_ll/2.jpg"",""time"":112},{""stimulus"":""img/green_ll/3.jpg"",""time"":151},{""stimulus"":""img/green_ll/4.jpg"",""time"":205},{""stimulus"":""img/green_ll/5.jpg"",""time"":252},{""stimulus"":""img/green_ll/6.jpg"",""time"":315},{""stimulus"":""img/green_ll/7.jpg"",""time"":362},{""stimulus"":""img/green_ll/8.jpg"",""time"":408},{""stimulus"":""img/green_ll/9.jpg"",""time"":456},{""stimulus"":""img/green_ll/10.jpg"",""time"":502},{""stimulus"":""img/green_ll/11.jpg"",""time"":566}]","[]"
"image-keyboard-response","70","88102","0.0-5.0-1.33","63d2bc12a843f8466a8f83e0","bdp_lott","Sun Apr 09 2023 20:59:00 GMT-0400 (Eastern Daylight Time)","297538","green","red","","585","","","","choice","","img/green_ll/choose11.jpg","1","192","green","0.5","0.5","0.5","l","",""
"animation","71","88715","0.0-5.0-2.33","63d2bc12a843f8466a8f83e0","bdp_lott","Sun Apr 09 2023 20:59:00 GMT-0400 (Eastern Daylight Time)","297538","green","red","","","","","","","","","","192","","","","","","[{""stimulus"":""img/green_ll/1.jpg"",""time"":50},{""stimulus"":""img/green_ll/2.jpg"",""time"":100},{""stimulus"":""img/green_ll/3.jpg"",""time"":150},{""stimulus"":""img/green_ll/4.jpg"",""time"":215},{""stimulus"":""img/green_ll/5.jpg"",""time"":261},{""stimulus"":""img/green_ll/6.jpg"",""time"":309},{""stimulus"":""img/green_ll/7.jpg"",""time"":350},{""stimulus"":""img/green_ll/8.jpg"",""time"":405},{""stimulus"":""img/green_ll/9.jpg"",""time"":450},{""stimulus"":""img/green_ll/10.jpg"",""time"":500},{""stimulus"":""img/green_ll/11.jpg"",""time"":565}]","[]"
"image-keyboard-response","72","89140","0.0-5.0-1.34","63d2bc12a843f8466a8f83e0","bdp_lott","Sun Apr 09 2023 20:59:00 GMT-0400 (Eastern Daylight Time)","297538","green","red","","425","","","","choice","","img/green_ll/choose11.jpg","2","191","red","0.5","0.5","0.5","w","",""
"animation","73","89740","0.0-5.0-2.34","63d2bc12a843f8466a8f83e0","bdp_lott","Sun Apr 09 2023 20:59:00 GMT-0400 (Eastern Daylight Time)","297538","green","red","","","","","","","","","","191","","","","","","[{""stimulus"":""img/red_lw/1.jpg"",""time"":53},{""stimulus"":""img/red_lw/2.jpg"",""time"":100},{""stimulus"":""img/red_lw/3.jpg"",""time"":165},{""stimulus"":""img/red_lw/4.jpg"",""time"":213},{""stimulus"":""img/red_lw/5.jpg"",""time"":261},{""stimulus"":""img/red_lw/6.jpg"",""time"":309},{""stimulus"":""img/red_lw/7.jpg"",""time"":357},{""stimulus"":""img/red_lw/8.jpg"",""time"":405},{""stimulus"":""img/red_lw/9.jpg"",""time"":450},{""stimulus"":""img/red_lw/10.jpg"",""time"":501},{""stimulus"":""img/red_lw/11.jpg"",""time"":550}]","[]"
"image-keyboard-response","74","90270","0.0-5.0-1.35","63d2bc12a843f8466a8f83e0","bdp_lott","Sun Apr 09 2023 20:59:00 GMT-0400 (Eastern Daylight Time)","297538","green","red","","529","","","","choice","","img/red_lw/choose11.jpg","2","190","red","0.5","0.5","0.5","l","",""
"animation","75","90882","0.0-5.0-2.35","63d2bc12a843f8466a8f83e0","bdp_lott","Sun Apr 09 2023 20:59:00 GMT-0400 (Eastern Daylight Time)","297538","green","red","","","","","","","","","","190","","","","","","[{""stimulus"":""img/red_ll/1.jpg"",""time"":56},{""stimulus"":""img/red_ll/2.jpg"",""time"":101},{""stimulus"":""img/red_ll/3.jpg"",""time"":152},{""stimulus"":""img/red_ll/4.jpg"",""time"":216},{""stimulus"":""img/red_ll/5.jpg"",""time"":264},{""stimulus"":""img/red_ll/6.jpg"",""time"":312},{""stimulus"":""img/red_ll/7.jpg"",""time"":358},{""stimulus"":""img/red_ll/8.jpg"",""time"":401},{""stimulus"":""img/red_ll/9.jpg"",""time"":454},{""stimulus"":""img/red_ll/10.jpg"",""time"":516},{""stimulus"":""img/red_ll/11.jpg"",""time"":551}]","[]"
"image-keyboard-response","76","91402","0.0-5.0-1.36","63d2bc12a843f8466a8f83e0","bdp_lott","Sun Apr 09 2023 20:59:00 GMT-0400 (Eastern Daylight Time)","297538","green","red","","520","","","","choice","","img/red_ll/choose11.jpg","2","189","red","0.5","0.5","0.5","l","",""
"animation","77","92012","0.0-5.0-2.36","63d2bc12a843f8466a8f83e0","bdp_lott","Sun Apr 09 2023 20:59:00 GMT-0400 (Eastern Daylight Time)","297538","green","red","","","","","","","","","","189","","","","","","[{""stimulus"":""img/red_ll/1.jpg"",""time"":54},{""stimulus"":""img/red_ll/2.jpg"",""time"":102},{""stimulus"":""img/red_ll/3.jpg"",""time"":166},{""stimulus"":""img/red_ll/4.jpg"",""time"":214},{""stimulus"":""img/red_ll/5.jpg"",""time"":262},{""stimulus"":""img/red_ll/6.jpg"",""time"":310},{""stimulus"":""img/red_ll/7.jpg"",""time"":358},{""stimulus"":""img/red_ll/8.jpg"",""time"":404},{""stimulus"":""img/red_ll/9.jpg"",""time"":452},{""stimulus"":""img/red_ll/10.jpg"",""time"":516},{""stimulus"":""img/red_ll/11.jpg"",""time"":563}]","[]"
"image-keyboard-response","78","92302","0.0-5.0-1.37","63d2bc12a843f8466a8f83e0","bdp_lott","Sun Apr 09 2023 20:59:00 GMT-0400 (Eastern Daylight Time)","297538","green","red","","290","","","","choice","","img/red_ll/choose11.jpg","2","188","red","0.5","0.5","0.5","w","",""
"animation","79","92908","0.0-5.0-2.37","63d2bc12a843f8466a8f83e0","bdp_lott","Sun Apr 09 2023 20:59:00 GMT-0400 (Eastern Daylight Time)","297538","green","red","","","","","","","","","","188","","","","","","[{""stimulus"":""img/red_lw/1.jpg"",""time"":62},{""stimulus"":""img/red_lw/2.jpg"",""time"":110},{""stimulus"":""img/red_lw/3.jpg"",""time"":158},{""stimulus"":""img/red_lw/4.jpg"",""time"":206},{""stimulus"":""img/red_lw/5.jpg"",""time"":251},{""stimulus"":""img/red_lw/6.jpg"",""time"":302},{""stimulus"":""img/red_lw/7.jpg"",""time"":366},{""stimulus"":""img/red_lw/8.jpg"",""time"":414},{""stimulus"":""img/red_lw/9.jpg"",""time"":462},{""stimulus"":""img/red_lw/10.jpg"",""time"":510},{""stimulus"":""img/red_lw/11.jpg"",""time"":558}]","[]"
"image-keyboard-response","80","93501","0.0-5.0-1.38","63d2bc12a843f8466a8f83e0","bdp_lott","Sun Apr 09 2023 20:59:00 GMT-0400 (Eastern Daylight Time)","297538","green","red","","593","","","","choice","","img/red_lw/choose11.jpg","2","187","red","0.5","0.5","0.5","l","",""
"animation","81","94106","0.0-5.0-2.38","63d2bc12a843f8466a8f83e0","bdp_lott","Sun Apr 09 2023 20:59:00 GMT-0400 (Eastern Daylight Time)","297538","green","red","","","","","","","","","","187","","","","","","[{""stimulus"":""img/red_ll/1.jpg"",""time"":61},{""stimulus"":""img/red_ll/2.jpg"",""time"":109},{""stimulus"":""img/red_ll/3.jpg"",""time"":150},{""stimulus"":""img/red_ll/4.jpg"",""time"":205},{""stimulus"":""img/red_ll/5.jpg"",""time"":250},{""stimulus"":""img/red_ll/6.jpg"",""time"":301},{""stimulus"":""img/red_ll/7.jpg"",""time"":350},{""stimulus"":""img/red_ll/8.jpg"",""time"":414},{""stimulus"":""img/red_ll/9.jpg"",""time"":461},{""stimulus"":""img/red_ll/10.jpg"",""time"":500},{""stimulus"":""img/red_ll/11.jpg"",""time"":557}]","[]"
"image-keyboard-response","82","94517","0.0-5.0-1.39","63d2bc12a843f8466a8f83e0","bdp_lott","Sun Apr 09 2023 20:59:00 GMT-0400 (Eastern Daylight Time)","297538","green","red","","410","","","","choice","","img/red_ll/choose11.jpg","1","186","green","0.5","0.5","0.5","w","",""
"animation","83","95127","0.0-5.0-2.39","63d2bc12a843f8466a8f83e0","bdp_lott","Sun Apr 09 2023 20:59:00 GMT-0400 (Eastern Daylight Time)","297538","green","red","","","","","","","","","","186","","","","","","[{""stimulus"":""img/green_wl/1.jpg"",""time"":54},{""stimulus"":""img/green_wl/2.jpg"",""time"":117},{""stimulus"":""img/green_wl/3.jpg"",""time"":164},{""stimulus"":""img/green_wl/4.jpg"",""time"":210},{""stimulus"":""img/green_wl/5.jpg"",""time"":258},{""stimulus"":""img/green_wl/6.jpg"",""time"":306},{""stimulus"":""img/green_wl/7.jpg"",""time"":354},{""stimulus"":""img/green_wl/8.jpg"",""time"":402},{""stimulus"":""img/green_wl/9.jpg"",""time"":466},{""stimulus"":""img/green_wl/10.jpg"",""time"":514},{""stimulus"":""img/green_wl/11.jpg"",""time"":562}]","[]"
"image-keyboard-response","84","95541","0.0-5.0-1.40","63d2bc12a843f8466a8f83e0","bdp_lott","Sun Apr 09 2023 20:59:00 GMT-0400 (Eastern Daylight Time)","297538","green","red","","414","","","","choice","","img/green_wl/choose11.jpg","1","185","green","0.5","0.5","0.5","l","",""
"animation","85","96142","0.0-5.0-2.40","63d2bc12a843f8466a8f83e0","bdp_lott","Sun Apr 09 2023 20:59:00 GMT-0400 (Eastern Daylight Time)","297538","green","red","","","","","","","","","","185","","","","","","[{""stimulus"":""img/green_ll/1.jpg"",""time"":51},{""stimulus"":""img/green_ll/2.jpg"",""time"":112},{""stimulus"":""img/green_ll/3.jpg"",""time"":160},{""stimulus"":""img/green_ll/4.jpg"",""time"":208},{""stimulus"":""img/green_ll/5.jpg"",""time"":251},{""stimulus"":""img/green_ll/6.jpg"",""time"":304},{""stimulus"":""img/green_ll/7.jpg"",""time"":352},{""stimulus"":""img/green_ll/8.jpg"",""time"":401},{""stimulus"":""img/green_ll/9.jpg"",""time"":464},{""stimulus"":""img/green_ll/10.jpg"",""time"":501},{""stimulus"":""img/green_ll/11.jpg"",""time"":560}]","[]"
"image-keyboard-response","86","96845","0.0-5.0-1.41","63d2bc12a843f8466a8f83e0","bdp_lott","Sun Apr 09 2023 20:59:00 GMT-0400 (Eastern Daylight Time)","297538","green","red","","702","","","","choice","","img/green_ll/choose11.jpg","1","184","green","0.5","0.5","0.5","l","",""
"animation","87","97453","0.0-5.0-2.41","63d2bc12a843f8466a8f83e0","bdp_lott","Sun Apr 09 2023 20:59:00 GMT-0400 (Eastern Daylight Time)","297538","green","red","","","","","","","","","","184","","","","","","[{""stimulus"":""img/green_ll/1.jpg"",""time"":52},{""stimulus"":""img/green_ll/2.jpg"",""time"":116},{""stimulus"":""img/green_ll/3.jpg"",""time"":151},{""stimulus"":""img/green_ll/4.jpg"",""time"":212},{""stimulus"":""img/green_ll/5.jpg"",""time"":260},{""stimulus"":""img/green_ll/6.jpg"",""time"":308},{""stimulus"":""img/green_ll/7.jpg"",""time"":356},{""stimulus"":""img/green_ll/8.jpg"",""time"":401},{""stimulus"":""img/green_ll/9.jpg"",""time"":466},{""stimulus"":""img/green_ll/10.jpg"",""time"":514},{""stimulus"":""img/green_ll/11.jpg"",""time"":561}]","[]"
"image-keyboard-response","88","97839","0.0-5.0-1.42","63d2bc12a843f8466a8f83e0","bdp_lott","Sun Apr 09 2023 20:59:00 GMT-0400 (Eastern Daylight Time)","297538","green","red","","386","","","","choice","","img/green_ll/choose11.jpg","2","183","red","0.5","0.5","0.5","l","",""
"animation","89","98442","0.0-5.0-2.42","63d2bc12a843f8466a8f83e0","bdp_lott","Sun Apr 09 2023 20:59:00 GMT-0400 (Eastern Daylight Time)","297538","green","red","","","","","","","","","","183","","","","","","[{""stimulus"":""img/red_ll/1.jpg"",""time"":60},{""stimulus"":""img/red_ll/2.jpg"",""time"":108},{""stimulus"":""img/red_ll/3.jpg"",""time"":156},{""stimulus"":""img/red_ll/4.jpg"",""time"":202},{""stimulus"":""img/red_ll/5.jpg"",""time"":252},{""stimulus"":""img/red_ll/6.jpg"",""time"":316},{""stimulus"":""img/red_ll/7.jpg"",""time"":364},{""stimulus"":""img/red_ll/8.jpg"",""time"":412},{""stimulus"":""img/red_ll/9.jpg"",""time"":460},{""stimulus"":""img/red_ll/10.jpg"",""time"":508},{""stimulus"":""img/red_ll/11.jpg"",""time"":556}]","[]"
"image-keyboard-response","90","98975","0.0-5.0-1.43","63d2bc12a843f8466a8f83e0","bdp_lott","Sun Apr 09 2023 20:59:00 GMT-0400 (Eastern Daylight Time)","297538","green","red","","533","","","","choice","","img/red_ll/choose11.jpg","1","182","green","0.5","0.5","0.5","l","",""
"animation","91","99577","0.0-5.0-2.43","63d2bc12a843f8466a8f83e0","bdp_lott","Sun Apr 09 2023 20:59:00 GMT-0400 (Eastern Daylight Time)","297538","green","red","","","","","","","","","","182","","","","","","[{""stimulus"":""img/green_ll/1.jpg"",""time"":50},{""stimulus"":""img/green_ll/2.jpg"",""time"":100},{""stimulus"":""img/green_ll/3.jpg"",""time"":154},{""stimulus"":""img/green_ll/4.jpg"",""time"":202},{""stimulus"":""img/green_ll/5.jpg"",""time"":250},{""stimulus"":""img/green_ll/6.jpg"",""time"":314},{""stimulus"":""img/green_ll/7.jpg"",""time"":362},{""stimulus"":""img/green_ll/8.jpg"",""time"":410},{""stimulus"":""img/green_ll/9.jpg"",""time"":450},{""stimulus"":""img/green_ll/10.jpg"",""time"":506},{""stimulus"":""img/green_ll/11.jpg"",""time"":554}]","[]"
"image-keyboard-response","92","100167","0.0-5.0-1.44","63d2bc12a843f8466a8f83e0","bdp_lott","Sun Apr 09 2023 20:59:00 GMT-0400 (Eastern Daylight Time)","297538","green","red","","590","","","","choice","","img/green_ll/choose11.jpg","1","181","green","0.5","0.5","0.5","w","",""
"animation","93","100767","0.0-5.0-2.44","63d2bc12a843f8466a8f83e0","bdp_lott","Sun Apr 09 2023 20:59:00 GMT-0400 (Eastern Daylight Time)","297538","green","red","","","","","","","","","","181","","","","","","[{""stimulus"":""img/green_wl/1.jpg"",""time"":51},{""stimulus"":""img/green_wl/2.jpg"",""time"":114},{""stimulus"":""img/green_wl/3.jpg"",""time"":162},{""stimulus"":""img/green_wl/4.jpg"",""time"":200},{""stimulus"":""img/green_wl/5.jpg"",""time"":250},{""stimulus"":""img/green_wl/6.jpg"",""time"":307},{""stimulus"":""img/green_wl/7.jpg"",""time"":354},{""stimulus"":""img/green_wl/8.jpg"",""time"":403},{""stimulus"":""img/green_wl/9.jpg"",""time"":451},{""stimulus"":""img/green_wl/10.jpg"",""time"":500},{""stimulus"":""img/green_wl/11.jpg"",""time"":563}]","[]"
"image-keyboard-response","94","101356","0.0-5.0-1.45","63d2bc12a843f8466a8f83e0","bdp_lott","Sun Apr 09 2023 20:59:00 GMT-0400 (Eastern Daylight Time)","297538","green","red","","588","","","","choice","","img/green_wl/choose11.jpg","1","180","green","0.5","0.5","0.5","l","",""
"animation","95","101958","0.0-5.0-2.45","63d2bc12a843f8466a8f83e0","bdp_lott","Sun Apr 09 2023 20:59:00 GMT-0400 (Eastern Daylight Time)","297538","green","red","","","","","","","","","","180","","","","","","[{""stimulus"":""img/green_ll/1.jpg"",""time"":60},{""stimulus"":""img/green_ll/2.jpg"",""time"":108},{""stimulus"":""img/green_ll/3.jpg"",""time"":156},{""stimulus"":""img/green_ll/4.jpg"",""time"":204},{""stimulus"":""img/green_ll/5.jpg"",""time"":251},{""stimulus"":""img/green_ll/6.jpg"",""time"":315},{""stimulus"":""img/green_ll/7.jpg"",""time"":362},{""stimulus"":""img/green_ll/8.jpg"",""time"":401},{""stimulus"":""img/green_ll/9.jpg"",""time"":458},{""stimulus"":""img/green_ll/10.jpg"",""time"":506},{""stimulus"":""img/green_ll/11.jpg"",""time"":554}]","[]"
"image-keyboard-response","96","102574","0.0-5.0-1.46","63d2bc12a843f8466a8f83e0","bdp_lott","Sun Apr 09 2023 20:59:00 GMT-0400 (Eastern Daylight Time)","297538","green","red","","616","","","","choice","","img/green_ll/choose11.jpg","2","179","red","0.5","0.5","0.5","w","",""
"animation","97","103184","0.0-5.0-2.46","63d2bc12a843f8466a8f83e0","bdp_lott","Sun Apr 09 2023 20:59:00 GMT-0400 (Eastern Daylight Time)","297538","green","red","","","","","","","","","","179","","","","","","[{""stimulus"":""img/red_lw/1.jpg"",""time"":66},{""stimulus"":""img/red_lw/2.jpg"",""time"":114},{""stimulus"":""img/red_lw/3.jpg"",""time"":162},{""stimulus"":""img/red_lw/4.jpg"",""time"":210},{""stimulus"":""img/red_lw/5.jpg"",""time"":258},{""stimulus"":""img/red_lw/6.jpg"",""time"":306},{""stimulus"":""img/red_lw/7.jpg"",""time"":354},{""stimulus"":""img/red_lw/8.jpg"",""time"":402},{""stimulus"":""img/red_lw/9.jpg"",""time"":466},{""stimulus"":""img/red_lw/10.jpg"",""time"":514},{""stimulus"":""img/red_lw/11.jpg"",""time"":562}]","[]"
"image-keyboard-response","98","103669","0.0-5.0-1.47","63d2bc12a843f8466a8f83e0","bdp_lott","Sun Apr 09 2023 20:59:00 GMT-0400 (Eastern Daylight Time)","297538","green","red","","485","","","","choice","","img/red_lw/choose11.jpg","2","178","red","0.5","0.5","0.5","l","",""
"animation","99","104269","0.0-5.0-2.47","63d2bc12a843f8466a8f83e0","bdp_lott","Sun Apr 09 2023 20:59:00 GMT-0400 (Eastern Daylight Time)","297538","green","red","","","","","","","","","","178","","","","","","[{""stimulus"":""img/red_ll/1.jpg"",""time"":59},{""stimulus"":""img/red_ll/2.jpg"",""time"":107},{""stimulus"":""img/red_ll/3.jpg"",""time"":150},{""stimulus"":""img/red_ll/4.jpg"",""time"":203},{""stimulus"":""img/red_ll/5.jpg"",""time"":252},{""stimulus"":""img/red_ll/6.jpg"",""time"":316},{""stimulus"":""img/red_ll/7.jpg"",""time"":351},{""stimulus"":""img/red_ll/8.jpg"",""time"":412},{""stimulus"":""img/red_ll/9.jpg"",""time"":460},{""stimulus"":""img/red_ll/10.jpg"",""time"":501},{""stimulus"":""img/red_ll/11.jpg"",""time"":551}]","[]"
"image-keyboard-response","100","104822","0.0-5.0-1.48","63d2bc12a843f8466a8f83e0","bdp_lott","Sun Apr 09 2023 20:59:00 GMT-0400 (Eastern Daylight Time)","297538","green","red","","552","","","","choice","","img/red_ll/choose11.jpg","1","177","green","0.5","0.5","0.5","w","",""
"animation","101","105437","0.0-5.0-2.48","63d2bc12a843f8466a8f83e0","bdp_lott","Sun Apr 09 2023 20:59:00 GMT-0400 (Eastern Daylight Time)","297538","green","red","","","","","","","","","","177","","","","","","[{""stimulus"":""img/green_wl/1.jpg"",""time"":55},{""stimulus"":""img/green_wl/2.jpg"",""time"":101},{""stimulus"":""img/green_wl/3.jpg"",""time"":151},{""stimulus"":""img/green_wl/4.jpg"",""time"":215},{""stimulus"":""img/green_wl/5.jpg"",""time"":263},{""stimulus"":""img/green_wl/6.jpg"",""time"":311},{""stimulus"":""img/green_wl/7.jpg"",""time"":351},{""stimulus"":""img/green_wl/8.jpg"",""time"":407},{""stimulus"":""img/green_wl/9.jpg"",""time"":451},{""stimulus"":""img/green_wl/10.jpg"",""time"":503},{""stimulus"":""img/green_wl/11.jpg"",""time"":551}]","[]"
"image-keyboard-response","102","106034","0.0-5.0-1.49","63d2bc12a843f8466a8f83e0","bdp_lott","Sun Apr 09 2023 20:59:00 GMT-0400 (Eastern Daylight Time)","297538","green","red","","596","","","","choice","","img/green_wl/choose11.jpg","1","176","green","0.5","0.5","0.5","l","",""
"animation","103","106634","0.0-5.0-2.49","63d2bc12a843f8466a8f83e0","bdp_lott","Sun Apr 09 2023 20:59:00 GMT-0400 (Eastern Daylight Time)","297538","green","red","","","","","","","","","","176","","","","","","[{""stimulus"":""img/green_ll/1.jpg"",""time"":50},{""stimulus"":""img/green_ll/2.jpg"",""time"":100},{""stimulus"":""img/green_ll/3.jpg"",""time"":151},{""stimulus"":""img/green_ll/4.jpg"",""time"":215},{""stimulus"":""img/green_ll/5.jpg"",""time"":263},{""stimulus"":""img/green_ll/6.jpg"",""time"":311},{""stimulus"":""img/green_ll/7.jpg"",""time"":350},{""stimulus"":""img/green_ll/8.jpg"",""time"":407},{""stimulus"":""img/green_ll/9.jpg"",""time"":450},{""stimulus"":""img/green_ll/10.jpg"",""time"":500},{""stimulus"":""img/green_ll/11.jpg"",""time"":551}]","[]"
"image-keyboard-response","104","107119","0.0-5.0-1.50","63d2bc12a843f8466a8f83e0","bdp_lott","Sun Apr 09 2023 20:59:00 GMT-0400 (Eastern Daylight Time)","297538","green","red","","485","","","","choice","","img/green_ll/choose11.jpg","2","175","red","0.5","0.5","0.5","l","",""
"animation","105","107719","0.0-5.0-2.50","63d2bc12a843f8466a8f83e0","bdp_lott","Sun Apr 09 2023 20:59:00 GMT-0400 (Eastern Daylight Time)","297538","green","red","","","","","","","","","","175","","","","","","[{""stimulus"":""img/red_ll/1.jpg"",""time"":54},{""stimulus"":""img/red_ll/2.jpg"",""time"":102},{""stimulus"":""img/red_ll/3.jpg"",""time"":165},{""stimulus"":""img/red_ll/4.jpg"",""time"":212},{""stimulus"":""img/red_ll/5.jpg"",""time"":260},{""stimulus"":""img/red_ll/6.jpg"",""time"":308},{""stimulus"":""img/red_ll/7.jpg"",""time"":356},{""stimulus"":""img/red_ll/8.jpg"",""time"":404},{""stimulus"":""img/red_ll/9.jpg"",""time"":452},{""stimulus"":""img/red_ll/10.jpg"",""time"":500},{""stimulus"":""img/red_ll/11.jpg"",""time"":564}]","[]"
"image-keyboard-response","106","108395","0.0-5.0-1.51","63d2bc12a843f8466a8f83e0","bdp_lott","Sun Apr 09 2023 20:59:00 GMT-0400 (Eastern Daylight Time)","297538","green","red","","675","","","","choice","","img/red_ll/choose11.jpg","1","174","green","0.5","0.5","0.5","l","",""
"animation","107","109010","0.0-5.0-2.51","63d2bc12a843f8466a8f83e0","bdp_lott","Sun Apr 09 2023 20:59:00 GMT-0400 (Eastern Daylight Time)","297538","green","red","","","","","","","","","","174","","","","","","[{""stimulus"":""img/green_ll/1.jpg"",""time"":51},{""stimulus"":""img/green_ll/2.jpg"",""time"":103},{""stimulus"":""img/green_ll/3.jpg"",""time"":151},{""stimulus"":""img/green_ll/4.jpg"",""time"":215},{""stimulus"":""img/green_ll/5.jpg"",""time"":263},{""stimulus"":""img/green_ll/6.jpg"",""time"":311},{""stimulus"":""img/green_ll/7.jpg"",""time"":359},{""stimulus"":""img/green_ll/8.jpg"",""time"":401},{""stimulus"":""img/green_ll/9.jpg"",""time"":451},{""stimulus"":""img/green_ll/10.jpg"",""time"":503},{""stimulus"":""img/green_ll/11.jpg"",""time"":551}]","[]"
"image-keyboard-response","108","109520","0.0-5.0-1.52","63d2bc12a843f8466a8f83e0","bdp_lott","Sun Apr 09 2023 20:59:00 GMT-0400 (Eastern Daylight Time)","297538","green","red","","510","","","","choice","","img/green_ll/choose11.jpg","1","173","green","0.5","0.5","0.5","w","",""
"animation","109","110128","0.0-5.0-2.52","63d2bc12a843f8466a8f83e0","bdp_lott","Sun Apr 09 2023 20:59:00 GMT-0400 (Eastern Daylight Time)","297538","green","red","","","","","","","","","","173","","","","","","[{""stimulus"":""img/green_wl/1.jpg"",""time"":65},{""stimulus"":""img/green_wl/2.jpg"",""time"":112},{""stimulus"":""img/green_wl/3.jpg"",""time"":151},{""stimulus"":""img/green_wl/4.jpg"",""time"":208},{""stimulus"":""img/green_wl/5.jpg"",""time"":256},{""stimulus"":""img/green_wl/6.jpg"",""time"":304},{""stimulus"":""img/green_wl/7.jpg"",""time"":352},{""stimulus"":""img/green_wl/8.jpg"",""time"":416},{""stimulus"":""img/green_wl/9.jpg"",""time"":464},{""stimulus"":""img/green_wl/10.jpg"",""time"":512},{""stimulus"":""img/green_wl/11.jpg"",""time"":551}]","[]"
"image-keyboard-response","110","110713","0.0-5.0-1.53","63d2bc12a843f8466a8f83e0","bdp_lott","Sun Apr 09 2023 20:59:00 GMT-0400 (Eastern Daylight Time)","297538","green","red","","585","","","","choice","","img/green_wl/choose11.jpg","1","172","green","0.5","0.5","0.5","w","",""
"animation","111","111314","0.0-5.0-2.53","63d2bc12a843f8466a8f83e0","bdp_lott","Sun Apr 09 2023 20:59:00 GMT-0400 (Eastern Daylight Time)","297538","green","red","","","","","","","","","","172","","","","","","[{""stimulus"":""img/green_wl/1.jpg"",""time"":53},{""stimulus"":""img/green_wl/2.jpg"",""time"":101},{""stimulus"":""img/green_wl/3.jpg"",""time"":165},{""stimulus"":""img/green_wl/4.jpg"",""time"":205},{""stimulus"":""img/green_wl/5.jpg"",""time"":261},{""stimulus"":""img/green_wl/6.jpg"",""time"":309},{""stimulus"":""img/green_wl/7.jpg"",""time"":351},{""stimulus"":""img/green_wl/8.jpg"",""time"":405},{""stimulus"":""img/green_wl/9.jpg"",""time"":451},{""stimulus"":""img/green_wl/10.jpg"",""time"":501},{""stimulus"":""img/green_wl/11.jpg"",""time"":565}]","[]"
"image-keyboard-response","112","111734","0.0-5.0-1.54","63d2bc12a843f8466a8f83e0","bdp_lott","Sun Apr 09 2023 20:59:00 GMT-0400 (Eastern Daylight Time)","297538","green","red","","420","","","","choice","","img/green_wl/choose11.jpg","1","171","green","0.5","0.5","0.5","l","",""
"animation","113","112335","0.0-5.0-2.54","63d2bc12a843f8466a8f83e0","bdp_lott","Sun Apr 09 2023 20:59:00 GMT-0400 (Eastern Daylight Time)","297538","green","red","","","","","","","","","","171","","","","","","[{""stimulus"":""img/green_ll/1.jpg"",""time"":51},{""stimulus"":""img/green_ll/2.jpg"",""time"":101},{""stimulus"":""img/green_ll/3.jpg"",""time"":165},{""stimulus"":""img/green_ll/4.jpg"",""time"":212},{""stimulus"":""img/green_ll/5.jpg"",""time"":260},{""stimulus"":""img/green_ll/6.jpg"",""time"":308},{""stimulus"":""img/green_ll/7.jpg"",""time"":356},{""stimulus"":""img/green_ll/8.jpg"",""time"":404},{""stimulus"":""img/green_ll/9.jpg"",""time"":452},{""stimulus"":""img/green_ll/10.jpg"",""time"":516},{""stimulus"":""img/green_ll/11.jpg"",""time"":551}]","[]"
"image-keyboard-response","114","112768","0.0-5.0-1.55","63d2bc12a843f8466a8f83e0","bdp_lott","Sun Apr 09 2023 20:59:00 GMT-0400 (Eastern Daylight Time)","297538","green","red","","433","","","","choice","","img/green_ll/choose11.jpg","2","170","red","0.5","0.5","0.5","l","",""
"animation","115","113370","0.0-5.0-2.55","63d2bc12a843f8466a8f83e0","bdp_lott","Sun Apr 09 2023 20:59:00 GMT-0400 (Eastern Daylight Time)","297538","green","red","","","","","","","","","","170","","","","","","[{""stimulus"":""img/red_ll/1.jpg"",""time"":58},{""stimulus"":""img/red_ll/2.jpg"",""time"":106},{""stimulus"":""img/red_ll/3.jpg"",""time"":154},{""stimulus"":""img/red_ll/4.jpg"",""time"":202},{""stimulus"":""img/red_ll/5.jpg"",""time"":266},{""stimulus"":""img/red_ll/6.jpg"",""time"":314},{""stimulus"":""img/red_ll/7.jpg"",""time"":362},{""stimulus"":""img/red_ll/8.jpg"",""time"":401},{""stimulus"":""img/red_ll/9.jpg"",""time"":458},{""stimulus"":""img/red_ll/10.jpg"",""time"":506},{""stimulus"":""img/red_ll/11.jpg"",""time"":554}]","[]"
"image-keyboard-response","116","113816","0.0-5.0-1.56","63d2bc12a843f8466a8f83e0","bdp_lott","Sun Apr 09 2023 20:59:00 GMT-0400 (Eastern Daylight Time)","297538","green","red","","446","","","","choice","","img/red_ll/choose11.jpg","2","169","red","0.5","0.5","0.5","l","",""
"animation","117","114416","0.0-5.0-2.56","63d2bc12a843f8466a8f83e0","bdp_lott","Sun Apr 09 2023 20:59:00 GMT-0400 (Eastern Daylight Time)","297538","green","red","","","","","","","","","","169","","","","","","[{""stimulus"":""img/red_ll/1.jpg"",""time"":65},{""stimulus"":""img/red_ll/2.jpg"",""time"":112},{""stimulus"":""img/red_ll/3.jpg"",""time"":159},{""stimulus"":""img/red_ll/4.jpg"",""time"":206},{""stimulus"":""img/red_ll/5.jpg"",""time"":250},{""stimulus"":""img/red_ll/6.jpg"",""time"":302},{""stimulus"":""img/red_ll/7.jpg"",""time"":350},{""stimulus"":""img/red_ll/8.jpg"",""time"":414},{""stimulus"":""img/red_ll/9.jpg"",""time"":450},{""stimulus"":""img/red_ll/10.jpg"",""time"":511},{""stimulus"":""img/red_ll/11.jpg"",""time"":550}]","[]"
"image-keyboard-response","118","114820","0.0-5.0-1.57","63d2bc12a843f8466a8f83e0","bdp_lott","Sun Apr 09 2023 20:59:00 GMT-0400 (Eastern Daylight Time)","297538","green","red","","403","","","","choice","","img/red_ll/choose11.jpg","1","168","green","0.5","0.5","0.5","w","",""
"animation","119","115431","0.0-5.0-2.57","63d2bc12a843f8466a8f83e0","bdp_lott","Sun Apr 09 2023 20:59:00 GMT-0400 (Eastern Daylight Time)","297538","green","red","","","","","","","","","","168","","","","","","[{""stimulus"":""img/green_wl/1.jpg"",""time"":51},{""stimulus"":""img/green_wl/2.jpg"",""time"":101},{""stimulus"":""img/green_wl/3.jpg"",""time"":151},{""stimulus"":""img/green_wl/4.jpg"",""time"":211},{""stimulus"":""img/green_wl/5.jpg"",""time"":251},{""stimulus"":""img/green_wl/6.jpg"",""time"":307},{""stimulus"":""img/green_wl/7.jpg"",""time"":351},{""stimulus"":""img/green_wl/8.jpg"",""time"":403},{""stimulus"":""img/green_wl/9.jpg"",""time"":451},{""stimulus"":""img/green_wl/10.jpg"",""time"":515},{""stimulus"":""img/green_wl/11.jpg"",""time"":551}]","[]"
"image-keyboard-response","120","115995","0.0-5.0-1.58","63d2bc12a843f8466a8f83e0","bdp_lott","Sun Apr 09 2023 20:59:00 GMT-0400 (Eastern Daylight Time)","297538","green","red","","564","","","","choice","","img/green_wl/choose11.jpg","1","167","green","0.5","0.5","0.5","l","",""
"animation","121","116595","0.0-5.0-2.58","63d2bc12a843f8466a8f83e0","bdp_lott","Sun Apr 09 2023 20:59:00 GMT-0400 (Eastern Daylight Time)","297538","green","red","","","","","","","","","","167","","","","","","[{""stimulus"":""img/green_ll/1.jpg"",""time"":51},{""stimulus"":""img/green_ll/2.jpg"",""time"":103},{""stimulus"":""img/green_ll/3.jpg"",""time"":150},{""stimulus"":""img/green_ll/4.jpg"",""time"":209},{""stimulus"":""img/green_ll/5.jpg"",""time"":250},{""stimulus"":""img/green_ll/6.jpg"",""time"":311},{""stimulus"":""img/green_ll/7.jpg"",""time"":350},{""stimulus"":""img/green_ll/8.jpg"",""time"":401},{""stimulus"":""img/green_ll/9.jpg"",""time"":456},{""stimulus"":""img/green_ll/10.jpg"",""time"":504},{""stimulus"":""img/green_ll/11.jpg"",""time"":551}]","[]"
"image-keyboard-response","122","117096","0.0-5.0-1.59","63d2bc12a843f8466a8f83e0","bdp_lott","Sun Apr 09 2023 20:59:00 GMT-0400 (Eastern Daylight Time)","297538","green","red","","499","","","","choice","","img/green_ll/choose11.jpg","2","166","red","0.5","0.5","0.5","w","",""
"animation","123","117705","0.0-5.0-2.59","63d2bc12a843f8466a8f83e0","bdp_lott","Sun Apr 09 2023 20:59:00 GMT-0400 (Eastern Daylight Time)","297538","green","red","","","","","","","","","","166","","","","","","[{""stimulus"":""img/red_lw/1.jpg"",""time"":56},{""stimulus"":""img/red_lw/2.jpg"",""time"":103},{""stimulus"":""img/red_lw/3.jpg"",""time"":165},{""stimulus"":""img/red_lw/4.jpg"",""time"":211},{""stimulus"":""img/red_lw/5.jpg"",""time"":259},{""stimulus"":""img/red_lw/6.jpg"",""time"":307},{""stimulus"":""img/red_lw/7.jpg"",""time"":355},{""stimulus"":""img/red_lw/8.jpg"",""time"":401},{""stimulus"":""img/red_lw/9.jpg"",""time"":465},{""stimulus"":""img/red_lw/10.jpg"",""time"":513},{""stimulus"":""img/red_lw/11.jpg"",""time"":561}]","[]"
"image-keyboard-response","124","118142","0.0-5.0-1.60","63d2bc12a843f8466a8f83e0","bdp_lott","Sun Apr 09 2023 20:59:00 GMT-0400 (Eastern Daylight Time)","297538","green","red","","437","","","","choice","","img/red_lw/choose11.jpg","2","165","red","0.5","0.5","0.5","w","",""
"animation","125","118743","0.0-5.0-2.60","63d2bc12a843f8466a8f83e0","bdp_lott","Sun Apr 09 2023 20:59:00 GMT-0400 (Eastern Daylight Time)","297538","green","red","","","","","","","","","","165","","","","","","[{""stimulus"":""img/red_lw/1.jpg"",""time"":59},{""stimulus"":""img/red_lw/2.jpg"",""time"":101},{""stimulus"":""img/red_lw/3.jpg"",""time"":154},{""stimulus"":""img/red_lw/4.jpg"",""time"":201},{""stimulus"":""img/red_lw/5.jpg"",""time"":265},{""stimulus"":""img/red_lw/6.jpg"",""time"":301},{""stimulus"":""img/red_lw/7.jpg"",""time"":361},{""stimulus"":""img/red_lw/8.jpg"",""time"":409},{""stimulus"":""img/red_lw/9.jpg"",""time"":451},{""stimulus"":""img/red_lw/10.jpg"",""time"":505},{""stimulus"":""img/red_lw/11.jpg"",""time"":553}]","[]"
"image-keyboard-response","126","119174","0.0-5.0-1.61","63d2bc12a843f8466a8f83e0","bdp_lott","Sun Apr 09 2023 20:59:00 GMT-0400 (Eastern Daylight Time)","297538","green","red","","431","","","","choice","","img/red_lw/choose11.jpg","2","164","red","0.5","0.5","0.5","l","",""
"animation","127","119783","0.0-5.0-2.61","63d2bc12a843f8466a8f83e0","bdp_lott","Sun Apr 09 2023 20:59:00 GMT-0400 (Eastern Daylight Time)","297538","green","red","","","","","","","","","","164","","","","","","[{""stimulus"":""img/red_ll/1.jpg"",""time"":51},{""stimulus"":""img/red_ll/2.jpg"",""time"":113},{""stimulus"":""img/red_ll/3.jpg"",""time"":151},{""stimulus"":""img/red_ll/4.jpg"",""time"":209},{""stimulus"":""img/red_ll/5.jpg"",""time"":257},{""stimulus"":""img/red_ll/6.jpg"",""time"":305},{""stimulus"":""img/red_ll/7.jpg"",""time"":353},{""stimulus"":""img/red_ll/8.jpg"",""time"":401},{""stimulus"":""img/red_ll/9.jpg"",""time"":465},{""stimulus"":""img/red_ll/10.jpg"",""time"":513},{""stimulus"":""img/red_ll/11.jpg"",""time"":561}]","[]"
"image-keyboard-response","128","120184","0.0-5.0-1.62","63d2bc12a843f8466a8f83e0","bdp_lott","Sun Apr 09 2023 20:59:00 GMT-0400 (Eastern Daylight Time)","297538","green","red","","401","","","","choice","","img/red_ll/choose11.jpg","1","163","green","0.5","0.5","0.5","w","",""
"animation","129","120784","0.0-5.0-2.62","63d2bc12a843f8466a8f83e0","bdp_lott","Sun Apr 09 2023 20:59:00 GMT-0400 (Eastern Daylight Time)","297538","green","red","","","","","","","","","","163","","","","","","[{""stimulus"":""img/green_wl/1.jpg"",""time"":63},{""stimulus"":""img/green_wl/2.jpg"",""time"":100},{""stimulus"":""img/green_wl/3.jpg"",""time"":159},{""stimulus"":""img/green_wl/4.jpg"",""time"":207},{""stimulus"":""img/green_wl/5.jpg"",""time"":250},{""stimulus"":""img/green_wl/6.jpg"",""time"":303},{""stimulus"":""img/green_wl/7.jpg"",""time"":350},{""stimulus"":""img/green_wl/8.jpg"",""time"":415},{""stimulus"":""img/green_wl/9.jpg"",""time"":463},{""stimulus"":""img/green_wl/10.jpg"",""time"":500},{""stimulus"":""img/green_wl/11.jpg"",""time"":560}]","[]"
"image-keyboard-response","130","121305","0.0-5.0-1.63","63d2bc12a843f8466a8f83e0","bdp_lott","Sun Apr 09 2023 20:59:00 GMT-0400 (Eastern Daylight Time)","297538","green","red","","520","","","","choice","","img/green_wl/choose11.jpg","1","162","green","0.5","0.5","0.5","w","",""
"animation","131","121920","0.0-5.0-2.63","63d2bc12a843f8466a8f83e0","bdp_lott","Sun Apr 09 2023 20:59:00 GMT-0400 (Eastern Daylight Time)","297538","green","red","","","","","","","","","","162","","","","","","[{""stimulus"":""img/green_wl/1.jpg"",""time"":57},{""stimulus"":""img/green_wl/2.jpg"",""time"":101},{""stimulus"":""img/green_wl/3.jpg"",""time"":153},{""stimulus"":""img/green_wl/4.jpg"",""time"":201},{""stimulus"":""img/green_wl/5.jpg"",""time"":264},{""stimulus"":""img/green_wl/6.jpg"",""time"":311},{""stimulus"":""img/green_wl/7.jpg"",""time"":359},{""stimulus"":""img/green_wl/8.jpg"",""time"":407},{""stimulus"":""img/green_wl/9.jpg"",""time"":451},{""stimulus"":""img/green_wl/10.jpg"",""time"":503},{""stimulus"":""img/green_wl/11.jpg"",""time"":551}]","[]"
"image-keyboard-response","132","122327","0.0-5.0-1.64","63d2bc12a843f8466a8f83e0","bdp_lott","Sun Apr 09 2023 20:59:00 GMT-0400 (Eastern Daylight Time)","297538","green","red","","407","","","","choice","","img/green_wl/choose11.jpg","1","161","green","0.5","0.5","0.5","w","",""
"animation","133","122928","0.0-5.0-2.64","63d2bc12a843f8466a8f83e0","bdp_lott","Sun Apr 09 2023 20:59:00 GMT-0400 (Eastern Daylight Time)","297538","green","red","","","","","","","","","","161","","","","","","[{""stimulus"":""img/green_wl/1.jpg"",""time"":57},{""stimulus"":""img/green_wl/2.jpg"",""time"":105},{""stimulus"":""img/green_wl/3.jpg"",""time"":151},{""stimulus"":""img/green_wl/4.jpg"",""time"":201},{""stimulus"":""img/green_wl/5.jpg"",""time"":265},{""stimulus"":""img/green_wl/6.jpg"",""time"":313},{""stimulus"":""img/green_wl/7.jpg"",""time"":361},{""stimulus"":""img/green_wl/8.jpg"",""time"":401},{""stimulus"":""img/green_wl/9.jpg"",""time"":457},{""stimulus"":""img/green_wl/10.jpg"",""time"":505},{""stimulus"":""img/green_wl/11.jpg"",""time"":551}]","[]"
"image-keyboard-response","134","123323","0.0-5.0-1.65","63d2bc12a843f8466a8f83e0","bdp_lott","Sun Apr 09 2023 20:59:00 GMT-0400 (Eastern Daylight Time)","297538","green","red","","395","","","","choice","","img/green_wl/choose11.jpg","1","160","green","0.5","0.5","0.5","w","",""
"animation","135","123936","0.0-5.0-2.65","63d2bc12a843f8466a8f83e0","bdp_lott","Sun Apr 09 2023 20:59:00 GMT-0400 (Eastern Daylight Time)","297538","green","red","","","","","","","","","","160","","","","","","[{""stimulus"":""img/green_wl/1.jpg"",""time"":53},{""stimulus"":""img/green_wl/2.jpg"",""time"":101},{""stimulus"":""img/green_wl/3.jpg"",""time"":165},{""stimulus"":""img/green_wl/4.jpg"",""time"":213},{""stimulus"":""img/green_wl/5.jpg"",""time"":261},{""stimulus"":""img/green_wl/6.jpg"",""time"":309},{""stimulus"":""img/green_wl/7.jpg"",""time"":357},{""stimulus"":""img/green_wl/8.jpg"",""time"":405},{""stimulus"":""img/green_wl/9.jpg"",""time"":453},{""stimulus"":""img/green_wl/10.jpg"",""time"":501},{""stimulus"":""img/green_wl/11.jpg"",""time"":565}]","[]"
"image-keyboard-response","136","124332","0.0-5.0-1.66","63d2bc12a843f8466a8f83e0","bdp_lott","Sun Apr 09 2023 20:59:00 GMT-0400 (Eastern Daylight Time)","297538","green","red","","395","","","","choice","","img/green_wl/choose11.jpg","1","159","green","0.5","0.5","0.5","l","",""
"animation","137","124932","0.0-5.0-2.66","63d2bc12a843f8466a8f83e0","bdp_lott","Sun Apr 09 2023 20:59:00 GMT-0400 (Eastern Daylight Time)","297538","green","red","","","","","","","","","","159","","","","","","[{""stimulus"":""img/green_ll/1.jpg"",""time"":50},{""stimulus"":""img/green_ll/2.jpg"",""time"":100},{""stimulus"":""img/green_ll/3.jpg"",""time"":150},{""stimulus"":""img/green_ll/4.jpg"",""time"":212},{""stimulus"":""img/green_ll/5.jpg"",""time"":260},{""stimulus"":""img/green_ll/6.jpg"",""time"":309},{""stimulus"":""img/green_ll/7.jpg"",""time"":351},{""stimulus"":""img/green_ll/8.jpg"",""time"":405},{""stimulus"":""img/green_ll/9.jpg"",""time"":450},{""stimulus"":""img/green_ll/10.jpg"",""time"":501},{""stimulus"":""img/green_ll/11.jpg"",""time"":565}]","[]"
"image-keyboard-response","138","125337","0.0-5.0-1.67","63d2bc12a843f8466a8f83e0","bdp_lott","Sun Apr 09 2023 20:59:00 GMT-0400 (Eastern Daylight Time)","297538","green","red","","404","","","","choice","","img/green_ll/choose11.jpg","2","158","red","0.5","0.5","0.5","l","",""
"animation","139","125938","0.0-5.0-2.67","63d2bc12a843f8466a8f83e0","bdp_lott","Sun Apr 09 2023 20:59:00 GMT-0400 (Eastern Daylight Time)","297538","green","red","","","","","","","","","","158","","","","","","[{""stimulus"":""img/red_ll/1.jpg"",""time"":56},{""stimulus"":""img/red_ll/2.jpg"",""time"":101},{""stimulus"":""img/red_ll/3.jpg"",""time"":152},{""stimulus"":""img/red_ll/4.jpg"",""time"":201},{""stimulus"":""img/red_ll/5.jpg"",""time"":264},{""stimulus"":""img/red_ll/6.jpg"",""time"":301},{""stimulus"":""img/red_ll/7.jpg"",""time"":360},{""stimulus"":""img/red_ll/8.jpg"",""time"":401},{""stimulus"":""img/red_ll/9.jpg"",""time"":451},{""stimulus"":""img/red_ll/10.jpg"",""time"":502},{""stimulus"":""img/red_ll/11.jpg"",""time"":551}]","[]"
"image-keyboard-response","140","126343","0.0-5.0-1.68","63d2bc12a843f8466a8f83e0","bdp_lott","Sun Apr 09 2023 20:59:00 GMT-0400 (Eastern Daylight Time)","297538","green","red","","405","","","","choice","","img/red_ll/choose11.jpg","1","157","green","0.5","0.5","0.5","w","",""
"animation","141","126943","0.0-5.0-2.68","63d2bc12a843f8466a8f83e0","bdp_lott","Sun Apr 09 2023 20:59:00 GMT-0400 (Eastern Daylight Time)","297538","green","red","","","","","","","","","","157","","","","","","[{""stimulus"":""img/green_wl/1.jpg"",""time"":51},{""stimulus"":""img/green_wl/2.jpg"",""time"":101},{""stimulus"":""img/green_wl/3.jpg"",""time"":161},{""stimulus"":""img/green_wl/4.jpg"",""time"":201},{""stimulus"":""img/green_wl/5.jpg"",""time"":251},{""stimulus"":""img/green_wl/6.jpg"",""time"":301},{""stimulus"":""img/green_wl/7.jpg"",""time"":351},{""stimulus"":""img/green_wl/8.jpg"",""time"":413},{""stimulus"":""img/green_wl/9.jpg"",""time"":451},{""stimulus"":""img/green_wl/10.jpg"",""time"":501},{""stimulus"":""img/green_wl/11.jpg"",""time"":557}]","[]"
"image-keyboard-response","142","127391","0.0-5.0-1.69","63d2bc12a843f8466a8f83e0","bdp_lott","Sun Apr 09 2023 20:59:00 GMT-0400 (Eastern Daylight Time)","297538","green","red","","446","","","","choice","","img/green_wl/choose11.jpg","1","156","green","0.5","0.5","0.5","w","",""
"animation","143","127998","0.0-5.0-2.69","63d2bc12a843f8466a8f83e0","bdp_lott","Sun Apr 09 2023 20:59:00 GMT-0400 (Eastern Daylight Time)","297538","green","red","","","","","","","","","","156","","","","","","[{""stimulus"":""img/green_wl/1.jpg"",""time"":65},{""stimulus"":""img/green_wl/2.jpg"",""time"":113},{""stimulus"":""img/green_wl/3.jpg"",""time"":151},{""stimulus"":""img/green_wl/4.jpg"",""time"":208},{""stimulus"":""img/green_wl/5.jpg"",""time"":255},{""stimulus"":""img/green_wl/6.jpg"",""time"":303},{""stimulus"":""img/green_wl/7.jpg"",""time"":351},{""stimulus"":""img/green_wl/8.jpg"",""time"":415},{""stimulus"":""img/green_wl/9.jpg"",""time"":463},{""stimulus"":""img/green_wl/10.jpg"",""time"":511},{""stimulus"":""img/green_wl/11.jpg"",""time"":559}]","[]"
"image-keyboard-response","144","128387","0.0-5.0-1.70","63d2bc12a843f8466a8f83e0","bdp_lott","Sun Apr 09 2023 20:59:00 GMT-0400 (Eastern Daylight Time)","297538","green","red","","389","","","","choice","","img/green_wl/choose11.jpg","1","155","green","0.5","0.5","0.5","w","",""
"animation","145","128988","0.0-5.0-2.70","63d2bc12a843f8466a8f83e0","bdp_lott","Sun Apr 09 2023 20:59:00 GMT-0400 (Eastern Daylight Time)","297538","green","red","","","","","","","","","","155","","","","","","[{""stimulus"":""img/green_wl/1.jpg"",""time"":51},{""stimulus"":""img/green_wl/2.jpg"",""time"":105},{""stimulus"":""img/green_wl/3.jpg"",""time"":151},{""stimulus"":""img/green_wl/4.jpg"",""time"":201},{""stimulus"":""img/green_wl/5.jpg"",""time"":251},{""stimulus"":""img/green_wl/6.jpg"",""time"":313},{""stimulus"":""img/green_wl/7.jpg"",""time"":361},{""stimulus"":""img/green_wl/8.jpg"",""time"":401},{""stimulus"":""img/green_wl/9.jpg"",""time"":457},{""stimulus"":""img/green_wl/10.jpg"",""time"":505},{""stimulus"":""img/green_wl/11.jpg"",""time"":553}]","[]"
"image-keyboard-response","146","129382","0.0-5.0-1.71","63d2bc12a843f8466a8f83e0","bdp_lott","Sun Apr 09 2023 20:59:00 GMT-0400 (Eastern Daylight Time)","297538","green","red","","394","","","","choice","","img/green_wl/choose11.jpg","1","154","green","0.5","0.5","0.5","l","",""
"animation","147","129996","0.0-5.0-2.71","63d2bc12a843f8466a8f83e0","bdp_lott","Sun Apr 09 2023 20:59:00 GMT-0400 (Eastern Daylight Time)","297538","green","red","","","","","","","","","","154","","","","","","[{""stimulus"":""img/green_ll/1.jpg"",""time"":54},{""stimulus"":""img/green_ll/2.jpg"",""time"":102},{""stimulus"":""img/green_ll/3.jpg"",""time"":151},{""stimulus"":""img/green_ll/4.jpg"",""time"":214},{""stimulus"":""img/green_ll/5.jpg"",""time"":251},{""stimulus"":""img/green_ll/6.jpg"",""time"":310},{""stimulus"":""img/green_ll/7.jpg"",""time"":358},{""stimulus"":""img/green_ll/8.jpg"",""time"":406},{""stimulus"":""img/green_ll/9.jpg"",""time"":454},{""stimulus"":""img/green_ll/10.jpg"",""time"":502},{""stimulus"":""img/green_ll/11.jpg"",""time"":566}]","[]"
"image-keyboard-response","148","130977","0.0-5.0-1.72","63d2bc12a843f8466a8f83e0","bdp_lott","Sun Apr 09 2023 20:59:00 GMT-0400 (Eastern Daylight Time)","297538","green","red","","980","","","","choice","","img/green_ll/choose11.jpg","2","153","red","0.5","0.5","0.5","l","",""
"animation","149","131577","0.0-5.0-2.72","63d2bc12a843f8466a8f83e0","bdp_lott","Sun Apr 09 2023 20:59:00 GMT-0400 (Eastern Daylight Time)","297538","green","red","","","","","","","","","","153","","","","","","[{""stimulus"":""img/red_ll/1.jpg"",""time"":58},{""stimulus"":""img/red_ll/2.jpg"",""time"":106},{""stimulus"":""img/red_ll/3.jpg"",""time"":154},{""stimulus"":""img/red_ll/4.jpg"",""time"":202},{""stimulus"":""img/red_ll/5.jpg"",""time"":266},{""stimulus"":""img/red_ll/6.jpg"",""time"":314},{""stimulus"":""img/red_ll/7.jpg"",""time"":351},{""stimulus"":""img/red_ll/8.jpg"",""time"":401},{""stimulus"":""img/red_ll/9.jpg"",""time"":451},{""stimulus"":""img/red_ll/10.jpg"",""time"":501},{""stimulus"":""img/red_ll/11.jpg"",""time"":554}]","[]"
"image-keyboard-response","150","131979","0.0-5.0-1.73","63d2bc12a843f8466a8f83e0","bdp_lott","Sun Apr 09 2023 20:59:00 GMT-0400 (Eastern Daylight Time)","297538","green","red","","401","","","","choice","","img/red_ll/choose11.jpg","1","152","green","0.5","0.5","0.5","w","",""
"animation","151","132580","0.0-5.0-2.73","63d2bc12a843f8466a8f83e0","bdp_lott","Sun Apr 09 2023 20:59:00 GMT-0400 (Eastern Daylight Time)","297538","green","red","","","","","","","","","","152","","","","","","[{""stimulus"":""img/green_wl/1.jpg"",""time"":51},{""stimulus"":""img/green_wl/2.jpg"",""time"":101},{""stimulus"":""img/green_wl/3.jpg"",""time"":152},{""stimulus"":""img/green_wl/4.jpg"",""time"":216},{""stimulus"":""img/green_wl/5.jpg"",""time"":264},{""stimulus"":""img/green_wl/6.jpg"",""time"":312},{""stimulus"":""img/green_wl/7.jpg"",""time"":358},{""stimulus"":""img/green_wl/8.jpg"",""time"":401},{""stimulus"":""img/green_wl/9.jpg"",""time"":451},{""stimulus"":""img/green_wl/10.jpg"",""time"":516},{""stimulus"":""img/green_wl/11.jpg"",""time"":551}]","[]"
"image-keyboard-response","152","133007","0.0-5.0-1.74","63d2bc12a843f8466a8f83e0","bdp_lott","Sun Apr 09 2023 20:59:00 GMT-0400 (Eastern Daylight Time)","297538","green","red","","427","","","","choice","","img/green_wl/choose11.jpg","1","151","green","0.5","0.5","0.5","l","",""
"animation","153","133611","0.0-5.0-2.74","63d2bc12a843f8466a8f83e0","bdp_lott","Sun Apr 09 2023 20:59:00 GMT-0400 (Eastern Daylight Time)","297538","green","red","","","","","","","","","","151","","","","","","[{""stimulus"":""img/green_ll/1.jpg"",""time"":63},{""stimulus"":""img/green_ll/2.jpg"",""time"":101},{""stimulus"":""img/green_ll/3.jpg"",""time"":151},{""stimulus"":""img/green_ll/4.jpg"",""time"":206},{""stimulus"":""img/green_ll/5.jpg"",""time"":254},{""stimulus"":""img/green_ll/6.jpg"",""time"":302},{""stimulus"":""img/green_ll/7.jpg"",""time"":364},{""stimulus"":""img/green_ll/8.jpg"",""time"":401},{""stimulus"":""img/green_ll/9.jpg"",""time"":460},{""stimulus"":""img/green_ll/10.jpg"",""time"":508},{""stimulus"":""img/green_ll/11.jpg"",""time"":556}]","[]"
"image-keyboard-response","154","134056","0.0-5.0-1.75","63d2bc12a843f8466a8f83e0","bdp_lott","Sun Apr 09 2023 20:59:00 GMT-0400 (Eastern Daylight Time)","297538","green","red","","445","","","","choice","","img/green_ll/choose11.jpg","1","150","green","0.5","0.5","0.5","l","",""
"animation","155","134667","0.0-5.0-2.75","63d2bc12a843f8466a8f83e0","bdp_lott","Sun Apr 09 2023 20:59:00 GMT-0400 (Eastern Daylight Time)","297538","green","red","","","","","","","","","","150","","","","","","[{""stimulus"":""img/green_ll/1.jpg"",""time"":51},{""stimulus"":""img/green_ll/2.jpg"",""time"":115},{""stimulus"":""img/green_ll/3.jpg"",""time"":163},{""stimulus"":""img/green_ll/4.jpg"",""time"":211},{""stimulus"":""img/green_ll/5.jpg"",""time"":259},{""stimulus"":""img/green_ll/6.jpg"",""time"":307},{""stimulus"":""img/green_ll/7.jpg"",""time"":351},{""stimulus"":""img/green_ll/8.jpg"",""time"":403},{""stimulus"":""img/green_ll/9.jpg"",""time"":451},{""stimulus"":""img/green_ll/10.jpg"",""time"":515},{""stimulus"":""img/green_ll/11.jpg"",""time"":563}]","[]"
"image-keyboard-response","156","135114","0.0-5.0-1.76","63d2bc12a843f8466a8f83e0","bdp_lott","Sun Apr 09 2023 20:59:00 GMT-0400 (Eastern Daylight Time)","297538","green","red","","446","","","","choice","","img/green_ll/choose11.jpg","1","149","green","0.5","0.1","0.5","w","",""
"animation","157","135721","0.0-5.0-2.76","63d2bc12a843f8466a8f83e0","bdp_lott","Sun Apr 09 2023 20:59:00 GMT-0400 (Eastern Daylight Time)","297538","green","red","","","","","","","","","","149","","","","","","[{""stimulus"":""img/green_wl/1.jpg"",""time"":50},{""stimulus"":""img/green_wl/2.jpg"",""time"":100},{""stimulus"":""img/green_wl/3.jpg"",""time"":150},{""stimulus"":""img/green_wl/4.jpg"",""time"":209},{""stimulus"":""img/green_wl/5.jpg"",""time"":250},{""stimulus"":""img/green_wl/6.jpg"",""time"":304},{""stimulus"":""img/green_wl/7.jpg"",""time"":351},{""stimulus"":""img/green_wl/8.jpg"",""time"":415},{""stimulus"":""img/green_wl/9.jpg"",""time"":451},{""stimulus"":""img/green_wl/10.jpg"",""time"":501},{""stimulus"":""img/green_wl/11.jpg"",""time"":551}]","[]"
"image-keyboard-response","158","136305","0.0-5.0-1.77","63d2bc12a843f8466a8f83e0","bdp_lott","Sun Apr 09 2023 20:59:00 GMT-0400 (Eastern Daylight Time)","297538","green","red","","583","","","","choice","","img/green_wl/choose11.jpg","1","148","green","0.5","0.1","0.5","w","",""
"animation","159","136910","0.0-5.0-2.77","63d2bc12a843f8466a8f83e0","bdp_lott","Sun Apr 09 2023 20:59:00 GMT-0400 (Eastern Daylight Time)","297538","green","red","","","","","","","","","","148","","","","","","[{""stimulus"":""img/green_wl/1.jpg"",""time"":53},{""stimulus"":""img/green_wl/2.jpg"",""time"":116},{""stimulus"":""img/green_wl/3.jpg"",""time"":151},{""stimulus"":""img/green_wl/4.jpg"",""time"":209},{""stimulus"":""img/green_wl/5.jpg"",""time"":256},{""stimulus"":""img/green_wl/6.jpg"",""time"":303},{""stimulus"":""img/green_wl/7.jpg"",""time"":366},{""stimulus"":""img/green_wl/8.jpg"",""time"":413},{""stimulus"":""img/green_wl/9.jpg"",""time"":451},{""stimulus"":""img/green_wl/10.jpg"",""time"":509},{""stimulus"":""img/green_wl/11.jpg"",""time"":557}]","[]"
"image-keyboard-response","160","137299","0.0-5.0-1.78","63d2bc12a843f8466a8f83e0","bdp_lott","Sun Apr 09 2023 20:59:00 GMT-0400 (Eastern Daylight Time)","297538","green","red","","389","","","","choice","","img/green_wl/choose11.jpg","1","147","green","0.5","0.1","0.5","l","",""
"animation","161","137910","0.0-5.0-2.78","63d2bc12a843f8466a8f83e0","bdp_lott","Sun Apr 09 2023 20:59:00 GMT-0400 (Eastern Daylight Time)","297538","green","red","","","","","","","","","","147","","","","","","[{""stimulus"":""img/green_ll/1.jpg"",""time"":55},{""stimulus"":""img/green_ll/2.jpg"",""time"":116},{""stimulus"":""img/green_ll/3.jpg"",""time"":151},{""stimulus"":""img/green_ll/4.jpg"",""time"":211},{""stimulus"":""img/green_ll/5.jpg"",""time"":251},{""stimulus"":""img/green_ll/6.jpg"",""time"":307},{""stimulus"":""img/green_ll/7.jpg"",""time"":355},{""stimulus"":""img/green_ll/8.jpg"",""time"":403},{""stimulus"":""img/green_ll/9.jpg"",""time"":451},{""stimulus"":""img/green_ll/10.jpg"",""time"":515},{""stimulus"":""img/green_ll/11.jpg"",""time"":563}]","[]"
"image-keyboard-response","162","138389","0.0-5.0-1.79","63d2bc12a843f8466a8f83e0","bdp_lott","Sun Apr 09 2023 20:59:00 GMT-0400 (Eastern Daylight Time)","297538","green","red","","479","","","","choice","","img/green_ll/choose11.jpg","2","146","red","0.5","0.1","0.1","l","",""
"animation","163","138990","0.0-5.0-2.79","63d2bc12a843f8466a8f83e0","bdp_lott","Sun Apr 09 2023 20:59:00 GMT-0400 (Eastern Daylight Time)","297538","green","red","","","","","","","","","","146","","","","","","[{""stimulus"":""img/red_ll/1.jpg"",""time"":62},{""stimulus"":""img/red_ll/2.jpg"",""time"":110},{""stimulus"":""img/red_ll/3.jpg"",""time"":158},{""stimulus"":""img/red_ll/4.jpg"",""time"":206},{""stimulus"":""img/red_ll/5.jpg"",""time"":250},{""stimulus"":""img/red_ll/6.jpg"",""time"":302},{""stimulus"":""img/red_ll/7.jpg"",""time"":350},{""stimulus"":""img/red_ll/8.jpg"",""time"":400},{""stimulus"":""img/red_ll/9.jpg"",""time"":462},{""stimulus"":""img/red_ll/10.jpg"",""time"":510},{""stimulus"":""img/red_ll/11.jpg"",""time"":558}]","[]"
"image-keyboard-response","164","139392","0.0-5.0-1.80","63d2bc12a843f8466a8f83e0","bdp_lott","Sun Apr 09 2023 20:59:00 GMT-0400 (Eastern Daylight Time)","297538","green","red","","402","","","","choice","","img/red_ll/choose11.jpg","1","145","green","0.5","0.1","0.5","w","",""
"animation","165","139992","0.0-5.0-2.80","63d2bc12a843f8466a8f83e0","bdp_lott","Sun Apr 09 2023 20:59:00 GMT-0400 (Eastern Daylight Time)","297538","green","red","","","","","","","","","","145","","","","","","[{""stimulus"":""img/green_wl/1.jpg"",""time"":50},{""stimulus"":""img/green_wl/2.jpg"",""time"":115},{""stimulus"":""img/green_wl/3.jpg"",""time"":162},{""stimulus"":""img/green_wl/4.jpg"",""time"":210},{""stimulus"":""img/green_wl/5.jpg"",""time"":250},{""stimulus"":""img/green_wl/6.jpg"",""time"":307},{""stimulus"":""img/green_wl/7.jpg"",""time"":350},{""stimulus"":""img/green_wl/8.jpg"",""time"":400},{""stimulus"":""img/green_wl/9.jpg"",""time"":451},{""stimulus"":""img/green_wl/10.jpg"",""time"":515},{""stimulus"":""img/green_wl/11.jpg"",""time"":551}]","[]"
"image-keyboard-response","166","140368","0.0-5.0-1.81","63d2bc12a843f8466a8f83e0","bdp_lott","Sun Apr 09 2023 20:59:00 GMT-0400 (Eastern Daylight Time)","297538","green","red","","375","","","","choice","","img/green_wl/choose11.jpg","1","144","green","0.5","0.1","0.5","l","",""
"animation","167","140969","0.0-5.0-2.81","63d2bc12a843f8466a8f83e0","bdp_lott","Sun Apr 09 2023 20:59:00 GMT-0400 (Eastern Daylight Time)","297538","green","red","","","","","","","","","","144","","","","","","[{""stimulus"":""img/green_ll/1.jpg"",""time"":51},{""stimulus"":""img/green_ll/2.jpg"",""time"":115},{""stimulus"":""img/green_ll/3.jpg"",""time"":163},{""stimulus"":""img/green_ll/4.jpg"",""time"":211},{""stimulus"":""img/green_ll/5.jpg"",""time"":251},{""stimulus"":""img/green_ll/6.jpg"",""time"":307},{""stimulus"":""img/green_ll/7.jpg"",""time"":355},{""stimulus"":""img/green_ll/8.jpg"",""time"":403},{""stimulus"":""img/green_ll/9.jpg"",""time"":451},{""stimulus"":""img/green_ll/10.jpg"",""time"":501},{""stimulus"":""img/green_ll/11.jpg"",""time"":561}]","[]"
"image-keyboard-response","168","141522","0.0-5.0-1.82","63d2bc12a843f8466a8f83e0","bdp_lott","Sun Apr 09 2023 20:59:00 GMT-0400 (Eastern Daylight Time)","297538","green","red","","553","","","","choice","","img/green_ll/choose11.jpg","1","143","green","0.5","0.1","0.5","l","",""
"animation","169","142125","0.0-5.0-2.82","63d2bc12a843f8466a8f83e0","bdp_lott","Sun Apr 09 2023 20:59:00 GMT-0400 (Eastern Daylight Time)","297538","green","red","","","","","","","","","","143","","","","","","[{""stimulus"":""img/green_ll/1.jpg"",""time"":63},{""stimulus"":""img/green_ll/2.jpg"",""time"":111},{""stimulus"":""img/green_ll/3.jpg"",""time"":151},{""stimulus"":""img/green_ll/4.jpg"",""time"":207},{""stimulus"":""img/green_ll/5.jpg"",""time"":255},{""stimulus"":""img/green_ll/6.jpg"",""time"":303},{""stimulus"":""img/green_ll/7.jpg"",""time"":365},{""stimulus"":""img/green_ll/8.jpg"",""time"":401},{""stimulus"":""img/green_ll/9.jpg"",""time"":451},{""stimulus"":""img/green_ll/10.jpg"",""time"":507},{""stimulus"":""img/green_ll/11.jpg"",""time"":551}]","[]"
"image-keyboard-response","170","142662","0.0-5.0-1.83","63d2bc12a843f8466a8f83e0","bdp_lott","Sun Apr 09 2023 20:59:00 GMT-0400 (Eastern Daylight Time)","297538","green","red","","537","","","","choice","","img/green_ll/choose11.jpg","2","142","red","0.5","0.1","0.1","l","",""
"animation","171","143273","0.0-5.0-2.83","63d2bc12a843f8466a8f83e0","bdp_lott","Sun Apr 09 2023 20:59:00 GMT-0400 (Eastern Daylight Time)","297538","green","red","","","","","","","","","","142","","","","","","[{""stimulus"":""img/red_ll/1.jpg"",""time"":53},{""stimulus"":""img/red_ll/2.jpg"",""time"":101},{""stimulus"":""img/red_ll/3.jpg"",""time"":165},{""stimulus"":""img/red_ll/4.jpg"",""time"":213},{""stimulus"":""img/red_ll/5.jpg"",""time"":260},{""stimulus"":""img/red_ll/6.jpg"",""time"":307},{""stimulus"":""img/red_ll/7.jpg"",""time"":355},{""stimulus"":""img/red_ll/8.jpg"",""time"":403},{""stimulus"":""img/red_ll/9.jpg"",""time"":451},{""stimulus"":""img/red_ll/10.jpg"",""time"":515},{""stimulus"":""img/red_ll/11.jpg"",""time"":563}]","[]"
"image-keyboard-response","172","143649","0.0-5.0-1.84","63d2bc12a843f8466a8f83e0","bdp_lott","Sun Apr 09 2023 20:59:00 GMT-0400 (Eastern Daylight Time)","297538","green","red","","376","","","","choice","","img/red_ll/choose11.jpg","1","141","green","0.5","0.1","0.5","l","",""
"animation","173","144249","0.0-5.0-2.84","63d2bc12a843f8466a8f83e0","bdp_lott","Sun Apr 09 2023 20:59:00 GMT-0400 (Eastern Daylight Time)","297538","green","red","","","","","","","","","","141","","","","","","[{""stimulus"":""img/green_ll/1.jpg"",""time"":56},{""stimulus"":""img/green_ll/2.jpg"",""time"":100},{""stimulus"":""img/green_ll/3.jpg"",""time"":150},{""stimulus"":""img/green_ll/4.jpg"",""time"":200},{""stimulus"":""img/green_ll/5.jpg"",""time"":264},{""stimulus"":""img/green_ll/6.jpg"",""time"":312},{""stimulus"":""img/green_ll/7.jpg"",""time"":350},{""stimulus"":""img/green_ll/8.jpg"",""time"":400},{""stimulus"":""img/green_ll/9.jpg"",""time"":455},{""stimulus"":""img/green_ll/10.jpg"",""time"":500},{""stimulus"":""img/green_ll/11.jpg"",""time"":565}]","[]"
"image-keyboard-response","174","144982","0.0-5.0-1.85","63d2bc12a843f8466a8f83e0","bdp_lott","Sun Apr 09 2023 20:59:00 GMT-0400 (Eastern Daylight Time)","297538","green","red","","732","","","","choice","","img/green_ll/choose11.jpg","2","140","red","0.5","0.1","0.1","l","",""
"animation","175","145583","0.0-5.0-2.85","63d2bc12a843f8466a8f83e0","bdp_lott","Sun Apr 09 2023 20:59:00 GMT-0400 (Eastern Daylight Time)","297538","green","red","","","","","","","","","","140","","","","","","[{""stimulus"":""img/red_ll/1.jpg"",""time"":51},{""stimulus"":""img/red_ll/2.jpg"",""time"":108},{""stimulus"":""img/red_ll/3.jpg"",""time"":151},{""stimulus"":""img/red_ll/4.jpg"",""time"":201},{""stimulus"":""img/red_ll/5.jpg"",""time"":251},{""stimulus"":""img/red_ll/6.jpg"",""time"":301},{""stimulus"":""img/red_ll/7.jpg"",""time"":364},{""stimulus"":""img/red_ll/8.jpg"",""time"":412},{""stimulus"":""img/red_ll/9.jpg"",""time"":460},{""stimulus"":""img/red_ll/10.jpg"",""time"":508},{""stimulus"":""img/red_ll/11.jpg"",""time"":556}]","[]"
"image-keyboard-response","176","145897","0.0-5.0-1.86","63d2bc12a843f8466a8f83e0","bdp_lott","Sun Apr 09 2023 20:59:00 GMT-0400 (Eastern Daylight Time)","297538","green","red","","314","","","","choice","","img/red_ll/choose11.jpg","2","139","red","0.5","0.1","0.1","l","",""
"animation","177","146510","0.0-5.0-2.86","63d2bc12a843f8466a8f83e0","bdp_lott","Sun Apr 09 2023 20:59:00 GMT-0400 (Eastern Daylight Time)","297538","green","red","","","","","","","","","","139","","","","","","[{""stimulus"":""img/red_ll/1.jpg"",""time"":55},{""stimulus"":""img/red_ll/2.jpg"",""time"":101},{""stimulus"":""img/red_ll/3.jpg"",""time"":166},{""stimulus"":""img/red_ll/4.jpg"",""time"":213},{""stimulus"":""img/red_ll/5.jpg"",""time"":261},{""stimulus"":""img/red_ll/6.jpg"",""time"":309},{""stimulus"":""img/red_ll/7.jpg"",""time"":351},{""stimulus"":""img/red_ll/8.jpg"",""time"":405},{""stimulus"":""img/red_ll/9.jpg"",""time"":451},{""stimulus"":""img/red_ll/10.jpg"",""time"":501},{""stimulus"":""img/red_ll/11.jpg"",""time"":565}]","[]"
"image-keyboard-response","178","146810","0.0-5.0-1.87","63d2bc12a843f8466a8f83e0","bdp_lott","Sun Apr 09 2023 20:59:00 GMT-0400 (Eastern Daylight Time)","297538","green","red","","300","","","","choice","","img/red_ll/choose11.jpg","2","138","red","0.5","0.1","0.1","l","",""
"animation","179","147418","0.0-5.0-2.87","63d2bc12a843f8466a8f83e0","bdp_lott","Sun Apr 09 2023 20:59:00 GMT-0400 (Eastern Daylight Time)","297538","green","red","","","","","","","","","","138","","","","","","[{""stimulus"":""img/red_ll/1.jpg"",""time"":52},{""stimulus"":""img/red_ll/2.jpg"",""time"":116},{""stimulus"":""img/red_ll/3.jpg"",""time"":151},{""stimulus"":""img/red_ll/4.jpg"",""time"":212},{""stimulus"":""img/red_ll/5.jpg"",""time"":260},{""stimulus"":""img/red_ll/6.jpg"",""time"":308},{""stimulus"":""img/red_ll/7.jpg"",""time"":356},{""stimulus"":""img/red_ll/8.jpg"",""time"":404},{""stimulus"":""img/red_ll/9.jpg"",""time"":452},{""stimulus"":""img/red_ll/10.jpg"",""time"":514},{""stimulus"":""img/red_ll/11.jpg"",""time"":562}]","[]"
"image-keyboard-response","180","147664","0.0-5.0-1.88","63d2bc12a843f8466a8f83e0","bdp_lott","Sun Apr 09 2023 20:59:00 GMT-0400 (Eastern Daylight Time)","297538","green","red","","245","","","","choice","","img/red_ll/choose11.jpg","1","137","green","0.5","0.1","0.5","l","",""
"animation","181","148264","0.0-5.0-2.88","63d2bc12a843f8466a8f83e0","bdp_lott","Sun Apr 09 2023 20:59:00 GMT-0400 (Eastern Daylight Time)","297538","green","red","","","","","","","","","","137","","","","","","[{""stimulus"":""img/green_ll/1.jpg"",""time"":54},{""stimulus"":""img/green_ll/2.jpg"",""time"":102},{""stimulus"":""img/green_ll/3.jpg"",""time"":166},{""stimulus"":""img/green_ll/4.jpg"",""time"":201},{""stimulus"":""img/green_ll/5.jpg"",""time"":262},{""stimulus"":""img/green_ll/6.jpg"",""time"":310},{""stimulus"":""img/green_ll/7.jpg"",""time"":358},{""stimulus"":""img/green_ll/8.jpg"",""time"":406},{""stimulus"":""img/green_ll/9.jpg"",""time"":454},{""stimulus"":""img/green_ll/10.jpg"",""time"":502},{""stimulus"":""img/green_ll/11.jpg"",""time"":550}]","[]"
"image-keyboard-response","182","148728","0.0-5.0-1.89","63d2bc12a843f8466a8f83e0","bdp_lott","Sun Apr 09 2023 20:59:00 GMT-0400 (Eastern Daylight Time)","297538","green","red","","463","","","","choice","","img/green_ll/choose11.jpg","1","136","green","0.5","0.1","0.5","w","",""
"animation","183","149333","0.0-5.0-2.89","63d2bc12a843f8466a8f83e0","bdp_lott","Sun Apr 09 2023 20:59:00 GMT-0400 (Eastern Daylight Time)","297538","green","red","","","","","","","","","","136","","","","","","[{""stimulus"":""img/green_wl/1.jpg"",""time"":62},{""stimulus"":""img/green_wl/2.jpg"",""time"":110},{""stimulus"":""img/green_wl/3.jpg"",""time"":158},{""stimulus"":""img/green_wl/4.jpg"",""time"":201},{""stimulus"":""img/green_wl/5.jpg"",""time"":254},{""stimulus"":""img/green_wl/6.jpg"",""time"":302},{""stimulus"":""img/green_wl/7.jpg"",""time"":366},{""stimulus"":""img/green_wl/8.jpg"",""time"":414},{""stimulus"":""img/green_wl/9.jpg"",""time"":462},{""stimulus"":""img/green_wl/10.jpg"",""time"":510},{""stimulus"":""img/green_wl/11.jpg"",""time"":558}]","[]"
"image-keyboard-response","184","149787","0.0-5.0-1.90","63d2bc12a843f8466a8f83e0","bdp_lott","Sun Apr 09 2023 20:59:00 GMT-0400 (Eastern Daylight Time)","297538","green","red","","453","","","","choice","","img/green_wl/choose11.jpg","1","135","green","0.5","0.1","0.5","l","",""
"animation","185","150388","0.0-5.0-2.90","63d2bc12a843f8466a8f83e0","bdp_lott","Sun Apr 09 2023 20:59:00 GMT-0400 (Eastern Daylight Time)","297538","green","red","","","","","","","","","","135","","","","","","[{""stimulus"":""img/green_ll/1.jpg"",""time"":51},{""stimulus"":""img/green_ll/2.jpg"",""time"":101},{""stimulus"":""img/green_ll/3.jpg"",""time"":154},{""stimulus"":""img/green_ll/4.jpg"",""time"":202},{""stimulus"":""img/green_ll/5.jpg"",""time"":251},{""stimulus"":""img/green_ll/6.jpg"",""time"":314},{""stimulus"":""img/green_ll/7.jpg"",""time"":351},{""stimulus"":""img/green_ll/8.jpg"",""time"":408},{""stimulus"":""img/green_ll/9.jpg"",""time"":456},{""stimulus"":""img/green_ll/10.jpg"",""time"":501},{""stimulus"":""img/green_ll/11.jpg"",""time"":551}]","[]"
"image-keyboard-response","186","150819","0.0-5.0-1.91","63d2bc12a843f8466a8f83e0","bdp_lott","Sun Apr 09 2023 20:59:00 GMT-0400 (Eastern Daylight Time)","297538","green","red","","431","","","","choice","","img/green_ll/choose11.jpg","2","134","red","0.5","0.1","0.1","w","",""
"animation","187","151427","0.0-5.0-2.91","63d2bc12a843f8466a8f83e0","bdp_lott","Sun Apr 09 2023 20:59:00 GMT-0400 (Eastern Daylight Time)","297538","green","red","","","","","","","","","","134","","","","","","[{""stimulus"":""img/red_lw/1.jpg"",""time"":64},{""stimulus"":""img/red_lw/2.jpg"",""time"":112},{""stimulus"":""img/red_lw/3.jpg"",""time"":160},{""stimulus"":""img/red_lw/4.jpg"",""time"":208},{""stimulus"":""img/red_lw/5.jpg"",""time"":256},{""stimulus"":""img/red_lw/6.jpg"",""time"":304},{""stimulus"":""img/red_lw/7.jpg"",""time"":352},{""stimulus"":""img/red_lw/8.jpg"",""time"":416},{""stimulus"":""img/red_lw/9.jpg"",""time"":464},{""stimulus"":""img/red_lw/10.jpg"",""time"":512},{""stimulus"":""img/red_lw/11.jpg"",""time"":551}]","[]"
"image-keyboard-response","188","151857","0.0-5.0-1.92","63d2bc12a843f8466a8f83e0","bdp_lott","Sun Apr 09 2023 20:59:00 GMT-0400 (Eastern Daylight Time)","297538","green","red","","430","","","","choice","","img/red_lw/choose11.jpg","2","133","red","0.5","0.1","0.1","l","",""
"animation","189","152465","0.0-5.0-2.92","63d2bc12a843f8466a8f83e0","bdp_lott","Sun Apr 09 2023 20:59:00 GMT-0400 (Eastern Daylight Time)","297538","green","red","","","","","","","","","","133","","","","","","[{""stimulus"":""img/red_ll/1.jpg"",""time"":66},{""stimulus"":""img/red_ll/2.jpg"",""time"":114},{""stimulus"":""img/red_ll/3.jpg"",""time"":162},{""stimulus"":""img/red_ll/4.jpg"",""time"":210},{""stimulus"":""img/red_ll/5.jpg"",""time"":258},{""stimulus"":""img/red_ll/6.jpg"",""time"":306},{""stimulus"":""img/red_ll/7.jpg"",""time"":353},{""stimulus"":""img/red_ll/8.jpg"",""time"":416},{""stimulus"":""img/red_ll/9.jpg"",""time"":464},{""stimulus"":""img/red_ll/10.jpg"",""time"":512},{""stimulus"":""img/red_ll/11.jpg"",""time"":560}]","[]"
"image-keyboard-response","190","152803","0.0-5.0-1.93","63d2bc12a843f8466a8f83e0","bdp_lott","Sun Apr 09 2023 20:59:00 GMT-0400 (Eastern Daylight Time)","297538","green","red","","337","","","","choice","","img/red_ll/choose11.jpg","1","132","green","0.5","0.1","0.5","w","",""
