"trial_type","trial_index","time_elapsed","internal_node_id","subject_id","task","startTime","totalTime","fairMachine","unfairMachine","view_history","rt","event","trial","time","trialtype","success","stimulus","key_press","roundsLeft","chosen","pFairMachWin","pUnfairMachWin","pTrialWin","outcome","animation_sequence","responses"
"pavlovia","0","2","0.0-0.0","60599946259dc97d30e2001f","bdp_lott","Sun Apr 02 2023 20:44:47 GMT-0700 (Pacific Daylight Time)","218137","green","red","","","","","","","","","","","","","","","","",""
"instructions","1","1994","0.0-1.0","60599946259dc97d30e2001f","bdp_lott","Sun Apr 02 2023 20:44:47 GMT-0700 (Pacific Daylight Time)","218137","green","red","[{""page_index"":0,""viewing_time"":1992}]","1992","","","","","","","","","","","","","","",""
"","","","","60599946259dc97d30e2001f","bdp_lott","Sun Apr 02 2023 20:44:47 GMT-0700 (Pacific Daylight Time)","218137","green","red","","","fullscreenenter","2","4107","fullscreenenter","","","","","","","","","","",""
"fullscreen","2","5102","0.0-2.0","60599946259dc97d30e2001f","bdp_lott","Sun Apr 02 2023 20:44:47 GMT-0700 (Pacific Daylight Time)","218137","green","red","","","","","","","true","","","","","","","","","",""
"instructions","3","21642","0.0-4.0","60599946259dc97d30e2001f","bdp_lott","Sun Apr 02 2023 20:44:47 GMT-0700 (Pacific Daylight Time)","218137","green","red","[{""page_index"":0,""viewing_time"":16539}]","16539","","","","","","","","","","","","","","",""
"image-keyboard-response","4","23969","0.0-5.0-1.0","60599946259dc97d30e2001f","bdp_lott","Sun Apr 02 2023 20:44:47 GMT-0700 (Pacific Daylight Time)","218137","green","red","","2326","","","","choice","","img/red_ll/initchoose11.jpg","1","225","green","0.5","0.5","0.5","l","",""
"animation","5","24580","0.0-5.0-2.0","60599946259dc97d30e2001f","bdp_lott","Sun Apr 02 2023 20:44:47 GMT-0700 (Pacific Daylight Time)","218137","green","red","","","","","","","","","","225","","","","","","[{""stimulus"":""img/green_ll/1.jpg"",""time"":52},{""stimulus"":""img/green_ll/2.jpg"",""time"":100},{""stimulus"":""img/green_ll/3.jpg"",""time"":164},{""stimulus"":""img/green_ll/4.jpg"",""time"":212},{""stimulus"":""img/green_ll/5.jpg"",""time"":250},{""stimulus"":""img/green_ll/6.jpg"",""time"":308},{""stimulus"":""img/green_ll/7.jpg"",""time"":354},{""stimulus"":""img/green_ll/8.jpg"",""time"":402},{""stimulus"":""img/green_ll/9.jpg"",""time"":450},{""stimulus"":""img/green_ll/10.jpg"",""time"":514},{""stimulus"":""img/green_ll/11.jpg"",""time"":562}]","[]"
"image-keyboard-response","6","26009","0.0-5.0-1.1","60599946259dc97d30e2001f","bdp_lott","Sun Apr 02 2023 20:44:47 GMT-0700 (Pacific Daylight Time)","218137","green","red","","1428","","","","choice","","img/green_ll/choose11.jpg","1","224","green","0.5","0.5","0.5","w","",""
"animation","7","26614","0.0-5.0-2.1","60599946259dc97d30e2001f","bdp_lott","Sun Apr 02 2023 20:44:47 GMT-0700 (Pacific Daylight Time)","218137","green","red","","","","","","","","","","224","","","","","","[{""stimulus"":""img/green_wl/1.jpg"",""time"":50},{""stimulus"":""img/green_wl/2.jpg"",""time"":114},{""stimulus"":""img/green_wl/3.jpg"",""time"":162},{""stimulus"":""img/green_wl/4.jpg"",""time"":210},{""stimulus"":""img/green_wl/5.jpg"",""time"":257},{""stimulus"":""img/green_wl/6.jpg"",""time"":303},{""stimulus"":""img/green_wl/7.jpg"",""time"":350},{""stimulus"":""img/green_wl/8.jpg"",""time"":414},{""stimulus"":""img/green_wl/9.jpg"",""time"":462},{""stimulus"":""img/green_wl/10.jpg"",""time"":508},{""stimulus"":""img/green_wl/11.jpg"",""time"":556}]","[]"
"image-keyboard-response","8","27545","0.0-5.0-1.2","60599946259dc97d30e2001f","bdp_lott","Sun Apr 02 2023 20:44:47 GMT-0700 (Pacific Daylight Time)","218137","green","red","","931","","","","choice","","img/green_wl/choose11.jpg","2","223","red","0.5","0.5","0.5","w","",""
"animation","9","28156","0.0-5.0-2.2","60599946259dc97d30e2001f","bdp_lott","Sun Apr 02 2023 20:44:47 GMT-0700 (Pacific Daylight Time)","218137","green","red","","","","","","","","","","223","","","","","","[{""stimulus"":""img/red_ww/1.jpg"",""time"":57},{""stimulus"":""img/red_ww/2.jpg"",""time"":105},{""stimulus"":""img/red_ww/3.jpg"",""time"":153},{""stimulus"":""img/red_ww/4.jpg"",""time"":201},{""stimulus"":""img/red_ww/5.jpg"",""time"":265},{""stimulus"":""img/red_ww/6.jpg"",""time"":313},{""stimulus"":""img/red_ww/7.jpg"",""time"":359},{""stimulus"":""img/red_ww/8.jpg"",""time"":407},{""stimulus"":""img/red_ww/9.jpg"",""time"":455},{""stimulus"":""img/red_ww/10.jpg"",""time"":503},{""stimulus"":""img/red_ww/11.jpg"",""time"":565}]","[]"
"image-keyboard-response","10","29593","0.0-5.0-1.3","60599946259dc97d30e2001f","bdp_lott","Sun Apr 02 2023 20:44:47 GMT-0700 (Pacific Daylight Time)","218137","green","red","","1437","","","","choice","","img/red_ww/choose11.jpg","2","222","red","0.5","0.5","0.5","l","",""
"animation","11","30194","0.0-5.0-2.3","60599946259dc97d30e2001f","bdp_lott","Sun Apr 02 2023 20:44:47 GMT-0700 (Pacific Daylight Time)","218137","green","red","","","","","","","","","","222","","","","","","[{""stimulus"":""img/red_wl/1.jpg"",""time"":51},{""stimulus"":""img/red_wl/2.jpg"",""time"":101},{""stimulus"":""img/red_wl/3.jpg"",""time"":151},{""stimulus"":""img/red_wl/4.jpg"",""time"":202},{""stimulus"":""img/red_wl/5.jpg"",""time"":251},{""stimulus"":""img/red_wl/6.jpg"",""time"":302},{""stimulus"":""img/red_wl/7.jpg"",""time"":351},{""stimulus"":""img/red_wl/8.jpg"",""time"":401},{""stimulus"":""img/red_wl/9.jpg"",""time"":451},{""stimulus"":""img/red_wl/10.jpg"",""time"":501},{""stimulus"":""img/red_wl/11.jpg"",""time"":552}]","[]"
"image-keyboard-response","12","30689","0.0-5.0-1.4","60599946259dc97d30e2001f","bdp_lott","Sun Apr 02 2023 20:44:47 GMT-0700 (Pacific Daylight Time)","218137","green","red","","495","","","","choice","","img/red_wl/choose11.jpg","1","221","green","0.5","0.5","0.5","w","",""
"animation","13","31290","0.0-5.0-2.4","60599946259dc97d30e2001f","bdp_lott","Sun Apr 02 2023 20:44:47 GMT-0700 (Pacific Daylight Time)","218137","green","red","","","","","","","","","","221","","","","","","[{""stimulus"":""img/green_wl/1.jpg"",""time"":51},{""stimulus"":""img/green_wl/2.jpg"",""time"":102},{""stimulus"":""img/green_wl/3.jpg"",""time"":152},{""stimulus"":""img/green_wl/4.jpg"",""time"":202},{""stimulus"":""img/green_wl/5.jpg"",""time"":251},{""stimulus"":""img/green_wl/6.jpg"",""time"":301},{""stimulus"":""img/green_wl/7.jpg"",""time"":351},{""stimulus"":""img/green_wl/8.jpg"",""time"":402},{""stimulus"":""img/green_wl/9.jpg"",""time"":451},{""stimulus"":""img/green_wl/10.jpg"",""time"":501},{""stimulus"":""img/green_wl/11.jpg"",""time"":551}]","[]"
"image-keyboard-response","14","31946","0.0-5.0-1.5","60599946259dc97d30e2001f","bdp_lott","Sun Apr 02 2023 20:44:47 GMT-0700 (Pacific Daylight Time)","218137","green","red","","656","","","","choice","","img/green_wl/choose11.jpg","1","220","green","0.5","0.5","0.5","w","",""
"animation","15","32546","0.0-5.0-2.5","60599946259dc97d30e2001f","bdp_lott","Sun Apr 02 2023 20:44:47 GMT-0700 (Pacific Daylight Time)","218137","green","red","","","","","","","","","","220","","","","","","[{""stimulus"":""img/green_wl/1.jpg"",""time"":50},{""stimulus"":""img/green_wl/2.jpg"",""time"":100},{""stimulus"":""img/green_wl/3.jpg"",""time"":150},{""stimulus"":""img/green_wl/4.jpg"",""time"":200},{""stimulus"":""img/green_wl/5.jpg"",""time"":250},{""stimulus"":""img/green_wl/6.jpg"",""time"":300},{""stimulus"":""img/green_wl/7.jpg"",""time"":350},{""stimulus"":""img/green_wl/8.jpg"",""time"":400},{""stimulus"":""img/green_wl/9.jpg"",""time"":451},{""stimulus"":""img/green_wl/10.jpg"",""time"":500},{""stimulus"":""img/green_wl/11.jpg"",""time"":551}]","[]"
"image-keyboard-response","16","33009","0.0-5.0-1.6","60599946259dc97d30e2001f","bdp_lott","Sun Apr 02 2023 20:44:47 GMT-0700 (Pacific Daylight Time)","218137","green","red","","463","","","","choice","","img/green_wl/choose11.jpg","1","219","green","0.5","0.5","0.5","w","",""
"animation","17","33610","0.0-5.0-2.6","60599946259dc97d30e2001f","bdp_lott","Sun Apr 02 2023 20:44:47 GMT-0700 (Pacific Daylight Time)","218137","green","red","","","","","","","","","","219","","","","","","[{""stimulus"":""img/green_wl/1.jpg"",""time"":51},{""stimulus"":""img/green_wl/2.jpg"",""time"":101},{""stimulus"":""img/green_wl/3.jpg"",""time"":152},{""stimulus"":""img/green_wl/4.jpg"",""time"":201},{""stimulus"":""img/green_wl/5.jpg"",""time"":251},{""stimulus"":""img/green_wl/6.jpg"",""time"":301},{""stimulus"":""img/green_wl/7.jpg"",""time"":351},{""stimulus"":""img/green_wl/8.jpg"",""time"":401},{""stimulus"":""img/green_wl/9.jpg"",""time"":452},{""stimulus"":""img/green_wl/10.jpg"",""time"":501},{""stimulus"":""img/green_wl/11.jpg"",""time"":551}]","[]"
"image-keyboard-response","18","34665","0.0-5.0-1.7","60599946259dc97d30e2001f","bdp_lott","Sun Apr 02 2023 20:44:47 GMT-0700 (Pacific Daylight Time)","218137","green","red","","1055","","","","choice","","img/green_wl/choose11.jpg","2","218","red","0.5","0.5","0.5","w","",""
"animation","19","35266","0.0-5.0-2.7","60599946259dc97d30e2001f","bdp_lott","Sun Apr 02 2023 20:44:47 GMT-0700 (Pacific Daylight Time)","218137","green","red","","","","","","","","","","218","","","","","","[{""stimulus"":""img/red_ww/1.jpg"",""time"":52},{""stimulus"":""img/red_ww/2.jpg"",""time"":101},{""stimulus"":""img/red_ww/3.jpg"",""time"":152},{""stimulus"":""img/red_ww/4.jpg"",""time"":201},{""stimulus"":""img/red_ww/5.jpg"",""time"":251},{""stimulus"":""img/red_ww/6.jpg"",""time"":301},{""stimulus"":""img/red_ww/7.jpg"",""time"":351},{""stimulus"":""img/red_ww/8.jpg"",""time"":401},{""stimulus"":""img/red_ww/9.jpg"",""time"":451},{""stimulus"":""img/red_ww/10.jpg"",""time"":501},{""stimulus"":""img/red_ww/11.jpg"",""time"":551}]","[]"
"image-keyboard-response","20","36553","0.0-5.0-1.8","60599946259dc97d30e2001f","bdp_lott","Sun Apr 02 2023 20:44:47 GMT-0700 (Pacific Daylight Time)","218137","green","red","","1287","","","","choice","","img/red_ww/choose11.jpg","1","217","green","0.5","0.5","0.5","w","",""
"animation","21","37154","0.0-5.0-2.8","60599946259dc97d30e2001f","bdp_lott","Sun Apr 02 2023 20:44:47 GMT-0700 (Pacific Daylight Time)","218137","green","red","","","","","","","","","","217","","","","","","[{""stimulus"":""img/green_ww/1.jpg"",""time"":50},{""stimulus"":""img/green_ww/2.jpg"",""time"":100},{""stimulus"":""img/green_ww/3.jpg"",""time"":150},{""stimulus"":""img/green_ww/4.jpg"",""time"":201},{""stimulus"":""img/green_ww/5.jpg"",""time"":251},{""stimulus"":""img/green_ww/6.jpg"",""time"":300},{""stimulus"":""img/green_ww/7.jpg"",""time"":350},{""stimulus"":""img/green_ww/8.jpg"",""time"":400},{""stimulus"":""img/green_ww/9.jpg"",""time"":450},{""stimulus"":""img/green_ww/10.jpg"",""time"":501},{""stimulus"":""img/green_ww/11.jpg"",""time"":551}]","[]"
"image-keyboard-response","22","37969","0.0-5.0-1.9","60599946259dc97d30e2001f","bdp_lott","Sun Apr 02 2023 20:44:47 GMT-0700 (Pacific Daylight Time)","218137","green","red","","815","","","","choice","","img/green_ww/choose11.jpg","2","216","red","0.5","0.5","0.5","l","",""
"animation","23","38570","0.0-5.0-2.9","60599946259dc97d30e2001f","bdp_lott","Sun Apr 02 2023 20:44:47 GMT-0700 (Pacific Daylight Time)","218137","green","red","","","","","","","","","","216","","","","","","[{""stimulus"":""img/red_wl/1.jpg"",""time"":51},{""stimulus"":""img/red_wl/2.jpg"",""time"":101},{""stimulus"":""img/red_wl/3.jpg"",""time"":151},{""stimulus"":""img/red_wl/4.jpg"",""time"":201},{""stimulus"":""img/red_wl/5.jpg"",""time"":251},{""stimulus"":""img/red_wl/6.jpg"",""time"":301},{""stimulus"":""img/red_wl/7.jpg"",""time"":351},{""stimulus"":""img/red_wl/8.jpg"",""time"":401},{""stimulus"":""img/red_wl/9.jpg"",""time"":451},{""stimulus"":""img/red_wl/10.jpg"",""time"":502},{""stimulus"":""img/red_wl/11.jpg"",""time"":551}]","[]"
"image-keyboard-response","24","39121","0.0-5.0-1.10","60599946259dc97d30e2001f","bdp_lott","Sun Apr 02 2023 20:44:47 GMT-0700 (Pacific Daylight Time)","218137","green","red","","551","","","","choice","","img/red_wl/choose11.jpg","1","215","green","0.5","0.5","0.5","l","",""
"animation","25","39722","0.0-5.0-2.10","60599946259dc97d30e2001f","bdp_lott","Sun Apr 02 2023 20:44:47 GMT-0700 (Pacific Daylight Time)","218137","green","red","","","","","","","","","","215","","","","","","[{""stimulus"":""img/green_ll/1.jpg"",""time"":51},{""stimulus"":""img/green_ll/2.jpg"",""time"":101},{""stimulus"":""img/green_ll/3.jpg"",""time"":151},{""stimulus"":""img/green_ll/4.jpg"",""time"":201},{""stimulus"":""img/green_ll/5.jpg"",""time"":251},{""stimulus"":""img/green_ll/6.jpg"",""time"":301},{""stimulus"":""img/green_ll/7.jpg"",""time"":351},{""stimulus"":""img/green_ll/8.jpg"",""time"":401},{""stimulus"":""img/green_ll/9.jpg"",""time"":451},{""stimulus"":""img/green_ll/10.jpg"",""time"":501},{""stimulus"":""img/green_ll/11.jpg"",""time"":551}]","[]"
"image-keyboard-response","26","40657","0.0-5.0-1.11","60599946259dc97d30e2001f","bdp_lott","Sun Apr 02 2023 20:44:47 GMT-0700 (Pacific Daylight Time)","218137","green","red","","934","","","","choice","","img/green_ll/choose11.jpg","1","214","green","0.5","0.5","0.5","w","",""
"animation","27","41258","0.0-5.0-2.11","60599946259dc97d30e2001f","bdp_lott","Sun Apr 02 2023 20:44:47 GMT-0700 (Pacific Daylight Time)","218137","green","red","","","","","","","","","","214","","","","","","[{""stimulus"":""img/green_wl/1.jpg"",""time"":51},{""stimulus"":""img/green_wl/2.jpg"",""time"":101},{""stimulus"":""img/green_wl/3.jpg"",""time"":152},{""stimulus"":""img/green_wl/4.jpg"",""time"":201},{""stimulus"":""img/green_wl/5.jpg"",""time"":251},{""stimulus"":""img/green_wl/6.jpg"",""time"":301},{""stimulus"":""img/green_wl/7.jpg"",""time"":351},{""stimulus"":""img/green_wl/8.jpg"",""time"":402},{""stimulus"":""img/green_wl/9.jpg"",""time"":451},{""stimulus"":""img/green_wl/10.jpg"",""time"":501},{""stimulus"":""img/green_wl/11.jpg"",""time"":551}]","[]"
"image-keyboard-response","28","42010","0.0-5.0-1.12","60599946259dc97d30e2001f","bdp_lott","Sun Apr 02 2023 20:44:47 GMT-0700 (Pacific Daylight Time)","218137","green","red","","752","","","","choice","","img/green_wl/choose11.jpg","1","213","green","0.5","0.5","0.5","l","",""
"animation","29","42610","0.0-5.0-2.12","60599946259dc97d30e2001f","bdp_lott","Sun Apr 02 2023 20:44:47 GMT-0700 (Pacific Daylight Time)","218137","green","red","","","","","","","","","","213","","","","","","[{""stimulus"":""img/green_ll/1.jpg"",""time"":50},{""stimulus"":""img/green_ll/2.jpg"",""time"":100},{""stimulus"":""img/green_ll/3.jpg"",""time"":150},{""stimulus"":""img/green_ll/4.jpg"",""time"":200},{""stimulus"":""img/green_ll/5.jpg"",""time"":251},{""stimulus"":""img/green_ll/6.jpg"",""time"":301},{""stimulus"":""img/green_ll/7.jpg"",""time"":350},{""stimulus"":""img/green_ll/8.jpg"",""time"":400},{""stimulus"":""img/green_ll/9.jpg"",""time"":450},{""stimulus"":""img/green_ll/10.jpg"",""time"":500},{""stimulus"":""img/green_ll/11.jpg"",""time"":550}]","[]"
"image-keyboard-response","30","43193","0.0-5.0-1.13","60599946259dc97d30e2001f","bdp_lott","Sun Apr 02 2023 20:44:47 GMT-0700 (Pacific Daylight Time)","218137","green","red","","583","","","","choice","","img/green_ll/choose11.jpg","2","212","red","0.5","0.5","0.5","w","",""
"animation","31","43794","0.0-5.0-2.13","60599946259dc97d30e2001f","bdp_lott","Sun Apr 02 2023 20:44:47 GMT-0700 (Pacific Daylight Time)","218137","green","red","","","","","","","","","","212","","","","","","[{""stimulus"":""img/red_lw/1.jpg"",""time"":51},{""stimulus"":""img/red_lw/2.jpg"",""time"":101},{""stimulus"":""img/red_lw/3.jpg"",""time"":151},{""stimulus"":""img/red_lw/4.jpg"",""time"":201},{""stimulus"":""img/red_lw/5.jpg"",""time"":252},{""stimulus"":""img/red_lw/6.jpg"",""time"":301},{""stimulus"":""img/red_lw/7.jpg"",""time"":351},{""stimulus"":""img/red_lw/8.jpg"",""time"":401},{""stimulus"":""img/red_lw/9.jpg"",""time"":451},{""stimulus"":""img/red_lw/10.jpg"",""time"":501},{""stimulus"":""img/red_lw/11.jpg"",""time"":551}]","[]"
"image-keyboard-response","32","44681","0.0-5.0-1.14","60599946259dc97d30e2001f","bdp_lott","Sun Apr 02 2023 20:44:47 GMT-0700 (Pacific Daylight Time)","218137","green","red","","887","","","","choice","","img/red_lw/choose11.jpg","2","211","red","0.5","0.5","0.5","l","",""
"animation","33","45282","0.0-5.0-2.14","60599946259dc97d30e2001f","bdp_lott","Sun Apr 02 2023 20:44:47 GMT-0700 (Pacific Daylight Time)","218137","green","red","","","","","","","","","","211","","","","","","[{""stimulus"":""img/red_ll/1.jpg"",""time"":52},{""stimulus"":""img/red_ll/2.jpg"",""time"":102},{""stimulus"":""img/red_ll/3.jpg"",""time"":151},{""stimulus"":""img/red_ll/4.jpg"",""time"":201},{""stimulus"":""img/red_ll/5.jpg"",""time"":251},{""stimulus"":""img/red_ll/6.jpg"",""time"":301},{""stimulus"":""img/red_ll/7.jpg"",""time"":352},{""stimulus"":""img/red_ll/8.jpg"",""time"":401},{""stimulus"":""img/red_ll/9.jpg"",""time"":452},{""stimulus"":""img/red_ll/10.jpg"",""time"":501},{""stimulus"":""img/red_ll/11.jpg"",""time"":551}]","[]"
"image-keyboard-response","34","45953","0.0-5.0-1.15","60599946259dc97d30e2001f","bdp_lott","Sun Apr 02 2023 20:44:47 GMT-0700 (Pacific Daylight Time)","218137","green","red","","671","","","","choice","","img/red_ll/choose11.jpg","2","210","red","0.5","0.5","0.5","w","",""
"animation","35","46554","0.0-5.0-2.15","60599946259dc97d30e2001f","bdp_lott","Sun Apr 02 2023 20:44:47 GMT-0700 (Pacific Daylight Time)","218137","green","red","","","","","","","","","","210","","","","","","[{""stimulus"":""img/red_lw/1.jpg"",""time"":51},{""stimulus"":""img/red_lw/2.jpg"",""time"":101},{""stimulus"":""img/red_lw/3.jpg"",""time"":151},{""stimulus"":""img/red_lw/4.jpg"",""time"":201},{""stimulus"":""img/red_lw/5.jpg"",""time"":251},{""stimulus"":""img/red_lw/6.jpg"",""time"":301},{""stimulus"":""img/red_lw/7.jpg"",""time"":351},{""stimulus"":""img/red_lw/8.jpg"",""time"":402},{""stimulus"":""img/red_lw/9.jpg"",""time"":451},{""stimulus"":""img/red_lw/10.jpg"",""time"":501},{""stimulus"":""img/red_lw/11.jpg"",""time"":551}]","[]"
"image-keyboard-response","36","47697","0.0-5.0-1.16","60599946259dc97d30e2001f","bdp_lott","Sun Apr 02 2023 20:44:47 GMT-0700 (Pacific Daylight Time)","218137","green","red","","1143","","","","choice","","img/red_lw/choose11.jpg","1","209","green","0.5","0.5","0.5","w","",""
"animation","37","48298","0.0-5.0-2.16","60599946259dc97d30e2001f","bdp_lott","Sun Apr 02 2023 20:44:47 GMT-0700 (Pacific Daylight Time)","218137","green","red","","","","","","","","","","209","","","","","","[{""stimulus"":""img/green_ww/1.jpg"",""time"":51},{""stimulus"":""img/green_ww/2.jpg"",""time"":101},{""stimulus"":""img/green_ww/3.jpg"",""time"":151},{""stimulus"":""img/green_ww/4.jpg"",""time"":201},{""stimulus"":""img/green_ww/5.jpg"",""time"":251},{""stimulus"":""img/green_ww/6.jpg"",""time"":301},{""stimulus"":""img/green_ww/7.jpg"",""time"":351},{""stimulus"":""img/green_ww/8.jpg"",""time"":401},{""stimulus"":""img/green_ww/9.jpg"",""time"":452},{""stimulus"":""img/green_ww/10.jpg"",""time"":501},{""stimulus"":""img/green_ww/11.jpg"",""time"":551}]","[]"
"image-keyboard-response","38","49217","0.0-5.0-1.17","60599946259dc97d30e2001f","bdp_lott","Sun Apr 02 2023 20:44:47 GMT-0700 (Pacific Daylight Time)","218137","green","red","","919","","","","choice","","img/green_ww/choose11.jpg","1","208","green","0.5","0.5","0.5","w","",""
"animation","39","49818","0.0-5.0-2.17","60599946259dc97d30e2001f","bdp_lott","Sun Apr 02 2023 20:44:47 GMT-0700 (Pacific Daylight Time)","218137","green","red","","","","","","","","","","208","","","","","","[{""stimulus"":""img/green_ww/1.jpg"",""time"":51},{""stimulus"":""img/green_ww/2.jpg"",""time"":101},{""stimulus"":""img/green_ww/3.jpg"",""time"":151},{""stimulus"":""img/green_ww/4.jpg"",""time"":201},{""stimulus"":""img/green_ww/5.jpg"",""time"":251},{""stimulus"":""img/green_ww/6.jpg"",""time"":301},{""stimulus"":""img/green_ww/7.jpg"",""time"":351},{""stimulus"":""img/green_ww/8.jpg"",""time"":401},{""stimulus"":""img/green_ww/9.jpg"",""time"":451},{""stimulus"":""img/green_ww/10.jpg"",""time"":501},{""stimulus"":""img/green_ww/11.jpg"",""time"":551}]","[]"
"image-keyboard-response","40","50817","0.0-5.0-1.18","60599946259dc97d30e2001f","bdp_lott","Sun Apr 02 2023 20:44:47 GMT-0700 (Pacific Daylight Time)","218137","green","red","","999","","","","choice","","img/green_ww/choose11.jpg","2","207","red","0.5","0.5","0.5","w","",""
"animation","41","51418","0.0-5.0-2.18","60599946259dc97d30e2001f","bdp_lott","Sun Apr 02 2023 20:44:47 GMT-0700 (Pacific Daylight Time)","218137","green","red","","","","","","","","","","207","","","","","","[{""stimulus"":""img/red_ww/1.jpg"",""time"":51},{""stimulus"":""img/red_ww/2.jpg"",""time"":101},{""stimulus"":""img/red_ww/3.jpg"",""time"":151},{""stimulus"":""img/red_ww/4.jpg"",""time"":201},{""stimulus"":""img/red_ww/5.jpg"",""time"":251},{""stimulus"":""img/red_ww/6.jpg"",""time"":301},{""stimulus"":""img/red_ww/7.jpg"",""time"":351},{""stimulus"":""img/red_ww/8.jpg"",""time"":401},{""stimulus"":""img/red_ww/9.jpg"",""time"":451},{""stimulus"":""img/red_ww/10.jpg"",""time"":501},{""stimulus"":""img/red_ww/11.jpg"",""time"":551}]","[]"
"image-keyboard-response","42","52266","0.0-5.0-1.19","60599946259dc97d30e2001f","bdp_lott","Sun Apr 02 2023 20:44:47 GMT-0700 (Pacific Daylight Time)","218137","green","red","","848","","","","choice","","img/red_ww/choose11.jpg","2","206","red","0.5","0.5","0.5","l","",""
"animation","43","52866","0.0-5.0-2.19","60599946259dc97d30e2001f","bdp_lott","Sun Apr 02 2023 20:44:47 GMT-0700 (Pacific Daylight Time)","218137","green","red","","","","","","","","","","206","","","","","","[{""stimulus"":""img/red_wl/1.jpg"",""time"":50},{""stimulus"":""img/red_wl/2.jpg"",""time"":100},{""stimulus"":""img/red_wl/3.jpg"",""time"":151},{""stimulus"":""img/red_wl/4.jpg"",""time"":200},{""stimulus"":""img/red_wl/5.jpg"",""time"":250},{""stimulus"":""img/red_wl/6.jpg"",""time"":300},{""stimulus"":""img/red_wl/7.jpg"",""time"":350},{""stimulus"":""img/red_wl/8.jpg"",""time"":400},{""stimulus"":""img/red_wl/9.jpg"",""time"":451},{""stimulus"":""img/red_wl/10.jpg"",""time"":500},{""stimulus"":""img/red_wl/11.jpg"",""time"":550}]","[]"
"image-keyboard-response","44","53305","0.0-5.0-1.20","60599946259dc97d30e2001f","bdp_lott","Sun Apr 02 2023 20:44:47 GMT-0700 (Pacific Daylight Time)","218137","green","red","","439","","","","choice","","img/red_wl/choose11.jpg","1","205","green","0.5","0.5","0.5","w","",""
"animation","45","53906","0.0-5.0-2.20","60599946259dc97d30e2001f","bdp_lott","Sun Apr 02 2023 20:44:47 GMT-0700 (Pacific Daylight Time)","218137","green","red","","","","","","","","","","205","","","","","","[{""stimulus"":""img/green_wl/1.jpg"",""time"":51},{""stimulus"":""img/green_wl/2.jpg"",""time"":101},{""stimulus"":""img/green_wl/3.jpg"",""time"":151},{""stimulus"":""img/green_wl/4.jpg"",""time"":201},{""stimulus"":""img/green_wl/5.jpg"",""time"":251},{""stimulus"":""img/green_wl/6.jpg"",""time"":301},{""stimulus"":""img/green_wl/7.jpg"",""time"":351},{""stimulus"":""img/green_wl/8.jpg"",""time"":401},{""stimulus"":""img/green_wl/9.jpg"",""time"":451},{""stimulus"":""img/green_wl/10.jpg"",""time"":501},{""stimulus"":""img/green_wl/11.jpg"",""time"":552}]","[]"
"image-keyboard-response","46","54769","0.0-5.0-1.21","60599946259dc97d30e2001f","bdp_lott","Sun Apr 02 2023 20:44:47 GMT-0700 (Pacific Daylight Time)","218137","green","red","","863","","","","choice","","img/green_wl/choose11.jpg","1","204","green","0.5","0.5","0.5","w","",""
"animation","47","55370","0.0-5.0-2.21","60599946259dc97d30e2001f","bdp_lott","Sun Apr 02 2023 20:44:47 GMT-0700 (Pacific Daylight Time)","218137","green","red","","","","","","","","","","204","","","","","","[{""stimulus"":""img/green_wl/1.jpg"",""time"":51},{""stimulus"":""img/green_wl/2.jpg"",""time"":101},{""stimulus"":""img/green_wl/3.jpg"",""time"":151},{""stimulus"":""img/green_wl/4.jpg"",""time"":201},{""stimulus"":""img/green_wl/5.jpg"",""time"":252},{""stimulus"":""img/green_wl/6.jpg"",""time"":301},{""stimulus"":""img/green_wl/7.jpg"",""time"":351},{""stimulus"":""img/green_wl/8.jpg"",""time"":401},{""stimulus"":""img/green_wl/9.jpg"",""time"":452},{""stimulus"":""img/green_wl/10.jpg"",""time"":501},{""stimulus"":""img/green_wl/11.jpg"",""time"":551}]","[]"
"image-keyboard-response","48","55929","0.0-5.0-1.22","60599946259dc97d30e2001f","bdp_lott","Sun Apr 02 2023 20:44:47 GMT-0700 (Pacific Daylight Time)","218137","green","red","","559","","","","choice","","img/green_wl/choose11.jpg","1","203","green","0.5","0.5","0.5","w","",""
"animation","49","56530","0.0-5.0-2.22","60599946259dc97d30e2001f","bdp_lott","Sun Apr 02 2023 20:44:47 GMT-0700 (Pacific Daylight Time)","218137","green","red","","","","","","","","","","203","","","","","","[{""stimulus"":""img/green_wl/1.jpg"",""time"":51},{""stimulus"":""img/green_wl/2.jpg"",""time"":101},{""stimulus"":""img/green_wl/3.jpg"",""time"":151},{""stimulus"":""img/green_wl/4.jpg"",""time"":201},{""stimulus"":""img/green_wl/5.jpg"",""time"":251},{""stimulus"":""img/green_wl/6.jpg"",""time"":301},{""stimulus"":""img/green_wl/7.jpg"",""time"":351},{""stimulus"":""img/green_wl/8.jpg"",""time"":401},{""stimulus"":""img/green_wl/9.jpg"",""time"":451},{""stimulus"":""img/green_wl/10.jpg"",""time"":501},{""stimulus"":""img/green_wl/11.jpg"",""time"":551}]","[]"
"image-keyboard-response","50","56913","0.0-5.0-1.23","60599946259dc97d30e2001f","bdp_lott","Sun Apr 02 2023 20:44:47 GMT-0700 (Pacific Daylight Time)","218137","green","red","","383","","","","choice","","img/green_wl/choose11.jpg","1","202","green","0.5","0.5","0.5","l","",""
"animation","51","57514","0.0-5.0-2.23","60599946259dc97d30e2001f","bdp_lott","Sun Apr 02 2023 20:44:47 GMT-0700 (Pacific Daylight Time)","218137","green","red","","","","","","","","","","202","","","","","","[{""stimulus"":""img/green_ll/1.jpg"",""time"":51},{""stimulus"":""img/green_ll/2.jpg"",""time"":101},{""stimulus"":""img/green_ll/3.jpg"",""time"":152},{""stimulus"":""img/green_ll/4.jpg"",""time"":202},{""stimulus"":""img/green_ll/5.jpg"",""time"":251},{""stimulus"":""img/green_ll/6.jpg"",""time"":301},{""stimulus"":""img/green_ll/7.jpg"",""time"":352},{""stimulus"":""img/green_ll/8.jpg"",""time"":401},{""stimulus"":""img/green_ll/9.jpg"",""time"":451},{""stimulus"":""img/green_ll/10.jpg"",""time"":501},{""stimulus"":""img/green_ll/11.jpg"",""time"":551}]","[]"
"image-keyboard-response","52","57921","0.0-5.0-1.24","60599946259dc97d30e2001f","bdp_lott","Sun Apr 02 2023 20:44:47 GMT-0700 (Pacific Daylight Time)","218137","green","red","","407","","","","choice","","img/green_ll/choose11.jpg","2","201","red","0.5","0.5","0.5","l","",""
"animation","53","58522","0.0-5.0-2.24","60599946259dc97d30e2001f","bdp_lott","Sun Apr 02 2023 20:44:47 GMT-0700 (Pacific Daylight Time)","218137","green","red","","","","","","","","","","201","","","","","","[{""stimulus"":""img/red_ll/1.jpg"",""time"":51},{""stimulus"":""img/red_ll/2.jpg"",""time"":101},{""stimulus"":""img/red_ll/3.jpg"",""time"":151},{""stimulus"":""img/red_ll/4.jpg"",""time"":201},{""stimulus"":""img/red_ll/5.jpg"",""time"":264},{""stimulus"":""img/red_ll/6.jpg"",""time"":301},{""stimulus"":""img/red_ll/7.jpg"",""time"":352},{""stimulus"":""img/red_ll/8.jpg"",""time"":402},{""stimulus"":""img/red_ll/9.jpg"",""time"":451},{""stimulus"":""img/red_ll/10.jpg"",""time"":501},{""stimulus"":""img/red_ll/11.jpg"",""time"":551}]","[]"
"image-keyboard-response","54","58825","0.0-5.0-1.25","60599946259dc97d30e2001f","bdp_lott","Sun Apr 02 2023 20:44:47 GMT-0700 (Pacific Daylight Time)","218137","green","red","","303","","","","choice","","img/red_ll/choose11.jpg","2","200","red","0.5","0.5","0.5","w","",""
"animation","55","59426","0.0-5.0-2.25","60599946259dc97d30e2001f","bdp_lott","Sun Apr 02 2023 20:44:47 GMT-0700 (Pacific Daylight Time)","218137","green","red","","","","","","","","","","200","","","","","","[{""stimulus"":""img/red_lw/1.jpg"",""time"":51},{""stimulus"":""img/red_lw/2.jpg"",""time"":101},{""stimulus"":""img/red_lw/3.jpg"",""time"":151},{""stimulus"":""img/red_lw/4.jpg"",""time"":201},{""stimulus"":""img/red_lw/5.jpg"",""time"":251},{""stimulus"":""img/red_lw/6.jpg"",""time"":301},{""stimulus"":""img/red_lw/7.jpg"",""time"":351},{""stimulus"":""img/red_lw/8.jpg"",""time"":401},{""stimulus"":""img/red_lw/9.jpg"",""time"":451},{""stimulus"":""img/red_lw/10.jpg"",""time"":501},{""stimulus"":""img/red_lw/11.jpg"",""time"":552}]","[]"
"image-keyboard-response","56","59793","0.0-5.0-1.26","60599946259dc97d30e2001f","bdp_lott","Sun Apr 02 2023 20:44:47 GMT-0700 (Pacific Daylight Time)","218137","green","red","","367","","","","choice","","img/red_lw/choose11.jpg","1","199","green","0.5","0.5","0.5","w","",""
"animation","57","60394","0.0-5.0-2.26","60599946259dc97d30e2001f","bdp_lott","Sun Apr 02 2023 20:44:47 GMT-0700 (Pacific Daylight Time)","218137","green","red","","","","","","","","","","199","","","","","","[{""stimulus"":""img/green_ww/1.jpg"",""time"":51},{""stimulus"":""img/green_ww/2.jpg"",""time"":101},{""stimulus"":""img/green_ww/3.jpg"",""time"":151},{""stimulus"":""img/green_ww/4.jpg"",""time"":201},{""stimulus"":""img/green_ww/5.jpg"",""time"":251},{""stimulus"":""img/green_ww/6.jpg"",""time"":301},{""stimulus"":""img/green_ww/7.jpg"",""time"":352},{""stimulus"":""img/green_ww/8.jpg"",""time"":401},{""stimulus"":""img/green_ww/9.jpg"",""time"":451},{""stimulus"":""img/green_ww/10.jpg"",""time"":502},{""stimulus"":""img/green_ww/11.jpg"",""time"":551}]","[]"
"image-keyboard-response","58","60553","0.0-5.0-1.27","60599946259dc97d30e2001f","bdp_lott","Sun Apr 02 2023 20:44:47 GMT-0700 (Pacific Daylight Time)","218137","green","red","","159","","","","choice","","img/green_ww/choose11.jpg","1","198","green","0.5","0.5","0.5","l","",""
"animation","59","61154","0.0-5.0-2.27","60599946259dc97d30e2001f","bdp_lott","Sun Apr 02 2023 20:44:47 GMT-0700 (Pacific Daylight Time)","218137","green","red","","","","","","","","","","198","","","","","","[{""stimulus"":""img/green_lw/1.jpg"",""time"":51},{""stimulus"":""img/green_lw/2.jpg"",""time"":101},{""stimulus"":""img/green_lw/3.jpg"",""time"":151},{""stimulus"":""img/green_lw/4.jpg"",""time"":201},{""stimulus"":""img/green_lw/5.jpg"",""time"":251},{""stimulus"":""img/green_lw/6.jpg"",""time"":301},{""stimulus"":""img/green_lw/7.jpg"",""time"":351},{""stimulus"":""img/green_lw/8.jpg"",""time"":401},{""stimulus"":""img/green_lw/9.jpg"",""time"":451},{""stimulus"":""img/green_lw/10.jpg"",""time"":501},{""stimulus"":""img/green_lw/11.jpg"",""time"":551}]","[]"
"image-keyboard-response","60","61409","0.0-5.0-1.28","60599946259dc97d30e2001f","bdp_lott","Sun Apr 02 2023 20:44:47 GMT-0700 (Pacific Daylight Time)","218137","green","red","","255","","","","choice","","img/green_lw/choose11.jpg","1","197","green","0.5","0.5","0.5","l","",""
"animation","61","62011","0.0-5.0-2.28","60599946259dc97d30e2001f","bdp_lott","Sun Apr 02 2023 20:44:47 GMT-0700 (Pacific Daylight Time)","218137","green","red","","","","","","","","","","197","","","","","","[{""stimulus"":""img/green_lw/1.jpg"",""time"":51},{""stimulus"":""img/green_lw/2.jpg"",""time"":102},{""stimulus"":""img/green_lw/3.jpg"",""time"":151},{""stimulus"":""img/green_lw/4.jpg"",""time"":201},{""stimulus"":""img/green_lw/5.jpg"",""time"":251},{""stimulus"":""img/green_lw/6.jpg"",""time"":301},{""stimulus"":""img/green_lw/7.jpg"",""time"":351},{""stimulus"":""img/green_lw/8.jpg"",""time"":402},{""stimulus"":""img/green_lw/9.jpg"",""time"":451},{""stimulus"":""img/green_lw/10.jpg"",""time"":501},{""stimulus"":""img/green_lw/11.jpg"",""time"":551}]","[]"
"image-keyboard-response","62","62362","0.0-5.0-1.29","60599946259dc97d30e2001f","bdp_lott","Sun Apr 02 2023 20:44:47 GMT-0700 (Pacific Daylight Time)","218137","green","red","","351","","","","choice","","img/green_lw/choose11.jpg","2","196","red","0.5","0.5","0.5","w","",""
"animation","63","62962","0.0-5.0-2.29","60599946259dc97d30e2001f","bdp_lott","Sun Apr 02 2023 20:44:47 GMT-0700 (Pacific Daylight Time)","218137","green","red","","","","","","","","","","196","","","","","","[{""stimulus"":""img/red_lw/1.jpg"",""time"":51},{""stimulus"":""img/red_lw/2.jpg"",""time"":100},{""stimulus"":""img/red_lw/3.jpg"",""time"":150},{""stimulus"":""img/red_lw/4.jpg"",""time"":200},{""stimulus"":""img/red_lw/5.jpg"",""time"":250},{""stimulus"":""img/red_lw/6.jpg"",""time"":300},{""stimulus"":""img/red_lw/7.jpg"",""time"":351},{""stimulus"":""img/red_lw/8.jpg"",""time"":400},{""stimulus"":""img/red_lw/9.jpg"",""time"":451},{""stimulus"":""img/red_lw/10.jpg"",""time"":501},{""stimulus"":""img/red_lw/11.jpg"",""time"":550}]","[]"
"image-keyboard-response","64","63193","0.0-5.0-1.30","60599946259dc97d30e2001f","bdp_lott","Sun Apr 02 2023 20:44:47 GMT-0700 (Pacific Daylight Time)","218137","green","red","","230","","","","choice","","img/red_lw/choose11.jpg","1","195","green","0.5","0.5","0.5","l","",""
"animation","65","63794","0.0-5.0-2.30","60599946259dc97d30e2001f","bdp_lott","Sun Apr 02 2023 20:44:47 GMT-0700 (Pacific Daylight Time)","218137","green","red","","","","","","","","","","195","","","","","","[{""stimulus"":""img/green_lw/1.jpg"",""time"":51},{""stimulus"":""img/green_lw/2.jpg"",""time"":101},{""stimulus"":""img/green_lw/3.jpg"",""time"":151},{""stimulus"":""img/green_lw/4.jpg"",""time"":201},{""stimulus"":""img/green_lw/5.jpg"",""time"":251},{""stimulus"":""img/green_lw/6.jpg"",""time"":302},{""stimulus"":""img/green_lw/7.jpg"",""time"":351},{""stimulus"":""img/green_lw/8.jpg"",""time"":401},{""stimulus"":""img/green_lw/9.jpg"",""time"":451},{""stimulus"":""img/green_lw/10.jpg"",""time"":501},{""stimulus"":""img/green_lw/11.jpg"",""time"":551}]","[]"
"image-keyboard-response","66","64161","0.0-5.0-1.31","60599946259dc97d30e2001f","bdp_lott","Sun Apr 02 2023 20:44:47 GMT-0700 (Pacific Daylight Time)","218137","green","red","","367","","","","choice","","img/green_lw/choose11.jpg","2","194","red","0.5","0.5","0.5","l","",""
"animation","67","64762","0.0-5.0-2.31","60599946259dc97d30e2001f","bdp_lott","Sun Apr 02 2023 20:44:47 GMT-0700 (Pacific Daylight Time)","218137","green","red","","","","","","","","","","194","","","","","","[{""stimulus"":""img/red_ll/1.jpg"",""time"":51},{""stimulus"":""img/red_ll/2.jpg"",""time"":101},{""stimulus"":""img/red_ll/3.jpg"",""time"":151},{""stimulus"":""img/red_ll/4.jpg"",""time"":201},{""stimulus"":""img/red_ll/5.jpg"",""time"":251},{""stimulus"":""img/red_ll/6.jpg"",""time"":301},{""stimulus"":""img/red_ll/7.jpg"",""time"":351},{""stimulus"":""img/red_ll/8.jpg"",""time"":401},{""stimulus"":""img/red_ll/9.jpg"",""time"":451},{""stimulus"":""img/red_ll/10.jpg"",""time"":501},{""stimulus"":""img/red_ll/11.jpg"",""time"":551}]","[]"
"image-keyboard-response","68","65089","0.0-5.0-1.32","60599946259dc97d30e2001f","bdp_lott","Sun Apr 02 2023 20:44:47 GMT-0700 (Pacific Daylight Time)","218137","green","red","","327","","","","choice","","img/red_ll/choose11.jpg","2","193","red","0.5","0.5","0.5","w","",""
"animation","69","65690","0.0-5.0-2.32","60599946259dc97d30e2001f","bdp_lott","Sun Apr 02 2023 20:44:47 GMT-0700 (Pacific Daylight Time)","218137","green","red","","","","","","","","","","193","","","","","","[{""stimulus"":""img/red_lw/1.jpg"",""time"":51},{""stimulus"":""img/red_lw/2.jpg"",""time"":101},{""stimulus"":""img/red_lw/3.jpg"",""time"":151},{""stimulus"":""img/red_lw/4.jpg"",""time"":201},{""stimulus"":""img/red_lw/5.jpg"",""time"":251},{""stimulus"":""img/red_lw/6.jpg"",""time"":302},{""stimulus"":""img/red_lw/7.jpg"",""time"":351},{""stimulus"":""img/red_lw/8.jpg"",""time"":401},{""stimulus"":""img/red_lw/9.jpg"",""time"":451},{""stimulus"":""img/red_lw/10.jpg"",""time"":501},{""stimulus"":""img/red_lw/11.jpg"",""time"":551}]","[]"
"image-keyboard-response","70","65977","0.0-5.0-1.33","60599946259dc97d30e2001f","bdp_lott","Sun Apr 02 2023 20:44:47 GMT-0700 (Pacific Daylight Time)","218137","green","red","","287","","","","choice","","img/red_lw/choose11.jpg","1","192","green","0.5","0.5","0.5","l","",""
"animation","71","66578","0.0-5.0-2.33","60599946259dc97d30e2001f","bdp_lott","Sun Apr 02 2023 20:44:47 GMT-0700 (Pacific Daylight Time)","218137","green","red","","","","","","","","","","192","","","","","","[{""stimulus"":""img/green_lw/1.jpg"",""time"":51},{""stimulus"":""img/green_lw/2.jpg"",""time"":101},{""stimulus"":""img/green_lw/3.jpg"",""time"":151},{""stimulus"":""img/green_lw/4.jpg"",""time"":202},{""stimulus"":""img/green_lw/5.jpg"",""time"":251},{""stimulus"":""img/green_lw/6.jpg"",""time"":301},{""stimulus"":""img/green_lw/7.jpg"",""time"":352},{""stimulus"":""img/green_lw/8.jpg"",""time"":401},{""stimulus"":""img/green_lw/9.jpg"",""time"":452},{""stimulus"":""img/green_lw/10.jpg"",""time"":502},{""stimulus"":""img/green_lw/11.jpg"",""time"":551}]","[]"
"image-keyboard-response","72","67049","0.0-5.0-1.34","60599946259dc97d30e2001f","bdp_lott","Sun Apr 02 2023 20:44:47 GMT-0700 (Pacific Daylight Time)","218137","green","red","","471","","","","choice","","img/green_lw/choose11.jpg","1","191","green","0.5","0.5","0.5","l","",""
"animation","73","67650","0.0-5.0-2.34","60599946259dc97d30e2001f","bdp_lott","Sun Apr 02 2023 20:44:47 GMT-0700 (Pacific Daylight Time)","218137","green","red","","","","","","","","","","191","","","","","","[{""stimulus"":""img/green_lw/1.jpg"",""time"":51},{""stimulus"":""img/green_lw/2.jpg"",""time"":101},{""stimulus"":""img/green_lw/3.jpg"",""time"":151},{""stimulus"":""img/green_lw/4.jpg"",""time"":201},{""stimulus"":""img/green_lw/5.jpg"",""time"":251},{""stimulus"":""img/green_lw/6.jpg"",""time"":301},{""stimulus"":""img/green_lw/7.jpg"",""time"":351},{""stimulus"":""img/green_lw/8.jpg"",""time"":401},{""stimulus"":""img/green_lw/9.jpg"",""time"":451},{""stimulus"":""img/green_lw/10.jpg"",""time"":501},{""stimulus"":""img/green_lw/11.jpg"",""time"":551}]","[]"
"image-keyboard-response","74","67985","0.0-5.0-1.35","60599946259dc97d30e2001f","bdp_lott","Sun Apr 02 2023 20:44:47 GMT-0700 (Pacific Daylight Time)","218137","green","red","","335","","","","choice","","img/green_lw/choose11.jpg","1","190","green","0.5","0.5","0.5","l","",""
"animation","75","68586","0.0-5.0-2.35","60599946259dc97d30e2001f","bdp_lott","Sun Apr 02 2023 20:44:47 GMT-0700 (Pacific Daylight Time)","218137","green","red","","","","","","","","","","190","","","","","","[{""stimulus"":""img/green_lw/1.jpg"",""time"":51},{""stimulus"":""img/green_lw/2.jpg"",""time"":101},{""stimulus"":""img/green_lw/3.jpg"",""time"":151},{""stimulus"":""img/green_lw/4.jpg"",""time"":201},{""stimulus"":""img/green_lw/5.jpg"",""time"":252},{""stimulus"":""img/green_lw/6.jpg"",""time"":301},{""stimulus"":""img/green_lw/7.jpg"",""time"":351},{""stimulus"":""img/green_lw/8.jpg"",""time"":401},{""stimulus"":""img/green_lw/9.jpg"",""time"":451},{""stimulus"":""img/green_lw/10.jpg"",""time"":501},{""stimulus"":""img/green_lw/11.jpg"",""time"":551}]","[]"
"image-keyboard-response","76","69353","0.0-5.0-1.36","60599946259dc97d30e2001f","bdp_lott","Sun Apr 02 2023 20:44:47 GMT-0700 (Pacific Daylight Time)","218137","green","red","","767","","","","choice","","img/green_lw/choose11.jpg","2","189","red","0.5","0.5","0.5","l","",""
"animation","77","69955","0.0-5.0-2.36","60599946259dc97d30e2001f","bdp_lott","Sun Apr 02 2023 20:44:47 GMT-0700 (Pacific Daylight Time)","218137","green","red","","","","","","","","","","189","","","","","","[{""stimulus"":""img/red_ll/1.jpg"",""time"":51},{""stimulus"":""img/red_ll/2.jpg"",""time"":101},{""stimulus"":""img/red_ll/3.jpg"",""time"":151},{""stimulus"":""img/red_ll/4.jpg"",""time"":201},{""stimulus"":""img/red_ll/5.jpg"",""time"":251},{""stimulus"":""img/red_ll/6.jpg"",""time"":301},{""stimulus"":""img/red_ll/7.jpg"",""time"":351},{""stimulus"":""img/red_ll/8.jpg"",""time"":401},{""stimulus"":""img/red_ll/9.jpg"",""time"":451},{""stimulus"":""img/red_ll/10.jpg"",""time"":501},{""stimulus"":""img/red_ll/11.jpg"",""time"":551}]","[]"
"image-keyboard-response","78","70273","0.0-5.0-1.37","60599946259dc97d30e2001f","bdp_lott","Sun Apr 02 2023 20:44:47 GMT-0700 (Pacific Daylight Time)","218137","green","red","","318","","","","choice","","img/red_ll/choose11.jpg","2","188","red","0.5","0.5","0.5","l","",""
"animation","79","70874","0.0-5.0-2.37","60599946259dc97d30e2001f","bdp_lott","Sun Apr 02 2023 20:44:47 GMT-0700 (Pacific Daylight Time)","218137","green","red","","","","","","","","","","188","","","","","","[{""stimulus"":""img/red_ll/1.jpg"",""time"":52},{""stimulus"":""img/red_ll/2.jpg"",""time"":102},{""stimulus"":""img/red_ll/3.jpg"",""time"":151},{""stimulus"":""img/red_ll/4.jpg"",""time"":201},{""stimulus"":""img/red_ll/5.jpg"",""time"":251},{""stimulus"":""img/red_ll/6.jpg"",""time"":301},{""stimulus"":""img/red_ll/7.jpg"",""time"":351},{""stimulus"":""img/red_ll/8.jpg"",""time"":401},{""stimulus"":""img/red_ll/9.jpg"",""time"":451},{""stimulus"":""img/red_ll/10.jpg"",""time"":501},{""stimulus"":""img/red_ll/11.jpg"",""time"":551}]","[]"
"image-keyboard-response","80","71057","0.0-5.0-1.38","60599946259dc97d30e2001f","bdp_lott","Sun Apr 02 2023 20:44:47 GMT-0700 (Pacific Daylight Time)","218137","green","red","","182","","","","choice","","img/red_ll/choose11.jpg","1","187","green","0.5","0.5","0.5","w","",""
"animation","81","71658","0.0-5.0-2.38","60599946259dc97d30e2001f","bdp_lott","Sun Apr 02 2023 20:44:47 GMT-0700 (Pacific Daylight Time)","218137","green","red","","","","","","","","","","187","","","","","","[{""stimulus"":""img/green_wl/1.jpg"",""time"":51},{""stimulus"":""img/green_wl/2.jpg"",""time"":101},{""stimulus"":""img/green_wl/3.jpg"",""time"":151},{""stimulus"":""img/green_wl/4.jpg"",""time"":201},{""stimulus"":""img/green_wl/5.jpg"",""time"":251},{""stimulus"":""img/green_wl/6.jpg"",""time"":301},{""stimulus"":""img/green_wl/7.jpg"",""time"":351},{""stimulus"":""img/green_wl/8.jpg"",""time"":401},{""stimulus"":""img/green_wl/9.jpg"",""time"":451},{""stimulus"":""img/green_wl/10.jpg"",""time"":501},{""stimulus"":""img/green_wl/11.jpg"",""time"":551}]","[]"
"image-keyboard-response","82","72001","0.0-5.0-1.39","60599946259dc97d30e2001f","bdp_lott","Sun Apr 02 2023 20:44:47 GMT-0700 (Pacific Daylight Time)","218137","green","red","","343","","","","choice","","img/green_wl/choose11.jpg","1","186","green","0.5","0.5","0.5","w","",""
"animation","83","72602","0.0-5.0-2.39","60599946259dc97d30e2001f","bdp_lott","Sun Apr 02 2023 20:44:47 GMT-0700 (Pacific Daylight Time)","218137","green","red","","","","","","","","","","186","","","","","","[{""stimulus"":""img/green_wl/1.jpg"",""time"":51},{""stimulus"":""img/green_wl/2.jpg"",""time"":101},{""stimulus"":""img/green_wl/3.jpg"",""time"":151},{""stimulus"":""img/green_wl/4.jpg"",""time"":201},{""stimulus"":""img/green_wl/5.jpg"",""time"":251},{""stimulus"":""img/green_wl/6.jpg"",""time"":301},{""stimulus"":""img/green_wl/7.jpg"",""time"":351},{""stimulus"":""img/green_wl/8.jpg"",""time"":401},{""stimulus"":""img/green_wl/9.jpg"",""time"":451},{""stimulus"":""img/green_wl/10.jpg"",""time"":502},{""stimulus"":""img/green_wl/11.jpg"",""time"":551}]","[]"
"image-keyboard-response","84","72961","0.0-5.0-1.40","60599946259dc97d30e2001f","bdp_lott","Sun Apr 02 2023 20:44:47 GMT-0700 (Pacific Daylight Time)","218137","green","red","","359","","","","choice","","img/green_wl/choose11.jpg","1","185","green","0.5","0.5","0.5","l","",""
"animation","85","73562","0.0-5.0-2.40","60599946259dc97d30e2001f","bdp_lott","Sun Apr 02 2023 20:44:47 GMT-0700 (Pacific Daylight Time)","218137","green","red","","","","","","","","","","185","","","","","","[{""stimulus"":""img/green_ll/1.jpg"",""time"":50},{""stimulus"":""img/green_ll/2.jpg"",""time"":100},{""stimulus"":""img/green_ll/3.jpg"",""time"":150},{""stimulus"":""img/green_ll/4.jpg"",""time"":200},{""stimulus"":""img/green_ll/5.jpg"",""time"":250},{""stimulus"":""img/green_ll/6.jpg"",""time"":300},{""stimulus"":""img/green_ll/7.jpg"",""time"":351},{""stimulus"":""img/green_ll/8.jpg"",""time"":400},{""stimulus"":""img/green_ll/9.jpg"",""time"":450},{""stimulus"":""img/green_ll/10.jpg"",""time"":500},{""stimulus"":""img/green_ll/11.jpg"",""time"":550}]","[]"
"image-keyboard-response","86","73985","0.0-5.0-1.41","60599946259dc97d30e2001f","bdp_lott","Sun Apr 02 2023 20:44:47 GMT-0700 (Pacific Daylight Time)","218137","green","red","","423","","","","choice","","img/green_ll/choose11.jpg","2","184","red","0.5","0.5","0.5","w","",""
"animation","87","74586","0.0-5.0-2.41","60599946259dc97d30e2001f","bdp_lott","Sun Apr 02 2023 20:44:47 GMT-0700 (Pacific Daylight Time)","218137","green","red","","","","","","","","","","184","","","","","","[{""stimulus"":""img/red_lw/1.jpg"",""time"":51},{""stimulus"":""img/red_lw/2.jpg"",""time"":101},{""stimulus"":""img/red_lw/3.jpg"",""time"":151},{""stimulus"":""img/red_lw/4.jpg"",""time"":201},{""stimulus"":""img/red_lw/5.jpg"",""time"":251},{""stimulus"":""img/red_lw/6.jpg"",""time"":301},{""stimulus"":""img/red_lw/7.jpg"",""time"":351},{""stimulus"":""img/red_lw/8.jpg"",""time"":401},{""stimulus"":""img/red_lw/9.jpg"",""time"":451},{""stimulus"":""img/red_lw/10.jpg"",""time"":501},{""stimulus"":""img/red_lw/11.jpg"",""time"":551}]","[]"
"image-keyboard-response","88","74993","0.0-5.0-1.42","60599946259dc97d30e2001f","bdp_lott","Sun Apr 02 2023 20:44:47 GMT-0700 (Pacific Daylight Time)","218137","green","red","","407","","","","choice","","img/red_lw/choose11.jpg","2","183","red","0.5","0.5","0.5","l","",""
"animation","89","75593","0.0-5.0-2.42","60599946259dc97d30e2001f","bdp_lott","Sun Apr 02 2023 20:44:47 GMT-0700 (Pacific Daylight Time)","218137","green","red","","","","","","","","","","183","","","","","","[{""stimulus"":""img/red_ll/1.jpg"",""time"":51},{""stimulus"":""img/red_ll/2.jpg"",""time"":101},{""stimulus"":""img/red_ll/3.jpg"",""time"":151},{""stimulus"":""img/red_ll/4.jpg"",""time"":201},{""stimulus"":""img/red_ll/5.jpg"",""time"":251},{""stimulus"":""img/red_ll/6.jpg"",""time"":300},{""stimulus"":""img/red_ll/7.jpg"",""time"":350},{""stimulus"":""img/red_ll/8.jpg"",""time"":400},{""stimulus"":""img/red_ll/9.jpg"",""time"":450},{""stimulus"":""img/red_ll/10.jpg"",""time"":501},{""stimulus"":""img/red_ll/11.jpg"",""time"":551}]","[]"
"image-keyboard-response","90","75769","0.0-5.0-1.43","60599946259dc97d30e2001f","bdp_lott","Sun Apr 02 2023 20:44:47 GMT-0700 (Pacific Daylight Time)","218137","green","red","","175","","","","choice","","img/red_ll/choose11.jpg","1","182","green","0.5","0.5","0.5","l","",""
"animation","91","76369","0.0-5.0-2.43","60599946259dc97d30e2001f","bdp_lott","Sun Apr 02 2023 20:44:47 GMT-0700 (Pacific Daylight Time)","218137","green","red","","","","","","","","","","182","","","","","","[{""stimulus"":""img/green_ll/1.jpg"",""time"":52},{""stimulus"":""img/green_ll/2.jpg"",""time"":101},{""stimulus"":""img/green_ll/3.jpg"",""time"":151},{""stimulus"":""img/green_ll/4.jpg"",""time"":201},{""stimulus"":""img/green_ll/5.jpg"",""time"":251},{""stimulus"":""img/green_ll/6.jpg"",""time"":300},{""stimulus"":""img/green_ll/7.jpg"",""time"":350},{""stimulus"":""img/green_ll/8.jpg"",""time"":400},{""stimulus"":""img/green_ll/9.jpg"",""time"":450},{""stimulus"":""img/green_ll/10.jpg"",""time"":500},{""stimulus"":""img/green_ll/11.jpg"",""time"":550}]","[]"
"image-keyboard-response","92","76505","0.0-5.0-1.44","60599946259dc97d30e2001f","bdp_lott","Sun Apr 02 2023 20:44:47 GMT-0700 (Pacific Daylight Time)","218137","green","red","","136","","","","choice","","img/green_ll/choose11.jpg","1","181","green","0.5","0.5","0.5","w","",""
"animation","93","77106","0.0-5.0-2.44","60599946259dc97d30e2001f","bdp_lott","Sun Apr 02 2023 20:44:47 GMT-0700 (Pacific Daylight Time)","218137","green","red","","","","","","","","","","181","","","","","","[{""stimulus"":""img/green_wl/1.jpg"",""time"":50},{""stimulus"":""img/green_wl/2.jpg"",""time"":100},{""stimulus"":""img/green_wl/3.jpg"",""time"":150},{""stimulus"":""img/green_wl/4.jpg"",""time"":200},{""stimulus"":""img/green_wl/5.jpg"",""time"":251},{""stimulus"":""img/green_wl/6.jpg"",""time"":301},{""stimulus"":""img/green_wl/7.jpg"",""time"":351},{""stimulus"":""img/green_wl/8.jpg"",""time"":401},{""stimulus"":""img/green_wl/9.jpg"",""time"":451},{""stimulus"":""img/green_wl/10.jpg"",""time"":501},{""stimulus"":""img/green_wl/11.jpg"",""time"":551}]","[]"
"image-keyboard-response","94","77201","0.0-5.0-1.45","60599946259dc97d30e2001f","bdp_lott","Sun Apr 02 2023 20:44:47 GMT-0700 (Pacific Daylight Time)","218137","green","red","","95","","","","choice","","img/green_wl/choose11.jpg","2","180","red","0.5","0.5","0.5","w","",""
"animation","95","77802","0.0-5.0-2.45","60599946259dc97d30e2001f","bdp_lott","Sun Apr 02 2023 20:44:47 GMT-0700 (Pacific Daylight Time)","218137","green","red","","","","","","","","","","180","","","","","","[{""stimulus"":""img/red_ww/1.jpg"",""time"":51},{""stimulus"":""img/red_ww/2.jpg"",""time"":101},{""stimulus"":""img/red_ww/3.jpg"",""time"":151},{""stimulus"":""img/red_ww/4.jpg"",""time"":201},{""stimulus"":""img/red_ww/5.jpg"",""time"":251},{""stimulus"":""img/red_ww/6.jpg"",""time"":301},{""stimulus"":""img/red_ww/7.jpg"",""time"":351},{""stimulus"":""img/red_ww/8.jpg"",""time"":401},{""stimulus"":""img/red_ww/9.jpg"",""time"":451},{""stimulus"":""img/red_ww/10.jpg"",""time"":501},{""stimulus"":""img/red_ww/11.jpg"",""time"":551}]","[]"
"image-keyboard-response","96","77985","0.0-5.0-1.46","60599946259dc97d30e2001f","bdp_lott","Sun Apr 02 2023 20:44:47 GMT-0700 (Pacific Daylight Time)","218137","green","red","","183","","","","choice","","img/red_ww/choose11.jpg","1","179","green","0.5","0.5","0.5","l","",""
"animation","97","78585","0.0-5.0-2.46","60599946259dc97d30e2001f","bdp_lott","Sun Apr 02 2023 20:44:47 GMT-0700 (Pacific Daylight Time)","218137","green","red","","","","","","","","","","179","","","","","","[{""stimulus"":""img/green_lw/1.jpg"",""time"":51},{""stimulus"":""img/green_lw/2.jpg"",""time"":101},{""stimulus"":""img/green_lw/3.jpg"",""time"":151},{""stimulus"":""img/green_lw/4.jpg"",""time"":201},{""stimulus"":""img/green_lw/5.jpg"",""time"":251},{""stimulus"":""img/green_lw/6.jpg"",""time"":301},{""stimulus"":""img/green_lw/7.jpg"",""time"":350},{""stimulus"":""img/green_lw/8.jpg"",""time"":400},{""stimulus"":""img/green_lw/9.jpg"",""time"":450},{""stimulus"":""img/green_lw/10.jpg"",""time"":500},{""stimulus"":""img/green_lw/11.jpg"",""time"":550}]","[]"
"image-keyboard-response","98","78625","0.0-5.0-1.47","60599946259dc97d30e2001f","bdp_lott","Sun Apr 02 2023 20:44:47 GMT-0700 (Pacific Daylight Time)","218137","green","red","","39","","","","choice","","img/green_lw/choose11.jpg","1","178","green","0.5","0.5","0.5","l","",""
"animation","99","79226","0.0-5.0-2.47","60599946259dc97d30e2001f","bdp_lott","Sun Apr 02 2023 20:44:47 GMT-0700 (Pacific Daylight Time)","218137","green","red","","","","","","","","","","178","","","","","","[{""stimulus"":""img/green_lw/1.jpg"",""time"":51},{""stimulus"":""img/green_lw/2.jpg"",""time"":100},{""stimulus"":""img/green_lw/3.jpg"",""time"":151},{""stimulus"":""img/green_lw/4.jpg"",""time"":200},{""stimulus"":""img/green_lw/5.jpg"",""time"":250},{""stimulus"":""img/green_lw/6.jpg"",""time"":300},{""stimulus"":""img/green_lw/7.jpg"",""time"":350},{""stimulus"":""img/green_lw/8.jpg"",""time"":400},{""stimulus"":""img/green_lw/9.jpg"",""time"":451},{""stimulus"":""img/green_lw/10.jpg"",""time"":501},{""stimulus"":""img/green_lw/11.jpg"",""time"":551}]","[]"
"image-keyboard-response","100","79361","0.0-5.0-1.48","60599946259dc97d30e2001f","bdp_lott","Sun Apr 02 2023 20:44:47 GMT-0700 (Pacific Daylight Time)","218137","green","red","","135","","","","choice","","img/green_lw/choose11.jpg","2","177","red","0.5","0.5","0.5","w","",""
"animation","101","79961","0.0-5.0-2.48","60599946259dc97d30e2001f","bdp_lott","Sun Apr 02 2023 20:44:47 GMT-0700 (Pacific Daylight Time)","218137","green","red","","","","","","","","","","177","","","","","","[{""stimulus"":""img/red_lw/1.jpg"",""time"":51},{""stimulus"":""img/red_lw/2.jpg"",""time"":101},{""stimulus"":""img/red_lw/3.jpg"",""time"":151},{""stimulus"":""img/red_lw/4.jpg"",""time"":201},{""stimulus"":""img/red_lw/5.jpg"",""time"":250},{""stimulus"":""img/red_lw/6.jpg"",""time"":300},{""stimulus"":""img/red_lw/7.jpg"",""time"":350},{""stimulus"":""img/red_lw/8.jpg"",""time"":400},{""stimulus"":""img/red_lw/9.jpg"",""time"":450},{""stimulus"":""img/red_lw/10.jpg"",""time"":500},{""stimulus"":""img/red_lw/11.jpg"",""time"":551}]","[]"
"image-keyboard-response","102","80081","0.0-5.0-1.49","60599946259dc97d30e2001f","bdp_lott","Sun Apr 02 2023 20:44:47 GMT-0700 (Pacific Daylight Time)","218137","green","red","","119","","","","choice","","img/red_lw/choose11.jpg","1","176","green","0.5","0.5","0.5","l","",""
"animation","103","80681","0.0-5.0-2.49","60599946259dc97d30e2001f","bdp_lott","Sun Apr 02 2023 20:44:47 GMT-0700 (Pacific Daylight Time)","218137","green","red","","","","","","","","","","176","","","","","","[{""stimulus"":""img/green_lw/1.jpg"",""time"":50},{""stimulus"":""img/green_lw/2.jpg"",""time"":100},{""stimulus"":""img/green_lw/3.jpg"",""time"":150},{""stimulus"":""img/green_lw/4.jpg"",""time"":201},{""stimulus"":""img/green_lw/5.jpg"",""time"":251},{""stimulus"":""img/green_lw/6.jpg"",""time"":301},{""stimulus"":""img/green_lw/7.jpg"",""time"":351},{""stimulus"":""img/green_lw/8.jpg"",""time"":402},{""stimulus"":""img/green_lw/9.jpg"",""time"":450},{""stimulus"":""img/green_lw/10.jpg"",""time"":500},{""stimulus"":""img/green_lw/11.jpg"",""time"":550}]","[]"
"image-keyboard-response","104","80785","0.0-5.0-1.50","60599946259dc97d30e2001f","bdp_lott","Sun Apr 02 2023 20:44:47 GMT-0700 (Pacific Daylight Time)","218137","green","red","","104","","","","choice","","img/green_lw/choose11.jpg","1","175","green","0.5","0.5","0.5","w","",""
"animation","105","81385","0.0-5.0-2.50","60599946259dc97d30e2001f","bdp_lott","Sun Apr 02 2023 20:44:47 GMT-0700 (Pacific Daylight Time)","218137","green","red","","","","","","","","","","175","","","","","","[{""stimulus"":""img/green_ww/1.jpg"",""time"":51},{""stimulus"":""img/green_ww/2.jpg"",""time"":102},{""stimulus"":""img/green_ww/3.jpg"",""time"":151},{""stimulus"":""img/green_ww/4.jpg"",""time"":201},{""stimulus"":""img/green_ww/5.jpg"",""time"":252},{""stimulus"":""img/green_ww/6.jpg"",""time"":301},{""stimulus"":""img/green_ww/7.jpg"",""time"":351},{""stimulus"":""img/green_ww/8.jpg"",""time"":401},{""stimulus"":""img/green_ww/9.jpg"",""time"":450},{""stimulus"":""img/green_ww/10.jpg"",""time"":500},{""stimulus"":""img/green_ww/11.jpg"",""time"":550}]","[]"
"image-keyboard-response","106","81497","0.0-5.0-1.51","60599946259dc97d30e2001f","bdp_lott","Sun Apr 02 2023 20:44:47 GMT-0700 (Pacific Daylight Time)","218137","green","red","","112","","","","choice","","img/green_ww/choose11.jpg","2","174","red","0.5","0.5","0.5","w","",""
"animation","107","82097","0.0-5.0-2.51","60599946259dc97d30e2001f","bdp_lott","Sun Apr 02 2023 20:44:47 GMT-0700 (Pacific Daylight Time)","218137","green","red","","","","","","","","","","174","","","","","","[{""stimulus"":""img/red_ww/1.jpg"",""time"":51},{""stimulus"":""img/red_ww/2.jpg"",""time"":100},{""stimulus"":""img/red_ww/3.jpg"",""time"":151},{""stimulus"":""img/red_ww/4.jpg"",""time"":201},{""stimulus"":""img/red_ww/5.jpg"",""time"":251},{""stimulus"":""img/red_ww/6.jpg"",""time"":300},{""stimulus"":""img/red_ww/7.jpg"",""time"":350},{""stimulus"":""img/red_ww/8.jpg"",""time"":401},{""stimulus"":""img/red_ww/9.jpg"",""time"":451},{""stimulus"":""img/red_ww/10.jpg"",""time"":501},{""stimulus"":""img/red_ww/11.jpg"",""time"":551}]","[]"
"image-keyboard-response","108","82201","0.0-5.0-1.52","60599946259dc97d30e2001f","bdp_lott","Sun Apr 02 2023 20:44:47 GMT-0700 (Pacific Daylight Time)","218137","green","red","","103","","","","choice","","img/red_ww/choose11.jpg","2","173","red","0.5","0.5","0.5","w","",""
"animation","109","82803","0.0-5.0-2.52","60599946259dc97d30e2001f","bdp_lott","Sun Apr 02 2023 20:44:47 GMT-0700 (Pacific Daylight Time)","218137","green","red","","","","","","","","","","173","","","","","","[{""stimulus"":""img/red_ww/1.jpg"",""time"":51},{""stimulus"":""img/red_ww/2.jpg"",""time"":101},{""stimulus"":""img/red_ww/3.jpg"",""time"":151},{""stimulus"":""img/red_ww/4.jpg"",""time"":201},{""stimulus"":""img/red_ww/5.jpg"",""time"":251},{""stimulus"":""img/red_ww/6.jpg"",""time"":301},{""stimulus"":""img/red_ww/7.jpg"",""time"":351},{""stimulus"":""img/red_ww/8.jpg"",""time"":401},{""stimulus"":""img/red_ww/9.jpg"",""time"":451},{""stimulus"":""img/red_ww/10.jpg"",""time"":502},{""stimulus"":""img/red_ww/11.jpg"",""time"":551}]","[]"
"image-keyboard-response","110","82985","0.0-5.0-1.53","60599946259dc97d30e2001f","bdp_lott","Sun Apr 02 2023 20:44:47 GMT-0700 (Pacific Daylight Time)","218137","green","red","","182","","","","choice","","img/red_ww/choose11.jpg","2","172","red","0.5","0.5","0.5","l","",""
"animation","111","83586","0.0-5.0-2.53","60599946259dc97d30e2001f","bdp_lott","Sun Apr 02 2023 20:44:47 GMT-0700 (Pacific Daylight Time)","218137","green","red","","","","","","","","","","172","","","","","","[{""stimulus"":""img/red_wl/1.jpg"",""time"":51},{""stimulus"":""img/red_wl/2.jpg"",""time"":101},{""stimulus"":""img/red_wl/3.jpg"",""time"":151},{""stimulus"":""img/red_wl/4.jpg"",""time"":202},{""stimulus"":""img/red_wl/5.jpg"",""time"":251},{""stimulus"":""img/red_wl/6.jpg"",""time"":301},{""stimulus"":""img/red_wl/7.jpg"",""time"":351},{""stimulus"":""img/red_wl/8.jpg"",""time"":401},{""stimulus"":""img/red_wl/9.jpg"",""time"":451},{""stimulus"":""img/red_wl/10.jpg"",""time"":502},{""stimulus"":""img/red_wl/11.jpg"",""time"":551}]","[]"
"image-keyboard-response","112","83817","0.0-5.0-1.54","60599946259dc97d30e2001f","bdp_lott","Sun Apr 02 2023 20:44:47 GMT-0700 (Pacific Daylight Time)","218137","green","red","","231","","","","choice","","img/red_wl/choose11.jpg","1","171","green","0.5","0.5","0.5","l","",""
"animation","113","84418","0.0-5.0-2.54","60599946259dc97d30e2001f","bdp_lott","Sun Apr 02 2023 20:44:47 GMT-0700 (Pacific Daylight Time)","218137","green","red","","","","","","","","","","171","","","","","","[{""stimulus"":""img/green_ll/1.jpg"",""time"":51},{""stimulus"":""img/green_ll/2.jpg"",""time"":101},{""stimulus"":""img/green_ll/3.jpg"",""time"":151},{""stimulus"":""img/green_ll/4.jpg"",""time"":202},{""stimulus"":""img/green_ll/5.jpg"",""time"":251},{""stimulus"":""img/green_ll/6.jpg"",""time"":301},{""stimulus"":""img/green_ll/7.jpg"",""time"":351},{""stimulus"":""img/green_ll/8.jpg"",""time"":401},{""stimulus"":""img/green_ll/9.jpg"",""time"":451},{""stimulus"":""img/green_ll/10.jpg"",""time"":501},{""stimulus"":""img/green_ll/11.jpg"",""time"":551}]","[]"
"image-keyboard-response","114","84657","0.0-5.0-1.55","60599946259dc97d30e2001f","bdp_lott","Sun Apr 02 2023 20:44:47 GMT-0700 (Pacific Daylight Time)","218137","green","red","","239","","","","choice","","img/green_ll/choose11.jpg","1","170","green","0.5","0.5","0.5","w","",""
"animation","115","85258","0.0-5.0-2.55","60599946259dc97d30e2001f","bdp_lott","Sun Apr 02 2023 20:44:47 GMT-0700 (Pacific Daylight Time)","218137","green","red","","","","","","","","","","170","","","","","","[{""stimulus"":""img/green_wl/1.jpg"",""time"":51},{""stimulus"":""img/green_wl/2.jpg"",""time"":101},{""stimulus"":""img/green_wl/3.jpg"",""time"":150},{""stimulus"":""img/green_wl/4.jpg"",""time"":200},{""stimulus"":""img/green_wl/5.jpg"",""time"":251},{""stimulus"":""img/green_wl/6.jpg"",""time"":301},{""stimulus"":""img/green_wl/7.jpg"",""time"":351},{""stimulus"":""img/green_wl/8.jpg"",""time"":401},{""stimulus"":""img/green_wl/9.jpg"",""time"":451},{""stimulus"":""img/green_wl/10.jpg"",""time"":501},{""stimulus"":""img/green_wl/11.jpg"",""time"":550}]","[]"
"image-keyboard-response","116","85345","0.0-5.0-1.56","60599946259dc97d30e2001f","bdp_lott","Sun Apr 02 2023 20:44:47 GMT-0700 (Pacific Daylight Time)","218137","green","red","","87","","","","choice","","img/green_wl/choose11.jpg","2","169","red","0.5","0.5","0.5","w","",""
"animation","117","85946","0.0-5.0-2.56","60599946259dc97d30e2001f","bdp_lott","Sun Apr 02 2023 20:44:47 GMT-0700 (Pacific Daylight Time)","218137","green","red","","","","","","","","","","169","","","","","","[{""stimulus"":""img/red_ww/1.jpg"",""time"":51},{""stimulus"":""img/red_ww/2.jpg"",""time"":100},{""stimulus"":""img/red_ww/3.jpg"",""time"":151},{""stimulus"":""img/red_ww/4.jpg"",""time"":200},{""stimulus"":""img/red_ww/5.jpg"",""time"":250},{""stimulus"":""img/red_ww/6.jpg"",""time"":301},{""stimulus"":""img/red_ww/7.jpg"",""time"":350},{""stimulus"":""img/red_ww/8.jpg"",""time"":400},{""stimulus"":""img/red_ww/9.jpg"",""time"":450},{""stimulus"":""img/red_ww/10.jpg"",""time"":500},{""stimulus"":""img/red_ww/11.jpg"",""time"":551}]","[]"
"image-keyboard-response","118","86033","0.0-5.0-1.57","60599946259dc97d30e2001f","bdp_lott","Sun Apr 02 2023 20:44:47 GMT-0700 (Pacific Daylight Time)","218137","green","red","","87","","","","choice","","img/red_ww/choose11.jpg","1","168","green","0.5","0.5","0.5","w","",""
"animation","119","86633","0.0-5.0-2.57","60599946259dc97d30e2001f","bdp_lott","Sun Apr 02 2023 20:44:47 GMT-0700 (Pacific Daylight Time)","218137","green","red","","","","","","","","","","168","","","","","","[{""stimulus"":""img/green_ww/1.jpg"",""time"":51},{""stimulus"":""img/green_ww/2.jpg"",""time"":100},{""stimulus"":""img/green_ww/3.jpg"",""time"":150},{""stimulus"":""img/green_ww/4.jpg"",""time"":200},{""stimulus"":""img/green_ww/5.jpg"",""time"":250},{""stimulus"":""img/green_ww/6.jpg"",""time"":300},{""stimulus"":""img/green_ww/7.jpg"",""time"":350},{""stimulus"":""img/green_ww/8.jpg"",""time"":400},{""stimulus"":""img/green_ww/9.jpg"",""time"":450},{""stimulus"":""img/green_ww/10.jpg"",""time"":500},{""stimulus"":""img/green_ww/11.jpg"",""time"":550}]","[]"
"image-keyboard-response","120","86721","0.0-5.0-1.58","60599946259dc97d30e2001f","bdp_lott","Sun Apr 02 2023 20:44:47 GMT-0700 (Pacific Daylight Time)","218137","green","red","","87","","","","choice","","img/green_ww/choose11.jpg","2","167","red","0.5","0.5","0.5","l","",""
"animation","121","87321","0.0-5.0-2.58","60599946259dc97d30e2001f","bdp_lott","Sun Apr 02 2023 20:44:47 GMT-0700 (Pacific Daylight Time)","218137","green","red","","","","","","","","","","167","","","","","","[{""stimulus"":""img/red_wl/1.jpg"",""time"":51},{""stimulus"":""img/red_wl/2.jpg"",""time"":100},{""stimulus"":""img/red_wl/3.jpg"",""time"":150},{""stimulus"":""img/red_wl/4.jpg"",""time"":200},{""stimulus"":""img/red_wl/5.jpg"",""time"":250},{""stimulus"":""img/red_wl/6.jpg"",""time"":301},{""stimulus"":""img/red_wl/7.jpg"",""time"":350},{""stimulus"":""img/red_wl/8.jpg"",""time"":400},{""stimulus"":""img/red_wl/9.jpg"",""time"":450},{""stimulus"":""img/red_wl/10.jpg"",""time"":500},{""stimulus"":""img/red_wl/11.jpg"",""time"":550}]","[]"
"image-keyboard-response","122","87449","0.0-5.0-1.59","60599946259dc97d30e2001f","bdp_lott","Sun Apr 02 2023 20:44:47 GMT-0700 (Pacific Daylight Time)","218137","green","red","","128","","","","choice","","img/red_wl/choose11.jpg","2","166","red","0.5","0.5","0.5","w","",""
"animation","123","88049","0.0-5.0-2.59","60599946259dc97d30e2001f","bdp_lott","Sun Apr 02 2023 20:44:47 GMT-0700 (Pacific Daylight Time)","218137","green","red","","","","","","","","","","166","","","","","","[{""stimulus"":""img/red_ww/1.jpg"",""time"":50},{""stimulus"":""img/red_ww/2.jpg"",""time"":101},{""stimulus"":""img/red_ww/3.jpg"",""time"":151},{""stimulus"":""img/red_ww/4.jpg"",""time"":201},{""stimulus"":""img/red_ww/5.jpg"",""time"":265},{""stimulus"":""img/red_ww/6.jpg"",""time"":301},{""stimulus"":""img/red_ww/7.jpg"",""time"":351},{""stimulus"":""img/red_ww/8.jpg"",""time"":402},{""stimulus"":""img/red_ww/9.jpg"",""time"":452},{""stimulus"":""img/red_ww/10.jpg"",""time"":500},{""stimulus"":""img/red_ww/11.jpg"",""time"":550}]","[]"
"image-keyboard-response","124","88177","0.0-5.0-1.60","60599946259dc97d30e2001f","bdp_lott","Sun Apr 02 2023 20:44:47 GMT-0700 (Pacific Daylight Time)","218137","green","red","","128","","","","choice","","img/red_ww/choose11.jpg","1","165","green","0.5","0.5","0.5","l","",""
"animation","125","88778","0.0-5.0-2.60","60599946259dc97d30e2001f","bdp_lott","Sun Apr 02 2023 20:44:47 GMT-0700 (Pacific Daylight Time)","218137","green","red","","","","","","","","","","165","","","","","","[{""stimulus"":""img/green_lw/1.jpg"",""time"":51},{""stimulus"":""img/green_lw/2.jpg"",""time"":101},{""stimulus"":""img/green_lw/3.jpg"",""time"":151},{""stimulus"":""img/green_lw/4.jpg"",""time"":201},{""stimulus"":""img/green_lw/5.jpg"",""time"":251},{""stimulus"":""img/green_lw/6.jpg"",""time"":301},{""stimulus"":""img/green_lw/7.jpg"",""time"":351},{""stimulus"":""img/green_lw/8.jpg"",""time"":402},{""stimulus"":""img/green_lw/9.jpg"",""time"":451},{""stimulus"":""img/green_lw/10.jpg"",""time"":501},{""stimulus"":""img/green_lw/11.jpg"",""time"":551}]","[]"
"image-keyboard-response","126","88785","0.0-5.0-1.61","60599946259dc97d30e2001f","bdp_lott","Sun Apr 02 2023 20:44:47 GMT-0700 (Pacific Daylight Time)","218137","green","red","","7","","","","choice","","img/green_lw/choose11.jpg","1","164","green","0.5","0.5","0.5","w","",""
"animation","127","89385","0.0-5.0-2.61","60599946259dc97d30e2001f","bdp_lott","Sun Apr 02 2023 20:44:47 GMT-0700 (Pacific Daylight Time)","218137","green","red","","","","","","","","","","164","","","","","","[{""stimulus"":""img/green_ww/1.jpg"",""time"":52},{""stimulus"":""img/green_ww/2.jpg"",""time"":101},{""stimulus"":""img/green_ww/3.jpg"",""time"":151},{""stimulus"":""img/green_ww/4.jpg"",""time"":202},{""stimulus"":""img/green_ww/5.jpg"",""time"":251},{""stimulus"":""img/green_ww/6.jpg"",""time"":301},{""stimulus"":""img/green_ww/7.jpg"",""time"":351},{""stimulus"":""img/green_ww/8.jpg"",""time"":401},{""stimulus"":""img/green_ww/9.jpg"",""time"":451},{""stimulus"":""img/green_ww/10.jpg"",""time"":500},{""stimulus"":""img/green_ww/11.jpg"",""time"":550}]","[]"
"image-keyboard-response","128","89617","0.0-5.0-1.62","60599946259dc97d30e2001f","bdp_lott","Sun Apr 02 2023 20:44:47 GMT-0700 (Pacific Daylight Time)","218137","green","red","","231","","","","choice","","img/green_ww/choose11.jpg","1","163","green","0.5","0.5","0.5","l","",""
"animation","129","90217","0.0-5.0-2.62","60599946259dc97d30e2001f","bdp_lott","Sun Apr 02 2023 20:44:47 GMT-0700 (Pacific Daylight Time)","218137","green","red","","","","","","","","","","163","","","","","","[{""stimulus"":""img/green_lw/1.jpg"",""time"":51},{""stimulus"":""img/green_lw/2.jpg"",""time"":101},{""stimulus"":""img/green_lw/3.jpg"",""time"":151},{""stimulus"":""img/green_lw/4.jpg"",""time"":201},{""stimulus"":""img/green_lw/5.jpg"",""time"":251},{""stimulus"":""img/green_lw/6.jpg"",""time"":301},{""stimulus"":""img/green_lw/7.jpg"",""time"":351},{""stimulus"":""img/green_lw/8.jpg"",""time"":401},{""stimulus"":""img/green_lw/9.jpg"",""time"":450},{""stimulus"":""img/green_lw/10.jpg"",""time"":500},{""stimulus"":""img/green_lw/11.jpg"",""time"":550}]","[]"
"image-keyboard-response","130","90425","0.0-5.0-1.63","60599946259dc97d30e2001f","bdp_lott","Sun Apr 02 2023 20:44:47 GMT-0700 (Pacific Daylight Time)","218137","green","red","","208","","","","choice","","img/green_lw/choose11.jpg","2","162","red","0.5","0.5","0.5","w","",""
"animation","131","91026","0.0-5.0-2.63","60599946259dc97d30e2001f","bdp_lott","Sun Apr 02 2023 20:44:47 GMT-0700 (Pacific Daylight Time)","218137","green","red","","","","","","","","","","162","","","","","","[{""stimulus"":""img/red_lw/1.jpg"",""time"":50},{""stimulus"":""img/red_lw/2.jpg"",""time"":100},{""stimulus"":""img/red_lw/3.jpg"",""time"":150},{""stimulus"":""img/red_lw/4.jpg"",""time"":200},{""stimulus"":""img/red_lw/5.jpg"",""time"":250},{""stimulus"":""img/red_lw/6.jpg"",""time"":300},{""stimulus"":""img/red_lw/7.jpg"",""time"":350},{""stimulus"":""img/red_lw/8.jpg"",""time"":400},{""stimulus"":""img/red_lw/9.jpg"",""time"":450},{""stimulus"":""img/red_lw/10.jpg"",""time"":500},{""stimulus"":""img/red_lw/11.jpg"",""time"":551}]","[]"
"image-keyboard-response","132","91201","0.0-5.0-1.64","60599946259dc97d30e2001f","bdp_lott","Sun Apr 02 2023 20:44:47 GMT-0700 (Pacific Daylight Time)","218137","green","red","","175","","","","choice","","img/red_lw/choose11.jpg","1","161","green","0.5","0.5","0.5","w","",""
"animation","133","91801","0.0-5.0-2.64","60599946259dc97d30e2001f","bdp_lott","Sun Apr 02 2023 20:44:47 GMT-0700 (Pacific Daylight Time)","218137","green","red","","","","","","","","","","161","","","","","","[{""stimulus"":""img/green_ww/1.jpg"",""time"":50},{""stimulus"":""img/green_ww/2.jpg"",""time"":101},{""stimulus"":""img/green_ww/3.jpg"",""time"":151},{""stimulus"":""img/green_ww/4.jpg"",""time"":200},{""stimulus"":""img/green_ww/5.jpg"",""time"":250},{""stimulus"":""img/green_ww/6.jpg"",""time"":300},{""stimulus"":""img/green_ww/7.jpg"",""time"":350},{""stimulus"":""img/green_ww/8.jpg"",""time"":400},{""stimulus"":""img/green_ww/9.jpg"",""time"":450},{""stimulus"":""img/green_ww/10.jpg"",""time"":501},{""stimulus"":""img/green_ww/11.jpg"",""time"":551}]","[]"
"image-keyboard-response","134","92049","0.0-5.0-1.65","60599946259dc97d30e2001f","bdp_lott","Sun Apr 02 2023 20:44:47 GMT-0700 (Pacific Daylight Time)","218137","green","red","","248","","","","choice","","img/green_ww/choose11.jpg","2","160","red","0.5","0.5","0.5","w","",""
"animation","135","92650","0.0-5.0-2.65","60599946259dc97d30e2001f","bdp_lott","Sun Apr 02 2023 20:44:47 GMT-0700 (Pacific Daylight Time)","218137","green","red","","","","","","","","","","160","","","","","","[{""stimulus"":""img/red_ww/1.jpg"",""time"":51},{""stimulus"":""img/red_ww/2.jpg"",""time"":101},{""stimulus"":""img/red_ww/3.jpg"",""time"":151},{""stimulus"":""img/red_ww/4.jpg"",""time"":201},{""stimulus"":""img/red_ww/5.jpg"",""time"":251},{""stimulus"":""img/red_ww/6.jpg"",""time"":301},{""stimulus"":""img/red_ww/7.jpg"",""time"":351},{""stimulus"":""img/red_ww/8.jpg"",""time"":401},{""stimulus"":""img/red_ww/9.jpg"",""time"":452},{""stimulus"":""img/red_ww/10.jpg"",""time"":501},{""stimulus"":""img/red_ww/11.jpg"",""time"":551}]","[]"
"image-keyboard-response","136","92673","0.0-5.0-1.66","60599946259dc97d30e2001f","bdp_lott","Sun Apr 02 2023 20:44:47 GMT-0700 (Pacific Daylight Time)","218137","green","red","","23","","","","choice","","img/red_ww/choose11.jpg","1","159","green","0.5","0.5","0.5","w","",""
"animation","137","93274","0.0-5.0-2.66","60599946259dc97d30e2001f","bdp_lott","Sun Apr 02 2023 20:44:47 GMT-0700 (Pacific Daylight Time)","218137","green","red","","","","","","","","","","159","","","","","","[{""stimulus"":""img/green_ww/1.jpg"",""time"":51},{""stimulus"":""img/green_ww/2.jpg"",""time"":100},{""stimulus"":""img/green_ww/3.jpg"",""time"":151},{""stimulus"":""img/green_ww/4.jpg"",""time"":201},{""stimulus"":""img/green_ww/5.jpg"",""time"":250},{""stimulus"":""img/green_ww/6.jpg"",""time"":300},{""stimulus"":""img/green_ww/7.jpg"",""time"":350},{""stimulus"":""img/green_ww/8.jpg"",""time"":401},{""stimulus"":""img/green_ww/9.jpg"",""time"":451},{""stimulus"":""img/green_ww/10.jpg"",""time"":501},{""stimulus"":""img/green_ww/11.jpg"",""time"":551}]","[]"
"image-keyboard-response","138","93401","0.0-5.0-1.67","60599946259dc97d30e2001f","bdp_lott","Sun Apr 02 2023 20:44:47 GMT-0700 (Pacific Daylight Time)","218137","green","red","","127","","","","choice","","img/green_ww/choose11.jpg","1","158","green","0.5","0.5","0.5","l","",""
"animation","139","94003","0.0-5.0-2.67","60599946259dc97d30e2001f","bdp_lott","Sun Apr 02 2023 20:44:47 GMT-0700 (Pacific Daylight Time)","218137","green","red","","","","","","","","","","158","","","","","","[{""stimulus"":""img/green_lw/1.jpg"",""time"":51},{""stimulus"":""img/green_lw/2.jpg"",""time"":101},{""stimulus"":""img/green_lw/3.jpg"",""time"":152},{""stimulus"":""img/green_lw/4.jpg"",""time"":202},{""stimulus"":""img/green_lw/5.jpg"",""time"":252},{""stimulus"":""img/green_lw/6.jpg"",""time"":301},{""stimulus"":""img/green_lw/7.jpg"",""time"":351},{""stimulus"":""img/green_lw/8.jpg"",""time"":402},{""stimulus"":""img/green_lw/9.jpg"",""time"":452},{""stimulus"":""img/green_lw/10.jpg"",""time"":501},{""stimulus"":""img/green_lw/11.jpg"",""time"":552}]","[]"
"image-keyboard-response","140","94257","0.0-5.0-1.68","60599946259dc97d30e2001f","bdp_lott","Sun Apr 02 2023 20:44:47 GMT-0700 (Pacific Daylight Time)","218137","green","red","","253","","","","choice","","img/green_lw/choose11.jpg","2","157","red","0.5","0.5","0.5","l","",""
"animation","141","94857","0.0-5.0-2.68","60599946259dc97d30e2001f","bdp_lott","Sun Apr 02 2023 20:44:47 GMT-0700 (Pacific Daylight Time)","218137","green","red","","","","","","","","","","157","","","","","","[{""stimulus"":""img/red_ll/1.jpg"",""time"":51},{""stimulus"":""img/red_ll/2.jpg"",""time"":101},{""stimulus"":""img/red_ll/3.jpg"",""time"":151},{""stimulus"":""img/red_ll/4.jpg"",""time"":201},{""stimulus"":""img/red_ll/5.jpg"",""time"":251},{""stimulus"":""img/red_ll/6.jpg"",""time"":301},{""stimulus"":""img/red_ll/7.jpg"",""time"":351},{""stimulus"":""img/red_ll/8.jpg"",""time"":401},{""stimulus"":""img/red_ll/9.jpg"",""time"":451},{""stimulus"":""img/red_ll/10.jpg"",""time"":501},{""stimulus"":""img/red_ll/11.jpg"",""time"":552}]","[]"
"image-keyboard-response","142","95001","0.0-5.0-1.69","60599946259dc97d30e2001f","bdp_lott","Sun Apr 02 2023 20:44:47 GMT-0700 (Pacific Daylight Time)","218137","green","red","","143","","","","choice","","img/red_ll/choose11.jpg","2","156","red","0.5","0.5","0.5","w","",""
"animation","143","95602","0.0-5.0-2.69","60599946259dc97d30e2001f","bdp_lott","Sun Apr 02 2023 20:44:47 GMT-0700 (Pacific Daylight Time)","218137","green","red","","","","","","","","","","156","","","","","","[{""stimulus"":""img/red_lw/1.jpg"",""time"":52},{""stimulus"":""img/red_lw/2.jpg"",""time"":101},{""stimulus"":""img/red_lw/3.jpg"",""time"":151},{""stimulus"":""img/red_lw/4.jpg"",""time"":201},{""stimulus"":""img/red_lw/5.jpg"",""time"":251},{""stimulus"":""img/red_lw/6.jpg"",""time"":301},{""stimulus"":""img/red_lw/7.jpg"",""time"":351},{""stimulus"":""img/red_lw/8.jpg"",""time"":401},{""stimulus"":""img/red_lw/9.jpg"",""time"":451},{""stimulus"":""img/red_lw/10.jpg"",""time"":501},{""stimulus"":""img/red_lw/11.jpg"",""time"":551}]","[]"
"image-keyboard-response","144","95753","0.0-5.0-1.70","60599946259dc97d30e2001f","bdp_lott","Sun Apr 02 2023 20:44:47 GMT-0700 (Pacific Daylight Time)","218137","green","red","","151","","","","choice","","img/red_lw/choose11.jpg","2","155","red","0.5","0.5","0.5","l","",""
"animation","145","96354","0.0-5.0-2.70","60599946259dc97d30e2001f","bdp_lott","Sun Apr 02 2023 20:44:47 GMT-0700 (Pacific Daylight Time)","218137","green","red","","","","","","","","","","155","","","","","","[{""stimulus"":""img/red_ll/1.jpg"",""time"":51},{""stimulus"":""img/red_ll/2.jpg"",""time"":102},{""stimulus"":""img/red_ll/3.jpg"",""time"":151},{""stimulus"":""img/red_ll/4.jpg"",""time"":201},{""stimulus"":""img/red_ll/5.jpg"",""time"":251},{""stimulus"":""img/red_ll/6.jpg"",""time"":301},{""stimulus"":""img/red_ll/7.jpg"",""time"":351},{""stimulus"":""img/red_ll/8.jpg"",""time"":401},{""stimulus"":""img/red_ll/9.jpg"",""time"":451},{""stimulus"":""img/red_ll/10.jpg"",""time"":501},{""stimulus"":""img/red_ll/11.jpg"",""time"":552}]","[]"
"image-keyboard-response","146","96617","0.0-5.0-1.71","60599946259dc97d30e2001f","bdp_lott","Sun Apr 02 2023 20:44:47 GMT-0700 (Pacific Daylight Time)","218137","green","red","","263","","","","choice","","img/red_ll/choose11.jpg","2","154","red","0.5","0.5","0.5","l","",""
"animation","147","97218","0.0-5.0-2.71","60599946259dc97d30e2001f","bdp_lott","Sun Apr 02 2023 20:44:47 GMT-0700 (Pacific Daylight Time)","218137","green","red","","","","","","","","","","154","","","","","","[{""stimulus"":""img/red_ll/1.jpg"",""time"":50},{""stimulus"":""img/red_ll/2.jpg"",""time"":100},{""stimulus"":""img/red_ll/3.jpg"",""time"":151},{""stimulus"":""img/red_ll/4.jpg"",""time"":201},{""stimulus"":""img/red_ll/5.jpg"",""time"":251},{""stimulus"":""img/red_ll/6.jpg"",""time"":301},{""stimulus"":""img/red_ll/7.jpg"",""time"":351},{""stimulus"":""img/red_ll/8.jpg"",""time"":401},{""stimulus"":""img/red_ll/9.jpg"",""time"":451},{""stimulus"":""img/red_ll/10.jpg"",""time"":501},{""stimulus"":""img/red_ll/11.jpg"",""time"":551}]","[]"
"image-keyboard-response","148","97385","0.0-5.0-1.72","60599946259dc97d30e2001f","bdp_lott","Sun Apr 02 2023 20:44:47 GMT-0700 (Pacific Daylight Time)","218137","green","red","","167","","","","choice","","img/red_ll/choose11.jpg","1","153","green","0.5","0.5","0.5","l","",""
"animation","149","97985","0.0-5.0-2.72","60599946259dc97d30e2001f","bdp_lott","Sun Apr 02 2023 20:44:47 GMT-0700 (Pacific Daylight Time)","218137","green","red","","","","","","","","","","153","","","","","","[{""stimulus"":""img/green_ll/1.jpg"",""time"":50},{""stimulus"":""img/green_ll/2.jpg"",""time"":100},{""stimulus"":""img/green_ll/3.jpg"",""time"":150},{""stimulus"":""img/green_ll/4.jpg"",""time"":201},{""stimulus"":""img/green_ll/5.jpg"",""time"":250},{""stimulus"":""img/green_ll/6.jpg"",""time"":301},{""stimulus"":""img/green_ll/7.jpg"",""time"":350},{""stimulus"":""img/green_ll/8.jpg"",""time"":400},{""stimulus"":""img/green_ll/9.jpg"",""time"":450},{""stimulus"":""img/green_ll/10.jpg"",""time"":500},{""stimulus"":""img/green_ll/11.jpg"",""time"":550}]","[]"
"image-keyboard-response","150","98049","0.0-5.0-1.73","60599946259dc97d30e2001f","bdp_lott","Sun Apr 02 2023 20:44:47 GMT-0700 (Pacific Daylight Time)","218137","green","red","","64","","","","choice","","img/green_ll/choose11.jpg","1","152","green","0.5","0.5","0.5","l","",""
"animation","151","98649","0.0-5.0-2.73","60599946259dc97d30e2001f","bdp_lott","Sun Apr 02 2023 20:44:47 GMT-0700 (Pacific Daylight Time)","218137","green","red","","","","","","","","","","152","","","","","","[{""stimulus"":""img/green_ll/1.jpg"",""time"":50},{""stimulus"":""img/green_ll/2.jpg"",""time"":100},{""stimulus"":""img/green_ll/3.jpg"",""time"":150},{""stimulus"":""img/green_ll/4.jpg"",""time"":200},{""stimulus"":""img/green_ll/5.jpg"",""time"":251},{""stimulus"":""img/green_ll/6.jpg"",""time"":300},{""stimulus"":""img/green_ll/7.jpg"",""time"":350},{""stimulus"":""img/green_ll/8.jpg"",""time"":400},{""stimulus"":""img/green_ll/9.jpg"",""time"":451},{""stimulus"":""img/green_ll/10.jpg"",""time"":500},{""stimulus"":""img/green_ll/11.jpg"",""time"":550}]","[]"
"image-keyboard-response","152","98809","0.0-5.0-1.74","60599946259dc97d30e2001f","bdp_lott","Sun Apr 02 2023 20:44:47 GMT-0700 (Pacific Daylight Time)","218137","green","red","","160","","","","choice","","img/green_ll/choose11.jpg","1","151","green","0.5","0.5","0.5","w","",""
"animation","153","99409","0.0-5.0-2.74","60599946259dc97d30e2001f","bdp_lott","Sun Apr 02 2023 20:44:47 GMT-0700 (Pacific Daylight Time)","218137","green","red","","","","","","","","","","151","","","","","","[{""stimulus"":""img/green_wl/1.jpg"",""time"":50},{""stimulus"":""img/green_wl/2.jpg"",""time"":100},{""stimulus"":""img/green_wl/3.jpg"",""time"":150},{""stimulus"":""img/green_wl/4.jpg"",""time"":200},{""stimulus"":""img/green_wl/5.jpg"",""time"":250},{""stimulus"":""img/green_wl/6.jpg"",""time"":300},{""stimulus"":""img/green_wl/7.jpg"",""time"":350},{""stimulus"":""img/green_wl/8.jpg"",""time"":400},{""stimulus"":""img/green_wl/9.jpg"",""time"":450},{""stimulus"":""img/green_wl/10.jpg"",""time"":500},{""stimulus"":""img/green_wl/11.jpg"",""time"":550}]","[]"
"image-keyboard-response","154","100041","0.0-5.0-1.75","60599946259dc97d30e2001f","bdp_lott","Sun Apr 02 2023 20:44:47 GMT-0700 (Pacific Daylight Time)","218137","green","red","","631","","","","choice","","img/green_wl/choose11.jpg","1","150","green","0.5","0.5","0.5","w","",""
"animation","155","100642","0.0-5.0-2.75","60599946259dc97d30e2001f","bdp_lott","Sun Apr 02 2023 20:44:47 GMT-0700 (Pacific Daylight Time)","218137","green","red","","","","","","","","","","150","","","","","","[{""stimulus"":""img/green_wl/1.jpg"",""time"":50},{""stimulus"":""img/green_wl/2.jpg"",""time"":101},{""stimulus"":""img/green_wl/3.jpg"",""time"":151},{""stimulus"":""img/green_wl/4.jpg"",""time"":200},{""stimulus"":""img/green_wl/5.jpg"",""time"":251},{""stimulus"":""img/green_wl/6.jpg"",""time"":301},{""stimulus"":""img/green_wl/7.jpg"",""time"":350},{""stimulus"":""img/green_wl/8.jpg"",""time"":400},{""stimulus"":""img/green_wl/9.jpg"",""time"":450},{""stimulus"":""img/green_wl/10.jpg"",""time"":501},{""stimulus"":""img/green_wl/11.jpg"",""time"":551}]","[]"
"image-keyboard-response","156","100921","0.0-5.0-1.76","60599946259dc97d30e2001f","bdp_lott","Sun Apr 02 2023 20:44:47 GMT-0700 (Pacific Daylight Time)","218137","green","red","","279","","","","choice","","img/green_wl/choose11.jpg","2","149","red","0.5","0.1","0.1","l","",""
"animation","157","101522","0.0-5.0-2.76","60599946259dc97d30e2001f","bdp_lott","Sun Apr 02 2023 20:44:47 GMT-0700 (Pacific Daylight Time)","218137","green","red","","","","","","","","","","149","","","","","","[{""stimulus"":""img/red_wl/1.jpg"",""time"":50},{""stimulus"":""img/red_wl/2.jpg"",""time"":100},{""stimulus"":""img/red_wl/3.jpg"",""time"":150},{""stimulus"":""img/red_wl/4.jpg"",""time"":200},{""stimulus"":""img/red_wl/5.jpg"",""time"":250},{""stimulus"":""img/red_wl/6.jpg"",""time"":300},{""stimulus"":""img/red_wl/7.jpg"",""time"":351},{""stimulus"":""img/red_wl/8.jpg"",""time"":401},{""stimulus"":""img/red_wl/9.jpg"",""time"":450},{""stimulus"":""img/red_wl/10.jpg"",""time"":501},{""stimulus"":""img/red_wl/11.jpg"",""time"":550}]","[]"
"image-keyboard-response","158","101657","0.0-5.0-1.77","60599946259dc97d30e2001f","bdp_lott","Sun Apr 02 2023 20:44:47 GMT-0700 (Pacific Daylight Time)","218137","green","red","","135","","","","choice","","img/red_wl/choose11.jpg","1","148","green","0.5","0.1","0.5","l","",""
"animation","159","102257","0.0-5.0-2.77","60599946259dc97d30e2001f","bdp_lott","Sun Apr 02 2023 20:44:47 GMT-0700 (Pacific Daylight Time)","218137","green","red","","","","","","","","","","148","","","","","","[{""stimulus"":""img/green_ll/1.jpg"",""time"":50},{""stimulus"":""img/green_ll/2.jpg"",""time"":100},{""stimulus"":""img/green_ll/3.jpg"",""time"":150},{""stimulus"":""img/green_ll/4.jpg"",""time"":201},{""stimulus"":""img/green_ll/5.jpg"",""time"":251},{""stimulus"":""img/green_ll/6.jpg"",""time"":300},{""stimulus"":""img/green_ll/7.jpg"",""time"":350},{""stimulus"":""img/green_ll/8.jpg"",""time"":400},{""stimulus"":""img/green_ll/9.jpg"",""time"":450},{""stimulus"":""img/green_ll/10.jpg"",""time"":500},{""stimulus"":""img/green_ll/11.jpg"",""time"":550}]","[]"
"image-keyboard-response","160","102601","0.0-5.0-1.78","60599946259dc97d30e2001f","bdp_lott","Sun Apr 02 2023 20:44:47 GMT-0700 (Pacific Daylight Time)","218137","green","red","","344","","","","choice","","img/green_ll/choose11.jpg","2","147","red","0.5","0.1","0.1","l","",""
"animation","161","103201","0.0-5.0-2.78","60599946259dc97d30e2001f","bdp_lott","Sun Apr 02 2023 20:44:47 GMT-0700 (Pacific Daylight Time)","218137","green","red","","","","","","","","","","147","","","","","","[{""stimulus"":""img/red_ll/1.jpg"",""time"":51},{""stimulus"":""img/red_ll/2.jpg"",""time"":101},{""stimulus"":""img/red_ll/3.jpg"",""time"":151},{""stimulus"":""img/red_ll/4.jpg"",""time"":202},{""stimulus"":""img/red_ll/5.jpg"",""time"":250},{""stimulus"":""img/red_ll/6.jpg"",""time"":300},{""stimulus"":""img/red_ll/7.jpg"",""time"":350},{""stimulus"":""img/red_ll/8.jpg"",""time"":400},{""stimulus"":""img/red_ll/9.jpg"",""time"":450},{""stimulus"":""img/red_ll/10.jpg"",""time"":500},{""stimulus"":""img/red_ll/11.jpg"",""time"":550}]","[]"
"image-keyboard-response","162","103425","0.0-5.0-1.79","60599946259dc97d30e2001f","bdp_lott","Sun Apr 02 2023 20:44:47 GMT-0700 (Pacific Daylight Time)","218137","green","red","","224","","","","choice","","img/red_ll/choose11.jpg","2","146","red","0.5","0.1","0.1","l","",""
"animation","163","104027","0.0-5.0-2.79","60599946259dc97d30e2001f","bdp_lott","Sun Apr 02 2023 20:44:47 GMT-0700 (Pacific Daylight Time)","218137","green","red","","","","","","","","","","146","","","","","","[{""stimulus"":""img/red_ll/1.jpg"",""time"":51},{""stimulus"":""img/red_ll/2.jpg"",""time"":101},{""stimulus"":""img/red_ll/3.jpg"",""time"":151},{""stimulus"":""img/red_ll/4.jpg"",""time"":202},{""stimulus"":""img/red_ll/5.jpg"",""time"":251},{""stimulus"":""img/red_ll/6.jpg"",""time"":301},{""stimulus"":""img/red_ll/7.jpg"",""time"":351},{""stimulus"":""img/red_ll/8.jpg"",""time"":401},{""stimulus"":""img/red_ll/9.jpg"",""time"":451},{""stimulus"":""img/red_ll/10.jpg"",""time"":501},{""stimulus"":""img/red_ll/11.jpg"",""time"":551}]","[]"
"image-keyboard-response","164","104145","0.0-5.0-1.80","60599946259dc97d30e2001f","bdp_lott","Sun Apr 02 2023 20:44:47 GMT-0700 (Pacific Daylight Time)","218137","green","red","","118","","","","choice","","img/red_ll/choose11.jpg","1","145","green","0.5","0.1","0.5","w","",""
"animation","165","104745","0.0-5.0-2.80","60599946259dc97d30e2001f","bdp_lott","Sun Apr 02 2023 20:44:47 GMT-0700 (Pacific Daylight Time)","218137","green","red","","","","","","","","","","145","","","","","","[{""stimulus"":""img/green_wl/1.jpg"",""time"":50},{""stimulus"":""img/green_wl/2.jpg"",""time"":100},{""stimulus"":""img/green_wl/3.jpg"",""time"":150},{""stimulus"":""img/green_wl/4.jpg"",""time"":200},{""stimulus"":""img/green_wl/5.jpg"",""time"":250},{""stimulus"":""img/green_wl/6.jpg"",""time"":300},{""stimulus"":""img/green_wl/7.jpg"",""time"":350},{""stimulus"":""img/green_wl/8.jpg"",""time"":401},{""stimulus"":""img/green_wl/9.jpg"",""time"":450},{""stimulus"":""img/green_wl/10.jpg"",""time"":500},{""stimulus"":""img/green_wl/11.jpg"",""time"":550}]","[]"
"image-keyboard-response","166","104873","0.0-5.0-1.81","60599946259dc97d30e2001f","bdp_lott","Sun Apr 02 2023 20:44:47 GMT-0700 (Pacific Daylight Time)","218137","green","red","","127","","","","choice","","img/green_wl/choose11.jpg","1","144","green","0.5","0.1","0.5","w","",""
"animation","167","105473","0.0-5.0-2.81","60599946259dc97d30e2001f","bdp_lott","Sun Apr 02 2023 20:44:47 GMT-0700 (Pacific Daylight Time)","218137","green","red","","","","","","","","","","144","","","","","","[{""stimulus"":""img/green_wl/1.jpg"",""time"":50},{""stimulus"":""img/green_wl/2.jpg"",""time"":100},{""stimulus"":""img/green_wl/3.jpg"",""time"":150},{""stimulus"":""img/green_wl/4.jpg"",""time"":201},{""stimulus"":""img/green_wl/5.jpg"",""time"":251},{""stimulus"":""img/green_wl/6.jpg"",""time"":300},{""stimulus"":""img/green_wl/7.jpg"",""time"":351},{""stimulus"":""img/green_wl/8.jpg"",""time"":400},{""stimulus"":""img/green_wl/9.jpg"",""time"":450},{""stimulus"":""img/green_wl/10.jpg"",""time"":500},{""stimulus"":""img/green_wl/11.jpg"",""time"":550}]","[]"
"image-keyboard-response","168","105633","0.0-5.0-1.82","60599946259dc97d30e2001f","bdp_lott","Sun Apr 02 2023 20:44:47 GMT-0700 (Pacific Daylight Time)","218137","green","red","","160","","","","choice","","img/green_wl/choose11.jpg","1","143","green","0.5","0.1","0.5","w","",""
"animation","169","106233","0.0-5.0-2.82","60599946259dc97d30e2001f","bdp_lott","Sun Apr 02 2023 20:44:47 GMT-0700 (Pacific Daylight Time)","218137","green","red","","","","","","","","","","143","","","","","","[{""stimulus"":""img/green_wl/1.jpg"",""time"":50},{""stimulus"":""img/green_wl/2.jpg"",""time"":100},{""stimulus"":""img/green_wl/3.jpg"",""time"":150},{""stimulus"":""img/green_wl/4.jpg"",""time"":201},{""stimulus"":""img/green_wl/5.jpg"",""time"":250},{""stimulus"":""img/green_wl/6.jpg"",""time"":300},{""stimulus"":""img/green_wl/7.jpg"",""time"":350},{""stimulus"":""img/green_wl/8.jpg"",""time"":400},{""stimulus"":""img/green_wl/9.jpg"",""time"":450},{""stimulus"":""img/green_wl/10.jpg"",""time"":500},{""stimulus"":""img/green_wl/11.jpg"",""time"":550}]","[]"
"image-keyboard-response","170","106369","0.0-5.0-1.83","60599946259dc97d30e2001f","bdp_lott","Sun Apr 02 2023 20:44:47 GMT-0700 (Pacific Daylight Time)","218137","green","red","","136","","","","choice","","img/green_wl/choose11.jpg","1","142","green","0.5","0.1","0.5","w","",""
"animation","171","106970","0.0-5.0-2.83","60599946259dc97d30e2001f","bdp_lott","Sun Apr 02 2023 20:44:47 GMT-0700 (Pacific Daylight Time)","218137","green","red","","","","","","","","","","142","","","","","","[{""stimulus"":""img/green_wl/1.jpg"",""time"":50},{""stimulus"":""img/green_wl/2.jpg"",""time"":100},{""stimulus"":""img/green_wl/3.jpg"",""time"":150},{""stimulus"":""img/green_wl/4.jpg"",""time"":201},{""stimulus"":""img/green_wl/5.jpg"",""time"":250},{""stimulus"":""img/green_wl/6.jpg"",""time"":300},{""stimulus"":""img/green_wl/7.jpg"",""time"":350},{""stimulus"":""img/green_wl/8.jpg"",""time"":401},{""stimulus"":""img/green_wl/9.jpg"",""time"":451},{""stimulus"":""img/green_wl/10.jpg"",""time"":501},{""stimulus"":""img/green_wl/11.jpg"",""time"":551}]","[]"
"image-keyboard-response","172","107185","0.0-5.0-1.84","60599946259dc97d30e2001f","bdp_lott","Sun Apr 02 2023 20:44:47 GMT-0700 (Pacific Daylight Time)","218137","green","red","","215","","","","choice","","img/green_wl/choose11.jpg","1","141","green","0.5","0.1","0.5","l","",""
"animation","173","107785","0.0-5.0-2.84","60599946259dc97d30e2001f","bdp_lott","Sun Apr 02 2023 20:44:47 GMT-0700 (Pacific Daylight Time)","218137","green","red","","","","","","","","","","141","","","","","","[{""stimulus"":""img/green_ll/1.jpg"",""time"":50},{""stimulus"":""img/green_ll/2.jpg"",""time"":100},{""stimulus"":""img/green_ll/3.jpg"",""time"":150},{""stimulus"":""img/green_ll/4.jpg"",""time"":200},{""stimulus"":""img/green_ll/5.jpg"",""time"":250},{""stimulus"":""img/green_ll/6.jpg"",""time"":300},{""stimulus"":""img/green_ll/7.jpg"",""time"":350},{""stimulus"":""img/green_ll/8.jpg"",""time"":400},{""stimulus"":""img/green_ll/9.jpg"",""time"":450},{""stimulus"":""img/green_ll/10.jpg"",""time"":500},{""stimulus"":""img/green_ll/11.jpg"",""time"":550}]","[]"
"image-keyboard-response","174","108177","0.0-5.0-1.85","60599946259dc97d30e2001f","bdp_lott","Sun Apr 02 2023 20:44:47 GMT-0700 (Pacific Daylight Time)","218137","green","red","","392","","","","choice","","img/green_ll/choose11.jpg","2","140","red","0.5","0.1","0.1","l","",""
"animation","175","108779","0.0-5.0-2.85","60599946259dc97d30e2001f","bdp_lott","Sun Apr 02 2023 20:44:47 GMT-0700 (Pacific Daylight Time)","218137","green","red","","","","","","","","","","140","","","","","","[{""stimulus"":""img/red_ll/1.jpg"",""time"":50},{""stimulus"":""img/red_ll/2.jpg"",""time"":101},{""stimulus"":""img/red_ll/3.jpg"",""time"":151},{""stimulus"":""img/red_ll/4.jpg"",""time"":202},{""stimulus"":""img/red_ll/5.jpg"",""time"":251},{""stimulus"":""img/red_ll/6.jpg"",""time"":302},{""stimulus"":""img/red_ll/7.jpg"",""time"":351},{""stimulus"":""img/red_ll/8.jpg"",""time"":401},{""stimulus"":""img/red_ll/9.jpg"",""time"":451},{""stimulus"":""img/red_ll/10.jpg"",""time"":502},{""stimulus"":""img/red_ll/11.jpg"",""time"":551}]","[]"
"image-keyboard-response","176","109025","0.0-5.0-1.86","60599946259dc97d30e2001f","bdp_lott","Sun Apr 02 2023 20:44:47 GMT-0700 (Pacific Daylight Time)","218137","green","red","","246","","","","choice","","img/red_ll/choose11.jpg","2","139","red","0.5","0.1","0.1","l","",""
"animation","177","109625","0.0-5.0-2.86","60599946259dc97d30e2001f","bdp_lott","Sun Apr 02 2023 20:44:47 GMT-0700 (Pacific Daylight Time)","218137","green","red","","","","","","","","","","139","","","","","","[{""stimulus"":""img/red_ll/1.jpg"",""time"":50},{""stimulus"":""img/red_ll/2.jpg"",""time"":100},{""stimulus"":""img/red_ll/3.jpg"",""time"":150},{""stimulus"":""img/red_ll/4.jpg"",""time"":200},{""stimulus"":""img/red_ll/5.jpg"",""time"":250},{""stimulus"":""img/red_ll/6.jpg"",""time"":300},{""stimulus"":""img/red_ll/7.jpg"",""time"":350},{""stimulus"":""img/red_ll/8.jpg"",""time"":400},{""stimulus"":""img/red_ll/9.jpg"",""time"":450},{""stimulus"":""img/red_ll/10.jpg"",""time"":500},{""stimulus"":""img/red_ll/11.jpg"",""time"":551}]","[]"
"image-keyboard-response","178","109801","0.0-5.0-1.87","60599946259dc97d30e2001f","bdp_lott","Sun Apr 02 2023 20:44:47 GMT-0700 (Pacific Daylight Time)","218137","green","red","","175","","","","choice","","img/red_ll/choose11.jpg","1","138","green","0.5","0.1","0.5","l","",""
"animation","179","110402","0.0-5.0-2.87","60599946259dc97d30e2001f","bdp_lott","Sun Apr 02 2023 20:44:47 GMT-0700 (Pacific Daylight Time)","218137","green","red","","","","","","","","","","138","","","","","","[{""stimulus"":""img/green_ll/1.jpg"",""time"":51},{""stimulus"":""img/green_ll/2.jpg"",""time"":101},{""stimulus"":""img/green_ll/3.jpg"",""time"":151},{""stimulus"":""img/green_ll/4.jpg"",""time"":201},{""stimulus"":""img/green_ll/5.jpg"",""time"":252},{""stimulus"":""img/green_ll/6.jpg"",""time"":301},{""stimulus"":""img/green_ll/7.jpg"",""time"":351},{""stimulus"":""img/green_ll/8.jpg"",""time"":401},{""stimulus"":""img/green_ll/9.jpg"",""time"":450},{""stimulus"":""img/green_ll/10.jpg"",""time"":500},{""stimulus"":""img/green_ll/11.jpg"",""time"":550}]","[]"
"image-keyboard-response","180","110689","0.0-5.0-1.88","60599946259dc97d30e2001f","bdp_lott","Sun Apr 02 2023 20:44:47 GMT-0700 (Pacific Daylight Time)","218137","green","red","","287","","","","choice","","img/green_ll/choose11.jpg","1","137","green","0.5","0.1","0.5","l","",""
"animation","181","111289","0.0-5.0-2.88","60599946259dc97d30e2001f","bdp_lott","Sun Apr 02 2023 20:44:47 GMT-0700 (Pacific Daylight Time)","218137","green","red","","","","","","","","","","137","","","","","","[{""stimulus"":""img/green_ll/1.jpg"",""time"":51},{""stimulus"":""img/green_ll/2.jpg"",""time"":101},{""stimulus"":""img/green_ll/3.jpg"",""time"":151},{""stimulus"":""img/green_ll/4.jpg"",""time"":201},{""stimulus"":""img/green_ll/5.jpg"",""time"":251},{""stimulus"":""img/green_ll/6.jpg"",""time"":301},{""stimulus"":""img/green_ll/7.jpg"",""time"":351},{""stimulus"":""img/green_ll/8.jpg"",""time"":401},{""stimulus"":""img/green_ll/9.jpg"",""time"":450},{""stimulus"":""img/green_ll/10.jpg"",""time"":500},{""stimulus"":""img/green_ll/11.jpg"",""time"":550}]","[]"
"image-keyboard-response","182","111561","0.0-5.0-1.89","60599946259dc97d30e2001f","bdp_lott","Sun Apr 02 2023 20:44:47 GMT-0700 (Pacific Daylight Time)","218137","green","red","","272","","","","choice","","img/green_ll/choose11.jpg","2","136","red","0.5","0.1","0.1","l","",""
"animation","183","112162","0.0-5.0-2.89","60599946259dc97d30e2001f","bdp_lott","Sun Apr 02 2023 20:44:47 GMT-0700 (Pacific Daylight Time)","218137","green","red","","","","","","","","","","136","","","","","","[{""stimulus"":""img/red_ll/1.jpg"",""time"":51},{""stimulus"":""img/red_ll/2.jpg"",""time"":101},{""stimulus"":""img/red_ll/3.jpg"",""time"":151},{""stimulus"":""img/red_ll/4.jpg"",""time"":201},{""stimulus"":""img/red_ll/5.jpg"",""time"":251},{""stimulus"":""img/red_ll/6.jpg"",""time"":301},{""stimulus"":""img/red_ll/7.jpg"",""time"":351},{""stimulus"":""img/red_ll/8.jpg"",""time"":401},{""stimulus"":""img/red_ll/9.jpg"",""time"":450},{""stimulus"":""img/red_ll/10.jpg"",""time"":501},{""stimulus"":""img/red_ll/11.jpg"",""time"":551}]","[]"
"image-keyboard-response","184","112409","0.0-5.0-1.90","60599946259dc97d30e2001f","bdp_lott","Sun Apr 02 2023 20:44:47 GMT-0700 (Pacific Daylight Time)","218137","green","red","","247","","","","choice","","img/red_ll/choose11.jpg","2","135","red","0.5","0.1","0.1","l","",""
"animation","185","113009","0.0-5.0-2.90","60599946259dc97d30e2001f","bdp_lott","Sun Apr 02 2023 20:44:47 GMT-0700 (Pacific Daylight Time)","218137","green","red","","","","","","","","","","135","","","","","","[{""stimulus"":""img/red_ll/1.jpg"",""time"":50},{""stimulus"":""img/red_ll/2.jpg"",""time"":100},{""stimulus"":""img/red_ll/3.jpg"",""time"":150},{""stimulus"":""img/red_ll/4.jpg"",""time"":200},{""stimulus"":""img/red_ll/5.jpg"",""time"":250},{""stimulus"":""img/red_ll/6.jpg"",""time"":300},{""stimulus"":""img/red_ll/7.jpg"",""time"":350},{""stimulus"":""img/red_ll/8.jpg"",""time"":400},{""stimulus"":""img/red_ll/9.jpg"",""time"":450},{""stimulus"":""img/red_ll/10.jpg"",""time"":500},{""stimulus"":""img/red_ll/11.jpg"",""time"":550}]","[]"
"image-keyboard-response","186","113113","0.0-5.0-1.91","60599946259dc97d30e2001f","bdp_lott","Sun Apr 02 2023 20:44:47 GMT-0700 (Pacific Daylight Time)","218137","green","red","","104","","","","choice","","img/red_ll/choose11.jpg","1","134","green","0.5","0.1","0.5","l","",""
"animation","187","113725","0.0-5.0-2.91","60599946259dc97d30e2001f","bdp_lott","Sun Apr 02 2023 20:44:47 GMT-0700 (Pacific Daylight Time)","218137","green","red","","","","","","","","","","134","","","","","","[{""stimulus"":""img/green_ll/1.jpg"",""time"":50},{""stimulus"":""img/green_ll/2.jpg"",""time"":100},{""stimulus"":""img/green_ll/3.jpg"",""time"":151},{""stimulus"":""img/green_ll/4.jpg"",""time"":201},{""stimulus"":""img/green_ll/5.jpg"",""time"":251},{""stimulus"":""img/green_ll/6.jpg"",""time"":301},{""stimulus"":""img/green_ll/7.jpg"",""time"":351},{""stimulus"":""img/green_ll/8.jpg"",""time"":401},{""stimulus"":""img/green_ll/9.jpg"",""time"":451},{""stimulus"":""img/green_ll/10.jpg"",""time"":500},{""stimulus"":""img/green_ll/11.jpg"",""time"":550}]","[]"
"image-keyboard-response","188","113921","0.0-5.0-1.92","60599946259dc97d30e2001f","bdp_lott","Sun Apr 02 2023 20:44:47 GMT-0700 (Pacific Daylight Time)","218137","green","red","","196","","","","choice","","img/green_ll/choose11.jpg","1","133","green","0.5","0.1","0.5","l","",""
"animation","189","114522","0.0-5.0-2.92","60599946259dc97d30e2001f","bdp_lott","Sun Apr 02 2023 20:44:47 GMT-0700 (Pacific Daylight Time)","218137","green","red","","","","","","","","","","133","","","","","","[{""stimulus"":""img/green_ll/1.jpg"",""time"":52},{""stimulus"":""img/green_ll/2.jpg"",""time"":101},{""stimulus"":""img/green_ll/3.jpg"",""time"":151},{""stimulus"":""img/green_ll/4.jpg"",""time"":201},{""stimulus"":""img/green_ll/5.jpg"",""time"":251},{""stimulus"":""img/green_ll/6.jpg"",""time"":301},{""stimulus"":""img/green_ll/7.jpg"",""time"":351},{""stimulus"":""img/green_ll/8.jpg"",""time"":401},{""stimulus"":""img/green_ll/9.jpg"",""time"":451},{""stimulus"":""img/green_ll/10.jpg"",""time"":501},{""stimulus"":""img/green_ll/11.jpg"",""time"":552}]","[]"
"image-keyboard-response","190","114649","0.0-5.0-1.93","60599946259dc97d30e2001f","bdp_lott","Sun Apr 02 2023 20:44:47 GMT-0700 (Pacific Daylight Time)","218137","green","red","","126","","","","choice","","img/green_ll/choose11.jpg","1","132","green","0.5","0.1","0.5","w","",""
