"trial_type","trial_index","time_elapsed","internal_node_id","subject_id","task","startTime","totalTime","fairMachine","unfairMachine","view_history","rt","event","trial","time","trialtype","success","stimulus","key_press","roundsLeft","chosen","pFairMachWin","pUnfairMachWin","pTrialWin","outcome","animation_sequence","responses"
"pavlovia","0","7","0.0-0.0","62715bfe8dcc19e21152dce0","bdp_lott","Mon Mar 27 2023 23:50:25 GMT-0500 (Central Daylight Time)","258553","red","green","","","","","","","","","","","","","","","","",""
"instructions","1","4180","0.0-1.0","62715bfe8dcc19e21152dce0","bdp_lott","Mon Mar 27 2023 23:50:25 GMT-0500 (Central Daylight Time)","258553","red","green","[{""page_index"":0,""viewing_time"":4172}]","4172","","","","","","","","","","","","","","",""
"","","","","62715bfe8dcc19e21152dce0","bdp_lott","Mon Mar 27 2023 23:50:25 GMT-0500 (Central Daylight Time)","258553","red","green","","","fullscreenenter","2","7351","fullscreenenter","","","","","","","","","","",""
"fullscreen","2","8340","0.0-2.0","62715bfe8dcc19e21152dce0","bdp_lott","Mon Mar 27 2023 23:50:25 GMT-0500 (Central Daylight Time)","258553","red","green","","","","","","","true","","","","","","","","","",""
"instructions","3","56543","0.0-4.0","62715bfe8dcc19e21152dce0","bdp_lott","Mon Mar 27 2023 23:50:25 GMT-0500 (Central Daylight Time)","258553","red","green","[{""page_index"":0,""viewing_time"":48201}]","48201","","","","","","","","","","","","","","",""
"image-keyboard-response","4","58121","0.0-5.0-1.0","62715bfe8dcc19e21152dce0","bdp_lott","Mon Mar 27 2023 23:50:25 GMT-0500 (Central Daylight Time)","258553","red","green","","1575","","","","choice","","img/red_ll/initchoose11.jpg","1","225","green","0.5","0.5","0.5","l","",""
"animation","5","58723","0.0-5.0-2.0","62715bfe8dcc19e21152dce0","bdp_lott","Mon Mar 27 2023 23:50:25 GMT-0500 (Central Daylight Time)","258553","red","green","","","","","","","","","","225","","","","","","[{""stimulus"":""img/green_ll/1.jpg"",""time"":52},{""stimulus"":""img/green_ll/2.jpg"",""time"":101},{""stimulus"":""img/green_ll/3.jpg"",""time"":151},{""stimulus"":""img/green_ll/4.jpg"",""time"":202},{""stimulus"":""img/green_ll/5.jpg"",""time"":252},{""stimulus"":""img/green_ll/6.jpg"",""time"":301},{""stimulus"":""img/green_ll/7.jpg"",""time"":351},{""stimulus"":""img/green_ll/8.jpg"",""time"":401},{""stimulus"":""img/green_ll/9.jpg"",""time"":451},{""stimulus"":""img/green_ll/10.jpg"",""time"":502},{""stimulus"":""img/green_ll/11.jpg"",""time"":551}]","[]"
"image-keyboard-response","6","59278","0.0-5.0-1.1","62715bfe8dcc19e21152dce0","bdp_lott","Mon Mar 27 2023 23:50:25 GMT-0500 (Central Daylight Time)","258553","red","green","","554","","","","choice","","img/green_ll/choose11.jpg","1","224","green","0.5","0.5","0.5","w","",""
"animation","7","59879","0.0-5.0-2.1","62715bfe8dcc19e21152dce0","bdp_lott","Mon Mar 27 2023 23:50:25 GMT-0500 (Central Daylight Time)","258553","red","green","","","","","","","","","","224","","","","","","[{""stimulus"":""img/green_wl/1.jpg"",""time"":51},{""stimulus"":""img/green_wl/2.jpg"",""time"":101},{""stimulus"":""img/green_wl/3.jpg"",""time"":151},{""stimulus"":""img/green_wl/4.jpg"",""time"":202},{""stimulus"":""img/green_wl/5.jpg"",""time"":251},{""stimulus"":""img/green_wl/6.jpg"",""time"":301},{""stimulus"":""img/green_wl/7.jpg"",""time"":351},{""stimulus"":""img/green_wl/8.jpg"",""time"":401},{""stimulus"":""img/green_wl/9.jpg"",""time"":451},{""stimulus"":""img/green_wl/10.jpg"",""time"":501},{""stimulus"":""img/green_wl/11.jpg"",""time"":551}]","[]"
"image-keyboard-response","8","60161","0.0-5.0-1.2","62715bfe8dcc19e21152dce0","bdp_lott","Mon Mar 27 2023 23:50:25 GMT-0500 (Central Daylight Time)","258553","red","green","","281","","","","choice","","img/green_wl/choose11.jpg","1","223","green","0.5","0.5","0.5","w","",""
"animation","9","60762","0.0-5.0-2.2","62715bfe8dcc19e21152dce0","bdp_lott","Mon Mar 27 2023 23:50:25 GMT-0500 (Central Daylight Time)","258553","red","green","","","","","","","","","","223","","","","","","[{""stimulus"":""img/green_wl/1.jpg"",""time"":52},{""stimulus"":""img/green_wl/2.jpg"",""time"":101},{""stimulus"":""img/green_wl/3.jpg"",""time"":151},{""stimulus"":""img/green_wl/4.jpg"",""time"":201},{""stimulus"":""img/green_wl/5.jpg"",""time"":251},{""stimulus"":""img/green_wl/6.jpg"",""time"":302},{""stimulus"":""img/green_wl/7.jpg"",""time"":351},{""stimulus"":""img/green_wl/8.jpg"",""time"":402},{""stimulus"":""img/green_wl/9.jpg"",""time"":451},{""stimulus"":""img/green_wl/10.jpg"",""time"":502},{""stimulus"":""img/green_wl/11.jpg"",""time"":552}]","[]"
"image-keyboard-response","10","62027","0.0-5.0-1.3","62715bfe8dcc19e21152dce0","bdp_lott","Mon Mar 27 2023 23:50:25 GMT-0500 (Central Daylight Time)","258553","red","green","","1264","","","","choice","","img/green_wl/choose11.jpg","1","222","green","0.5","0.5","0.5","l","",""
"animation","11","62628","0.0-5.0-2.3","62715bfe8dcc19e21152dce0","bdp_lott","Mon Mar 27 2023 23:50:25 GMT-0500 (Central Daylight Time)","258553","red","green","","","","","","","","","","222","","","","","","[{""stimulus"":""img/green_ll/1.jpg"",""time"":51},{""stimulus"":""img/green_ll/2.jpg"",""time"":106},{""stimulus"":""img/green_ll/3.jpg"",""time"":152},{""stimulus"":""img/green_ll/4.jpg"",""time"":201},{""stimulus"":""img/green_ll/5.jpg"",""time"":252},{""stimulus"":""img/green_ll/6.jpg"",""time"":302},{""stimulus"":""img/green_ll/7.jpg"",""time"":351},{""stimulus"":""img/green_ll/8.jpg"",""time"":401},{""stimulus"":""img/green_ll/9.jpg"",""time"":452},{""stimulus"":""img/green_ll/10.jpg"",""time"":502},{""stimulus"":""img/green_ll/11.jpg"",""time"":552}]","[]"
"image-keyboard-response","12","63282","0.0-5.0-1.4","62715bfe8dcc19e21152dce0","bdp_lott","Mon Mar 27 2023 23:50:25 GMT-0500 (Central Daylight Time)","258553","red","green","","653","","","","choice","","img/green_ll/choose11.jpg","1","221","green","0.5","0.5","0.5","l","",""
"animation","13","63883","0.0-5.0-2.4","62715bfe8dcc19e21152dce0","bdp_lott","Mon Mar 27 2023 23:50:25 GMT-0500 (Central Daylight Time)","258553","red","green","","","","","","","","","","221","","","","","","[{""stimulus"":""img/green_ll/1.jpg"",""time"":52},{""stimulus"":""img/green_ll/2.jpg"",""time"":101},{""stimulus"":""img/green_ll/3.jpg"",""time"":151},{""stimulus"":""img/green_ll/4.jpg"",""time"":201},{""stimulus"":""img/green_ll/5.jpg"",""time"":251},{""stimulus"":""img/green_ll/6.jpg"",""time"":302},{""stimulus"":""img/green_ll/7.jpg"",""time"":351},{""stimulus"":""img/green_ll/8.jpg"",""time"":401},{""stimulus"":""img/green_ll/9.jpg"",""time"":451},{""stimulus"":""img/green_ll/10.jpg"",""time"":501},{""stimulus"":""img/green_ll/11.jpg"",""time"":551}]","[]"
"image-keyboard-response","14","64404","0.0-5.0-1.5","62715bfe8dcc19e21152dce0","bdp_lott","Mon Mar 27 2023 23:50:25 GMT-0500 (Central Daylight Time)","258553","red","green","","521","","","","choice","","img/green_ll/choose11.jpg","1","220","green","0.5","0.5","0.5","w","",""
"animation","15","65005","0.0-5.0-2.5","62715bfe8dcc19e21152dce0","bdp_lott","Mon Mar 27 2023 23:50:25 GMT-0500 (Central Daylight Time)","258553","red","green","","","","","","","","","","220","","","","","","[{""stimulus"":""img/green_wl/1.jpg"",""time"":52},{""stimulus"":""img/green_wl/2.jpg"",""time"":101},{""stimulus"":""img/green_wl/3.jpg"",""time"":165},{""stimulus"":""img/green_wl/4.jpg"",""time"":201},{""stimulus"":""img/green_wl/5.jpg"",""time"":251},{""stimulus"":""img/green_wl/6.jpg"",""time"":301},{""stimulus"":""img/green_wl/7.jpg"",""time"":352},{""stimulus"":""img/green_wl/8.jpg"",""time"":402},{""stimulus"":""img/green_wl/9.jpg"",""time"":451},{""stimulus"":""img/green_wl/10.jpg"",""time"":501},{""stimulus"":""img/green_wl/11.jpg"",""time"":552}]","[]"
"image-keyboard-response","16","65556","0.0-5.0-1.6","62715bfe8dcc19e21152dce0","bdp_lott","Mon Mar 27 2023 23:50:25 GMT-0500 (Central Daylight Time)","258553","red","green","","550","","","","choice","","img/green_wl/choose11.jpg","1","219","green","0.5","0.5","0.5","w","",""
"animation","17","66158","0.0-5.0-2.6","62715bfe8dcc19e21152dce0","bdp_lott","Mon Mar 27 2023 23:50:25 GMT-0500 (Central Daylight Time)","258553","red","green","","","","","","","","","","219","","","","","","[{""stimulus"":""img/green_wl/1.jpg"",""time"":52},{""stimulus"":""img/green_wl/2.jpg"",""time"":102},{""stimulus"":""img/green_wl/3.jpg"",""time"":152},{""stimulus"":""img/green_wl/4.jpg"",""time"":202},{""stimulus"":""img/green_wl/5.jpg"",""time"":252},{""stimulus"":""img/green_wl/6.jpg"",""time"":301},{""stimulus"":""img/green_wl/7.jpg"",""time"":351},{""stimulus"":""img/green_wl/8.jpg"",""time"":402},{""stimulus"":""img/green_wl/9.jpg"",""time"":452},{""stimulus"":""img/green_wl/10.jpg"",""time"":502},{""stimulus"":""img/green_wl/11.jpg"",""time"":552}]","[]"
"image-keyboard-response","18","66643","0.0-5.0-1.7","62715bfe8dcc19e21152dce0","bdp_lott","Mon Mar 27 2023 23:50:25 GMT-0500 (Central Daylight Time)","258553","red","green","","484","","","","choice","","img/green_wl/choose11.jpg","1","218","green","0.5","0.5","0.5","l","",""
"animation","19","67244","0.0-5.0-2.7","62715bfe8dcc19e21152dce0","bdp_lott","Mon Mar 27 2023 23:50:25 GMT-0500 (Central Daylight Time)","258553","red","green","","","","","","","","","","218","","","","","","[{""stimulus"":""img/green_ll/1.jpg"",""time"":50},{""stimulus"":""img/green_ll/2.jpg"",""time"":101},{""stimulus"":""img/green_ll/3.jpg"",""time"":151},{""stimulus"":""img/green_ll/4.jpg"",""time"":210},{""stimulus"":""img/green_ll/5.jpg"",""time"":251},{""stimulus"":""img/green_ll/6.jpg"",""time"":301},{""stimulus"":""img/green_ll/7.jpg"",""time"":351},{""stimulus"":""img/green_ll/8.jpg"",""time"":402},{""stimulus"":""img/green_ll/9.jpg"",""time"":451},{""stimulus"":""img/green_ll/10.jpg"",""time"":501},{""stimulus"":""img/green_ll/11.jpg"",""time"":551}]","[]"
"image-keyboard-response","20","67720","0.0-5.0-1.8","62715bfe8dcc19e21152dce0","bdp_lott","Mon Mar 27 2023 23:50:25 GMT-0500 (Central Daylight Time)","258553","red","green","","475","","","","choice","","img/green_ll/choose11.jpg","1","217","green","0.5","0.5","0.5","l","",""
"animation","21","68322","0.0-5.0-2.8","62715bfe8dcc19e21152dce0","bdp_lott","Mon Mar 27 2023 23:50:25 GMT-0500 (Central Daylight Time)","258553","red","green","","","","","","","","","","217","","","","","","[{""stimulus"":""img/green_ll/1.jpg"",""time"":52},{""stimulus"":""img/green_ll/2.jpg"",""time"":101},{""stimulus"":""img/green_ll/3.jpg"",""time"":152},{""stimulus"":""img/green_ll/4.jpg"",""time"":201},{""stimulus"":""img/green_ll/5.jpg"",""time"":252},{""stimulus"":""img/green_ll/6.jpg"",""time"":301},{""stimulus"":""img/green_ll/7.jpg"",""time"":351},{""stimulus"":""img/green_ll/8.jpg"",""time"":401},{""stimulus"":""img/green_ll/9.jpg"",""time"":451},{""stimulus"":""img/green_ll/10.jpg"",""time"":501},{""stimulus"":""img/green_ll/11.jpg"",""time"":551}]","[]"
"image-keyboard-response","22","68830","0.0-5.0-1.9","62715bfe8dcc19e21152dce0","bdp_lott","Mon Mar 27 2023 23:50:25 GMT-0500 (Central Daylight Time)","258553","red","green","","508","","","","choice","","img/green_ll/choose11.jpg","1","216","green","0.5","0.5","0.5","l","",""
"animation","23","69432","0.0-5.0-2.9","62715bfe8dcc19e21152dce0","bdp_lott","Mon Mar 27 2023 23:50:25 GMT-0500 (Central Daylight Time)","258553","red","green","","","","","","","","","","216","","","","","","[{""stimulus"":""img/green_ll/1.jpg"",""time"":52},{""stimulus"":""img/green_ll/2.jpg"",""time"":101},{""stimulus"":""img/green_ll/3.jpg"",""time"":151},{""stimulus"":""img/green_ll/4.jpg"",""time"":201},{""stimulus"":""img/green_ll/5.jpg"",""time"":252},{""stimulus"":""img/green_ll/6.jpg"",""time"":301},{""stimulus"":""img/green_ll/7.jpg"",""time"":352},{""stimulus"":""img/green_ll/8.jpg"",""time"":401},{""stimulus"":""img/green_ll/9.jpg"",""time"":451},{""stimulus"":""img/green_ll/10.jpg"",""time"":501},{""stimulus"":""img/green_ll/11.jpg"",""time"":551}]","[]"
"image-keyboard-response","24","69907","0.0-5.0-1.10","62715bfe8dcc19e21152dce0","bdp_lott","Mon Mar 27 2023 23:50:25 GMT-0500 (Central Daylight Time)","258553","red","green","","475","","","","choice","","img/green_ll/choose11.jpg","1","215","green","0.5","0.5","0.5","w","",""
"animation","25","70508","0.0-5.0-2.10","62715bfe8dcc19e21152dce0","bdp_lott","Mon Mar 27 2023 23:50:25 GMT-0500 (Central Daylight Time)","258553","red","green","","","","","","","","","","215","","","","","","[{""stimulus"":""img/green_wl/1.jpg"",""time"":51},{""stimulus"":""img/green_wl/2.jpg"",""time"":101},{""stimulus"":""img/green_wl/3.jpg"",""time"":151},{""stimulus"":""img/green_wl/4.jpg"",""time"":201},{""stimulus"":""img/green_wl/5.jpg"",""time"":252},{""stimulus"":""img/green_wl/6.jpg"",""time"":301},{""stimulus"":""img/green_wl/7.jpg"",""time"":352},{""stimulus"":""img/green_wl/8.jpg"",""time"":401},{""stimulus"":""img/green_wl/9.jpg"",""time"":451},{""stimulus"":""img/green_wl/10.jpg"",""time"":515},{""stimulus"":""img/green_wl/11.jpg"",""time"":552}]","[]"
"image-keyboard-response","26","71028","0.0-5.0-1.11","62715bfe8dcc19e21152dce0","bdp_lott","Mon Mar 27 2023 23:50:25 GMT-0500 (Central Daylight Time)","258553","red","green","","519","","","","choice","","img/green_wl/choose11.jpg","1","214","green","0.5","0.5","0.5","l","",""
"animation","27","71630","0.0-5.0-2.11","62715bfe8dcc19e21152dce0","bdp_lott","Mon Mar 27 2023 23:50:25 GMT-0500 (Central Daylight Time)","258553","red","green","","","","","","","","","","214","","","","","","[{""stimulus"":""img/green_ll/1.jpg"",""time"":51},{""stimulus"":""img/green_ll/2.jpg"",""time"":102},{""stimulus"":""img/green_ll/3.jpg"",""time"":152},{""stimulus"":""img/green_ll/4.jpg"",""time"":201},{""stimulus"":""img/green_ll/5.jpg"",""time"":251},{""stimulus"":""img/green_ll/6.jpg"",""time"":301},{""stimulus"":""img/green_ll/7.jpg"",""time"":352},{""stimulus"":""img/green_ll/8.jpg"",""time"":401},{""stimulus"":""img/green_ll/9.jpg"",""time"":451},{""stimulus"":""img/green_ll/10.jpg"",""time"":501},{""stimulus"":""img/green_ll/11.jpg"",""time"":552}]","[]"
"image-keyboard-response","28","72127","0.0-5.0-1.12","62715bfe8dcc19e21152dce0","bdp_lott","Mon Mar 27 2023 23:50:25 GMT-0500 (Central Daylight Time)","258553","red","green","","496","","","","choice","","img/green_ll/choose11.jpg","1","213","green","0.5","0.5","0.5","w","",""
"animation","29","72729","0.0-5.0-2.12","62715bfe8dcc19e21152dce0","bdp_lott","Mon Mar 27 2023 23:50:25 GMT-0500 (Central Daylight Time)","258553","red","green","","","","","","","","","","213","","","","","","[{""stimulus"":""img/green_wl/1.jpg"",""time"":51},{""stimulus"":""img/green_wl/2.jpg"",""time"":101},{""stimulus"":""img/green_wl/3.jpg"",""time"":151},{""stimulus"":""img/green_wl/4.jpg"",""time"":201},{""stimulus"":""img/green_wl/5.jpg"",""time"":252},{""stimulus"":""img/green_wl/6.jpg"",""time"":301},{""stimulus"":""img/green_wl/7.jpg"",""time"":351},{""stimulus"":""img/green_wl/8.jpg"",""time"":402},{""stimulus"":""img/green_wl/9.jpg"",""time"":451},{""stimulus"":""img/green_wl/10.jpg"",""time"":511},{""stimulus"":""img/green_wl/11.jpg"",""time"":551}]","[]"
"image-keyboard-response","30","73134","0.0-5.0-1.13","62715bfe8dcc19e21152dce0","bdp_lott","Mon Mar 27 2023 23:50:25 GMT-0500 (Central Daylight Time)","258553","red","green","","404","","","","choice","","img/green_wl/choose11.jpg","1","212","green","0.5","0.5","0.5","l","",""
"animation","31","73735","0.0-5.0-2.13","62715bfe8dcc19e21152dce0","bdp_lott","Mon Mar 27 2023 23:50:25 GMT-0500 (Central Daylight Time)","258553","red","green","","","","","","","","","","212","","","","","","[{""stimulus"":""img/green_ll/1.jpg"",""time"":52},{""stimulus"":""img/green_ll/2.jpg"",""time"":101},{""stimulus"":""img/green_ll/3.jpg"",""time"":151},{""stimulus"":""img/green_ll/4.jpg"",""time"":201},{""stimulus"":""img/green_ll/5.jpg"",""time"":251},{""stimulus"":""img/green_ll/6.jpg"",""time"":302},{""stimulus"":""img/green_ll/7.jpg"",""time"":351},{""stimulus"":""img/green_ll/8.jpg"",""time"":401},{""stimulus"":""img/green_ll/9.jpg"",""time"":452},{""stimulus"":""img/green_ll/10.jpg"",""time"":501},{""stimulus"":""img/green_ll/11.jpg"",""time"":552}]","[]"
"image-keyboard-response","32","74175","0.0-5.0-1.14","62715bfe8dcc19e21152dce0","bdp_lott","Mon Mar 27 2023 23:50:25 GMT-0500 (Central Daylight Time)","258553","red","green","","439","","","","choice","","img/green_ll/choose11.jpg","1","211","green","0.5","0.5","0.5","w","",""
"animation","33","74776","0.0-5.0-2.14","62715bfe8dcc19e21152dce0","bdp_lott","Mon Mar 27 2023 23:50:25 GMT-0500 (Central Daylight Time)","258553","red","green","","","","","","","","","","211","","","","","","[{""stimulus"":""img/green_wl/1.jpg"",""time"":51},{""stimulus"":""img/green_wl/2.jpg"",""time"":101},{""stimulus"":""img/green_wl/3.jpg"",""time"":151},{""stimulus"":""img/green_wl/4.jpg"",""time"":201},{""stimulus"":""img/green_wl/5.jpg"",""time"":253},{""stimulus"":""img/green_wl/6.jpg"",""time"":301},{""stimulus"":""img/green_wl/7.jpg"",""time"":352},{""stimulus"":""img/green_wl/8.jpg"",""time"":401},{""stimulus"":""img/green_wl/9.jpg"",""time"":451},{""stimulus"":""img/green_wl/10.jpg"",""time"":501},{""stimulus"":""img/green_wl/11.jpg"",""time"":551}]","[]"
"image-keyboard-response","34","75234","0.0-5.0-1.15","62715bfe8dcc19e21152dce0","bdp_lott","Mon Mar 27 2023 23:50:25 GMT-0500 (Central Daylight Time)","258553","red","green","","458","","","","choice","","img/green_wl/choose11.jpg","1","210","green","0.5","0.5","0.5","l","",""
"animation","35","75835","0.0-5.0-2.15","62715bfe8dcc19e21152dce0","bdp_lott","Mon Mar 27 2023 23:50:25 GMT-0500 (Central Daylight Time)","258553","red","green","","","","","","","","","","210","","","","","","[{""stimulus"":""img/green_ll/1.jpg"",""time"":52},{""stimulus"":""img/green_ll/2.jpg"",""time"":101},{""stimulus"":""img/green_ll/3.jpg"",""time"":152},{""stimulus"":""img/green_ll/4.jpg"",""time"":201},{""stimulus"":""img/green_ll/5.jpg"",""time"":251},{""stimulus"":""img/green_ll/6.jpg"",""time"":301},{""stimulus"":""img/green_ll/7.jpg"",""time"":352},{""stimulus"":""img/green_ll/8.jpg"",""time"":401},{""stimulus"":""img/green_ll/9.jpg"",""time"":451},{""stimulus"":""img/green_ll/10.jpg"",""time"":501},{""stimulus"":""img/green_ll/11.jpg"",""time"":552}]","[]"
"image-keyboard-response","36","76237","0.0-5.0-1.16","62715bfe8dcc19e21152dce0","bdp_lott","Mon Mar 27 2023 23:50:25 GMT-0500 (Central Daylight Time)","258553","red","green","","401","","","","choice","","img/green_ll/choose11.jpg","1","209","green","0.5","0.5","0.5","w","",""
"animation","37","76838","0.0-5.0-2.16","62715bfe8dcc19e21152dce0","bdp_lott","Mon Mar 27 2023 23:50:25 GMT-0500 (Central Daylight Time)","258553","red","green","","","","","","","","","","209","","","","","","[{""stimulus"":""img/green_wl/1.jpg"",""time"":51},{""stimulus"":""img/green_wl/2.jpg"",""time"":101},{""stimulus"":""img/green_wl/3.jpg"",""time"":151},{""stimulus"":""img/green_wl/4.jpg"",""time"":201},{""stimulus"":""img/green_wl/5.jpg"",""time"":252},{""stimulus"":""img/green_wl/6.jpg"",""time"":302},{""stimulus"":""img/green_wl/7.jpg"",""time"":352},{""stimulus"":""img/green_wl/8.jpg"",""time"":401},{""stimulus"":""img/green_wl/9.jpg"",""time"":451},{""stimulus"":""img/green_wl/10.jpg"",""time"":501},{""stimulus"":""img/green_wl/11.jpg"",""time"":551}]","[]"
"image-keyboard-response","38","77233","0.0-5.0-1.17","62715bfe8dcc19e21152dce0","bdp_lott","Mon Mar 27 2023 23:50:25 GMT-0500 (Central Daylight Time)","258553","red","green","","394","","","","choice","","img/green_wl/choose11.jpg","1","208","green","0.5","0.5","0.5","l","",""
"animation","39","77834","0.0-5.0-2.17","62715bfe8dcc19e21152dce0","bdp_lott","Mon Mar 27 2023 23:50:25 GMT-0500 (Central Daylight Time)","258553","red","green","","","","","","","","","","208","","","","","","[{""stimulus"":""img/green_ll/1.jpg"",""time"":51},{""stimulus"":""img/green_ll/2.jpg"",""time"":100},{""stimulus"":""img/green_ll/3.jpg"",""time"":150},{""stimulus"":""img/green_ll/4.jpg"",""time"":201},{""stimulus"":""img/green_ll/5.jpg"",""time"":251},{""stimulus"":""img/green_ll/6.jpg"",""time"":300},{""stimulus"":""img/green_ll/7.jpg"",""time"":351},{""stimulus"":""img/green_ll/8.jpg"",""time"":400},{""stimulus"":""img/green_ll/9.jpg"",""time"":451},{""stimulus"":""img/green_ll/10.jpg"",""time"":500},{""stimulus"":""img/green_ll/11.jpg"",""time"":551}]","[]"
"image-keyboard-response","40","78184","0.0-5.0-1.18","62715bfe8dcc19e21152dce0","bdp_lott","Mon Mar 27 2023 23:50:25 GMT-0500 (Central Daylight Time)","258553","red","green","","350","","","","choice","","img/green_ll/choose11.jpg","1","207","green","0.5","0.5","0.5","w","",""
"animation","41","78785","0.0-5.0-2.18","62715bfe8dcc19e21152dce0","bdp_lott","Mon Mar 27 2023 23:50:25 GMT-0500 (Central Daylight Time)","258553","red","green","","","","","","","","","","207","","","","","","[{""stimulus"":""img/green_wl/1.jpg"",""time"":52},{""stimulus"":""img/green_wl/2.jpg"",""time"":101},{""stimulus"":""img/green_wl/3.jpg"",""time"":151},{""stimulus"":""img/green_wl/4.jpg"",""time"":201},{""stimulus"":""img/green_wl/5.jpg"",""time"":251},{""stimulus"":""img/green_wl/6.jpg"",""time"":301},{""stimulus"":""img/green_wl/7.jpg"",""time"":351},{""stimulus"":""img/green_wl/8.jpg"",""time"":401},{""stimulus"":""img/green_wl/9.jpg"",""time"":452},{""stimulus"":""img/green_wl/10.jpg"",""time"":501},{""stimulus"":""img/green_wl/11.jpg"",""time"":551}]","[]"
"image-keyboard-response","42","79637","0.0-5.0-1.19","62715bfe8dcc19e21152dce0","bdp_lott","Mon Mar 27 2023 23:50:25 GMT-0500 (Central Daylight Time)","258553","red","green","","852","","","","choice","","img/green_wl/choose11.jpg","1","206","green","0.5","0.5","0.5","l","",""
"animation","43","80238","0.0-5.0-2.19","62715bfe8dcc19e21152dce0","bdp_lott","Mon Mar 27 2023 23:50:25 GMT-0500 (Central Daylight Time)","258553","red","green","","","","","","","","","","206","","","","","","[{""stimulus"":""img/green_ll/1.jpg"",""time"":51},{""stimulus"":""img/green_ll/2.jpg"",""time"":101},{""stimulus"":""img/green_ll/3.jpg"",""time"":152},{""stimulus"":""img/green_ll/4.jpg"",""time"":201},{""stimulus"":""img/green_ll/5.jpg"",""time"":251},{""stimulus"":""img/green_ll/6.jpg"",""time"":301},{""stimulus"":""img/green_ll/7.jpg"",""time"":351},{""stimulus"":""img/green_ll/8.jpg"",""time"":402},{""stimulus"":""img/green_ll/9.jpg"",""time"":451},{""stimulus"":""img/green_ll/10.jpg"",""time"":501},{""stimulus"":""img/green_ll/11.jpg"",""time"":551}]","[]"
"image-keyboard-response","44","80942","0.0-5.0-1.20","62715bfe8dcc19e21152dce0","bdp_lott","Mon Mar 27 2023 23:50:25 GMT-0500 (Central Daylight Time)","258553","red","green","","704","","","","choice","","img/green_ll/choose11.jpg","1","205","green","0.5","0.5","0.5","w","",""
"animation","45","81543","0.0-5.0-2.20","62715bfe8dcc19e21152dce0","bdp_lott","Mon Mar 27 2023 23:50:25 GMT-0500 (Central Daylight Time)","258553","red","green","","","","","","","","","","205","","","","","","[{""stimulus"":""img/green_wl/1.jpg"",""time"":52},{""stimulus"":""img/green_wl/2.jpg"",""time"":101},{""stimulus"":""img/green_wl/3.jpg"",""time"":152},{""stimulus"":""img/green_wl/4.jpg"",""time"":201},{""stimulus"":""img/green_wl/5.jpg"",""time"":252},{""stimulus"":""img/green_wl/6.jpg"",""time"":302},{""stimulus"":""img/green_wl/7.jpg"",""time"":351},{""stimulus"":""img/green_wl/8.jpg"",""time"":402},{""stimulus"":""img/green_wl/9.jpg"",""time"":451},{""stimulus"":""img/green_wl/10.jpg"",""time"":502},{""stimulus"":""img/green_wl/11.jpg"",""time"":551}]","[]"
"image-keyboard-response","46","82052","0.0-5.0-1.21","62715bfe8dcc19e21152dce0","bdp_lott","Mon Mar 27 2023 23:50:25 GMT-0500 (Central Daylight Time)","258553","red","green","","508","","","","choice","","img/green_wl/choose11.jpg","1","204","green","0.5","0.5","0.5","l","",""
"animation","47","82652","0.0-5.0-2.21","62715bfe8dcc19e21152dce0","bdp_lott","Mon Mar 27 2023 23:50:25 GMT-0500 (Central Daylight Time)","258553","red","green","","","","","","","","","","204","","","","","","[{""stimulus"":""img/green_ll/1.jpg"",""time"":52},{""stimulus"":""img/green_ll/2.jpg"",""time"":101},{""stimulus"":""img/green_ll/3.jpg"",""time"":151},{""stimulus"":""img/green_ll/4.jpg"",""time"":201},{""stimulus"":""img/green_ll/5.jpg"",""time"":251},{""stimulus"":""img/green_ll/6.jpg"",""time"":301},{""stimulus"":""img/green_ll/7.jpg"",""time"":351},{""stimulus"":""img/green_ll/8.jpg"",""time"":402},{""stimulus"":""img/green_ll/9.jpg"",""time"":451},{""stimulus"":""img/green_ll/10.jpg"",""time"":502},{""stimulus"":""img/green_ll/11.jpg"",""time"":551}]","[]"
"image-keyboard-response","48","83469","0.0-5.0-1.22","62715bfe8dcc19e21152dce0","bdp_lott","Mon Mar 27 2023 23:50:25 GMT-0500 (Central Daylight Time)","258553","red","green","","816","","","","choice","","img/green_ll/choose11.jpg","1","203","green","0.5","0.5","0.5","l","",""
"animation","49","84070","0.0-5.0-2.22","62715bfe8dcc19e21152dce0","bdp_lott","Mon Mar 27 2023 23:50:25 GMT-0500 (Central Daylight Time)","258553","red","green","","","","","","","","","","203","","","","","","[{""stimulus"":""img/green_ll/1.jpg"",""time"":51},{""stimulus"":""img/green_ll/2.jpg"",""time"":101},{""stimulus"":""img/green_ll/3.jpg"",""time"":151},{""stimulus"":""img/green_ll/4.jpg"",""time"":201},{""stimulus"":""img/green_ll/5.jpg"",""time"":252},{""stimulus"":""img/green_ll/6.jpg"",""time"":302},{""stimulus"":""img/green_ll/7.jpg"",""time"":351},{""stimulus"":""img/green_ll/8.jpg"",""time"":401},{""stimulus"":""img/green_ll/9.jpg"",""time"":451},{""stimulus"":""img/green_ll/10.jpg"",""time"":502},{""stimulus"":""img/green_ll/11.jpg"",""time"":551}]","[]"
"image-keyboard-response","50","84542","0.0-5.0-1.23","62715bfe8dcc19e21152dce0","bdp_lott","Mon Mar 27 2023 23:50:25 GMT-0500 (Central Daylight Time)","258553","red","green","","471","","","","choice","","img/green_ll/choose11.jpg","1","202","green","0.5","0.5","0.5","l","",""
"animation","51","85143","0.0-5.0-2.23","62715bfe8dcc19e21152dce0","bdp_lott","Mon Mar 27 2023 23:50:25 GMT-0500 (Central Daylight Time)","258553","red","green","","","","","","","","","","202","","","","","","[{""stimulus"":""img/green_ll/1.jpg"",""time"":52},{""stimulus"":""img/green_ll/2.jpg"",""time"":101},{""stimulus"":""img/green_ll/3.jpg"",""time"":151},{""stimulus"":""img/green_ll/4.jpg"",""time"":202},{""stimulus"":""img/green_ll/5.jpg"",""time"":251},{""stimulus"":""img/green_ll/6.jpg"",""time"":302},{""stimulus"":""img/green_ll/7.jpg"",""time"":351},{""stimulus"":""img/green_ll/8.jpg"",""time"":401},{""stimulus"":""img/green_ll/9.jpg"",""time"":452},{""stimulus"":""img/green_ll/10.jpg"",""time"":501},{""stimulus"":""img/green_ll/11.jpg"",""time"":551}]","[]"
"image-keyboard-response","52","85599","0.0-5.0-1.24","62715bfe8dcc19e21152dce0","bdp_lott","Mon Mar 27 2023 23:50:25 GMT-0500 (Central Daylight Time)","258553","red","green","","455","","","","choice","","img/green_ll/choose11.jpg","1","201","green","0.5","0.5","0.5","w","",""
"animation","53","86199","0.0-5.0-2.24","62715bfe8dcc19e21152dce0","bdp_lott","Mon Mar 27 2023 23:50:25 GMT-0500 (Central Daylight Time)","258553","red","green","","","","","","","","","","201","","","","","","[{""stimulus"":""img/green_wl/1.jpg"",""time"":51},{""stimulus"":""img/green_wl/2.jpg"",""time"":101},{""stimulus"":""img/green_wl/3.jpg"",""time"":151},{""stimulus"":""img/green_wl/4.jpg"",""time"":201},{""stimulus"":""img/green_wl/5.jpg"",""time"":251},{""stimulus"":""img/green_wl/6.jpg"",""time"":301},{""stimulus"":""img/green_wl/7.jpg"",""time"":351},{""stimulus"":""img/green_wl/8.jpg"",""time"":402},{""stimulus"":""img/green_wl/9.jpg"",""time"":451},{""stimulus"":""img/green_wl/10.jpg"",""time"":501},{""stimulus"":""img/green_wl/11.jpg"",""time"":551}]","[]"
"image-keyboard-response","54","86716","0.0-5.0-1.25","62715bfe8dcc19e21152dce0","bdp_lott","Mon Mar 27 2023 23:50:25 GMT-0500 (Central Daylight Time)","258553","red","green","","516","","","","choice","","img/green_wl/choose11.jpg","1","200","green","0.5","0.5","0.5","l","",""
"animation","55","87317","0.0-5.0-2.25","62715bfe8dcc19e21152dce0","bdp_lott","Mon Mar 27 2023 23:50:25 GMT-0500 (Central Daylight Time)","258553","red","green","","","","","","","","","","200","","","","","","[{""stimulus"":""img/green_ll/1.jpg"",""time"":51},{""stimulus"":""img/green_ll/2.jpg"",""time"":102},{""stimulus"":""img/green_ll/3.jpg"",""time"":152},{""stimulus"":""img/green_ll/4.jpg"",""time"":202},{""stimulus"":""img/green_ll/5.jpg"",""time"":252},{""stimulus"":""img/green_ll/6.jpg"",""time"":301},{""stimulus"":""img/green_ll/7.jpg"",""time"":351},{""stimulus"":""img/green_ll/8.jpg"",""time"":402},{""stimulus"":""img/green_ll/9.jpg"",""time"":452},{""stimulus"":""img/green_ll/10.jpg"",""time"":502},{""stimulus"":""img/green_ll/11.jpg"",""time"":552}]","[]"
"image-keyboard-response","56","87662","0.0-5.0-1.26","62715bfe8dcc19e21152dce0","bdp_lott","Mon Mar 27 2023 23:50:25 GMT-0500 (Central Daylight Time)","258553","red","green","","344","","","","choice","","img/green_ll/choose11.jpg","2","199","red","0.5","0.5","0.5","w","",""
"animation","57","88263","0.0-5.0-2.26","62715bfe8dcc19e21152dce0","bdp_lott","Mon Mar 27 2023 23:50:25 GMT-0500 (Central Daylight Time)","258553","red","green","","","","","","","","","","199","","","","","","[{""stimulus"":""img/red_lw/1.jpg"",""time"":51},{""stimulus"":""img/red_lw/2.jpg"",""time"":101},{""stimulus"":""img/red_lw/3.jpg"",""time"":151},{""stimulus"":""img/red_lw/4.jpg"",""time"":202},{""stimulus"":""img/red_lw/5.jpg"",""time"":251},{""stimulus"":""img/red_lw/6.jpg"",""time"":302},{""stimulus"":""img/red_lw/7.jpg"",""time"":351},{""stimulus"":""img/red_lw/8.jpg"",""time"":401},{""stimulus"":""img/red_lw/9.jpg"",""time"":451},{""stimulus"":""img/red_lw/10.jpg"",""time"":501},{""stimulus"":""img/red_lw/11.jpg"",""time"":551}]","[]"
"image-keyboard-response","58","88787","0.0-5.0-1.27","62715bfe8dcc19e21152dce0","bdp_lott","Mon Mar 27 2023 23:50:25 GMT-0500 (Central Daylight Time)","258553","red","green","","523","","","","choice","","img/red_lw/choose11.jpg","2","198","red","0.5","0.5","0.5","w","",""
"animation","59","89389","0.0-5.0-2.27","62715bfe8dcc19e21152dce0","bdp_lott","Mon Mar 27 2023 23:50:25 GMT-0500 (Central Daylight Time)","258553","red","green","","","","","","","","","","198","","","","","","[{""stimulus"":""img/red_lw/1.jpg"",""time"":51},{""stimulus"":""img/red_lw/2.jpg"",""time"":101},{""stimulus"":""img/red_lw/3.jpg"",""time"":151},{""stimulus"":""img/red_lw/4.jpg"",""time"":201},{""stimulus"":""img/red_lw/5.jpg"",""time"":251},{""stimulus"":""img/red_lw/6.jpg"",""time"":302},{""stimulus"":""img/red_lw/7.jpg"",""time"":351},{""stimulus"":""img/red_lw/8.jpg"",""time"":401},{""stimulus"":""img/red_lw/9.jpg"",""time"":451},{""stimulus"":""img/red_lw/10.jpg"",""time"":501},{""stimulus"":""img/red_lw/11.jpg"",""time"":552}]","[]"
"image-keyboard-response","60","89891","0.0-5.0-1.28","62715bfe8dcc19e21152dce0","bdp_lott","Mon Mar 27 2023 23:50:25 GMT-0500 (Central Daylight Time)","258553","red","green","","501","","","","choice","","img/red_lw/choose11.jpg","2","197","red","0.5","0.5","0.5","w","",""
"animation","61","90492","0.0-5.0-2.28","62715bfe8dcc19e21152dce0","bdp_lott","Mon Mar 27 2023 23:50:25 GMT-0500 (Central Daylight Time)","258553","red","green","","","","","","","","","","197","","","","","","[{""stimulus"":""img/red_lw/1.jpg"",""time"":51},{""stimulus"":""img/red_lw/2.jpg"",""time"":102},{""stimulus"":""img/red_lw/3.jpg"",""time"":152},{""stimulus"":""img/red_lw/4.jpg"",""time"":201},{""stimulus"":""img/red_lw/5.jpg"",""time"":252},{""stimulus"":""img/red_lw/6.jpg"",""time"":302},{""stimulus"":""img/red_lw/7.jpg"",""time"":352},{""stimulus"":""img/red_lw/8.jpg"",""time"":402},{""stimulus"":""img/red_lw/9.jpg"",""time"":452},{""stimulus"":""img/red_lw/10.jpg"",""time"":502},{""stimulus"":""img/red_lw/11.jpg"",""time"":562}]","[]"
"image-keyboard-response","62","90857","0.0-5.0-1.29","62715bfe8dcc19e21152dce0","bdp_lott","Mon Mar 27 2023 23:50:25 GMT-0500 (Central Daylight Time)","258553","red","green","","365","","","","choice","","img/red_lw/choose11.jpg","2","196","red","0.5","0.5","0.5","w","",""
"animation","63","91458","0.0-5.0-2.29","62715bfe8dcc19e21152dce0","bdp_lott","Mon Mar 27 2023 23:50:25 GMT-0500 (Central Daylight Time)","258553","red","green","","","","","","","","","","196","","","","","","[{""stimulus"":""img/red_lw/1.jpg"",""time"":62},{""stimulus"":""img/red_lw/2.jpg"",""time"":102},{""stimulus"":""img/red_lw/3.jpg"",""time"":152},{""stimulus"":""img/red_lw/4.jpg"",""time"":201},{""stimulus"":""img/red_lw/5.jpg"",""time"":252},{""stimulus"":""img/red_lw/6.jpg"",""time"":301},{""stimulus"":""img/red_lw/7.jpg"",""time"":352},{""stimulus"":""img/red_lw/8.jpg"",""time"":401},{""stimulus"":""img/red_lw/9.jpg"",""time"":451},{""stimulus"":""img/red_lw/10.jpg"",""time"":501},{""stimulus"":""img/red_lw/11.jpg"",""time"":552}]","[]"
"image-keyboard-response","64","91871","0.0-5.0-1.30","62715bfe8dcc19e21152dce0","bdp_lott","Mon Mar 27 2023 23:50:25 GMT-0500 (Central Daylight Time)","258553","red","green","","412","","","","choice","","img/red_lw/choose11.jpg","2","195","red","0.5","0.5","0.5","l","",""
"animation","65","92472","0.0-5.0-2.30","62715bfe8dcc19e21152dce0","bdp_lott","Mon Mar 27 2023 23:50:25 GMT-0500 (Central Daylight Time)","258553","red","green","","","","","","","","","","195","","","","","","[{""stimulus"":""img/red_ll/1.jpg"",""time"":50},{""stimulus"":""img/red_ll/2.jpg"",""time"":101},{""stimulus"":""img/red_ll/3.jpg"",""time"":151},{""stimulus"":""img/red_ll/4.jpg"",""time"":201},{""stimulus"":""img/red_ll/5.jpg"",""time"":251},{""stimulus"":""img/red_ll/6.jpg"",""time"":301},{""stimulus"":""img/red_ll/7.jpg"",""time"":351},{""stimulus"":""img/red_ll/8.jpg"",""time"":401},{""stimulus"":""img/red_ll/9.jpg"",""time"":451},{""stimulus"":""img/red_ll/10.jpg"",""time"":500},{""stimulus"":""img/red_ll/11.jpg"",""time"":551}]","[]"
"image-keyboard-response","66","92947","0.0-5.0-1.31","62715bfe8dcc19e21152dce0","bdp_lott","Mon Mar 27 2023 23:50:25 GMT-0500 (Central Daylight Time)","258553","red","green","","475","","","","choice","","img/red_ll/choose11.jpg","2","194","red","0.5","0.5","0.5","l","",""
"animation","67","93548","0.0-5.0-2.31","62715bfe8dcc19e21152dce0","bdp_lott","Mon Mar 27 2023 23:50:25 GMT-0500 (Central Daylight Time)","258553","red","green","","","","","","","","","","194","","","","","","[{""stimulus"":""img/red_ll/1.jpg"",""time"":51},{""stimulus"":""img/red_ll/2.jpg"",""time"":100},{""stimulus"":""img/red_ll/3.jpg"",""time"":150},{""stimulus"":""img/red_ll/4.jpg"",""time"":201},{""stimulus"":""img/red_ll/5.jpg"",""time"":251},{""stimulus"":""img/red_ll/6.jpg"",""time"":301},{""stimulus"":""img/red_ll/7.jpg"",""time"":350},{""stimulus"":""img/red_ll/8.jpg"",""time"":401},{""stimulus"":""img/red_ll/9.jpg"",""time"":450},{""stimulus"":""img/red_ll/10.jpg"",""time"":500},{""stimulus"":""img/red_ll/11.jpg"",""time"":551}]","[]"
"image-keyboard-response","68","93987","0.0-5.0-1.32","62715bfe8dcc19e21152dce0","bdp_lott","Mon Mar 27 2023 23:50:25 GMT-0500 (Central Daylight Time)","258553","red","green","","438","","","","choice","","img/red_ll/choose11.jpg","2","193","red","0.5","0.5","0.5","w","",""
"animation","69","94588","0.0-5.0-2.32","62715bfe8dcc19e21152dce0","bdp_lott","Mon Mar 27 2023 23:50:25 GMT-0500 (Central Daylight Time)","258553","red","green","","","","","","","","","","193","","","","","","[{""stimulus"":""img/red_lw/1.jpg"",""time"":51},{""stimulus"":""img/red_lw/2.jpg"",""time"":101},{""stimulus"":""img/red_lw/3.jpg"",""time"":151},{""stimulus"":""img/red_lw/4.jpg"",""time"":201},{""stimulus"":""img/red_lw/5.jpg"",""time"":251},{""stimulus"":""img/red_lw/6.jpg"",""time"":301},{""stimulus"":""img/red_lw/7.jpg"",""time"":351},{""stimulus"":""img/red_lw/8.jpg"",""time"":401},{""stimulus"":""img/red_lw/9.jpg"",""time"":451},{""stimulus"":""img/red_lw/10.jpg"",""time"":501},{""stimulus"":""img/red_lw/11.jpg"",""time"":551}]","[]"
"image-keyboard-response","70","95130","0.0-5.0-1.33","62715bfe8dcc19e21152dce0","bdp_lott","Mon Mar 27 2023 23:50:25 GMT-0500 (Central Daylight Time)","258553","red","green","","542","","","","choice","","img/red_lw/choose11.jpg","2","192","red","0.5","0.5","0.5","w","",""
"animation","71","95731","0.0-5.0-2.33","62715bfe8dcc19e21152dce0","bdp_lott","Mon Mar 27 2023 23:50:25 GMT-0500 (Central Daylight Time)","258553","red","green","","","","","","","","","","192","","","","","","[{""stimulus"":""img/red_lw/1.jpg"",""time"":52},{""stimulus"":""img/red_lw/2.jpg"",""time"":101},{""stimulus"":""img/red_lw/3.jpg"",""time"":151},{""stimulus"":""img/red_lw/4.jpg"",""time"":202},{""stimulus"":""img/red_lw/5.jpg"",""time"":252},{""stimulus"":""img/red_lw/6.jpg"",""time"":301},{""stimulus"":""img/red_lw/7.jpg"",""time"":351},{""stimulus"":""img/red_lw/8.jpg"",""time"":401},{""stimulus"":""img/red_lw/9.jpg"",""time"":452},{""stimulus"":""img/red_lw/10.jpg"",""time"":501},{""stimulus"":""img/red_lw/11.jpg"",""time"":551}]","[]"
"image-keyboard-response","72","96083","0.0-5.0-1.34","62715bfe8dcc19e21152dce0","bdp_lott","Mon Mar 27 2023 23:50:25 GMT-0500 (Central Daylight Time)","258553","red","green","","351","","","","choice","","img/red_lw/choose11.jpg","2","191","red","0.5","0.5","0.5","w","",""
"animation","73","96684","0.0-5.0-2.34","62715bfe8dcc19e21152dce0","bdp_lott","Mon Mar 27 2023 23:50:25 GMT-0500 (Central Daylight Time)","258553","red","green","","","","","","","","","","191","","","","","","[{""stimulus"":""img/red_lw/1.jpg"",""time"":52},{""stimulus"":""img/red_lw/2.jpg"",""time"":101},{""stimulus"":""img/red_lw/3.jpg"",""time"":151},{""stimulus"":""img/red_lw/4.jpg"",""time"":201},{""stimulus"":""img/red_lw/5.jpg"",""time"":252},{""stimulus"":""img/red_lw/6.jpg"",""time"":302},{""stimulus"":""img/red_lw/7.jpg"",""time"":351},{""stimulus"":""img/red_lw/8.jpg"",""time"":401},{""stimulus"":""img/red_lw/9.jpg"",""time"":451},{""stimulus"":""img/red_lw/10.jpg"",""time"":502},{""stimulus"":""img/red_lw/11.jpg"",""time"":551}]","[]"
"image-keyboard-response","74","97338","0.0-5.0-1.35","62715bfe8dcc19e21152dce0","bdp_lott","Mon Mar 27 2023 23:50:25 GMT-0500 (Central Daylight Time)","258553","red","green","","653","","","","choice","","img/red_lw/choose11.jpg","2","190","red","0.5","0.5","0.5","l","",""
"animation","75","97939","0.0-5.0-2.35","62715bfe8dcc19e21152dce0","bdp_lott","Mon Mar 27 2023 23:50:25 GMT-0500 (Central Daylight Time)","258553","red","green","","","","","","","","","","190","","","","","","[{""stimulus"":""img/red_ll/1.jpg"",""time"":52},{""stimulus"":""img/red_ll/2.jpg"",""time"":101},{""stimulus"":""img/red_ll/3.jpg"",""time"":152},{""stimulus"":""img/red_ll/4.jpg"",""time"":201},{""stimulus"":""img/red_ll/5.jpg"",""time"":255},{""stimulus"":""img/red_ll/6.jpg"",""time"":302},{""stimulus"":""img/red_ll/7.jpg"",""time"":352},{""stimulus"":""img/red_ll/8.jpg"",""time"":402},{""stimulus"":""img/red_ll/9.jpg"",""time"":452},{""stimulus"":""img/red_ll/10.jpg"",""time"":502},{""stimulus"":""img/red_ll/11.jpg"",""time"":552}]","[]"
"image-keyboard-response","76","98223","0.0-5.0-1.36","62715bfe8dcc19e21152dce0","bdp_lott","Mon Mar 27 2023 23:50:25 GMT-0500 (Central Daylight Time)","258553","red","green","","283","","","","choice","","img/red_ll/choose11.jpg","2","189","red","0.5","0.5","0.5","w","",""
"animation","77","98826","0.0-5.0-2.36","62715bfe8dcc19e21152dce0","bdp_lott","Mon Mar 27 2023 23:50:25 GMT-0500 (Central Daylight Time)","258553","red","green","","","","","","","","","","189","","","","","","[{""stimulus"":""img/red_lw/1.jpg"",""time"":53},{""stimulus"":""img/red_lw/2.jpg"",""time"":101},{""stimulus"":""img/red_lw/3.jpg"",""time"":151},{""stimulus"":""img/red_lw/4.jpg"",""time"":201},{""stimulus"":""img/red_lw/5.jpg"",""time"":251},{""stimulus"":""img/red_lw/6.jpg"",""time"":301},{""stimulus"":""img/red_lw/7.jpg"",""time"":351},{""stimulus"":""img/red_lw/8.jpg"",""time"":401},{""stimulus"":""img/red_lw/9.jpg"",""time"":451},{""stimulus"":""img/red_lw/10.jpg"",""time"":500},{""stimulus"":""img/red_lw/11.jpg"",""time"":551}]","[]"
"image-keyboard-response","78","99909","0.0-5.0-1.37","62715bfe8dcc19e21152dce0","bdp_lott","Mon Mar 27 2023 23:50:25 GMT-0500 (Central Daylight Time)","258553","red","green","","1083","","","","choice","","img/red_lw/choose11.jpg","2","188","red","0.5","0.5","0.5","w","",""
"animation","79","100510","0.0-5.0-2.37","62715bfe8dcc19e21152dce0","bdp_lott","Mon Mar 27 2023 23:50:25 GMT-0500 (Central Daylight Time)","258553","red","green","","","","","","","","","","188","","","","","","[{""stimulus"":""img/red_lw/1.jpg"",""time"":52},{""stimulus"":""img/red_lw/2.jpg"",""time"":101},{""stimulus"":""img/red_lw/3.jpg"",""time"":151},{""stimulus"":""img/red_lw/4.jpg"",""time"":201},{""stimulus"":""img/red_lw/5.jpg"",""time"":251},{""stimulus"":""img/red_lw/6.jpg"",""time"":301},{""stimulus"":""img/red_lw/7.jpg"",""time"":351},{""stimulus"":""img/red_lw/8.jpg"",""time"":401},{""stimulus"":""img/red_lw/9.jpg"",""time"":451},{""stimulus"":""img/red_lw/10.jpg"",""time"":501},{""stimulus"":""img/red_lw/11.jpg"",""time"":551}]","[]"
"image-keyboard-response","80","101019","0.0-5.0-1.38","62715bfe8dcc19e21152dce0","bdp_lott","Mon Mar 27 2023 23:50:25 GMT-0500 (Central Daylight Time)","258553","red","green","","509","","","","choice","","img/red_lw/choose11.jpg","2","187","red","0.5","0.5","0.5","w","",""
"animation","81","101620","0.0-5.0-2.38","62715bfe8dcc19e21152dce0","bdp_lott","Mon Mar 27 2023 23:50:25 GMT-0500 (Central Daylight Time)","258553","red","green","","","","","","","","","","187","","","","","","[{""stimulus"":""img/red_lw/1.jpg"",""time"":51},{""stimulus"":""img/red_lw/2.jpg"",""time"":102},{""stimulus"":""img/red_lw/3.jpg"",""time"":151},{""stimulus"":""img/red_lw/4.jpg"",""time"":201},{""stimulus"":""img/red_lw/5.jpg"",""time"":251},{""stimulus"":""img/red_lw/6.jpg"",""time"":301},{""stimulus"":""img/red_lw/7.jpg"",""time"":352},{""stimulus"":""img/red_lw/8.jpg"",""time"":401},{""stimulus"":""img/red_lw/9.jpg"",""time"":451},{""stimulus"":""img/red_lw/10.jpg"",""time"":502},{""stimulus"":""img/red_lw/11.jpg"",""time"":551}]","[]"
"image-keyboard-response","82","102062","0.0-5.0-1.39","62715bfe8dcc19e21152dce0","bdp_lott","Mon Mar 27 2023 23:50:25 GMT-0500 (Central Daylight Time)","258553","red","green","","442","","","","choice","","img/red_lw/choose11.jpg","2","186","red","0.5","0.5","0.5","l","",""
"animation","83","102663","0.0-5.0-2.39","62715bfe8dcc19e21152dce0","bdp_lott","Mon Mar 27 2023 23:50:25 GMT-0500 (Central Daylight Time)","258553","red","green","","","","","","","","","","186","","","","","","[{""stimulus"":""img/red_ll/1.jpg"",""time"":52},{""stimulus"":""img/red_ll/2.jpg"",""time"":101},{""stimulus"":""img/red_ll/3.jpg"",""time"":152},{""stimulus"":""img/red_ll/4.jpg"",""time"":201},{""stimulus"":""img/red_ll/5.jpg"",""time"":251},{""stimulus"":""img/red_ll/6.jpg"",""time"":302},{""stimulus"":""img/red_ll/7.jpg"",""time"":352},{""stimulus"":""img/red_ll/8.jpg"",""time"":401},{""stimulus"":""img/red_ll/9.jpg"",""time"":452},{""stimulus"":""img/red_ll/10.jpg"",""time"":501},{""stimulus"":""img/red_ll/11.jpg"",""time"":552}]","[]"
"image-keyboard-response","84","103073","0.0-5.0-1.40","62715bfe8dcc19e21152dce0","bdp_lott","Mon Mar 27 2023 23:50:25 GMT-0500 (Central Daylight Time)","258553","red","green","","409","","","","choice","","img/red_ll/choose11.jpg","2","185","red","0.5","0.5","0.5","w","",""
"animation","85","103675","0.0-5.0-2.40","62715bfe8dcc19e21152dce0","bdp_lott","Mon Mar 27 2023 23:50:25 GMT-0500 (Central Daylight Time)","258553","red","green","","","","","","","","","","185","","","","","","[{""stimulus"":""img/red_lw/1.jpg"",""time"":52},{""stimulus"":""img/red_lw/2.jpg"",""time"":102},{""stimulus"":""img/red_lw/3.jpg"",""time"":152},{""stimulus"":""img/red_lw/4.jpg"",""time"":201},{""stimulus"":""img/red_lw/5.jpg"",""time"":251},{""stimulus"":""img/red_lw/6.jpg"",""time"":301},{""stimulus"":""img/red_lw/7.jpg"",""time"":351},{""stimulus"":""img/red_lw/8.jpg"",""time"":401},{""stimulus"":""img/red_lw/9.jpg"",""time"":451},{""stimulus"":""img/red_lw/10.jpg"",""time"":501},{""stimulus"":""img/red_lw/11.jpg"",""time"":551}]","[]"
"image-keyboard-response","86","104035","0.0-5.0-1.41","62715bfe8dcc19e21152dce0","bdp_lott","Mon Mar 27 2023 23:50:25 GMT-0500 (Central Daylight Time)","258553","red","green","","360","","","","choice","","img/red_lw/choose11.jpg","2","184","red","0.5","0.5","0.5","l","",""
"animation","87","104636","0.0-5.0-2.41","62715bfe8dcc19e21152dce0","bdp_lott","Mon Mar 27 2023 23:50:25 GMT-0500 (Central Daylight Time)","258553","red","green","","","","","","","","","","184","","","","","","[{""stimulus"":""img/red_ll/1.jpg"",""time"":52},{""stimulus"":""img/red_ll/2.jpg"",""time"":101},{""stimulus"":""img/red_ll/3.jpg"",""time"":151},{""stimulus"":""img/red_ll/4.jpg"",""time"":202},{""stimulus"":""img/red_ll/5.jpg"",""time"":252},{""stimulus"":""img/red_ll/6.jpg"",""time"":301},{""stimulus"":""img/red_ll/7.jpg"",""time"":352},{""stimulus"":""img/red_ll/8.jpg"",""time"":401},{""stimulus"":""img/red_ll/9.jpg"",""time"":451},{""stimulus"":""img/red_ll/10.jpg"",""time"":501},{""stimulus"":""img/red_ll/11.jpg"",""time"":552}]","[]"
"image-keyboard-response","88","105020","0.0-5.0-1.42","62715bfe8dcc19e21152dce0","bdp_lott","Mon Mar 27 2023 23:50:25 GMT-0500 (Central Daylight Time)","258553","red","green","","384","","","","choice","","img/red_ll/choose11.jpg","2","183","red","0.5","0.5","0.5","w","",""
"animation","89","105621","0.0-5.0-2.42","62715bfe8dcc19e21152dce0","bdp_lott","Mon Mar 27 2023 23:50:25 GMT-0500 (Central Daylight Time)","258553","red","green","","","","","","","","","","183","","","","","","[{""stimulus"":""img/red_lw/1.jpg"",""time"":52},{""stimulus"":""img/red_lw/2.jpg"",""time"":101},{""stimulus"":""img/red_lw/3.jpg"",""time"":151},{""stimulus"":""img/red_lw/4.jpg"",""time"":201},{""stimulus"":""img/red_lw/5.jpg"",""time"":251},{""stimulus"":""img/red_lw/6.jpg"",""time"":301},{""stimulus"":""img/red_lw/7.jpg"",""time"":352},{""stimulus"":""img/red_lw/8.jpg"",""time"":401},{""stimulus"":""img/red_lw/9.jpg"",""time"":451},{""stimulus"":""img/red_lw/10.jpg"",""time"":501},{""stimulus"":""img/red_lw/11.jpg"",""time"":551}]","[]"
"image-keyboard-response","90","106040","0.0-5.0-1.43","62715bfe8dcc19e21152dce0","bdp_lott","Mon Mar 27 2023 23:50:25 GMT-0500 (Central Daylight Time)","258553","red","green","","419","","","","choice","","img/red_lw/choose11.jpg","2","182","red","0.5","0.5","0.5","l","",""
"animation","91","106641","0.0-5.0-2.43","62715bfe8dcc19e21152dce0","bdp_lott","Mon Mar 27 2023 23:50:25 GMT-0500 (Central Daylight Time)","258553","red","green","","","","","","","","","","182","","","","","","[{""stimulus"":""img/red_ll/1.jpg"",""time"":52},{""stimulus"":""img/red_ll/2.jpg"",""time"":102},{""stimulus"":""img/red_ll/3.jpg"",""time"":151},{""stimulus"":""img/red_ll/4.jpg"",""time"":202},{""stimulus"":""img/red_ll/5.jpg"",""time"":251},{""stimulus"":""img/red_ll/6.jpg"",""time"":303},{""stimulus"":""img/red_ll/7.jpg"",""time"":351},{""stimulus"":""img/red_ll/8.jpg"",""time"":402},{""stimulus"":""img/red_ll/9.jpg"",""time"":451},{""stimulus"":""img/red_ll/10.jpg"",""time"":501},{""stimulus"":""img/red_ll/11.jpg"",""time"":551}]","[]"
"image-keyboard-response","92","106873","0.0-5.0-1.44","62715bfe8dcc19e21152dce0","bdp_lott","Mon Mar 27 2023 23:50:25 GMT-0500 (Central Daylight Time)","258553","red","green","","232","","","","choice","","img/red_ll/choose11.jpg","2","181","red","0.5","0.5","0.5","l","",""
"animation","93","107474","0.0-5.0-2.44","62715bfe8dcc19e21152dce0","bdp_lott","Mon Mar 27 2023 23:50:25 GMT-0500 (Central Daylight Time)","258553","red","green","","","","","","","","","","181","","","","","","[{""stimulus"":""img/red_ll/1.jpg"",""time"":52},{""stimulus"":""img/red_ll/2.jpg"",""time"":101},{""stimulus"":""img/red_ll/3.jpg"",""time"":151},{""stimulus"":""img/red_ll/4.jpg"",""time"":201},{""stimulus"":""img/red_ll/5.jpg"",""time"":251},{""stimulus"":""img/red_ll/6.jpg"",""time"":301},{""stimulus"":""img/red_ll/7.jpg"",""time"":351},{""stimulus"":""img/red_ll/8.jpg"",""time"":401},{""stimulus"":""img/red_ll/9.jpg"",""time"":452},{""stimulus"":""img/red_ll/10.jpg"",""time"":502},{""stimulus"":""img/red_ll/11.jpg"",""time"":551}]","[]"
"image-keyboard-response","94","107771","0.0-5.0-1.45","62715bfe8dcc19e21152dce0","bdp_lott","Mon Mar 27 2023 23:50:25 GMT-0500 (Central Daylight Time)","258553","red","green","","297","","","","choice","","img/red_ll/choose11.jpg","2","180","red","0.5","0.5","0.5","w","",""
"animation","95","108372","0.0-5.0-2.45","62715bfe8dcc19e21152dce0","bdp_lott","Mon Mar 27 2023 23:50:25 GMT-0500 (Central Daylight Time)","258553","red","green","","","","","","","","","","180","","","","","","[{""stimulus"":""img/red_lw/1.jpg"",""time"":51},{""stimulus"":""img/red_lw/2.jpg"",""time"":102},{""stimulus"":""img/red_lw/3.jpg"",""time"":151},{""stimulus"":""img/red_lw/4.jpg"",""time"":201},{""stimulus"":""img/red_lw/5.jpg"",""time"":251},{""stimulus"":""img/red_lw/6.jpg"",""time"":301},{""stimulus"":""img/red_lw/7.jpg"",""time"":351},{""stimulus"":""img/red_lw/8.jpg"",""time"":401},{""stimulus"":""img/red_lw/9.jpg"",""time"":452},{""stimulus"":""img/red_lw/10.jpg"",""time"":501},{""stimulus"":""img/red_lw/11.jpg"",""time"":552}]","[]"
"image-keyboard-response","96","108714","0.0-5.0-1.46","62715bfe8dcc19e21152dce0","bdp_lott","Mon Mar 27 2023 23:50:25 GMT-0500 (Central Daylight Time)","258553","red","green","","341","","","","choice","","img/red_lw/choose11.jpg","2","179","red","0.5","0.5","0.5","w","",""
"animation","97","109314","0.0-5.0-2.46","62715bfe8dcc19e21152dce0","bdp_lott","Mon Mar 27 2023 23:50:25 GMT-0500 (Central Daylight Time)","258553","red","green","","","","","","","","","","179","","","","","","[{""stimulus"":""img/red_lw/1.jpg"",""time"":51},{""stimulus"":""img/red_lw/2.jpg"",""time"":101},{""stimulus"":""img/red_lw/3.jpg"",""time"":151},{""stimulus"":""img/red_lw/4.jpg"",""time"":201},{""stimulus"":""img/red_lw/5.jpg"",""time"":251},{""stimulus"":""img/red_lw/6.jpg"",""time"":302},{""stimulus"":""img/red_lw/7.jpg"",""time"":351},{""stimulus"":""img/red_lw/8.jpg"",""time"":401},{""stimulus"":""img/red_lw/9.jpg"",""time"":450},{""stimulus"":""img/red_lw/10.jpg"",""time"":501},{""stimulus"":""img/red_lw/11.jpg"",""time"":550}]","[]"
"image-keyboard-response","98","109738","0.0-5.0-1.47","62715bfe8dcc19e21152dce0","bdp_lott","Mon Mar 27 2023 23:50:25 GMT-0500 (Central Daylight Time)","258553","red","green","","423","","","","choice","","img/red_lw/choose11.jpg","2","178","red","0.5","0.5","0.5","l","",""
"animation","99","110339","0.0-5.0-2.47","62715bfe8dcc19e21152dce0","bdp_lott","Mon Mar 27 2023 23:50:25 GMT-0500 (Central Daylight Time)","258553","red","green","","","","","","","","","","178","","","","","","[{""stimulus"":""img/red_ll/1.jpg"",""time"":51},{""stimulus"":""img/red_ll/2.jpg"",""time"":102},{""stimulus"":""img/red_ll/3.jpg"",""time"":152},{""stimulus"":""img/red_ll/4.jpg"",""time"":201},{""stimulus"":""img/red_ll/5.jpg"",""time"":252},{""stimulus"":""img/red_ll/6.jpg"",""time"":302},{""stimulus"":""img/red_ll/7.jpg"",""time"":351},{""stimulus"":""img/red_ll/8.jpg"",""time"":402},{""stimulus"":""img/red_ll/9.jpg"",""time"":451},{""stimulus"":""img/red_ll/10.jpg"",""time"":501},{""stimulus"":""img/red_ll/11.jpg"",""time"":551}]","[]"
"image-keyboard-response","100","110678","0.0-5.0-1.48","62715bfe8dcc19e21152dce0","bdp_lott","Mon Mar 27 2023 23:50:25 GMT-0500 (Central Daylight Time)","258553","red","green","","339","","","","choice","","img/red_ll/choose11.jpg","2","177","red","0.5","0.5","0.5","l","",""
"animation","101","111279","0.0-5.0-2.48","62715bfe8dcc19e21152dce0","bdp_lott","Mon Mar 27 2023 23:50:25 GMT-0500 (Central Daylight Time)","258553","red","green","","","","","","","","","","177","","","","","","[{""stimulus"":""img/red_ll/1.jpg"",""time"":52},{""stimulus"":""img/red_ll/2.jpg"",""time"":101},{""stimulus"":""img/red_ll/3.jpg"",""time"":151},{""stimulus"":""img/red_ll/4.jpg"",""time"":201},{""stimulus"":""img/red_ll/5.jpg"",""time"":251},{""stimulus"":""img/red_ll/6.jpg"",""time"":301},{""stimulus"":""img/red_ll/7.jpg"",""time"":351},{""stimulus"":""img/red_ll/8.jpg"",""time"":401},{""stimulus"":""img/red_ll/9.jpg"",""time"":451},{""stimulus"":""img/red_ll/10.jpg"",""time"":501},{""stimulus"":""img/red_ll/11.jpg"",""time"":551}]","[]"
"image-keyboard-response","102","111654","0.0-5.0-1.49","62715bfe8dcc19e21152dce0","bdp_lott","Mon Mar 27 2023 23:50:25 GMT-0500 (Central Daylight Time)","258553","red","green","","374","","","","choice","","img/red_ll/choose11.jpg","2","176","red","0.5","0.5","0.5","l","",""
"animation","103","112255","0.0-5.0-2.49","62715bfe8dcc19e21152dce0","bdp_lott","Mon Mar 27 2023 23:50:25 GMT-0500 (Central Daylight Time)","258553","red","green","","","","","","","","","","176","","","","","","[{""stimulus"":""img/red_ll/1.jpg"",""time"":51},{""stimulus"":""img/red_ll/2.jpg"",""time"":100},{""stimulus"":""img/red_ll/3.jpg"",""time"":151},{""stimulus"":""img/red_ll/4.jpg"",""time"":201},{""stimulus"":""img/red_ll/5.jpg"",""time"":250},{""stimulus"":""img/red_ll/6.jpg"",""time"":300},{""stimulus"":""img/red_ll/7.jpg"",""time"":350},{""stimulus"":""img/red_ll/8.jpg"",""time"":401},{""stimulus"":""img/red_ll/9.jpg"",""time"":450},{""stimulus"":""img/red_ll/10.jpg"",""time"":501},{""stimulus"":""img/red_ll/11.jpg"",""time"":550}]","[]"
"image-keyboard-response","104","112647","0.0-5.0-1.50","62715bfe8dcc19e21152dce0","bdp_lott","Mon Mar 27 2023 23:50:25 GMT-0500 (Central Daylight Time)","258553","red","green","","391","","","","choice","","img/red_ll/choose11.jpg","2","175","red","0.5","0.5","0.5","w","",""
"animation","105","113248","0.0-5.0-2.50","62715bfe8dcc19e21152dce0","bdp_lott","Mon Mar 27 2023 23:50:25 GMT-0500 (Central Daylight Time)","258553","red","green","","","","","","","","","","175","","","","","","[{""stimulus"":""img/red_lw/1.jpg"",""time"":52},{""stimulus"":""img/red_lw/2.jpg"",""time"":101},{""stimulus"":""img/red_lw/3.jpg"",""time"":152},{""stimulus"":""img/red_lw/4.jpg"",""time"":202},{""stimulus"":""img/red_lw/5.jpg"",""time"":252},{""stimulus"":""img/red_lw/6.jpg"",""time"":302},{""stimulus"":""img/red_lw/7.jpg"",""time"":362},{""stimulus"":""img/red_lw/8.jpg"",""time"":402},{""stimulus"":""img/red_lw/9.jpg"",""time"":452},{""stimulus"":""img/red_lw/10.jpg"",""time"":501},{""stimulus"":""img/red_lw/11.jpg"",""time"":551}]","[]"
"image-keyboard-response","106","113683","0.0-5.0-1.51","62715bfe8dcc19e21152dce0","bdp_lott","Mon Mar 27 2023 23:50:25 GMT-0500 (Central Daylight Time)","258553","red","green","","434","","","","choice","","img/red_lw/choose11.jpg","2","174","red","0.5","0.5","0.5","w","",""
"animation","107","114283","0.0-5.0-2.51","62715bfe8dcc19e21152dce0","bdp_lott","Mon Mar 27 2023 23:50:25 GMT-0500 (Central Daylight Time)","258553","red","green","","","","","","","","","","174","","","","","","[{""stimulus"":""img/red_lw/1.jpg"",""time"":51},{""stimulus"":""img/red_lw/2.jpg"",""time"":101},{""stimulus"":""img/red_lw/3.jpg"",""time"":150},{""stimulus"":""img/red_lw/4.jpg"",""time"":201},{""stimulus"":""img/red_lw/5.jpg"",""time"":251},{""stimulus"":""img/red_lw/6.jpg"",""time"":301},{""stimulus"":""img/red_lw/7.jpg"",""time"":350},{""stimulus"":""img/red_lw/8.jpg"",""time"":401},{""stimulus"":""img/red_lw/9.jpg"",""time"":452},{""stimulus"":""img/red_lw/10.jpg"",""time"":501},{""stimulus"":""img/red_lw/11.jpg"",""time"":551}]","[]"
"image-keyboard-response","108","114683","0.0-5.0-1.52","62715bfe8dcc19e21152dce0","bdp_lott","Mon Mar 27 2023 23:50:25 GMT-0500 (Central Daylight Time)","258553","red","green","","399","","","","choice","","img/red_lw/choose11.jpg","2","173","red","0.5","0.5","0.5","l","",""
"animation","109","115284","0.0-5.0-2.52","62715bfe8dcc19e21152dce0","bdp_lott","Mon Mar 27 2023 23:50:25 GMT-0500 (Central Daylight Time)","258553","red","green","","","","","","","","","","173","","","","","","[{""stimulus"":""img/red_ll/1.jpg"",""time"":52},{""stimulus"":""img/red_ll/2.jpg"",""time"":102},{""stimulus"":""img/red_ll/3.jpg"",""time"":151},{""stimulus"":""img/red_ll/4.jpg"",""time"":201},{""stimulus"":""img/red_ll/5.jpg"",""time"":252},{""stimulus"":""img/red_ll/6.jpg"",""time"":302},{""stimulus"":""img/red_ll/7.jpg"",""time"":351},{""stimulus"":""img/red_ll/8.jpg"",""time"":401},{""stimulus"":""img/red_ll/9.jpg"",""time"":451},{""stimulus"":""img/red_ll/10.jpg"",""time"":502},{""stimulus"":""img/red_ll/11.jpg"",""time"":551}]","[]"
"image-keyboard-response","110","115541","0.0-5.0-1.53","62715bfe8dcc19e21152dce0","bdp_lott","Mon Mar 27 2023 23:50:25 GMT-0500 (Central Daylight Time)","258553","red","green","","256","","","","choice","","img/red_ll/choose11.jpg","2","172","red","0.5","0.5","0.5","l","",""
"animation","111","116142","0.0-5.0-2.53","62715bfe8dcc19e21152dce0","bdp_lott","Mon Mar 27 2023 23:50:25 GMT-0500 (Central Daylight Time)","258553","red","green","","","","","","","","","","172","","","","","","[{""stimulus"":""img/red_ll/1.jpg"",""time"":52},{""stimulus"":""img/red_ll/2.jpg"",""time"":101},{""stimulus"":""img/red_ll/3.jpg"",""time"":151},{""stimulus"":""img/red_ll/4.jpg"",""time"":202},{""stimulus"":""img/red_ll/5.jpg"",""time"":251},{""stimulus"":""img/red_ll/6.jpg"",""time"":301},{""stimulus"":""img/red_ll/7.jpg"",""time"":366},{""stimulus"":""img/red_ll/8.jpg"",""time"":401},{""stimulus"":""img/red_ll/9.jpg"",""time"":452},{""stimulus"":""img/red_ll/10.jpg"",""time"":501},{""stimulus"":""img/red_ll/11.jpg"",""time"":552}]","[]"
"image-keyboard-response","112","116503","0.0-5.0-1.54","62715bfe8dcc19e21152dce0","bdp_lott","Mon Mar 27 2023 23:50:25 GMT-0500 (Central Daylight Time)","258553","red","green","","361","","","","choice","","img/red_ll/choose11.jpg","2","171","red","0.5","0.5","0.5","w","",""
"animation","113","117106","0.0-5.0-2.54","62715bfe8dcc19e21152dce0","bdp_lott","Mon Mar 27 2023 23:50:25 GMT-0500 (Central Daylight Time)","258553","red","green","","","","","","","","","","171","","","","","","[{""stimulus"":""img/red_lw/1.jpg"",""time"":52},{""stimulus"":""img/red_lw/2.jpg"",""time"":102},{""stimulus"":""img/red_lw/3.jpg"",""time"":152},{""stimulus"":""img/red_lw/4.jpg"",""time"":201},{""stimulus"":""img/red_lw/5.jpg"",""time"":251},{""stimulus"":""img/red_lw/6.jpg"",""time"":302},{""stimulus"":""img/red_lw/7.jpg"",""time"":352},{""stimulus"":""img/red_lw/8.jpg"",""time"":401},{""stimulus"":""img/red_lw/9.jpg"",""time"":451},{""stimulus"":""img/red_lw/10.jpg"",""time"":501},{""stimulus"":""img/red_lw/11.jpg"",""time"":551}]","[]"
"image-keyboard-response","114","117441","0.0-5.0-1.55","62715bfe8dcc19e21152dce0","bdp_lott","Mon Mar 27 2023 23:50:25 GMT-0500 (Central Daylight Time)","258553","red","green","","335","","","","choice","","img/red_lw/choose11.jpg","2","170","red","0.5","0.5","0.5","l","",""
"animation","115","118042","0.0-5.0-2.55","62715bfe8dcc19e21152dce0","bdp_lott","Mon Mar 27 2023 23:50:25 GMT-0500 (Central Daylight Time)","258553","red","green","","","","","","","","","","170","","","","","","[{""stimulus"":""img/red_ll/1.jpg"",""time"":51},{""stimulus"":""img/red_ll/2.jpg"",""time"":100},{""stimulus"":""img/red_ll/3.jpg"",""time"":164},{""stimulus"":""img/red_ll/4.jpg"",""time"":200},{""stimulus"":""img/red_ll/5.jpg"",""time"":250},{""stimulus"":""img/red_ll/6.jpg"",""time"":301},{""stimulus"":""img/red_ll/7.jpg"",""time"":351},{""stimulus"":""img/red_ll/8.jpg"",""time"":400},{""stimulus"":""img/red_ll/9.jpg"",""time"":451},{""stimulus"":""img/red_ll/10.jpg"",""time"":500},{""stimulus"":""img/red_ll/11.jpg"",""time"":550}]","[]"
"image-keyboard-response","116","118384","0.0-5.0-1.56","62715bfe8dcc19e21152dce0","bdp_lott","Mon Mar 27 2023 23:50:25 GMT-0500 (Central Daylight Time)","258553","red","green","","341","","","","choice","","img/red_ll/choose11.jpg","1","169","green","0.5","0.5","0.5","l","",""
"animation","117","118985","0.0-5.0-2.56","62715bfe8dcc19e21152dce0","bdp_lott","Mon Mar 27 2023 23:50:25 GMT-0500 (Central Daylight Time)","258553","red","green","","","","","","","","","","169","","","","","","[{""stimulus"":""img/green_ll/1.jpg"",""time"":51},{""stimulus"":""img/green_ll/2.jpg"",""time"":100},{""stimulus"":""img/green_ll/3.jpg"",""time"":151},{""stimulus"":""img/green_ll/4.jpg"",""time"":201},{""stimulus"":""img/green_ll/5.jpg"",""time"":251},{""stimulus"":""img/green_ll/6.jpg"",""time"":301},{""stimulus"":""img/green_ll/7.jpg"",""time"":350},{""stimulus"":""img/green_ll/8.jpg"",""time"":401},{""stimulus"":""img/green_ll/9.jpg"",""time"":450},{""stimulus"":""img/green_ll/10.jpg"",""time"":500},{""stimulus"":""img/green_ll/11.jpg"",""time"":551}]","[]"
"image-keyboard-response","118","119355","0.0-5.0-1.57","62715bfe8dcc19e21152dce0","bdp_lott","Mon Mar 27 2023 23:50:25 GMT-0500 (Central Daylight Time)","258553","red","green","","369","","","","choice","","img/green_ll/choose11.jpg","1","168","green","0.5","0.5","0.5","w","",""
"animation","119","119956","0.0-5.0-2.57","62715bfe8dcc19e21152dce0","bdp_lott","Mon Mar 27 2023 23:50:25 GMT-0500 (Central Daylight Time)","258553","red","green","","","","","","","","","","168","","","","","","[{""stimulus"":""img/green_wl/1.jpg"",""time"":51},{""stimulus"":""img/green_wl/2.jpg"",""time"":101},{""stimulus"":""img/green_wl/3.jpg"",""time"":151},{""stimulus"":""img/green_wl/4.jpg"",""time"":201},{""stimulus"":""img/green_wl/5.jpg"",""time"":251},{""stimulus"":""img/green_wl/6.jpg"",""time"":301},{""stimulus"":""img/green_wl/7.jpg"",""time"":351},{""stimulus"":""img/green_wl/8.jpg"",""time"":401},{""stimulus"":""img/green_wl/9.jpg"",""time"":451},{""stimulus"":""img/green_wl/10.jpg"",""time"":501},{""stimulus"":""img/green_wl/11.jpg"",""time"":551}]","[]"
"image-keyboard-response","120","120325","0.0-5.0-1.58","62715bfe8dcc19e21152dce0","bdp_lott","Mon Mar 27 2023 23:50:25 GMT-0500 (Central Daylight Time)","258553","red","green","","368","","","","choice","","img/green_wl/choose11.jpg","1","167","green","0.5","0.5","0.5","w","",""
"animation","121","120926","0.0-5.0-2.58","62715bfe8dcc19e21152dce0","bdp_lott","Mon Mar 27 2023 23:50:25 GMT-0500 (Central Daylight Time)","258553","red","green","","","","","","","","","","167","","","","","","[{""stimulus"":""img/green_wl/1.jpg"",""time"":51},{""stimulus"":""img/green_wl/2.jpg"",""time"":101},{""stimulus"":""img/green_wl/3.jpg"",""time"":152},{""stimulus"":""img/green_wl/4.jpg"",""time"":201},{""stimulus"":""img/green_wl/5.jpg"",""time"":251},{""stimulus"":""img/green_wl/6.jpg"",""time"":301},{""stimulus"":""img/green_wl/7.jpg"",""time"":351},{""stimulus"":""img/green_wl/8.jpg"",""time"":401},{""stimulus"":""img/green_wl/9.jpg"",""time"":450},{""stimulus"":""img/green_wl/10.jpg"",""time"":501},{""stimulus"":""img/green_wl/11.jpg"",""time"":551}]","[]"
"image-keyboard-response","122","121114","0.0-5.0-1.59","62715bfe8dcc19e21152dce0","bdp_lott","Mon Mar 27 2023 23:50:25 GMT-0500 (Central Daylight Time)","258553","red","green","","187","","","","choice","","img/green_wl/choose11.jpg","1","166","green","0.5","0.5","0.5","l","",""
"animation","123","121715","0.0-5.0-2.59","62715bfe8dcc19e21152dce0","bdp_lott","Mon Mar 27 2023 23:50:25 GMT-0500 (Central Daylight Time)","258553","red","green","","","","","","","","","","166","","","","","","[{""stimulus"":""img/green_ll/1.jpg"",""time"":51},{""stimulus"":""img/green_ll/2.jpg"",""time"":101},{""stimulus"":""img/green_ll/3.jpg"",""time"":151},{""stimulus"":""img/green_ll/4.jpg"",""time"":200},{""stimulus"":""img/green_ll/5.jpg"",""time"":250},{""stimulus"":""img/green_ll/6.jpg"",""time"":301},{""stimulus"":""img/green_ll/7.jpg"",""time"":351},{""stimulus"":""img/green_ll/8.jpg"",""time"":401},{""stimulus"":""img/green_ll/9.jpg"",""time"":451},{""stimulus"":""img/green_ll/10.jpg"",""time"":501},{""stimulus"":""img/green_ll/11.jpg"",""time"":550}]","[]"
"image-keyboard-response","124","121890","0.0-5.0-1.60","62715bfe8dcc19e21152dce0","bdp_lott","Mon Mar 27 2023 23:50:25 GMT-0500 (Central Daylight Time)","258553","red","green","","174","","","","choice","","img/green_ll/choose11.jpg","1","165","green","0.5","0.5","0.5","l","",""
"animation","125","122491","0.0-5.0-2.60","62715bfe8dcc19e21152dce0","bdp_lott","Mon Mar 27 2023 23:50:25 GMT-0500 (Central Daylight Time)","258553","red","green","","","","","","","","","","165","","","","","","[{""stimulus"":""img/green_ll/1.jpg"",""time"":51},{""stimulus"":""img/green_ll/2.jpg"",""time"":100},{""stimulus"":""img/green_ll/3.jpg"",""time"":151},{""stimulus"":""img/green_ll/4.jpg"",""time"":201},{""stimulus"":""img/green_ll/5.jpg"",""time"":251},{""stimulus"":""img/green_ll/6.jpg"",""time"":301},{""stimulus"":""img/green_ll/7.jpg"",""time"":350},{""stimulus"":""img/green_ll/8.jpg"",""time"":400},{""stimulus"":""img/green_ll/9.jpg"",""time"":450},{""stimulus"":""img/green_ll/10.jpg"",""time"":500},{""stimulus"":""img/green_ll/11.jpg"",""time"":551}]","[]"
"image-keyboard-response","126","122606","0.0-5.0-1.61","62715bfe8dcc19e21152dce0","bdp_lott","Mon Mar 27 2023 23:50:25 GMT-0500 (Central Daylight Time)","258553","red","green","","114","","","","choice","","img/green_ll/choose11.jpg","1","164","green","0.5","0.5","0.5","l","",""
"animation","127","123208","0.0-5.0-2.61","62715bfe8dcc19e21152dce0","bdp_lott","Mon Mar 27 2023 23:50:25 GMT-0500 (Central Daylight Time)","258553","red","green","","","","","","","","","","164","","","","","","[{""stimulus"":""img/green_ll/1.jpg"",""time"":51},{""stimulus"":""img/green_ll/2.jpg"",""time"":101},{""stimulus"":""img/green_ll/3.jpg"",""time"":152},{""stimulus"":""img/green_ll/4.jpg"",""time"":201},{""stimulus"":""img/green_ll/5.jpg"",""time"":251},{""stimulus"":""img/green_ll/6.jpg"",""time"":301},{""stimulus"":""img/green_ll/7.jpg"",""time"":351},{""stimulus"":""img/green_ll/8.jpg"",""time"":400},{""stimulus"":""img/green_ll/9.jpg"",""time"":451},{""stimulus"":""img/green_ll/10.jpg"",""time"":500},{""stimulus"":""img/green_ll/11.jpg"",""time"":551}]","[]"
"image-keyboard-response","128","123657","0.0-5.0-1.62","62715bfe8dcc19e21152dce0","bdp_lott","Mon Mar 27 2023 23:50:25 GMT-0500 (Central Daylight Time)","258553","red","green","","448","","","","choice","","img/green_ll/choose11.jpg","1","163","green","0.5","0.5","0.5","l","",""
"animation","129","124258","0.0-5.0-2.62","62715bfe8dcc19e21152dce0","bdp_lott","Mon Mar 27 2023 23:50:25 GMT-0500 (Central Daylight Time)","258553","red","green","","","","","","","","","","163","","","","","","[{""stimulus"":""img/green_ll/1.jpg"",""time"":50},{""stimulus"":""img/green_ll/2.jpg"",""time"":101},{""stimulus"":""img/green_ll/3.jpg"",""time"":150},{""stimulus"":""img/green_ll/4.jpg"",""time"":200},{""stimulus"":""img/green_ll/5.jpg"",""time"":251},{""stimulus"":""img/green_ll/6.jpg"",""time"":301},{""stimulus"":""img/green_ll/7.jpg"",""time"":351},{""stimulus"":""img/green_ll/8.jpg"",""time"":401},{""stimulus"":""img/green_ll/9.jpg"",""time"":450},{""stimulus"":""img/green_ll/10.jpg"",""time"":500},{""stimulus"":""img/green_ll/11.jpg"",""time"":551}]","[]"
"image-keyboard-response","130","124704","0.0-5.0-1.63","62715bfe8dcc19e21152dce0","bdp_lott","Mon Mar 27 2023 23:50:25 GMT-0500 (Central Daylight Time)","258553","red","green","","445","","","","choice","","img/green_ll/choose11.jpg","1","162","green","0.5","0.5","0.5","l","",""
"animation","131","125306","0.0-5.0-2.63","62715bfe8dcc19e21152dce0","bdp_lott","Mon Mar 27 2023 23:50:25 GMT-0500 (Central Daylight Time)","258553","red","green","","","","","","","","","","162","","","","","","[{""stimulus"":""img/green_ll/1.jpg"",""time"":51},{""stimulus"":""img/green_ll/2.jpg"",""time"":100},{""stimulus"":""img/green_ll/3.jpg"",""time"":151},{""stimulus"":""img/green_ll/4.jpg"",""time"":200},{""stimulus"":""img/green_ll/5.jpg"",""time"":251},{""stimulus"":""img/green_ll/6.jpg"",""time"":301},{""stimulus"":""img/green_ll/7.jpg"",""time"":351},{""stimulus"":""img/green_ll/8.jpg"",""time"":401},{""stimulus"":""img/green_ll/9.jpg"",""time"":451},{""stimulus"":""img/green_ll/10.jpg"",""time"":501},{""stimulus"":""img/green_ll/11.jpg"",""time"":551}]","[]"
"image-keyboard-response","132","125799","0.0-5.0-1.64","62715bfe8dcc19e21152dce0","bdp_lott","Mon Mar 27 2023 23:50:25 GMT-0500 (Central Daylight Time)","258553","red","green","","493","","","","choice","","img/green_ll/choose11.jpg","1","161","green","0.5","0.5","0.5","l","",""
"animation","133","126408","0.0-5.0-2.64","62715bfe8dcc19e21152dce0","bdp_lott","Mon Mar 27 2023 23:50:25 GMT-0500 (Central Daylight Time)","258553","red","green","","","","","","","","","","161","","","","","","[{""stimulus"":""img/green_ll/1.jpg"",""time"":52},{""stimulus"":""img/green_ll/2.jpg"",""time"":101},{""stimulus"":""img/green_ll/3.jpg"",""time"":152},{""stimulus"":""img/green_ll/4.jpg"",""time"":201},{""stimulus"":""img/green_ll/5.jpg"",""time"":252},{""stimulus"":""img/green_ll/6.jpg"",""time"":301},{""stimulus"":""img/green_ll/7.jpg"",""time"":351},{""stimulus"":""img/green_ll/8.jpg"",""time"":402},{""stimulus"":""img/green_ll/9.jpg"",""time"":451},{""stimulus"":""img/green_ll/10.jpg"",""time"":501},{""stimulus"":""img/green_ll/11.jpg"",""time"":551}]","[]"
"image-keyboard-response","134","126797","0.0-5.0-1.65","62715bfe8dcc19e21152dce0","bdp_lott","Mon Mar 27 2023 23:50:25 GMT-0500 (Central Daylight Time)","258553","red","green","","388","","","","choice","","img/green_ll/choose11.jpg","1","160","green","0.5","0.5","0.5","w","",""
"animation","135","127398","0.0-5.0-2.65","62715bfe8dcc19e21152dce0","bdp_lott","Mon Mar 27 2023 23:50:25 GMT-0500 (Central Daylight Time)","258553","red","green","","","","","","","","","","160","","","","","","[{""stimulus"":""img/green_wl/1.jpg"",""time"":50},{""stimulus"":""img/green_wl/2.jpg"",""time"":101},{""stimulus"":""img/green_wl/3.jpg"",""time"":151},{""stimulus"":""img/green_wl/4.jpg"",""time"":202},{""stimulus"":""img/green_wl/5.jpg"",""time"":251},{""stimulus"":""img/green_wl/6.jpg"",""time"":301},{""stimulus"":""img/green_wl/7.jpg"",""time"":352},{""stimulus"":""img/green_wl/8.jpg"",""time"":406},{""stimulus"":""img/green_wl/9.jpg"",""time"":452},{""stimulus"":""img/green_wl/10.jpg"",""time"":500},{""stimulus"":""img/green_wl/11.jpg"",""time"":551}]","[]"
"image-keyboard-response","136","127888","0.0-5.0-1.66","62715bfe8dcc19e21152dce0","bdp_lott","Mon Mar 27 2023 23:50:25 GMT-0500 (Central Daylight Time)","258553","red","green","","489","","","","choice","","img/green_wl/choose11.jpg","2","159","red","0.5","0.5","0.5","w","",""
"animation","137","128491","0.0-5.0-2.66","62715bfe8dcc19e21152dce0","bdp_lott","Mon Mar 27 2023 23:50:25 GMT-0500 (Central Daylight Time)","258553","red","green","","","","","","","","","","159","","","","","","[{""stimulus"":""img/red_ww/1.jpg"",""time"":52},{""stimulus"":""img/red_ww/2.jpg"",""time"":102},{""stimulus"":""img/red_ww/3.jpg"",""time"":152},{""stimulus"":""img/red_ww/4.jpg"",""time"":201},{""stimulus"":""img/red_ww/5.jpg"",""time"":252},{""stimulus"":""img/red_ww/6.jpg"",""time"":301},{""stimulus"":""img/red_ww/7.jpg"",""time"":351},{""stimulus"":""img/red_ww/8.jpg"",""time"":413},{""stimulus"":""img/red_ww/9.jpg"",""time"":451},{""stimulus"":""img/red_ww/10.jpg"",""time"":501},{""stimulus"":""img/red_ww/11.jpg"",""time"":552}]","[]"
"image-keyboard-response","138","128725","0.0-5.0-1.67","62715bfe8dcc19e21152dce0","bdp_lott","Mon Mar 27 2023 23:50:25 GMT-0500 (Central Daylight Time)","258553","red","green","","234","","","","choice","","img/red_ww/choose11.jpg","1","158","green","0.5","0.5","0.5","w","",""
"animation","139","129326","0.0-5.0-2.67","62715bfe8dcc19e21152dce0","bdp_lott","Mon Mar 27 2023 23:50:25 GMT-0500 (Central Daylight Time)","258553","red","green","","","","","","","","","","158","","","","","","[{""stimulus"":""img/green_ww/1.jpg"",""time"":51},{""stimulus"":""img/green_ww/2.jpg"",""time"":101},{""stimulus"":""img/green_ww/3.jpg"",""time"":150},{""stimulus"":""img/green_ww/4.jpg"",""time"":201},{""stimulus"":""img/green_ww/5.jpg"",""time"":250},{""stimulus"":""img/green_ww/6.jpg"",""time"":300},{""stimulus"":""img/green_ww/7.jpg"",""time"":351},{""stimulus"":""img/green_ww/8.jpg"",""time"":401},{""stimulus"":""img/green_ww/9.jpg"",""time"":451},{""stimulus"":""img/green_ww/10.jpg"",""time"":500},{""stimulus"":""img/green_ww/11.jpg"",""time"":551}]","[]"
"image-keyboard-response","140","129639","0.0-5.0-1.68","62715bfe8dcc19e21152dce0","bdp_lott","Mon Mar 27 2023 23:50:25 GMT-0500 (Central Daylight Time)","258553","red","green","","312","","","","choice","","img/green_ww/choose11.jpg","2","157","red","0.5","0.5","0.5","w","",""
"animation","141","130240","0.0-5.0-2.68","62715bfe8dcc19e21152dce0","bdp_lott","Mon Mar 27 2023 23:50:25 GMT-0500 (Central Daylight Time)","258553","red","green","","","","","","","","","","157","","","","","","[{""stimulus"":""img/red_ww/1.jpg"",""time"":50},{""stimulus"":""img/red_ww/2.jpg"",""time"":101},{""stimulus"":""img/red_ww/3.jpg"",""time"":151},{""stimulus"":""img/red_ww/4.jpg"",""time"":201},{""stimulus"":""img/red_ww/5.jpg"",""time"":251},{""stimulus"":""img/red_ww/6.jpg"",""time"":300},{""stimulus"":""img/red_ww/7.jpg"",""time"":351},{""stimulus"":""img/red_ww/8.jpg"",""time"":401},{""stimulus"":""img/red_ww/9.jpg"",""time"":451},{""stimulus"":""img/red_ww/10.jpg"",""time"":501},{""stimulus"":""img/red_ww/11.jpg"",""time"":551}]","[]"
"image-keyboard-response","142","130488","0.0-5.0-1.69","62715bfe8dcc19e21152dce0","bdp_lott","Mon Mar 27 2023 23:50:25 GMT-0500 (Central Daylight Time)","258553","red","green","","247","","","","choice","","img/red_ww/choose11.jpg","1","156","green","0.5","0.5","0.5","w","",""
"animation","143","131090","0.0-5.0-2.69","62715bfe8dcc19e21152dce0","bdp_lott","Mon Mar 27 2023 23:50:25 GMT-0500 (Central Daylight Time)","258553","red","green","","","","","","","","","","156","","","","","","[{""stimulus"":""img/green_ww/1.jpg"",""time"":51},{""stimulus"":""img/green_ww/2.jpg"",""time"":100},{""stimulus"":""img/green_ww/3.jpg"",""time"":150},{""stimulus"":""img/green_ww/4.jpg"",""time"":201},{""stimulus"":""img/green_ww/5.jpg"",""time"":251},{""stimulus"":""img/green_ww/6.jpg"",""time"":301},{""stimulus"":""img/green_ww/7.jpg"",""time"":351},{""stimulus"":""img/green_ww/8.jpg"",""time"":400},{""stimulus"":""img/green_ww/9.jpg"",""time"":450},{""stimulus"":""img/green_ww/10.jpg"",""time"":511},{""stimulus"":""img/green_ww/11.jpg"",""time"":551}]","[]"
"image-keyboard-response","144","131548","0.0-5.0-1.70","62715bfe8dcc19e21152dce0","bdp_lott","Mon Mar 27 2023 23:50:25 GMT-0500 (Central Daylight Time)","258553","red","green","","457","","","","choice","","img/green_ww/choose11.jpg","1","155","green","0.5","0.5","0.5","w","",""
"animation","145","132149","0.0-5.0-2.70","62715bfe8dcc19e21152dce0","bdp_lott","Mon Mar 27 2023 23:50:25 GMT-0500 (Central Daylight Time)","258553","red","green","","","","","","","","","","155","","","","","","[{""stimulus"":""img/green_ww/1.jpg"",""time"":51},{""stimulus"":""img/green_ww/2.jpg"",""time"":102},{""stimulus"":""img/green_ww/3.jpg"",""time"":152},{""stimulus"":""img/green_ww/4.jpg"",""time"":202},{""stimulus"":""img/green_ww/5.jpg"",""time"":251},{""stimulus"":""img/green_ww/6.jpg"",""time"":302},{""stimulus"":""img/green_ww/7.jpg"",""time"":352},{""stimulus"":""img/green_ww/8.jpg"",""time"":401},{""stimulus"":""img/green_ww/9.jpg"",""time"":452},{""stimulus"":""img/green_ww/10.jpg"",""time"":502},{""stimulus"":""img/green_ww/11.jpg"",""time"":552}]","[]"
"image-keyboard-response","146","132689","0.0-5.0-1.71","62715bfe8dcc19e21152dce0","bdp_lott","Mon Mar 27 2023 23:50:25 GMT-0500 (Central Daylight Time)","258553","red","green","","539","","","","choice","","img/green_ww/choose11.jpg","1","154","green","0.5","0.5","0.5","w","",""
"animation","147","133291","0.0-5.0-2.71","62715bfe8dcc19e21152dce0","bdp_lott","Mon Mar 27 2023 23:50:25 GMT-0500 (Central Daylight Time)","258553","red","green","","","","","","","","","","154","","","","","","[{""stimulus"":""img/green_ww/1.jpg"",""time"":52},{""stimulus"":""img/green_ww/2.jpg"",""time"":101},{""stimulus"":""img/green_ww/3.jpg"",""time"":152},{""stimulus"":""img/green_ww/4.jpg"",""time"":202},{""stimulus"":""img/green_ww/5.jpg"",""time"":258},{""stimulus"":""img/green_ww/6.jpg"",""time"":306},{""stimulus"":""img/green_ww/7.jpg"",""time"":351},{""stimulus"":""img/green_ww/8.jpg"",""time"":402},{""stimulus"":""img/green_ww/9.jpg"",""time"":452},{""stimulus"":""img/green_ww/10.jpg"",""time"":501},{""stimulus"":""img/green_ww/11.jpg"",""time"":551}]","[]"
"image-keyboard-response","148","133689","0.0-5.0-1.72","62715bfe8dcc19e21152dce0","bdp_lott","Mon Mar 27 2023 23:50:25 GMT-0500 (Central Daylight Time)","258553","red","green","","397","","","","choice","","img/green_ww/choose11.jpg","1","153","green","0.5","0.5","0.5","l","",""
"animation","149","134290","0.0-5.0-2.72","62715bfe8dcc19e21152dce0","bdp_lott","Mon Mar 27 2023 23:50:25 GMT-0500 (Central Daylight Time)","258553","red","green","","","","","","","","","","153","","","","","","[{""stimulus"":""img/green_lw/1.jpg"",""time"":52},{""stimulus"":""img/green_lw/2.jpg"",""time"":102},{""stimulus"":""img/green_lw/3.jpg"",""time"":152},{""stimulus"":""img/green_lw/4.jpg"",""time"":201},{""stimulus"":""img/green_lw/5.jpg"",""time"":251},{""stimulus"":""img/green_lw/6.jpg"",""time"":301},{""stimulus"":""img/green_lw/7.jpg"",""time"":351},{""stimulus"":""img/green_lw/8.jpg"",""time"":410},{""stimulus"":""img/green_lw/9.jpg"",""time"":452},{""stimulus"":""img/green_lw/10.jpg"",""time"":503},{""stimulus"":""img/green_lw/11.jpg"",""time"":552}]","[]"
"image-keyboard-response","150","134751","0.0-5.0-1.73","62715bfe8dcc19e21152dce0","bdp_lott","Mon Mar 27 2023 23:50:25 GMT-0500 (Central Daylight Time)","258553","red","green","","461","","","","choice","","img/green_lw/choose11.jpg","2","152","red","0.5","0.5","0.5","l","",""
"animation","151","135352","0.0-5.0-2.73","62715bfe8dcc19e21152dce0","bdp_lott","Mon Mar 27 2023 23:50:25 GMT-0500 (Central Daylight Time)","258553","red","green","","","","","","","","","","152","","","","","","[{""stimulus"":""img/red_ll/1.jpg"",""time"":51},{""stimulus"":""img/red_ll/2.jpg"",""time"":100},{""stimulus"":""img/red_ll/3.jpg"",""time"":151},{""stimulus"":""img/red_ll/4.jpg"",""time"":200},{""stimulus"":""img/red_ll/5.jpg"",""time"":264},{""stimulus"":""img/red_ll/6.jpg"",""time"":301},{""stimulus"":""img/red_ll/7.jpg"",""time"":350},{""stimulus"":""img/red_ll/8.jpg"",""time"":401},{""stimulus"":""img/red_ll/9.jpg"",""time"":452},{""stimulus"":""img/red_ll/10.jpg"",""time"":501},{""stimulus"":""img/red_ll/11.jpg"",""time"":550}]","[]"
"image-keyboard-response","152","135696","0.0-5.0-1.74","62715bfe8dcc19e21152dce0","bdp_lott","Mon Mar 27 2023 23:50:25 GMT-0500 (Central Daylight Time)","258553","red","green","","343","","","","choice","","img/red_ll/choose11.jpg","2","151","red","0.5","0.5","0.5","l","",""
"animation","153","136297","0.0-5.0-2.74","62715bfe8dcc19e21152dce0","bdp_lott","Mon Mar 27 2023 23:50:25 GMT-0500 (Central Daylight Time)","258553","red","green","","","","","","","","","","151","","","","","","[{""stimulus"":""img/red_ll/1.jpg"",""time"":51},{""stimulus"":""img/red_ll/2.jpg"",""time"":101},{""stimulus"":""img/red_ll/3.jpg"",""time"":151},{""stimulus"":""img/red_ll/4.jpg"",""time"":201},{""stimulus"":""img/red_ll/5.jpg"",""time"":251},{""stimulus"":""img/red_ll/6.jpg"",""time"":301},{""stimulus"":""img/red_ll/7.jpg"",""time"":364},{""stimulus"":""img/red_ll/8.jpg"",""time"":401},{""stimulus"":""img/red_ll/9.jpg"",""time"":451},{""stimulus"":""img/red_ll/10.jpg"",""time"":501},{""stimulus"":""img/red_ll/11.jpg"",""time"":551}]","[]"
"image-keyboard-response","154","136643","0.0-5.0-1.75","62715bfe8dcc19e21152dce0","bdp_lott","Mon Mar 27 2023 23:50:25 GMT-0500 (Central Daylight Time)","258553","red","green","","346","","","","choice","","img/red_ll/choose11.jpg","2","150","red","0.5","0.5","0.5","w","",""
"animation","155","137245","0.0-5.0-2.75","62715bfe8dcc19e21152dce0","bdp_lott","Mon Mar 27 2023 23:50:25 GMT-0500 (Central Daylight Time)","258553","red","green","","","","","","","","","","150","","","","","","[{""stimulus"":""img/red_lw/1.jpg"",""time"":51},{""stimulus"":""img/red_lw/2.jpg"",""time"":100},{""stimulus"":""img/red_lw/3.jpg"",""time"":150},{""stimulus"":""img/red_lw/4.jpg"",""time"":201},{""stimulus"":""img/red_lw/5.jpg"",""time"":251},{""stimulus"":""img/red_lw/6.jpg"",""time"":300},{""stimulus"":""img/red_lw/7.jpg"",""time"":351},{""stimulus"":""img/red_lw/8.jpg"",""time"":401},{""stimulus"":""img/red_lw/9.jpg"",""time"":451},{""stimulus"":""img/red_lw/10.jpg"",""time"":501},{""stimulus"":""img/red_lw/11.jpg"",""time"":550}]","[]"
"image-keyboard-response","156","137675","0.0-5.0-1.76","62715bfe8dcc19e21152dce0","bdp_lott","Mon Mar 27 2023 23:50:25 GMT-0500 (Central Daylight Time)","258553","red","green","","429","","","","choice","","img/red_lw/choose11.jpg","2","149","red","0.5","0.1","0.5","l","",""
"animation","157","138276","0.0-5.0-2.76","62715bfe8dcc19e21152dce0","bdp_lott","Mon Mar 27 2023 23:50:25 GMT-0500 (Central Daylight Time)","258553","red","green","","","","","","","","","","149","","","","","","[{""stimulus"":""img/red_ll/1.jpg"",""time"":51},{""stimulus"":""img/red_ll/2.jpg"",""time"":101},{""stimulus"":""img/red_ll/3.jpg"",""time"":151},{""stimulus"":""img/red_ll/4.jpg"",""time"":201},{""stimulus"":""img/red_ll/5.jpg"",""time"":250},{""stimulus"":""img/red_ll/6.jpg"",""time"":301},{""stimulus"":""img/red_ll/7.jpg"",""time"":350},{""stimulus"":""img/red_ll/8.jpg"",""time"":401},{""stimulus"":""img/red_ll/9.jpg"",""time"":451},{""stimulus"":""img/red_ll/10.jpg"",""time"":501},{""stimulus"":""img/red_ll/11.jpg"",""time"":550}]","[]"
"image-keyboard-response","158","138883","0.0-5.0-1.77","62715bfe8dcc19e21152dce0","bdp_lott","Mon Mar 27 2023 23:50:25 GMT-0500 (Central Daylight Time)","258553","red","green","","606","","","","choice","","img/red_ll/choose11.jpg","1","148","green","0.5","0.1","0.1","l","",""
"animation","159","139484","0.0-5.0-2.77","62715bfe8dcc19e21152dce0","bdp_lott","Mon Mar 27 2023 23:50:25 GMT-0500 (Central Daylight Time)","258553","red","green","","","","","","","","","","148","","","","","","[{""stimulus"":""img/green_ll/1.jpg"",""time"":51},{""stimulus"":""img/green_ll/2.jpg"",""time"":101},{""stimulus"":""img/green_ll/3.jpg"",""time"":150},{""stimulus"":""img/green_ll/4.jpg"",""time"":201},{""stimulus"":""img/green_ll/5.jpg"",""time"":251},{""stimulus"":""img/green_ll/6.jpg"",""time"":300},{""stimulus"":""img/green_ll/7.jpg"",""time"":351},{""stimulus"":""img/green_ll/8.jpg"",""time"":401},{""stimulus"":""img/green_ll/9.jpg"",""time"":450},{""stimulus"":""img/green_ll/10.jpg"",""time"":501},{""stimulus"":""img/green_ll/11.jpg"",""time"":550}]","[]"
"image-keyboard-response","160","139792","0.0-5.0-1.78","62715bfe8dcc19e21152dce0","bdp_lott","Mon Mar 27 2023 23:50:25 GMT-0500 (Central Daylight Time)","258553","red","green","","307","","","","choice","","img/green_ll/choose11.jpg","2","147","red","0.5","0.1","0.5","l","",""
"animation","161","140394","0.0-5.0-2.78","62715bfe8dcc19e21152dce0","bdp_lott","Mon Mar 27 2023 23:50:25 GMT-0500 (Central Daylight Time)","258553","red","green","","","","","","","","","","147","","","","","","[{""stimulus"":""img/red_ll/1.jpg"",""time"":52},{""stimulus"":""img/red_ll/2.jpg"",""time"":102},{""stimulus"":""img/red_ll/3.jpg"",""time"":152},{""stimulus"":""img/red_ll/4.jpg"",""time"":202},{""stimulus"":""img/red_ll/5.jpg"",""time"":252},{""stimulus"":""img/red_ll/6.jpg"",""time"":301},{""stimulus"":""img/red_ll/7.jpg"",""time"":351},{""stimulus"":""img/red_ll/8.jpg"",""time"":401},{""stimulus"":""img/red_ll/9.jpg"",""time"":451},{""stimulus"":""img/red_ll/10.jpg"",""time"":502},{""stimulus"":""img/red_ll/11.jpg"",""time"":551}]","[]"
"image-keyboard-response","162","140662","0.0-5.0-1.79","62715bfe8dcc19e21152dce0","bdp_lott","Mon Mar 27 2023 23:50:25 GMT-0500 (Central Daylight Time)","258553","red","green","","267","","","","choice","","img/red_ll/choose11.jpg","2","146","red","0.5","0.1","0.5","l","",""
"animation","163","141264","0.0-5.0-2.79","62715bfe8dcc19e21152dce0","bdp_lott","Mon Mar 27 2023 23:50:25 GMT-0500 (Central Daylight Time)","258553","red","green","","","","","","","","","","146","","","","","","[{""stimulus"":""img/red_ll/1.jpg"",""time"":51},{""stimulus"":""img/red_ll/2.jpg"",""time"":101},{""stimulus"":""img/red_ll/3.jpg"",""time"":150},{""stimulus"":""img/red_ll/4.jpg"",""time"":201},{""stimulus"":""img/red_ll/5.jpg"",""time"":251},{""stimulus"":""img/red_ll/6.jpg"",""time"":301},{""stimulus"":""img/red_ll/7.jpg"",""time"":351},{""stimulus"":""img/red_ll/8.jpg"",""time"":401},{""stimulus"":""img/red_ll/9.jpg"",""time"":451},{""stimulus"":""img/red_ll/10.jpg"",""time"":501},{""stimulus"":""img/red_ll/11.jpg"",""time"":550}]","[]"
"image-keyboard-response","164","141406","0.0-5.0-1.80","62715bfe8dcc19e21152dce0","bdp_lott","Mon Mar 27 2023 23:50:25 GMT-0500 (Central Daylight Time)","258553","red","green","","142","","","","choice","","img/red_ll/choose11.jpg","2","145","red","0.5","0.1","0.5","l","",""
"animation","165","142008","0.0-5.0-2.80","62715bfe8dcc19e21152dce0","bdp_lott","Mon Mar 27 2023 23:50:25 GMT-0500 (Central Daylight Time)","258553","red","green","","","","","","","","","","145","","","","","","[{""stimulus"":""img/red_ll/1.jpg"",""time"":50},{""stimulus"":""img/red_ll/2.jpg"",""time"":101},{""stimulus"":""img/red_ll/3.jpg"",""time"":151},{""stimulus"":""img/red_ll/4.jpg"",""time"":201},{""stimulus"":""img/red_ll/5.jpg"",""time"":251},{""stimulus"":""img/red_ll/6.jpg"",""time"":300},{""stimulus"":""img/red_ll/7.jpg"",""time"":350},{""stimulus"":""img/red_ll/8.jpg"",""time"":401},{""stimulus"":""img/red_ll/9.jpg"",""time"":451},{""stimulus"":""img/red_ll/10.jpg"",""time"":501},{""stimulus"":""img/red_ll/11.jpg"",""time"":551}]","[]"
"image-keyboard-response","166","142069","0.0-5.0-1.81","62715bfe8dcc19e21152dce0","bdp_lott","Mon Mar 27 2023 23:50:25 GMT-0500 (Central Daylight Time)","258553","red","green","","60","","","","choice","","img/red_ll/choose11.jpg","2","144","red","0.5","0.1","0.5","l","",""
"animation","167","142670","0.0-5.0-2.81","62715bfe8dcc19e21152dce0","bdp_lott","Mon Mar 27 2023 23:50:25 GMT-0500 (Central Daylight Time)","258553","red","green","","","","","","","","","","144","","","","","","[{""stimulus"":""img/red_ll/1.jpg"",""time"":51},{""stimulus"":""img/red_ll/2.jpg"",""time"":100},{""stimulus"":""img/red_ll/3.jpg"",""time"":150},{""stimulus"":""img/red_ll/4.jpg"",""time"":201},{""stimulus"":""img/red_ll/5.jpg"",""time"":251},{""stimulus"":""img/red_ll/6.jpg"",""time"":301},{""stimulus"":""img/red_ll/7.jpg"",""time"":350},{""stimulus"":""img/red_ll/8.jpg"",""time"":400},{""stimulus"":""img/red_ll/9.jpg"",""time"":451},{""stimulus"":""img/red_ll/10.jpg"",""time"":501},{""stimulus"":""img/red_ll/11.jpg"",""time"":551}]","[]"
"image-keyboard-response","168","142731","0.0-5.0-1.82","62715bfe8dcc19e21152dce0","bdp_lott","Mon Mar 27 2023 23:50:25 GMT-0500 (Central Daylight Time)","258553","red","green","","60","","","","choice","","img/red_ll/choose11.jpg","2","143","red","0.5","0.1","0.5","l","",""
"animation","169","143332","0.0-5.0-2.82","62715bfe8dcc19e21152dce0","bdp_lott","Mon Mar 27 2023 23:50:25 GMT-0500 (Central Daylight Time)","258553","red","green","","","","","","","","","","143","","","","","","[{""stimulus"":""img/red_ll/1.jpg"",""time"":51},{""stimulus"":""img/red_ll/2.jpg"",""time"":100},{""stimulus"":""img/red_ll/3.jpg"",""time"":151},{""stimulus"":""img/red_ll/4.jpg"",""time"":201},{""stimulus"":""img/red_ll/5.jpg"",""time"":251},{""stimulus"":""img/red_ll/6.jpg"",""time"":301},{""stimulus"":""img/red_ll/7.jpg"",""time"":350},{""stimulus"":""img/red_ll/8.jpg"",""time"":400},{""stimulus"":""img/red_ll/9.jpg"",""time"":451},{""stimulus"":""img/red_ll/10.jpg"",""time"":501},{""stimulus"":""img/red_ll/11.jpg"",""time"":551}]","[]"
"image-keyboard-response","170","143794","0.0-5.0-1.83","62715bfe8dcc19e21152dce0","bdp_lott","Mon Mar 27 2023 23:50:25 GMT-0500 (Central Daylight Time)","258553","red","green","","461","","","","choice","","img/red_ll/choose11.jpg","2","142","red","0.5","0.1","0.5","l","",""
"animation","171","144395","0.0-5.0-2.83","62715bfe8dcc19e21152dce0","bdp_lott","Mon Mar 27 2023 23:50:25 GMT-0500 (Central Daylight Time)","258553","red","green","","","","","","","","","","142","","","","","","[{""stimulus"":""img/red_ll/1.jpg"",""time"":51},{""stimulus"":""img/red_ll/2.jpg"",""time"":101},{""stimulus"":""img/red_ll/3.jpg"",""time"":151},{""stimulus"":""img/red_ll/4.jpg"",""time"":201},{""stimulus"":""img/red_ll/5.jpg"",""time"":251},{""stimulus"":""img/red_ll/6.jpg"",""time"":301},{""stimulus"":""img/red_ll/7.jpg"",""time"":351},{""stimulus"":""img/red_ll/8.jpg"",""time"":402},{""stimulus"":""img/red_ll/9.jpg"",""time"":451},{""stimulus"":""img/red_ll/10.jpg"",""time"":501},{""stimulus"":""img/red_ll/11.jpg"",""time"":551}]","[]"
"image-keyboard-response","172","144734","0.0-5.0-1.84","62715bfe8dcc19e21152dce0","bdp_lott","Mon Mar 27 2023 23:50:25 GMT-0500 (Central Daylight Time)","258553","red","green","","338","","","","choice","","img/red_ll/choose11.jpg","1","141","green","0.5","0.1","0.1","w","",""
"animation","173","145336","0.0-5.0-2.84","62715bfe8dcc19e21152dce0","bdp_lott","Mon Mar 27 2023 23:50:25 GMT-0500 (Central Daylight Time)","258553","red","green","","","","","","","","","","141","","","","","","[{""stimulus"":""img/green_wl/1.jpg"",""time"":51},{""stimulus"":""img/green_wl/2.jpg"",""time"":101},{""stimulus"":""img/green_wl/3.jpg"",""time"":150},{""stimulus"":""img/green_wl/4.jpg"",""time"":201},{""stimulus"":""img/green_wl/5.jpg"",""time"":250},{""stimulus"":""img/green_wl/6.jpg"",""time"":301},{""stimulus"":""img/green_wl/7.jpg"",""time"":350},{""stimulus"":""img/green_wl/8.jpg"",""time"":401},{""stimulus"":""img/green_wl/9.jpg"",""time"":451},{""stimulus"":""img/green_wl/10.jpg"",""time"":500},{""stimulus"":""img/green_wl/11.jpg"",""time"":551}]","[]"
"image-keyboard-response","174","145428","0.0-5.0-1.85","62715bfe8dcc19e21152dce0","bdp_lott","Mon Mar 27 2023 23:50:25 GMT-0500 (Central Daylight Time)","258553","red","green","","92","","","","choice","","img/green_wl/choose11.jpg","1","140","green","0.5","0.1","0.1","w","",""
"animation","175","146029","0.0-5.0-2.85","62715bfe8dcc19e21152dce0","bdp_lott","Mon Mar 27 2023 23:50:25 GMT-0500 (Central Daylight Time)","258553","red","green","","","","","","","","","","140","","","","","","[{""stimulus"":""img/green_wl/1.jpg"",""time"":52},{""stimulus"":""img/green_wl/2.jpg"",""time"":101},{""stimulus"":""img/green_wl/3.jpg"",""time"":152},{""stimulus"":""img/green_wl/4.jpg"",""time"":202},{""stimulus"":""img/green_wl/5.jpg"",""time"":251},{""stimulus"":""img/green_wl/6.jpg"",""time"":302},{""stimulus"":""img/green_wl/7.jpg"",""time"":352},{""stimulus"":""img/green_wl/8.jpg"",""time"":401},{""stimulus"":""img/green_wl/9.jpg"",""time"":451},{""stimulus"":""img/green_wl/10.jpg"",""time"":501},{""stimulus"":""img/green_wl/11.jpg"",""time"":551}]","[]"
"image-keyboard-response","176","146117","0.0-5.0-1.86","62715bfe8dcc19e21152dce0","bdp_lott","Mon Mar 27 2023 23:50:25 GMT-0500 (Central Daylight Time)","258553","red","green","","87","","","","choice","","img/green_wl/choose11.jpg","1","139","green","0.5","0.1","0.1","l","",""
"animation","177","146718","0.0-5.0-2.86","62715bfe8dcc19e21152dce0","bdp_lott","Mon Mar 27 2023 23:50:25 GMT-0500 (Central Daylight Time)","258553","red","green","","","","","","","","","","139","","","","","","[{""stimulus"":""img/green_ll/1.jpg"",""time"":50},{""stimulus"":""img/green_ll/2.jpg"",""time"":101},{""stimulus"":""img/green_ll/3.jpg"",""time"":151},{""stimulus"":""img/green_ll/4.jpg"",""time"":201},{""stimulus"":""img/green_ll/5.jpg"",""time"":250},{""stimulus"":""img/green_ll/6.jpg"",""time"":300},{""stimulus"":""img/green_ll/7.jpg"",""time"":351},{""stimulus"":""img/green_ll/8.jpg"",""time"":401},{""stimulus"":""img/green_ll/9.jpg"",""time"":451},{""stimulus"":""img/green_ll/10.jpg"",""time"":500},{""stimulus"":""img/green_ll/11.jpg"",""time"":551}]","[]"
"image-keyboard-response","178","146924","0.0-5.0-1.87","62715bfe8dcc19e21152dce0","bdp_lott","Mon Mar 27 2023 23:50:25 GMT-0500 (Central Daylight Time)","258553","red","green","","205","","","","choice","","img/green_ll/choose11.jpg","1","138","green","0.5","0.1","0.1","l","",""
"animation","179","147525","0.0-5.0-2.87","62715bfe8dcc19e21152dce0","bdp_lott","Mon Mar 27 2023 23:50:25 GMT-0500 (Central Daylight Time)","258553","red","green","","","","","","","","","","138","","","","","","[{""stimulus"":""img/green_ll/1.jpg"",""time"":51},{""stimulus"":""img/green_ll/2.jpg"",""time"":100},{""stimulus"":""img/green_ll/3.jpg"",""time"":151},{""stimulus"":""img/green_ll/4.jpg"",""time"":200},{""stimulus"":""img/green_ll/5.jpg"",""time"":250},{""stimulus"":""img/green_ll/6.jpg"",""time"":301},{""stimulus"":""img/green_ll/7.jpg"",""time"":350},{""stimulus"":""img/green_ll/8.jpg"",""time"":401},{""stimulus"":""img/green_ll/9.jpg"",""time"":451},{""stimulus"":""img/green_ll/10.jpg"",""time"":500},{""stimulus"":""img/green_ll/11.jpg"",""time"":550}]","[]"
"image-keyboard-response","180","147676","0.0-5.0-1.88","62715bfe8dcc19e21152dce0","bdp_lott","Mon Mar 27 2023 23:50:25 GMT-0500 (Central Daylight Time)","258553","red","green","","150","","","","choice","","img/green_ll/choose11.jpg","1","137","green","0.5","0.1","0.1","l","",""
"animation","181","148278","0.0-5.0-2.88","62715bfe8dcc19e21152dce0","bdp_lott","Mon Mar 27 2023 23:50:25 GMT-0500 (Central Daylight Time)","258553","red","green","","","","","","","","","","137","","","","","","[{""stimulus"":""img/green_ll/1.jpg"",""time"":51},{""stimulus"":""img/green_ll/2.jpg"",""time"":101},{""stimulus"":""img/green_ll/3.jpg"",""time"":151},{""stimulus"":""img/green_ll/4.jpg"",""time"":201},{""stimulus"":""img/green_ll/5.jpg"",""time"":251},{""stimulus"":""img/green_ll/6.jpg"",""time"":301},{""stimulus"":""img/green_ll/7.jpg"",""time"":351},{""stimulus"":""img/green_ll/8.jpg"",""time"":401},{""stimulus"":""img/green_ll/9.jpg"",""time"":451},{""stimulus"":""img/green_ll/10.jpg"",""time"":501},{""stimulus"":""img/green_ll/11.jpg"",""time"":551}]","[]"
"image-keyboard-response","182","148389","0.0-5.0-1.89","62715bfe8dcc19e21152dce0","bdp_lott","Mon Mar 27 2023 23:50:25 GMT-0500 (Central Daylight Time)","258553","red","green","","111","","","","choice","","img/green_ll/choose11.jpg","1","136","green","0.5","0.1","0.1","l","",""
"animation","183","148991","0.0-5.0-2.89","62715bfe8dcc19e21152dce0","bdp_lott","Mon Mar 27 2023 23:50:25 GMT-0500 (Central Daylight Time)","258553","red","green","","","","","","","","","","136","","","","","","[{""stimulus"":""img/green_ll/1.jpg"",""time"":51},{""stimulus"":""img/green_ll/2.jpg"",""time"":100},{""stimulus"":""img/green_ll/3.jpg"",""time"":151},{""stimulus"":""img/green_ll/4.jpg"",""time"":201},{""stimulus"":""img/green_ll/5.jpg"",""time"":250},{""stimulus"":""img/green_ll/6.jpg"",""time"":300},{""stimulus"":""img/green_ll/7.jpg"",""time"":350},{""stimulus"":""img/green_ll/8.jpg"",""time"":401},{""stimulus"":""img/green_ll/9.jpg"",""time"":450},{""stimulus"":""img/green_ll/10.jpg"",""time"":507},{""stimulus"":""img/green_ll/11.jpg"",""time"":550}]","[]"
"image-keyboard-response","184","149408","0.0-5.0-1.90","62715bfe8dcc19e21152dce0","bdp_lott","Mon Mar 27 2023 23:50:25 GMT-0500 (Central Daylight Time)","258553","red","green","","417","","","","choice","","img/green_ll/choose11.jpg","2","135","red","0.5","0.1","0.5","w","",""
"animation","185","150009","0.0-5.0-2.90","62715bfe8dcc19e21152dce0","bdp_lott","Mon Mar 27 2023 23:50:25 GMT-0500 (Central Daylight Time)","258553","red","green","","","","","","","","","","135","","","","","","[{""stimulus"":""img/red_lw/1.jpg"",""time"":50},{""stimulus"":""img/red_lw/2.jpg"",""time"":101},{""stimulus"":""img/red_lw/3.jpg"",""time"":151},{""stimulus"":""img/red_lw/4.jpg"",""time"":201},{""stimulus"":""img/red_lw/5.jpg"",""time"":251},{""stimulus"":""img/red_lw/6.jpg"",""time"":300},{""stimulus"":""img/red_lw/7.jpg"",""time"":351},{""stimulus"":""img/red_lw/8.jpg"",""time"":401},{""stimulus"":""img/red_lw/9.jpg"",""time"":451},{""stimulus"":""img/red_lw/10.jpg"",""time"":501},{""stimulus"":""img/red_lw/11.jpg"",""time"":551}]","[]"
"image-keyboard-response","186","150176","0.0-5.0-1.91","62715bfe8dcc19e21152dce0","bdp_lott","Mon Mar 27 2023 23:50:25 GMT-0500 (Central Daylight Time)","258553","red","green","","166","","","","choice","","img/red_lw/choose11.jpg","2","134","red","0.5","0.1","0.5","l","",""
"animation","187","150776","0.0-5.0-2.91","62715bfe8dcc19e21152dce0","bdp_lott","Mon Mar 27 2023 23:50:25 GMT-0500 (Central Daylight Time)","258553","red","green","","","","","","","","","","134","","","","","","[{""stimulus"":""img/red_ll/1.jpg"",""time"":51},{""stimulus"":""img/red_ll/2.jpg"",""time"":101},{""stimulus"":""img/red_ll/3.jpg"",""time"":151},{""stimulus"":""img/red_ll/4.jpg"",""time"":201},{""stimulus"":""img/red_ll/5.jpg"",""time"":251},{""stimulus"":""img/red_ll/6.jpg"",""time"":301},{""stimulus"":""img/red_ll/7.jpg"",""time"":352},{""stimulus"":""img/red_ll/8.jpg"",""time"":401},{""stimulus"":""img/red_ll/9.jpg"",""time"":452},{""stimulus"":""img/red_ll/10.jpg"",""time"":501},{""stimulus"":""img/red_ll/11.jpg"",""time"":551}]","[]"
"image-keyboard-response","188","151006","0.0-5.0-1.92","62715bfe8dcc19e21152dce0","bdp_lott","Mon Mar 27 2023 23:50:25 GMT-0500 (Central Daylight Time)","258553","red","green","","229","","","","choice","","img/red_ll/choose11.jpg","2","133","red","0.5","0.1","0.5","w","",""
"animation","189","151608","0.0-5.0-2.92","62715bfe8dcc19e21152dce0","bdp_lott","Mon Mar 27 2023 23:50:25 GMT-0500 (Central Daylight Time)","258553","red","green","","","","","","","","","","133","","","","","","[{""stimulus"":""img/red_lw/1.jpg"",""time"":51},{""stimulus"":""img/red_lw/2.jpg"",""time"":101},{""stimulus"":""img/red_lw/3.jpg"",""time"":151},{""stimulus"":""img/red_lw/4.jpg"",""time"":200},{""stimulus"":""img/red_lw/5.jpg"",""time"":251},{""stimulus"":""img/red_lw/6.jpg"",""time"":300},{""stimulus"":""img/red_lw/7.jpg"",""time"":351},{""stimulus"":""img/red_lw/8.jpg"",""time"":401},{""stimulus"":""img/red_lw/9.jpg"",""time"":452},{""stimulus"":""img/red_lw/10.jpg"",""time"":501},{""stimulus"":""img/red_lw/11.jpg"",""time"":552}]","[]"
"image-keyboard-response","190","151870","0.0-5.0-1.93","62715bfe8dcc19e21152dce0","bdp_lott","Mon Mar 27 2023 23:50:25 GMT-0500 (Central Daylight Time)","258553","red","green","","261","","","","choice","","img/red_lw/choose11.jpg","2","132","red","0.5","0.1","0.5","l","",""
