"event","trial","time","trialtype","subject_id","task","startTime","totalTime","fairMachine","unfairMachine","trial_type","trial_index","time_elapsed","internal_node_id","view_history","rt","success","stimulus","key_press","roundsLeft","chosen","pFairMachWin","pUnfairMachWin","pTrialWin","outcome","animation_sequence","responses"
"focus","0","0","focusevent","63d404f4eaf69448ef9e09e6","bdp_lott","Tue Mar 28 2023 20:13:14 GMT-0700 (Pacific Daylight Time)","305458","green","red","","","","","","","","","","","","","","","","",""
"","","","","63d404f4eaf69448ef9e09e6","bdp_lott","Tue Mar 28 2023 20:13:14 GMT-0700 (Pacific Daylight Time)","305458","green","red","pavlovia","0","7","0.0-0.0","","","","","","","","","","","","",""
"","","","","63d404f4eaf69448ef9e09e6","bdp_lott","Tue Mar 28 2023 20:13:14 GMT-0700 (Pacific Daylight Time)","305458","green","red","instructions","1","5399","0.0-1.0","[{""page_index"":0,""viewing_time"":5390}]","5391","","","","","","","","","","",""
"fullscreenexit","2","8449","fullscreenexit","63d404f4eaf69448ef9e09e6","bdp_lott","Tue Mar 28 2023 20:13:14 GMT-0700 (Pacific Daylight Time)","305458","green","red","","","","","","","","","","","","","","","","",""
"","","","","63d404f4eaf69448ef9e09e6","bdp_lott","Tue Mar 28 2023 20:13:14 GMT-0700 (Pacific Daylight Time)","305458","green","red","fullscreen","2","9238","0.0-2.0","","","true","","","","","","","","","",""
"","","","fullscreenfail","63d404f4eaf69448ef9e09e6","bdp_lott","Tue Mar 28 2023 20:13:14 GMT-0700 (Pacific Daylight Time)","305458","green","red","image-keyboard-response","3","12710","0.0-3.0-0.0","","3469","","","32","","","","","","","",""
"","","","","63d404f4eaf69448ef9e09e6","bdp_lott","Tue Mar 28 2023 20:13:14 GMT-0700 (Pacific Daylight Time)","305458","green","red","instructions","4","46542","0.0-4.0","[{""page_index"":0,""viewing_time"":33574}]","33574","","","","","","","","","","",""
"","","","choice","63d404f4eaf69448ef9e09e6","bdp_lott","Tue Mar 28 2023 20:13:14 GMT-0700 (Pacific Daylight Time)","305458","green","red","image-keyboard-response","5","49526","0.0-5.0-1.0","","2983","","img/red_ll/initchoose11.jpg","2","225","red","0.5","0.5","0.5","l","",""
"","","","","63d404f4eaf69448ef9e09e6","bdp_lott","Tue Mar 28 2023 20:13:14 GMT-0700 (Pacific Daylight Time)","305458","green","red","animation","6","50290","0.0-5.0-2.0","","","","","","225","","","","","","[{""stimulus"":""img/red_ll/1.jpg"",""time"":65},{""stimulus"":""img/red_ll/2.jpg"",""time"":128},{""stimulus"":""img/red_ll/3.jpg"",""time"":191},{""stimulus"":""img/red_ll/4.jpg"",""time"":255},{""stimulus"":""img/red_ll/5.jpg"",""time"":318},{""stimulus"":""img/red_ll/6.jpg"",""time"":382},{""stimulus"":""img/red_ll/7.jpg"",""time"":446},{""stimulus"":""img/red_ll/8.jpg"",""time"":509},{""stimulus"":""img/red_ll/9.jpg"",""time"":573},{""stimulus"":""img/red_ll/10.jpg"",""time"":635},{""stimulus"":""img/red_ll/11.jpg"",""time"":699}]","[]"
"","","","choice","63d404f4eaf69448ef9e09e6","bdp_lott","Tue Mar 28 2023 20:13:14 GMT-0700 (Pacific Daylight Time)","305458","green","red","image-keyboard-response","7","51990","0.0-5.0-1.1","","1699","","img/red_ll/choose11.jpg","1","224","green","0.5","0.5","0.5","l","",""
"","","","","63d404f4eaf69448ef9e09e6","bdp_lott","Tue Mar 28 2023 20:13:14 GMT-0700 (Pacific Daylight Time)","305458","green","red","animation","8","52754","0.0-5.0-2.1","","","","","","224","","","","","","[{""stimulus"":""img/green_ll/1.jpg"",""time"":62},{""stimulus"":""img/green_ll/2.jpg"",""time"":125},{""stimulus"":""img/green_ll/3.jpg"",""time"":187},{""stimulus"":""img/green_ll/4.jpg"",""time"":253},{""stimulus"":""img/green_ll/5.jpg"",""time"":316},{""stimulus"":""img/green_ll/6.jpg"",""time"":381},{""stimulus"":""img/green_ll/7.jpg"",""time"":443},{""stimulus"":""img/green_ll/8.jpg"",""time"":509},{""stimulus"":""img/green_ll/9.jpg"",""time"":573},{""stimulus"":""img/green_ll/10.jpg"",""time"":636},{""stimulus"":""img/green_ll/11.jpg"",""time"":700}]","[]"
"","","","choice","63d404f4eaf69448ef9e09e6","bdp_lott","Tue Mar 28 2023 20:13:14 GMT-0700 (Pacific Daylight Time)","305458","green","red","image-keyboard-response","9","54678","0.0-5.0-1.2","","1923","","img/green_ll/choose11.jpg","1","223","green","0.5","0.5","0.5","w","",""
"","","","","63d404f4eaf69448ef9e09e6","bdp_lott","Tue Mar 28 2023 20:13:14 GMT-0700 (Pacific Daylight Time)","305458","green","red","animation","10","55432","0.0-5.0-2.2","","","","","","223","","","","","","[{""stimulus"":""img/green_wl/1.jpg"",""time"":52},{""stimulus"":""img/green_wl/2.jpg"",""time"":116},{""stimulus"":""img/green_wl/3.jpg"",""time"":180},{""stimulus"":""img/green_wl/4.jpg"",""time"":243},{""stimulus"":""img/green_wl/5.jpg"",""time"":307},{""stimulus"":""img/green_wl/6.jpg"",""time"":370},{""stimulus"":""img/green_wl/7.jpg"",""time"":433},{""stimulus"":""img/green_wl/8.jpg"",""time"":498},{""stimulus"":""img/green_wl/9.jpg"",""time"":562},{""stimulus"":""img/green_wl/10.jpg"",""time"":626},{""stimulus"":""img/green_wl/11.jpg"",""time"":690}]","[]"
"","","","choice","63d404f4eaf69448ef9e09e6","bdp_lott","Tue Mar 28 2023 20:13:14 GMT-0700 (Pacific Daylight Time)","305458","green","red","image-keyboard-response","11","57509","0.0-5.0-1.3","","2077","","img/green_wl/choose11.jpg","1","222","green","0.5","0.5","0.5","w","",""
"","","","","63d404f4eaf69448ef9e09e6","bdp_lott","Tue Mar 28 2023 20:13:14 GMT-0700 (Pacific Daylight Time)","305458","green","red","animation","12","58268","0.0-5.0-2.3","","","","","","222","","","","","","[{""stimulus"":""img/green_wl/1.jpg"",""time"":60},{""stimulus"":""img/green_wl/2.jpg"",""time"":124},{""stimulus"":""img/green_wl/3.jpg"",""time"":188},{""stimulus"":""img/green_wl/4.jpg"",""time"":252},{""stimulus"":""img/green_wl/5.jpg"",""time"":315},{""stimulus"":""img/green_wl/6.jpg"",""time"":378},{""stimulus"":""img/green_wl/7.jpg"",""time"":443},{""stimulus"":""img/green_wl/8.jpg"",""time"":506},{""stimulus"":""img/green_wl/9.jpg"",""time"":569},{""stimulus"":""img/green_wl/10.jpg"",""time"":633},{""stimulus"":""img/green_wl/11.jpg"",""time"":697}]","[]"
"","","","choice","63d404f4eaf69448ef9e09e6","bdp_lott","Tue Mar 28 2023 20:13:14 GMT-0700 (Pacific Daylight Time)","305458","green","red","image-keyboard-response","13","59582","0.0-5.0-1.4","","1313","","img/green_wl/choose11.jpg","1","221","green","0.5","0.5","0.5","w","",""
"","","","","63d404f4eaf69448ef9e09e6","bdp_lott","Tue Mar 28 2023 20:13:14 GMT-0700 (Pacific Daylight Time)","305458","green","red","animation","14","60335","0.0-5.0-2.4","","","","","","221","","","","","","[{""stimulus"":""img/green_wl/1.jpg"",""time"":51},{""stimulus"":""img/green_wl/2.jpg"",""time"":115},{""stimulus"":""img/green_wl/3.jpg"",""time"":180},{""stimulus"":""img/green_wl/4.jpg"",""time"":243},{""stimulus"":""img/green_wl/5.jpg"",""time"":307},{""stimulus"":""img/green_wl/6.jpg"",""time"":372},{""stimulus"":""img/green_wl/7.jpg"",""time"":436},{""stimulus"":""img/green_wl/8.jpg"",""time"":499},{""stimulus"":""img/green_wl/9.jpg"",""time"":561},{""stimulus"":""img/green_wl/10.jpg"",""time"":625},{""stimulus"":""img/green_wl/11.jpg"",""time"":689}]","[]"
"","","","choice","63d404f4eaf69448ef9e09e6","bdp_lott","Tue Mar 28 2023 20:13:14 GMT-0700 (Pacific Daylight Time)","305458","green","red","image-keyboard-response","15","61054","0.0-5.0-1.5","","718","","img/green_wl/choose11.jpg","1","220","green","0.5","0.5","0.5","l","",""
"","","","","63d404f4eaf69448ef9e09e6","bdp_lott","Tue Mar 28 2023 20:13:14 GMT-0700 (Pacific Daylight Time)","305458","green","red","animation","16","61814","0.0-5.0-2.5","","","","","","220","","","","","","[{""stimulus"":""img/green_ll/1.jpg"",""time"":57},{""stimulus"":""img/green_ll/2.jpg"",""time"":121},{""stimulus"":""img/green_ll/3.jpg"",""time"":185},{""stimulus"":""img/green_ll/4.jpg"",""time"":249},{""stimulus"":""img/green_ll/5.jpg"",""time"":313},{""stimulus"":""img/green_ll/6.jpg"",""time"":377},{""stimulus"":""img/green_ll/7.jpg"",""time"":442},{""stimulus"":""img/green_ll/8.jpg"",""time"":505},{""stimulus"":""img/green_ll/9.jpg"",""time"":569},{""stimulus"":""img/green_ll/10.jpg"",""time"":633},{""stimulus"":""img/green_ll/11.jpg"",""time"":697}]","[]"
"","","","choice","63d404f4eaf69448ef9e09e6","bdp_lott","Tue Mar 28 2023 20:13:14 GMT-0700 (Pacific Daylight Time)","305458","green","red","image-keyboard-response","17","63045","0.0-5.0-1.6","","1230","","img/green_ll/choose11.jpg","1","219","green","0.5","0.5","0.5","w","",""
"","","","","63d404f4eaf69448ef9e09e6","bdp_lott","Tue Mar 28 2023 20:13:14 GMT-0700 (Pacific Daylight Time)","305458","green","red","animation","18","63809","0.0-5.0-2.6","","","","","","219","","","","","","[{""stimulus"":""img/green_wl/1.jpg"",""time"":60},{""stimulus"":""img/green_wl/2.jpg"",""time"":123},{""stimulus"":""img/green_wl/3.jpg"",""time"":188},{""stimulus"":""img/green_wl/4.jpg"",""time"":252},{""stimulus"":""img/green_wl/5.jpg"",""time"":316},{""stimulus"":""img/green_wl/6.jpg"",""time"":380},{""stimulus"":""img/green_wl/7.jpg"",""time"":443},{""stimulus"":""img/green_wl/8.jpg"",""time"":508},{""stimulus"":""img/green_wl/9.jpg"",""time"":571},{""stimulus"":""img/green_wl/10.jpg"",""time"":635},{""stimulus"":""img/green_wl/11.jpg"",""time"":699}]","[]"
"","","","choice","63d404f4eaf69448ef9e09e6","bdp_lott","Tue Mar 28 2023 20:13:14 GMT-0700 (Pacific Daylight Time)","305458","green","red","image-keyboard-response","19","64566","0.0-5.0-1.7","","755","","img/green_wl/choose11.jpg","1","218","green","0.5","0.5","0.5","l","",""
"","","","","63d404f4eaf69448ef9e09e6","bdp_lott","Tue Mar 28 2023 20:13:14 GMT-0700 (Pacific Daylight Time)","305458","green","red","animation","20","65324","0.0-5.0-2.7","","","","","","218","","","","","","[{""stimulus"":""img/green_ll/1.jpg"",""time"":54},{""stimulus"":""img/green_ll/2.jpg"",""time"":118},{""stimulus"":""img/green_ll/3.jpg"",""time"":183},{""stimulus"":""img/green_ll/4.jpg"",""time"":246},{""stimulus"":""img/green_ll/5.jpg"",""time"":311},{""stimulus"":""img/green_ll/6.jpg"",""time"":375},{""stimulus"":""img/green_ll/7.jpg"",""time"":439},{""stimulus"":""img/green_ll/8.jpg"",""time"":504},{""stimulus"":""img/green_ll/9.jpg"",""time"":567},{""stimulus"":""img/green_ll/10.jpg"",""time"":630},{""stimulus"":""img/green_ll/11.jpg"",""time"":694}]","[]"
"","","","choice","63d404f4eaf69448ef9e09e6","bdp_lott","Tue Mar 28 2023 20:13:14 GMT-0700 (Pacific Daylight Time)","305458","green","red","image-keyboard-response","21","66158","0.0-5.0-1.8","","833","","img/green_ll/choose11.jpg","1","217","green","0.5","0.5","0.5","w","",""
"","","","","63d404f4eaf69448ef9e09e6","bdp_lott","Tue Mar 28 2023 20:13:14 GMT-0700 (Pacific Daylight Time)","305458","green","red","animation","22","66923","0.0-5.0-2.8","","","","","","217","","","","","","[{""stimulus"":""img/green_wl/1.jpg"",""time"":63},{""stimulus"":""img/green_wl/2.jpg"",""time"":128},{""stimulus"":""img/green_wl/3.jpg"",""time"":191},{""stimulus"":""img/green_wl/4.jpg"",""time"":255},{""stimulus"":""img/green_wl/5.jpg"",""time"":319},{""stimulus"":""img/green_wl/6.jpg"",""time"":383},{""stimulus"":""img/green_wl/7.jpg"",""time"":446},{""stimulus"":""img/green_wl/8.jpg"",""time"":512},{""stimulus"":""img/green_wl/9.jpg"",""time"":574},{""stimulus"":""img/green_wl/10.jpg"",""time"":638},{""stimulus"":""img/green_wl/11.jpg"",""time"":701}]","[]"
"","","","choice","63d404f4eaf69448ef9e09e6","bdp_lott","Tue Mar 28 2023 20:13:14 GMT-0700 (Pacific Daylight Time)","305458","green","red","image-keyboard-response","23","67646","0.0-5.0-1.9","","723","","img/green_wl/choose11.jpg","1","216","green","0.5","0.5","0.5","l","",""
"","","","","63d404f4eaf69448ef9e09e6","bdp_lott","Tue Mar 28 2023 20:13:14 GMT-0700 (Pacific Daylight Time)","305458","green","red","animation","24","68403","0.0-5.0-2.9","","","","","","216","","","","","","[{""stimulus"":""img/green_ll/1.jpg"",""time"":61},{""stimulus"":""img/green_ll/2.jpg"",""time"":124},{""stimulus"":""img/green_ll/3.jpg"",""time"":187},{""stimulus"":""img/green_ll/4.jpg"",""time"":251},{""stimulus"":""img/green_ll/5.jpg"",""time"":315},{""stimulus"":""img/green_ll/6.jpg"",""time"":379},{""stimulus"":""img/green_ll/7.jpg"",""time"":442},{""stimulus"":""img/green_ll/8.jpg"",""time"":505},{""stimulus"":""img/green_ll/9.jpg"",""time"":566},{""stimulus"":""img/green_ll/10.jpg"",""time"":629},{""stimulus"":""img/green_ll/11.jpg"",""time"":693}]","[]"
"","","","choice","63d404f4eaf69448ef9e09e6","bdp_lott","Tue Mar 28 2023 20:13:14 GMT-0700 (Pacific Daylight Time)","305458","green","red","image-keyboard-response","25","69133","0.0-5.0-1.10","","729","","img/green_ll/choose11.jpg","1","215","green","0.5","0.5","0.5","l","",""
"","","","","63d404f4eaf69448ef9e09e6","bdp_lott","Tue Mar 28 2023 20:13:14 GMT-0700 (Pacific Daylight Time)","305458","green","red","animation","26","69899","0.0-5.0-2.10","","","","","","215","","","","","","[{""stimulus"":""img/green_ll/1.jpg"",""time"":64},{""stimulus"":""img/green_ll/2.jpg"",""time"":128},{""stimulus"":""img/green_ll/3.jpg"",""time"":192},{""stimulus"":""img/green_ll/4.jpg"",""time"":256},{""stimulus"":""img/green_ll/5.jpg"",""time"":320},{""stimulus"":""img/green_ll/6.jpg"",""time"":383},{""stimulus"":""img/green_ll/7.jpg"",""time"":447},{""stimulus"":""img/green_ll/8.jpg"",""time"":510},{""stimulus"":""img/green_ll/9.jpg"",""time"":574},{""stimulus"":""img/green_ll/10.jpg"",""time"":638},{""stimulus"":""img/green_ll/11.jpg"",""time"":702}]","[]"
"","","","choice","63d404f4eaf69448ef9e09e6","bdp_lott","Tue Mar 28 2023 20:13:14 GMT-0700 (Pacific Daylight Time)","305458","green","red","image-keyboard-response","27","70366","0.0-5.0-1.11","","467","","img/green_ll/choose11.jpg","1","214","green","0.5","0.5","0.5","w","",""
"","","","","63d404f4eaf69448ef9e09e6","bdp_lott","Tue Mar 28 2023 20:13:14 GMT-0700 (Pacific Daylight Time)","305458","green","red","animation","28","71123","0.0-5.0-2.11","","","","","","214","","","","","","[{""stimulus"":""img/green_wl/1.jpg"",""time"":58},{""stimulus"":""img/green_wl/2.jpg"",""time"":121},{""stimulus"":""img/green_wl/3.jpg"",""time"":185},{""stimulus"":""img/green_wl/4.jpg"",""time"":249},{""stimulus"":""img/green_wl/5.jpg"",""time"":313},{""stimulus"":""img/green_wl/6.jpg"",""time"":376},{""stimulus"":""img/green_wl/7.jpg"",""time"":439},{""stimulus"":""img/green_wl/8.jpg"",""time"":502},{""stimulus"":""img/green_wl/9.jpg"",""time"":565},{""stimulus"":""img/green_wl/10.jpg"",""time"":629},{""stimulus"":""img/green_wl/11.jpg"",""time"":693}]","[]"
"","","","choice","63d404f4eaf69448ef9e09e6","bdp_lott","Tue Mar 28 2023 20:13:14 GMT-0700 (Pacific Daylight Time)","305458","green","red","image-keyboard-response","29","71749","0.0-5.0-1.12","","626","","img/green_wl/choose11.jpg","1","213","green","0.5","0.5","0.5","l","",""
"","","","","63d404f4eaf69448ef9e09e6","bdp_lott","Tue Mar 28 2023 20:13:14 GMT-0700 (Pacific Daylight Time)","305458","green","red","animation","30","72510","0.0-5.0-2.12","","","","","","213","","","","","","[{""stimulus"":""img/green_ll/1.jpg"",""time"":61},{""stimulus"":""img/green_ll/2.jpg"",""time"":124},{""stimulus"":""img/green_ll/3.jpg"",""time"":188},{""stimulus"":""img/green_ll/4.jpg"",""time"":252},{""stimulus"":""img/green_ll/5.jpg"",""time"":315},{""stimulus"":""img/green_ll/6.jpg"",""time"":378},{""stimulus"":""img/green_ll/7.jpg"",""time"":441},{""stimulus"":""img/green_ll/8.jpg"",""time"":505},{""stimulus"":""img/green_ll/9.jpg"",""time"":569},{""stimulus"":""img/green_ll/10.jpg"",""time"":633},{""stimulus"":""img/green_ll/11.jpg"",""time"":697}]","[]"
"","","","choice","63d404f4eaf69448ef9e09e6","bdp_lott","Tue Mar 28 2023 20:13:14 GMT-0700 (Pacific Daylight Time)","305458","green","red","image-keyboard-response","31","72925","0.0-5.0-1.13","","415","","img/green_ll/choose11.jpg","1","212","green","0.5","0.5","0.5","w","",""
"","","","","63d404f4eaf69448ef9e09e6","bdp_lott","Tue Mar 28 2023 20:13:14 GMT-0700 (Pacific Daylight Time)","305458","green","red","animation","32","73690","0.0-5.0-2.13","","","","","","212","","","","","","[{""stimulus"":""img/green_wl/1.jpg"",""time"":62},{""stimulus"":""img/green_wl/2.jpg"",""time"":127},{""stimulus"":""img/green_wl/3.jpg"",""time"":190},{""stimulus"":""img/green_wl/4.jpg"",""time"":255},{""stimulus"":""img/green_wl/5.jpg"",""time"":319},{""stimulus"":""img/green_wl/6.jpg"",""time"":383},{""stimulus"":""img/green_wl/7.jpg"",""time"":446},{""stimulus"":""img/green_wl/8.jpg"",""time"":510},{""stimulus"":""img/green_wl/9.jpg"",""time"":574},{""stimulus"":""img/green_wl/10.jpg"",""time"":638},{""stimulus"":""img/green_wl/11.jpg"",""time"":702}]","[]"
"","","","choice","63d404f4eaf69448ef9e09e6","bdp_lott","Tue Mar 28 2023 20:13:14 GMT-0700 (Pacific Daylight Time)","305458","green","red","image-keyboard-response","33","74277","0.0-5.0-1.14","","587","","img/green_wl/choose11.jpg","1","211","green","0.5","0.5","0.5","l","",""
"","","","","63d404f4eaf69448ef9e09e6","bdp_lott","Tue Mar 28 2023 20:13:14 GMT-0700 (Pacific Daylight Time)","305458","green","red","animation","34","75043","0.0-5.0-2.14","","","","","","211","","","","","","[{""stimulus"":""img/green_ll/1.jpg"",""time"":67},{""stimulus"":""img/green_ll/2.jpg"",""time"":130},{""stimulus"":""img/green_ll/3.jpg"",""time"":194},{""stimulus"":""img/green_ll/4.jpg"",""time"":259},{""stimulus"":""img/green_ll/5.jpg"",""time"":322},{""stimulus"":""img/green_ll/6.jpg"",""time"":387},{""stimulus"":""img/green_ll/7.jpg"",""time"":451},{""stimulus"":""img/green_ll/8.jpg"",""time"":515},{""stimulus"":""img/green_ll/9.jpg"",""time"":578},{""stimulus"":""img/green_ll/10.jpg"",""time"":641},{""stimulus"":""img/green_ll/11.jpg"",""time"":704}]","[]"
"","","","choice","63d404f4eaf69448ef9e09e6","bdp_lott","Tue Mar 28 2023 20:13:14 GMT-0700 (Pacific Daylight Time)","305458","green","red","image-keyboard-response","35","75430","0.0-5.0-1.15","","387","","img/green_ll/choose11.jpg","1","210","green","0.5","0.5","0.5","w","",""
"","","","","63d404f4eaf69448ef9e09e6","bdp_lott","Tue Mar 28 2023 20:13:14 GMT-0700 (Pacific Daylight Time)","305458","green","red","animation","36","76175","0.0-5.0-2.15","","","","","","210","","","","","","[{""stimulus"":""img/green_wl/1.jpg"",""time"":53},{""stimulus"":""img/green_wl/2.jpg"",""time"":115},{""stimulus"":""img/green_wl/3.jpg"",""time"":178},{""stimulus"":""img/green_wl/4.jpg"",""time"":241},{""stimulus"":""img/green_wl/5.jpg"",""time"":304},{""stimulus"":""img/green_wl/6.jpg"",""time"":368},{""stimulus"":""img/green_wl/7.jpg"",""time"":429},{""stimulus"":""img/green_wl/8.jpg"",""time"":492},{""stimulus"":""img/green_wl/9.jpg"",""time"":556},{""stimulus"":""img/green_wl/10.jpg"",""time"":620},{""stimulus"":""img/green_wl/11.jpg"",""time"":682}]","[]"
"","","","choice","63d404f4eaf69448ef9e09e6","bdp_lott","Tue Mar 28 2023 20:13:14 GMT-0700 (Pacific Daylight Time)","305458","green","red","image-keyboard-response","37","76718","0.0-5.0-1.16","","543","","img/green_wl/choose11.jpg","1","209","green","0.5","0.5","0.5","l","",""
"","","","","63d404f4eaf69448ef9e09e6","bdp_lott","Tue Mar 28 2023 20:13:14 GMT-0700 (Pacific Daylight Time)","305458","green","red","animation","38","77463","0.0-5.0-2.16","","","","","","209","","","","","","[{""stimulus"":""img/green_ll/1.jpg"",""time"":53},{""stimulus"":""img/green_ll/2.jpg"",""time"":116},{""stimulus"":""img/green_ll/3.jpg"",""time"":179},{""stimulus"":""img/green_ll/4.jpg"",""time"":241},{""stimulus"":""img/green_ll/5.jpg"",""time"":304},{""stimulus"":""img/green_ll/6.jpg"",""time"":368},{""stimulus"":""img/green_ll/7.jpg"",""time"":430},{""stimulus"":""img/green_ll/8.jpg"",""time"":493},{""stimulus"":""img/green_ll/9.jpg"",""time"":555},{""stimulus"":""img/green_ll/10.jpg"",""time"":618},{""stimulus"":""img/green_ll/11.jpg"",""time"":681}]","[]"
"","","","choice","63d404f4eaf69448ef9e09e6","bdp_lott","Tue Mar 28 2023 20:13:14 GMT-0700 (Pacific Daylight Time)","305458","green","red","image-keyboard-response","39","77934","0.0-5.0-1.17","","471","","img/green_ll/choose11.jpg","1","208","green","0.5","0.5","0.5","l","",""
"","","","","63d404f4eaf69448ef9e09e6","bdp_lott","Tue Mar 28 2023 20:13:14 GMT-0700 (Pacific Daylight Time)","305458","green","red","animation","40","78689","0.0-5.0-2.17","","","","","","208","","","","","","[{""stimulus"":""img/green_ll/1.jpg"",""time"":64},{""stimulus"":""img/green_ll/2.jpg"",""time"":127},{""stimulus"":""img/green_ll/3.jpg"",""time"":190},{""stimulus"":""img/green_ll/4.jpg"",""time"":253},{""stimulus"":""img/green_ll/5.jpg"",""time"":315},{""stimulus"":""img/green_ll/6.jpg"",""time"":378},{""stimulus"":""img/green_ll/7.jpg"",""time"":440},{""stimulus"":""img/green_ll/8.jpg"",""time"":503},{""stimulus"":""img/green_ll/9.jpg"",""time"":567},{""stimulus"":""img/green_ll/10.jpg"",""time"":630},{""stimulus"":""img/green_ll/11.jpg"",""time"":693}]","[]"
"","","","choice","63d404f4eaf69448ef9e09e6","bdp_lott","Tue Mar 28 2023 20:13:14 GMT-0700 (Pacific Daylight Time)","305458","green","red","image-keyboard-response","41","79550","0.0-5.0-1.18","","860","","img/green_ll/choose11.jpg","2","207","red","0.5","0.5","0.5","l","",""
"","","","","63d404f4eaf69448ef9e09e6","bdp_lott","Tue Mar 28 2023 20:13:14 GMT-0700 (Pacific Daylight Time)","305458","green","red","animation","42","80309","0.0-5.0-2.18","","","","","","207","","","","","","[{""stimulus"":""img/red_ll/1.jpg"",""time"":65},{""stimulus"":""img/red_ll/2.jpg"",""time"":129},{""stimulus"":""img/red_ll/3.jpg"",""time"":191},{""stimulus"":""img/red_ll/4.jpg"",""time"":254},{""stimulus"":""img/red_ll/5.jpg"",""time"":317},{""stimulus"":""img/red_ll/6.jpg"",""time"":380},{""stimulus"":""img/red_ll/7.jpg"",""time"":443},{""stimulus"":""img/red_ll/8.jpg"",""time"":506},{""stimulus"":""img/red_ll/9.jpg"",""time"":569},{""stimulus"":""img/red_ll/10.jpg"",""time"":632},{""stimulus"":""img/red_ll/11.jpg"",""time"":695}]","[]"
"","","","choice","63d404f4eaf69448ef9e09e6","bdp_lott","Tue Mar 28 2023 20:13:14 GMT-0700 (Pacific Daylight Time)","305458","green","red","image-keyboard-response","43","80693","0.0-5.0-1.19","","384","","img/red_ll/choose11.jpg","2","206","red","0.5","0.5","0.5","w","",""
"","","","","63d404f4eaf69448ef9e09e6","bdp_lott","Tue Mar 28 2023 20:13:14 GMT-0700 (Pacific Daylight Time)","305458","green","red","animation","44","81437","0.0-5.0-2.19","","","","","","206","","","","","","[{""stimulus"":""img/red_lw/1.jpg"",""time"":56},{""stimulus"":""img/red_lw/2.jpg"",""time"":119},{""stimulus"":""img/red_lw/3.jpg"",""time"":182},{""stimulus"":""img/red_lw/4.jpg"",""time"":244},{""stimulus"":""img/red_lw/5.jpg"",""time"":306},{""stimulus"":""img/red_lw/6.jpg"",""time"":369},{""stimulus"":""img/red_lw/7.jpg"",""time"":432},{""stimulus"":""img/red_lw/8.jpg"",""time"":495},{""stimulus"":""img/red_lw/9.jpg"",""time"":559},{""stimulus"":""img/red_lw/10.jpg"",""time"":621},{""stimulus"":""img/red_lw/11.jpg"",""time"":682}]","[]"
"","","","choice","63d404f4eaf69448ef9e09e6","bdp_lott","Tue Mar 28 2023 20:13:14 GMT-0700 (Pacific Daylight Time)","305458","green","red","image-keyboard-response","45","82198","0.0-5.0-1.20","","760","","img/red_lw/choose11.jpg","2","205","red","0.5","0.5","0.5","w","",""
"","","","","63d404f4eaf69448ef9e09e6","bdp_lott","Tue Mar 28 2023 20:13:14 GMT-0700 (Pacific Daylight Time)","305458","green","red","animation","46","82941","0.0-5.0-2.20","","","","","","205","","","","","","[{""stimulus"":""img/red_lw/1.jpg"",""time"":57},{""stimulus"":""img/red_lw/2.jpg"",""time"":120},{""stimulus"":""img/red_lw/3.jpg"",""time"":178},{""stimulus"":""img/red_lw/4.jpg"",""time"":241},{""stimulus"":""img/red_lw/5.jpg"",""time"":303},{""stimulus"":""img/red_lw/6.jpg"",""time"":366},{""stimulus"":""img/red_lw/7.jpg"",""time"":429},{""stimulus"":""img/red_lw/8.jpg"",""time"":492},{""stimulus"":""img/red_lw/9.jpg"",""time"":555},{""stimulus"":""img/red_lw/10.jpg"",""time"":618},{""stimulus"":""img/red_lw/11.jpg"",""time"":680}]","[]"
"","","","choice","63d404f4eaf69448ef9e09e6","bdp_lott","Tue Mar 28 2023 20:13:14 GMT-0700 (Pacific Daylight Time)","305458","green","red","image-keyboard-response","47","83559","0.0-5.0-1.21","","616","","img/red_lw/choose11.jpg","2","204","red","0.5","0.5","0.5","w","",""
"","","","","63d404f4eaf69448ef9e09e6","bdp_lott","Tue Mar 28 2023 20:13:14 GMT-0700 (Pacific Daylight Time)","305458","green","red","animation","48","84305","0.0-5.0-2.21","","","","","","204","","","","","","[{""stimulus"":""img/red_lw/1.jpg"",""time"":55},{""stimulus"":""img/red_lw/2.jpg"",""time"":118},{""stimulus"":""img/red_lw/3.jpg"",""time"":181},{""stimulus"":""img/red_lw/4.jpg"",""time"":244},{""stimulus"":""img/red_lw/5.jpg"",""time"":306},{""stimulus"":""img/red_lw/6.jpg"",""time"":369},{""stimulus"":""img/red_lw/7.jpg"",""time"":433},{""stimulus"":""img/red_lw/8.jpg"",""time"":495},{""stimulus"":""img/red_lw/9.jpg"",""time"":557},{""stimulus"":""img/red_lw/10.jpg"",""time"":620},{""stimulus"":""img/red_lw/11.jpg"",""time"":684}]","[]"
"","","","choice","63d404f4eaf69448ef9e09e6","bdp_lott","Tue Mar 28 2023 20:13:14 GMT-0700 (Pacific Daylight Time)","305458","green","red","image-keyboard-response","49","84781","0.0-5.0-1.22","","475","","img/red_lw/choose11.jpg","2","203","red","0.5","0.5","0.5","w","",""
"","","","","63d404f4eaf69448ef9e09e6","bdp_lott","Tue Mar 28 2023 20:13:14 GMT-0700 (Pacific Daylight Time)","305458","green","red","animation","50","85529","0.0-5.0-2.22","","","","","","203","","","","","","[{""stimulus"":""img/red_lw/1.jpg"",""time"":58},{""stimulus"":""img/red_lw/2.jpg"",""time"":120},{""stimulus"":""img/red_lw/3.jpg"",""time"":184},{""stimulus"":""img/red_lw/4.jpg"",""time"":246},{""stimulus"":""img/red_lw/5.jpg"",""time"":309},{""stimulus"":""img/red_lw/6.jpg"",""time"":372},{""stimulus"":""img/red_lw/7.jpg"",""time"":435},{""stimulus"":""img/red_lw/8.jpg"",""time"":498},{""stimulus"":""img/red_lw/9.jpg"",""time"":561},{""stimulus"":""img/red_lw/10.jpg"",""time"":624},{""stimulus"":""img/red_lw/11.jpg"",""time"":685}]","[]"
"","","","choice","63d404f4eaf69448ef9e09e6","bdp_lott","Tue Mar 28 2023 20:13:14 GMT-0700 (Pacific Daylight Time)","305458","green","red","image-keyboard-response","51","86030","0.0-5.0-1.23","","500","","img/red_lw/choose11.jpg","2","202","red","0.5","0.5","0.5","w","",""
"","","","","63d404f4eaf69448ef9e09e6","bdp_lott","Tue Mar 28 2023 20:13:14 GMT-0700 (Pacific Daylight Time)","305458","green","red","animation","52","86772","0.0-5.0-2.23","","","","","","202","","","","","","[{""stimulus"":""img/red_lw/1.jpg"",""time"":51},{""stimulus"":""img/red_lw/2.jpg"",""time"":114},{""stimulus"":""img/red_lw/3.jpg"",""time"":177},{""stimulus"":""img/red_lw/4.jpg"",""time"":240},{""stimulus"":""img/red_lw/5.jpg"",""time"":302},{""stimulus"":""img/red_lw/6.jpg"",""time"":365},{""stimulus"":""img/red_lw/7.jpg"",""time"":427},{""stimulus"":""img/red_lw/8.jpg"",""time"":490},{""stimulus"":""img/red_lw/9.jpg"",""time"":554},{""stimulus"":""img/red_lw/10.jpg"",""time"":616},{""stimulus"":""img/red_lw/11.jpg"",""time"":680}]","[]"
"","","","choice","63d404f4eaf69448ef9e09e6","bdp_lott","Tue Mar 28 2023 20:13:14 GMT-0700 (Pacific Daylight Time)","305458","green","red","image-keyboard-response","53","87261","0.0-5.0-1.24","","489","","img/red_lw/choose11.jpg","2","201","red","0.5","0.5","0.5","l","",""
"","","","","63d404f4eaf69448ef9e09e6","bdp_lott","Tue Mar 28 2023 20:13:14 GMT-0700 (Pacific Daylight Time)","305458","green","red","animation","54","88013","0.0-5.0-2.24","","","","","","201","","","","","","[{""stimulus"":""img/red_ll/1.jpg"",""time"":61},{""stimulus"":""img/red_ll/2.jpg"",""time"":124},{""stimulus"":""img/red_ll/3.jpg"",""time"":186},{""stimulus"":""img/red_ll/4.jpg"",""time"":250},{""stimulus"":""img/red_ll/5.jpg"",""time"":311},{""stimulus"":""img/red_ll/6.jpg"",""time"":375},{""stimulus"":""img/red_ll/7.jpg"",""time"":438},{""stimulus"":""img/red_ll/8.jpg"",""time"":501},{""stimulus"":""img/red_ll/9.jpg"",""time"":564},{""stimulus"":""img/red_ll/10.jpg"",""time"":627},{""stimulus"":""img/red_ll/11.jpg"",""time"":689}]","[]"
"","","","choice","63d404f4eaf69448ef9e09e6","bdp_lott","Tue Mar 28 2023 20:13:14 GMT-0700 (Pacific Daylight Time)","305458","green","red","image-keyboard-response","55","88685","0.0-5.0-1.25","","671","","img/red_ll/choose11.jpg","2","200","red","0.5","0.5","0.5","l","",""
"","","","","63d404f4eaf69448ef9e09e6","bdp_lott","Tue Mar 28 2023 20:13:14 GMT-0700 (Pacific Daylight Time)","305458","green","red","animation","56","89426","0.0-5.0-2.25","","","","","","200","","","","","","[{""stimulus"":""img/red_ll/1.jpg"",""time"":51},{""stimulus"":""img/red_ll/2.jpg"",""time"":114},{""stimulus"":""img/red_ll/3.jpg"",""time"":177},{""stimulus"":""img/red_ll/4.jpg"",""time"":239},{""stimulus"":""img/red_ll/5.jpg"",""time"":302},{""stimulus"":""img/red_ll/6.jpg"",""time"":364},{""stimulus"":""img/red_ll/7.jpg"",""time"":428},{""stimulus"":""img/red_ll/8.jpg"",""time"":490},{""stimulus"":""img/red_ll/9.jpg"",""time"":553},{""stimulus"":""img/red_ll/10.jpg"",""time"":616},{""stimulus"":""img/red_ll/11.jpg"",""time"":679}]","[]"
"","","","choice","63d404f4eaf69448ef9e09e6","bdp_lott","Tue Mar 28 2023 20:13:14 GMT-0700 (Pacific Daylight Time)","305458","green","red","image-keyboard-response","57","89878","0.0-5.0-1.26","","451","","img/red_ll/choose11.jpg","2","199","red","0.5","0.5","0.5","w","",""
"","","","","63d404f4eaf69448ef9e09e6","bdp_lott","Tue Mar 28 2023 20:13:14 GMT-0700 (Pacific Daylight Time)","305458","green","red","animation","58","90620","0.0-5.0-2.26","","","","","","199","","","","","","[{""stimulus"":""img/red_lw/1.jpg"",""time"":51},{""stimulus"":""img/red_lw/2.jpg"",""time"":114},{""stimulus"":""img/red_lw/3.jpg"",""time"":177},{""stimulus"":""img/red_lw/4.jpg"",""time"":240},{""stimulus"":""img/red_lw/5.jpg"",""time"":303},{""stimulus"":""img/red_lw/6.jpg"",""time"":365},{""stimulus"":""img/red_lw/7.jpg"",""time"":429},{""stimulus"":""img/red_lw/8.jpg"",""time"":491},{""stimulus"":""img/red_lw/9.jpg"",""time"":553},{""stimulus"":""img/red_lw/10.jpg"",""time"":616},{""stimulus"":""img/red_lw/11.jpg"",""time"":680}]","[]"
"","","","choice","63d404f4eaf69448ef9e09e6","bdp_lott","Tue Mar 28 2023 20:13:14 GMT-0700 (Pacific Daylight Time)","305458","green","red","image-keyboard-response","59","91246","0.0-5.0-1.27","","626","","img/red_lw/choose11.jpg","2","198","red","0.5","0.5","0.5","l","",""
"","","","","63d404f4eaf69448ef9e09e6","bdp_lott","Tue Mar 28 2023 20:13:14 GMT-0700 (Pacific Daylight Time)","305458","green","red","animation","60","92002","0.0-5.0-2.27","","","","","","198","","","","","","[{""stimulus"":""img/red_ll/1.jpg"",""time"":67},{""stimulus"":""img/red_ll/2.jpg"",""time"":130},{""stimulus"":""img/red_ll/3.jpg"",""time"":192},{""stimulus"":""img/red_ll/4.jpg"",""time"":255},{""stimulus"":""img/red_ll/5.jpg"",""time"":317},{""stimulus"":""img/red_ll/6.jpg"",""time"":380},{""stimulus"":""img/red_ll/7.jpg"",""time"":443},{""stimulus"":""img/red_ll/8.jpg"",""time"":505},{""stimulus"":""img/red_ll/9.jpg"",""time"":568},{""stimulus"":""img/red_ll/10.jpg"",""time"":631},{""stimulus"":""img/red_ll/11.jpg"",""time"":693}]","[]"
"","","","choice","63d404f4eaf69448ef9e09e6","bdp_lott","Tue Mar 28 2023 20:13:14 GMT-0700 (Pacific Daylight Time)","305458","green","red","image-keyboard-response","61","92559","0.0-5.0-1.28","","556","","img/red_ll/choose11.jpg","1","197","green","0.5","0.5","0.5","w","",""
"","","","","63d404f4eaf69448ef9e09e6","bdp_lott","Tue Mar 28 2023 20:13:14 GMT-0700 (Pacific Daylight Time)","305458","green","red","animation","62","93304","0.0-5.0-2.28","","","","","","197","","","","","","[{""stimulus"":""img/green_wl/1.jpg"",""time"":54},{""stimulus"":""img/green_wl/2.jpg"",""time"":117},{""stimulus"":""img/green_wl/3.jpg"",""time"":179},{""stimulus"":""img/green_wl/4.jpg"",""time"":243},{""stimulus"":""img/green_wl/5.jpg"",""time"":305},{""stimulus"":""img/green_wl/6.jpg"",""time"":369},{""stimulus"":""img/green_wl/7.jpg"",""time"":431},{""stimulus"":""img/green_wl/8.jpg"",""time"":493},{""stimulus"":""img/green_wl/9.jpg"",""time"":557},{""stimulus"":""img/green_wl/10.jpg"",""time"":619},{""stimulus"":""img/green_wl/11.jpg"",""time"":682}]","[]"
"","","","choice","63d404f4eaf69448ef9e09e6","bdp_lott","Tue Mar 28 2023 20:13:14 GMT-0700 (Pacific Daylight Time)","305458","green","red","image-keyboard-response","63","94085","0.0-5.0-1.29","","781","","img/green_wl/choose11.jpg","2","196","red","0.5","0.5","0.5","w","",""
"","","","","63d404f4eaf69448ef9e09e6","bdp_lott","Tue Mar 28 2023 20:13:14 GMT-0700 (Pacific Daylight Time)","305458","green","red","animation","64","94834","0.0-5.0-2.29","","","","","","196","","","","","","[{""stimulus"":""img/red_ww/1.jpg"",""time"":59},{""stimulus"":""img/red_ww/2.jpg"",""time"":123},{""stimulus"":""img/red_ww/3.jpg"",""time"":185},{""stimulus"":""img/red_ww/4.jpg"",""time"":248},{""stimulus"":""img/red_ww/5.jpg"",""time"":310},{""stimulus"":""img/red_ww/6.jpg"",""time"":373},{""stimulus"":""img/red_ww/7.jpg"",""time"":436},{""stimulus"":""img/red_ww/8.jpg"",""time"":498},{""stimulus"":""img/red_ww/9.jpg"",""time"":561},{""stimulus"":""img/red_ww/10.jpg"",""time"":625},{""stimulus"":""img/red_ww/11.jpg"",""time"":686}]","[]"
"","","","choice","63d404f4eaf69448ef9e09e6","bdp_lott","Tue Mar 28 2023 20:13:14 GMT-0700 (Pacific Daylight Time)","305458","green","red","image-keyboard-response","65","95381","0.0-5.0-1.30","","547","","img/red_ww/choose11.jpg","1","195","green","0.5","0.5","0.5","w","",""
"","","","","63d404f4eaf69448ef9e09e6","bdp_lott","Tue Mar 28 2023 20:13:14 GMT-0700 (Pacific Daylight Time)","305458","green","red","animation","66","96124","0.0-5.0-2.30","","","","","","195","","","","","","[{""stimulus"":""img/green_ww/1.jpg"",""time"":51},{""stimulus"":""img/green_ww/2.jpg"",""time"":114},{""stimulus"":""img/green_ww/3.jpg"",""time"":176},{""stimulus"":""img/green_ww/4.jpg"",""time"":240},{""stimulus"":""img/green_ww/5.jpg"",""time"":303},{""stimulus"":""img/green_ww/6.jpg"",""time"":365},{""stimulus"":""img/green_ww/7.jpg"",""time"":428},{""stimulus"":""img/green_ww/8.jpg"",""time"":491},{""stimulus"":""img/green_ww/9.jpg"",""time"":554},{""stimulus"":""img/green_ww/10.jpg"",""time"":618},{""stimulus"":""img/green_ww/11.jpg"",""time"":680}]","[]"
"","","","choice","63d404f4eaf69448ef9e09e6","bdp_lott","Tue Mar 28 2023 20:13:14 GMT-0700 (Pacific Daylight Time)","305458","green","red","image-keyboard-response","67","96557","0.0-5.0-1.31","","432","","img/green_ww/choose11.jpg","2","194","red","0.5","0.5","0.5","l","",""
"","","","","63d404f4eaf69448ef9e09e6","bdp_lott","Tue Mar 28 2023 20:13:14 GMT-0700 (Pacific Daylight Time)","305458","green","red","animation","68","97303","0.0-5.0-2.31","","","","","","194","","","","","","[{""stimulus"":""img/red_wl/1.jpg"",""time"":55},{""stimulus"":""img/red_wl/2.jpg"",""time"":117},{""stimulus"":""img/red_wl/3.jpg"",""time"":180},{""stimulus"":""img/red_wl/4.jpg"",""time"":244},{""stimulus"":""img/red_wl/5.jpg"",""time"":306},{""stimulus"":""img/red_wl/6.jpg"",""time"":368},{""stimulus"":""img/red_wl/7.jpg"",""time"":432},{""stimulus"":""img/red_wl/8.jpg"",""time"":495},{""stimulus"":""img/red_wl/9.jpg"",""time"":558},{""stimulus"":""img/red_wl/10.jpg"",""time"":620},{""stimulus"":""img/red_wl/11.jpg"",""time"":683}]","[]"
"","","","choice","63d404f4eaf69448ef9e09e6","bdp_lott","Tue Mar 28 2023 20:13:14 GMT-0700 (Pacific Daylight Time)","305458","green","red","image-keyboard-response","69","99070","0.0-5.0-1.32","","1766","","img/red_wl/choose11.jpg","1","193","green","0.5","0.5","0.5","w","",""
"","","","","63d404f4eaf69448ef9e09e6","bdp_lott","Tue Mar 28 2023 20:13:14 GMT-0700 (Pacific Daylight Time)","305458","green","red","animation","70","99817","0.0-5.0-2.32","","","","","","193","","","","","","[{""stimulus"":""img/green_wl/1.jpg"",""time"":55},{""stimulus"":""img/green_wl/2.jpg"",""time"":118},{""stimulus"":""img/green_wl/3.jpg"",""time"":180},{""stimulus"":""img/green_wl/4.jpg"",""time"":244},{""stimulus"":""img/green_wl/5.jpg"",""time"":307},{""stimulus"":""img/green_wl/6.jpg"",""time"":369},{""stimulus"":""img/green_wl/7.jpg"",""time"":432},{""stimulus"":""img/green_wl/8.jpg"",""time"":496},{""stimulus"":""img/green_wl/9.jpg"",""time"":559},{""stimulus"":""img/green_wl/10.jpg"",""time"":621},{""stimulus"":""img/green_wl/11.jpg"",""time"":685}]","[]"
"","","","choice","63d404f4eaf69448ef9e09e6","bdp_lott","Tue Mar 28 2023 20:13:14 GMT-0700 (Pacific Daylight Time)","305458","green","red","image-keyboard-response","71","100422","0.0-5.0-1.33","","604","","img/green_wl/choose11.jpg","1","192","green","0.5","0.5","0.5","l","",""
"","","","","63d404f4eaf69448ef9e09e6","bdp_lott","Tue Mar 28 2023 20:13:14 GMT-0700 (Pacific Daylight Time)","305458","green","red","animation","72","101171","0.0-5.0-2.33","","","","","","192","","","","","","[{""stimulus"":""img/green_ll/1.jpg"",""time"":55},{""stimulus"":""img/green_ll/2.jpg"",""time"":118},{""stimulus"":""img/green_ll/3.jpg"",""time"":182},{""stimulus"":""img/green_ll/4.jpg"",""time"":245},{""stimulus"":""img/green_ll/5.jpg"",""time"":309},{""stimulus"":""img/green_ll/6.jpg"",""time"":371},{""stimulus"":""img/green_ll/7.jpg"",""time"":434},{""stimulus"":""img/green_ll/8.jpg"",""time"":497},{""stimulus"":""img/green_ll/9.jpg"",""time"":560},{""stimulus"":""img/green_ll/10.jpg"",""time"":623},{""stimulus"":""img/green_ll/11.jpg"",""time"":687}]","[]"
"","","","choice","63d404f4eaf69448ef9e09e6","bdp_lott","Tue Mar 28 2023 20:13:14 GMT-0700 (Pacific Daylight Time)","305458","green","red","image-keyboard-response","73","101638","0.0-5.0-1.34","","466","","img/green_ll/choose11.jpg","2","191","red","0.5","0.5","0.5","w","",""
"","","","","63d404f4eaf69448ef9e09e6","bdp_lott","Tue Mar 28 2023 20:13:14 GMT-0700 (Pacific Daylight Time)","305458","green","red","animation","74","102387","0.0-5.0-2.34","","","","","","191","","","","","","[{""stimulus"":""img/red_lw/1.jpg"",""time"":52},{""stimulus"":""img/red_lw/2.jpg"",""time"":115},{""stimulus"":""img/red_lw/3.jpg"",""time"":178},{""stimulus"":""img/red_lw/4.jpg"",""time"":240},{""stimulus"":""img/red_lw/5.jpg"",""time"":305},{""stimulus"":""img/red_lw/6.jpg"",""time"":366},{""stimulus"":""img/red_lw/7.jpg"",""time"":429},{""stimulus"":""img/red_lw/8.jpg"",""time"":492},{""stimulus"":""img/red_lw/9.jpg"",""time"":555},{""stimulus"":""img/red_lw/10.jpg"",""time"":618},{""stimulus"":""img/red_lw/11.jpg"",""time"":687}]","[]"
"","","","choice","63d404f4eaf69448ef9e09e6","bdp_lott","Tue Mar 28 2023 20:13:14 GMT-0700 (Pacific Daylight Time)","305458","green","red","image-keyboard-response","75","103709","0.0-5.0-1.35","","1322","","img/red_lw/choose11.jpg","1","190","green","0.5","0.5","0.5","l","",""
"","","","","63d404f4eaf69448ef9e09e6","bdp_lott","Tue Mar 28 2023 20:13:14 GMT-0700 (Pacific Daylight Time)","305458","green","red","animation","76","104453","0.0-5.0-2.35","","","","","","190","","","","","","[{""stimulus"":""img/green_lw/1.jpg"",""time"":57},{""stimulus"":""img/green_lw/2.jpg"",""time"":119},{""stimulus"":""img/green_lw/3.jpg"",""time"":182},{""stimulus"":""img/green_lw/4.jpg"",""time"":245},{""stimulus"":""img/green_lw/5.jpg"",""time"":308},{""stimulus"":""img/green_lw/6.jpg"",""time"":371},{""stimulus"":""img/green_lw/7.jpg"",""time"":435},{""stimulus"":""img/green_lw/8.jpg"",""time"":497},{""stimulus"":""img/green_lw/9.jpg"",""time"":560},{""stimulus"":""img/green_lw/10.jpg"",""time"":618},{""stimulus"":""img/green_lw/11.jpg"",""time"":681}]","[]"
"","","","choice","63d404f4eaf69448ef9e09e6","bdp_lott","Tue Mar 28 2023 20:13:14 GMT-0700 (Pacific Daylight Time)","305458","green","red","image-keyboard-response","77","104926","0.0-5.0-1.36","","472","","img/green_lw/choose11.jpg","2","189","red","0.5","0.5","0.5","w","",""
"","","","","63d404f4eaf69448ef9e09e6","bdp_lott","Tue Mar 28 2023 20:13:14 GMT-0700 (Pacific Daylight Time)","305458","green","red","animation","78","105674","0.0-5.0-2.36","","","","","","189","","","","","","[{""stimulus"":""img/red_lw/1.jpg"",""time"":62},{""stimulus"":""img/red_lw/2.jpg"",""time"":125},{""stimulus"":""img/red_lw/3.jpg"",""time"":188},{""stimulus"":""img/red_lw/4.jpg"",""time"":251},{""stimulus"":""img/red_lw/5.jpg"",""time"":314},{""stimulus"":""img/red_lw/6.jpg"",""time"":376},{""stimulus"":""img/red_lw/7.jpg"",""time"":434},{""stimulus"":""img/red_lw/8.jpg"",""time"":497},{""stimulus"":""img/red_lw/9.jpg"",""time"":560},{""stimulus"":""img/red_lw/10.jpg"",""time"":622},{""stimulus"":""img/red_lw/11.jpg"",""time"":686}]","[]"
"","","","choice","63d404f4eaf69448ef9e09e6","bdp_lott","Tue Mar 28 2023 20:13:14 GMT-0700 (Pacific Daylight Time)","305458","green","red","image-keyboard-response","79","106053","0.0-5.0-1.37","","378","","img/red_lw/choose11.jpg","2","188","red","0.5","0.5","0.5","l","",""
"","","","","63d404f4eaf69448ef9e09e6","bdp_lott","Tue Mar 28 2023 20:13:14 GMT-0700 (Pacific Daylight Time)","305458","green","red","animation","80","106806","0.0-5.0-2.37","","","","","","188","","","","","","[{""stimulus"":""img/red_ll/1.jpg"",""time"":61},{""stimulus"":""img/red_ll/2.jpg"",""time"":124},{""stimulus"":""img/red_ll/3.jpg"",""time"":187},{""stimulus"":""img/red_ll/4.jpg"",""time"":250},{""stimulus"":""img/red_ll/5.jpg"",""time"":313},{""stimulus"":""img/red_ll/6.jpg"",""time"":377},{""stimulus"":""img/red_ll/7.jpg"",""time"":439},{""stimulus"":""img/red_ll/8.jpg"",""time"":501},{""stimulus"":""img/red_ll/9.jpg"",""time"":564},{""stimulus"":""img/red_ll/10.jpg"",""time"":627},{""stimulus"":""img/red_ll/11.jpg"",""time"":690}]","[]"
"","","","choice","63d404f4eaf69448ef9e09e6","bdp_lott","Tue Mar 28 2023 20:13:14 GMT-0700 (Pacific Daylight Time)","305458","green","red","image-keyboard-response","81","107286","0.0-5.0-1.38","","480","","img/red_ll/choose11.jpg","1","187","green","0.5","0.5","0.5","w","",""
"","","","","63d404f4eaf69448ef9e09e6","bdp_lott","Tue Mar 28 2023 20:13:14 GMT-0700 (Pacific Daylight Time)","305458","green","red","animation","82","108035","0.0-5.0-2.38","","","","","","187","","","","","","[{""stimulus"":""img/green_wl/1.jpg"",""time"":63},{""stimulus"":""img/green_wl/2.jpg"",""time"":126},{""stimulus"":""img/green_wl/3.jpg"",""time"":190},{""stimulus"":""img/green_wl/4.jpg"",""time"":252},{""stimulus"":""img/green_wl/5.jpg"",""time"":315},{""stimulus"":""img/green_wl/6.jpg"",""time"":378},{""stimulus"":""img/green_wl/7.jpg"",""time"":441},{""stimulus"":""img/green_wl/8.jpg"",""time"":504},{""stimulus"":""img/green_wl/9.jpg"",""time"":560},{""stimulus"":""img/green_wl/10.jpg"",""time"":623},{""stimulus"":""img/green_wl/11.jpg"",""time"":686}]","[]"
"","","","choice","63d404f4eaf69448ef9e09e6","bdp_lott","Tue Mar 28 2023 20:13:14 GMT-0700 (Pacific Daylight Time)","305458","green","red","image-keyboard-response","83","108814","0.0-5.0-1.39","","779","","img/green_wl/choose11.jpg","1","186","green","0.5","0.5","0.5","w","",""
"","","","","63d404f4eaf69448ef9e09e6","bdp_lott","Tue Mar 28 2023 20:13:14 GMT-0700 (Pacific Daylight Time)","305458","green","red","animation","84","109559","0.0-5.0-2.39","","","","","","186","","","","","","[{""stimulus"":""img/green_wl/1.jpg"",""time"":54},{""stimulus"":""img/green_wl/2.jpg"",""time"":118},{""stimulus"":""img/green_wl/3.jpg"",""time"":180},{""stimulus"":""img/green_wl/4.jpg"",""time"":243},{""stimulus"":""img/green_wl/5.jpg"",""time"":305},{""stimulus"":""img/green_wl/6.jpg"",""time"":367},{""stimulus"":""img/green_wl/7.jpg"",""time"":431},{""stimulus"":""img/green_wl/8.jpg"",""time"":493},{""stimulus"":""img/green_wl/9.jpg"",""time"":556},{""stimulus"":""img/green_wl/10.jpg"",""time"":619},{""stimulus"":""img/green_wl/11.jpg"",""time"":682}]","[]"
"","","","choice","63d404f4eaf69448ef9e09e6","bdp_lott","Tue Mar 28 2023 20:13:14 GMT-0700 (Pacific Daylight Time)","305458","green","red","image-keyboard-response","85","109933","0.0-5.0-1.40","","374","","img/green_wl/choose11.jpg","1","185","green","0.5","0.5","0.5","w","",""
"","","","","63d404f4eaf69448ef9e09e6","bdp_lott","Tue Mar 28 2023 20:13:14 GMT-0700 (Pacific Daylight Time)","305458","green","red","animation","86","110691","0.0-5.0-2.40","","","","","","185","","","","","","[{""stimulus"":""img/green_wl/1.jpg"",""time"":66},{""stimulus"":""img/green_wl/2.jpg"",""time"":129},{""stimulus"":""img/green_wl/3.jpg"",""time"":192},{""stimulus"":""img/green_wl/4.jpg"",""time"":255},{""stimulus"":""img/green_wl/5.jpg"",""time"":317},{""stimulus"":""img/green_wl/6.jpg"",""time"":380},{""stimulus"":""img/green_wl/7.jpg"",""time"":443},{""stimulus"":""img/green_wl/8.jpg"",""time"":507},{""stimulus"":""img/green_wl/9.jpg"",""time"":570},{""stimulus"":""img/green_wl/10.jpg"",""time"":633},{""stimulus"":""img/green_wl/11.jpg"",""time"":695}]","[]"
"","","","choice","63d404f4eaf69448ef9e09e6","bdp_lott","Tue Mar 28 2023 20:13:14 GMT-0700 (Pacific Daylight Time)","305458","green","red","image-keyboard-response","87","111094","0.0-5.0-1.41","","402","","img/green_wl/choose11.jpg","1","184","green","0.5","0.5","0.5","l","",""
"","","","","63d404f4eaf69448ef9e09e6","bdp_lott","Tue Mar 28 2023 20:13:14 GMT-0700 (Pacific Daylight Time)","305458","green","red","animation","88","111839","0.0-5.0-2.41","","","","","","184","","","","","","[{""stimulus"":""img/green_ll/1.jpg"",""time"":54},{""stimulus"":""img/green_ll/2.jpg"",""time"":117},{""stimulus"":""img/green_ll/3.jpg"",""time"":180},{""stimulus"":""img/green_ll/4.jpg"",""time"":242},{""stimulus"":""img/green_ll/5.jpg"",""time"":305},{""stimulus"":""img/green_ll/6.jpg"",""time"":369},{""stimulus"":""img/green_ll/7.jpg"",""time"":431},{""stimulus"":""img/green_ll/8.jpg"",""time"":493},{""stimulus"":""img/green_ll/9.jpg"",""time"":557},{""stimulus"":""img/green_ll/10.jpg"",""time"":620},{""stimulus"":""img/green_ll/11.jpg"",""time"":683}]","[]"
"","","","choice","63d404f4eaf69448ef9e09e6","bdp_lott","Tue Mar 28 2023 20:13:14 GMT-0700 (Pacific Daylight Time)","305458","green","red","image-keyboard-response","89","112326","0.0-5.0-1.42","","486","","img/green_ll/choose11.jpg","2","183","red","0.5","0.5","0.5","l","",""
"","","","","63d404f4eaf69448ef9e09e6","bdp_lott","Tue Mar 28 2023 20:13:14 GMT-0700 (Pacific Daylight Time)","305458","green","red","animation","90","113080","0.0-5.0-2.42","","","","","","183","","","","","","[{""stimulus"":""img/red_ll/1.jpg"",""time"":63},{""stimulus"":""img/red_ll/2.jpg"",""time"":126},{""stimulus"":""img/red_ll/3.jpg"",""time"":189},{""stimulus"":""img/red_ll/4.jpg"",""time"":252},{""stimulus"":""img/red_ll/5.jpg"",""time"":314},{""stimulus"":""img/red_ll/6.jpg"",""time"":377},{""stimulus"":""img/red_ll/7.jpg"",""time"":440},{""stimulus"":""img/red_ll/8.jpg"",""time"":503},{""stimulus"":""img/red_ll/9.jpg"",""time"":566},{""stimulus"":""img/red_ll/10.jpg"",""time"":629},{""stimulus"":""img/red_ll/11.jpg"",""time"":692}]","[]"
"","","","choice","63d404f4eaf69448ef9e09e6","bdp_lott","Tue Mar 28 2023 20:13:14 GMT-0700 (Pacific Daylight Time)","305458","green","red","image-keyboard-response","91","113445","0.0-5.0-1.43","","364","","img/red_ll/choose11.jpg","2","182","red","0.5","0.5","0.5","w","",""
"","","","","63d404f4eaf69448ef9e09e6","bdp_lott","Tue Mar 28 2023 20:13:14 GMT-0700 (Pacific Daylight Time)","305458","green","red","animation","92","114195","0.0-5.0-2.43","","","","","","182","","","","","","[{""stimulus"":""img/red_lw/1.jpg"",""time"":60},{""stimulus"":""img/red_lw/2.jpg"",""time"":123},{""stimulus"":""img/red_lw/3.jpg"",""time"":185},{""stimulus"":""img/red_lw/4.jpg"",""time"":248},{""stimulus"":""img/red_lw/5.jpg"",""time"":311},{""stimulus"":""img/red_lw/6.jpg"",""time"":374},{""stimulus"":""img/red_lw/7.jpg"",""time"":437},{""stimulus"":""img/red_lw/8.jpg"",""time"":500},{""stimulus"":""img/red_lw/9.jpg"",""time"":563},{""stimulus"":""img/red_lw/10.jpg"",""time"":625},{""stimulus"":""img/red_lw/11.jpg"",""time"":689}]","[]"
"","","","choice","63d404f4eaf69448ef9e09e6","bdp_lott","Tue Mar 28 2023 20:13:14 GMT-0700 (Pacific Daylight Time)","305458","green","red","image-keyboard-response","93","114821","0.0-5.0-1.44","","625","","img/red_lw/choose11.jpg","1","181","green","0.5","0.5","0.5","w","",""
"","","","","63d404f4eaf69448ef9e09e6","bdp_lott","Tue Mar 28 2023 20:13:14 GMT-0700 (Pacific Daylight Time)","305458","green","red","animation","94","115563","0.0-5.0-2.44","","","","","","181","","","","","","[{""stimulus"":""img/green_ww/1.jpg"",""time"":51},{""stimulus"":""img/green_ww/2.jpg"",""time"":114},{""stimulus"":""img/green_ww/3.jpg"",""time"":177},{""stimulus"":""img/green_ww/4.jpg"",""time"":241},{""stimulus"":""img/green_ww/5.jpg"",""time"":303},{""stimulus"":""img/green_ww/6.jpg"",""time"":366},{""stimulus"":""img/green_ww/7.jpg"",""time"":429},{""stimulus"":""img/green_ww/8.jpg"",""time"":491},{""stimulus"":""img/green_ww/9.jpg"",""time"":555},{""stimulus"":""img/green_ww/10.jpg"",""time"":617},{""stimulus"":""img/green_ww/11.jpg"",""time"":680}]","[]"
"","","","choice","63d404f4eaf69448ef9e09e6","bdp_lott","Tue Mar 28 2023 20:13:14 GMT-0700 (Pacific Daylight Time)","305458","green","red","image-keyboard-response","95","115957","0.0-5.0-1.45","","393","","img/green_ww/choose11.jpg","2","180","red","0.5","0.5","0.5","w","",""
"","","","","63d404f4eaf69448ef9e09e6","bdp_lott","Tue Mar 28 2023 20:13:14 GMT-0700 (Pacific Daylight Time)","305458","green","red","animation","96","116711","0.0-5.0-2.45","","","","","","180","","","","","","[{""stimulus"":""img/red_ww/1.jpg"",""time"":62},{""stimulus"":""img/red_ww/2.jpg"",""time"":126},{""stimulus"":""img/red_ww/3.jpg"",""time"":189},{""stimulus"":""img/red_ww/4.jpg"",""time"":251},{""stimulus"":""img/red_ww/5.jpg"",""time"":314},{""stimulus"":""img/red_ww/6.jpg"",""time"":377},{""stimulus"":""img/red_ww/7.jpg"",""time"":440},{""stimulus"":""img/red_ww/8.jpg"",""time"":503},{""stimulus"":""img/red_ww/9.jpg"",""time"":566},{""stimulus"":""img/red_ww/10.jpg"",""time"":629},{""stimulus"":""img/red_ww/11.jpg"",""time"":692}]","[]"
"","","","choice","63d404f4eaf69448ef9e09e6","bdp_lott","Tue Mar 28 2023 20:13:14 GMT-0700 (Pacific Daylight Time)","305458","green","red","image-keyboard-response","97","117262","0.0-5.0-1.46","","550","","img/red_ww/choose11.jpg","1","179","green","0.5","0.5","0.5","l","",""
"","","","","63d404f4eaf69448ef9e09e6","bdp_lott","Tue Mar 28 2023 20:13:14 GMT-0700 (Pacific Daylight Time)","305458","green","red","animation","98","118017","0.0-5.0-2.46","","","","","","179","","","","","","[{""stimulus"":""img/green_lw/1.jpg"",""time"":63},{""stimulus"":""img/green_lw/2.jpg"",""time"":126},{""stimulus"":""img/green_lw/3.jpg"",""time"":189},{""stimulus"":""img/green_lw/4.jpg"",""time"":252},{""stimulus"":""img/green_lw/5.jpg"",""time"":315},{""stimulus"":""img/green_lw/6.jpg"",""time"":377},{""stimulus"":""img/green_lw/7.jpg"",""time"":441},{""stimulus"":""img/green_lw/8.jpg"",""time"":504},{""stimulus"":""img/green_lw/9.jpg"",""time"":565},{""stimulus"":""img/green_lw/10.jpg"",""time"":628},{""stimulus"":""img/green_lw/11.jpg"",""time"":692}]","[]"
"","","","choice","63d404f4eaf69448ef9e09e6","bdp_lott","Tue Mar 28 2023 20:13:14 GMT-0700 (Pacific Daylight Time)","305458","green","red","image-keyboard-response","99","118518","0.0-5.0-1.47","","501","","img/green_lw/choose11.jpg","2","178","red","0.5","0.5","0.5","l","",""
"","","","","63d404f4eaf69448ef9e09e6","bdp_lott","Tue Mar 28 2023 20:13:14 GMT-0700 (Pacific Daylight Time)","305458","green","red","animation","100","119275","0.0-5.0-2.47","","","","","","178","","","","","","[{""stimulus"":""img/red_ll/1.jpg"",""time"":65},{""stimulus"":""img/red_ll/2.jpg"",""time"":128},{""stimulus"":""img/red_ll/3.jpg"",""time"":190},{""stimulus"":""img/red_ll/4.jpg"",""time"":254},{""stimulus"":""img/red_ll/5.jpg"",""time"":316},{""stimulus"":""img/red_ll/6.jpg"",""time"":379},{""stimulus"":""img/red_ll/7.jpg"",""time"":443},{""stimulus"":""img/red_ll/8.jpg"",""time"":505},{""stimulus"":""img/red_ll/9.jpg"",""time"":568},{""stimulus"":""img/red_ll/10.jpg"",""time"":631},{""stimulus"":""img/red_ll/11.jpg"",""time"":694}]","[]"
"","","","choice","63d404f4eaf69448ef9e09e6","bdp_lott","Tue Mar 28 2023 20:13:14 GMT-0700 (Pacific Daylight Time)","305458","green","red","image-keyboard-response","101","119614","0.0-5.0-1.48","","338","","img/red_ll/choose11.jpg","2","177","red","0.5","0.5","0.5","l","",""
"","","","","63d404f4eaf69448ef9e09e6","bdp_lott","Tue Mar 28 2023 20:13:14 GMT-0700 (Pacific Daylight Time)","305458","green","red","animation","102","120364","0.0-5.0-2.48","","","","","","177","","","","","","[{""stimulus"":""img/red_ll/1.jpg"",""time"":58},{""stimulus"":""img/red_ll/2.jpg"",""time"":121},{""stimulus"":""img/red_ll/3.jpg"",""time"":184},{""stimulus"":""img/red_ll/4.jpg"",""time"":248},{""stimulus"":""img/red_ll/5.jpg"",""time"":310},{""stimulus"":""img/red_ll/6.jpg"",""time"":373},{""stimulus"":""img/red_ll/7.jpg"",""time"":437},{""stimulus"":""img/red_ll/8.jpg"",""time"":499},{""stimulus"":""img/red_ll/9.jpg"",""time"":562},{""stimulus"":""img/red_ll/10.jpg"",""time"":625},{""stimulus"":""img/red_ll/11.jpg"",""time"":687}]","[]"
"","","","choice","63d404f4eaf69448ef9e09e6","bdp_lott","Tue Mar 28 2023 20:13:14 GMT-0700 (Pacific Daylight Time)","305458","green","red","image-keyboard-response","103","120654","0.0-5.0-1.49","","289","","img/red_ll/choose11.jpg","2","176","red","0.5","0.5","0.5","l","",""
"","","","","63d404f4eaf69448ef9e09e6","bdp_lott","Tue Mar 28 2023 20:13:14 GMT-0700 (Pacific Daylight Time)","305458","green","red","animation","104","121401","0.0-5.0-2.49","","","","","","176","","","","","","[{""stimulus"":""img/red_ll/1.jpg"",""time"":56},{""stimulus"":""img/red_ll/2.jpg"",""time"":120},{""stimulus"":""img/red_ll/3.jpg"",""time"":182},{""stimulus"":""img/red_ll/4.jpg"",""time"":244},{""stimulus"":""img/red_ll/5.jpg"",""time"":307},{""stimulus"":""img/red_ll/6.jpg"",""time"":371},{""stimulus"":""img/red_ll/7.jpg"",""time"":433},{""stimulus"":""img/red_ll/8.jpg"",""time"":496},{""stimulus"":""img/red_ll/9.jpg"",""time"":558},{""stimulus"":""img/red_ll/10.jpg"",""time"":621},{""stimulus"":""img/red_ll/11.jpg"",""time"":684}]","[]"
"","","","choice","63d404f4eaf69448ef9e09e6","bdp_lott","Tue Mar 28 2023 20:13:14 GMT-0700 (Pacific Daylight Time)","305458","green","red","image-keyboard-response","105","121718","0.0-5.0-1.50","","314","","img/red_ll/choose11.jpg","2","175","red","0.5","0.5","0.5","w","",""
"","","","","63d404f4eaf69448ef9e09e6","bdp_lott","Tue Mar 28 2023 20:13:14 GMT-0700 (Pacific Daylight Time)","305458","green","red","animation","106","122471","0.0-5.0-2.50","","","","","","175","","","","","","[{""stimulus"":""img/red_lw/1.jpg"",""time"":62},{""stimulus"":""img/red_lw/2.jpg"",""time"":125},{""stimulus"":""img/red_lw/3.jpg"",""time"":188},{""stimulus"":""img/red_lw/4.jpg"",""time"":251},{""stimulus"":""img/red_lw/5.jpg"",""time"":314},{""stimulus"":""img/red_lw/6.jpg"",""time"":376},{""stimulus"":""img/red_lw/7.jpg"",""time"":440},{""stimulus"":""img/red_lw/8.jpg"",""time"":503},{""stimulus"":""img/red_lw/9.jpg"",""time"":565},{""stimulus"":""img/red_lw/10.jpg"",""time"":628},{""stimulus"":""img/red_lw/11.jpg"",""time"":691}]","[]"
"","","","choice","63d404f4eaf69448ef9e09e6","bdp_lott","Tue Mar 28 2023 20:13:14 GMT-0700 (Pacific Daylight Time)","305458","green","red","image-keyboard-response","107","122958","0.0-5.0-1.51","","484","","img/red_lw/choose11.jpg","2","174","red","0.5","0.5","0.5","w","",""
"","","","","63d404f4eaf69448ef9e09e6","bdp_lott","Tue Mar 28 2023 20:13:14 GMT-0700 (Pacific Daylight Time)","305458","green","red","animation","108","123713","0.0-5.0-2.51","","","","","","174","","","","","","[{""stimulus"":""img/red_lw/1.jpg"",""time"":63},{""stimulus"":""img/red_lw/2.jpg"",""time"":126},{""stimulus"":""img/red_lw/3.jpg"",""time"":189},{""stimulus"":""img/red_lw/4.jpg"",""time"":252},{""stimulus"":""img/red_lw/5.jpg"",""time"":315},{""stimulus"":""img/red_lw/6.jpg"",""time"":378},{""stimulus"":""img/red_lw/7.jpg"",""time"":441},{""stimulus"":""img/red_lw/8.jpg"",""time"":503},{""stimulus"":""img/red_lw/9.jpg"",""time"":566},{""stimulus"":""img/red_lw/10.jpg"",""time"":629},{""stimulus"":""img/red_lw/11.jpg"",""time"":692}]","[]"
"","","","choice","63d404f4eaf69448ef9e09e6","bdp_lott","Tue Mar 28 2023 20:13:14 GMT-0700 (Pacific Daylight Time)","305458","green","red","image-keyboard-response","109","123822","0.0-5.0-1.52","","108","","img/red_lw/choose11.jpg","2","173","red","0.5","0.5","0.5","l","",""
"","","","","63d404f4eaf69448ef9e09e6","bdp_lott","Tue Mar 28 2023 20:13:14 GMT-0700 (Pacific Daylight Time)","305458","green","red","animation","110","124568","0.0-5.0-2.52","","","","","","173","","","","","","[{""stimulus"":""img/red_ll/1.jpg"",""time"":64},{""stimulus"":""img/red_ll/2.jpg"",""time"":126},{""stimulus"":""img/red_ll/3.jpg"",""time"":189},{""stimulus"":""img/red_ll/4.jpg"",""time"":252},{""stimulus"":""img/red_ll/5.jpg"",""time"":315},{""stimulus"":""img/red_ll/6.jpg"",""time"":377},{""stimulus"":""img/red_ll/7.jpg"",""time"":440},{""stimulus"":""img/red_ll/8.jpg"",""time"":494},{""stimulus"":""img/red_ll/9.jpg"",""time"":557},{""stimulus"":""img/red_ll/10.jpg"",""time"":620},{""stimulus"":""img/red_ll/11.jpg"",""time"":683}]","[]"
"","","","choice","63d404f4eaf69448ef9e09e6","bdp_lott","Tue Mar 28 2023 20:13:14 GMT-0700 (Pacific Daylight Time)","305458","green","red","image-keyboard-response","111","124925","0.0-5.0-1.53","","356","","img/red_ll/choose11.jpg","2","172","red","0.5","0.5","0.5","l","",""
"","","","","63d404f4eaf69448ef9e09e6","bdp_lott","Tue Mar 28 2023 20:13:14 GMT-0700 (Pacific Daylight Time)","305458","green","red","animation","112","125672","0.0-5.0-2.53","","","","","","172","","","","","","[{""stimulus"":""img/red_ll/1.jpg"",""time"":65},{""stimulus"":""img/red_ll/2.jpg"",""time"":129},{""stimulus"":""img/red_ll/3.jpg"",""time"":192},{""stimulus"":""img/red_ll/4.jpg"",""time"":255},{""stimulus"":""img/red_ll/5.jpg"",""time"":317},{""stimulus"":""img/red_ll/6.jpg"",""time"":369},{""stimulus"":""img/red_ll/7.jpg"",""time"":431},{""stimulus"":""img/red_ll/8.jpg"",""time"":494},{""stimulus"":""img/red_ll/9.jpg"",""time"":557},{""stimulus"":""img/red_ll/10.jpg"",""time"":620},{""stimulus"":""img/red_ll/11.jpg"",""time"":683}]","[]"
"","","","choice","63d404f4eaf69448ef9e09e6","bdp_lott","Tue Mar 28 2023 20:13:14 GMT-0700 (Pacific Daylight Time)","305458","green","red","image-keyboard-response","113","126004","0.0-5.0-1.54","","331","","img/red_ll/choose11.jpg","2","171","red","0.5","0.5","0.5","l","",""
"","","","","63d404f4eaf69448ef9e09e6","bdp_lott","Tue Mar 28 2023 20:13:14 GMT-0700 (Pacific Daylight Time)","305458","green","red","animation","114","126755","0.0-5.0-2.54","","","","","","171","","","","","","[{""stimulus"":""img/red_ll/1.jpg"",""time"":60},{""stimulus"":""img/red_ll/2.jpg"",""time"":123},{""stimulus"":""img/red_ll/3.jpg"",""time"":186},{""stimulus"":""img/red_ll/4.jpg"",""time"":249},{""stimulus"":""img/red_ll/5.jpg"",""time"":312},{""stimulus"":""img/red_ll/6.jpg"",""time"":375},{""stimulus"":""img/red_ll/7.jpg"",""time"":438},{""stimulus"":""img/red_ll/8.jpg"",""time"":501},{""stimulus"":""img/red_ll/9.jpg"",""time"":563},{""stimulus"":""img/red_ll/10.jpg"",""time"":626},{""stimulus"":""img/red_ll/11.jpg"",""time"":689}]","[]"
"","","","choice","63d404f4eaf69448ef9e09e6","bdp_lott","Tue Mar 28 2023 20:13:14 GMT-0700 (Pacific Daylight Time)","305458","green","red","image-keyboard-response","115","127077","0.0-5.0-1.55","","321","","img/red_ll/choose11.jpg","1","170","green","0.5","0.5","0.5","l","",""
"","","","","63d404f4eaf69448ef9e09e6","bdp_lott","Tue Mar 28 2023 20:13:14 GMT-0700 (Pacific Daylight Time)","305458","green","red","animation","116","127823","0.0-5.0-2.55","","","","","","170","","","","","","[{""stimulus"":""img/green_ll/1.jpg"",""time"":54},{""stimulus"":""img/green_ll/2.jpg"",""time"":117},{""stimulus"":""img/green_ll/3.jpg"",""time"":179},{""stimulus"":""img/green_ll/4.jpg"",""time"":242},{""stimulus"":""img/green_ll/5.jpg"",""time"":306},{""stimulus"":""img/green_ll/6.jpg"",""time"":368},{""stimulus"":""img/green_ll/7.jpg"",""time"":431},{""stimulus"":""img/green_ll/8.jpg"",""time"":495},{""stimulus"":""img/green_ll/9.jpg"",""time"":557},{""stimulus"":""img/green_ll/10.jpg"",""time"":620},{""stimulus"":""img/green_ll/11.jpg"",""time"":683}]","[]"
"","","","choice","63d404f4eaf69448ef9e09e6","bdp_lott","Tue Mar 28 2023 20:13:14 GMT-0700 (Pacific Daylight Time)","305458","green","red","image-keyboard-response","117","128118","0.0-5.0-1.56","","294","","img/green_ll/choose11.jpg","1","169","green","0.5","0.5","0.5","w","",""
"","","","","63d404f4eaf69448ef9e09e6","bdp_lott","Tue Mar 28 2023 20:13:14 GMT-0700 (Pacific Daylight Time)","305458","green","red","animation","118","128857","0.0-5.0-2.56","","","","","","169","","","","","","[{""stimulus"":""img/green_wl/1.jpg"",""time"":51},{""stimulus"":""img/green_wl/2.jpg"",""time"":114},{""stimulus"":""img/green_wl/3.jpg"",""time"":178},{""stimulus"":""img/green_wl/4.jpg"",""time"":241},{""stimulus"":""img/green_wl/5.jpg"",""time"":303},{""stimulus"":""img/green_wl/6.jpg"",""time"":366},{""stimulus"":""img/green_wl/7.jpg"",""time"":429},{""stimulus"":""img/green_wl/8.jpg"",""time"":488},{""stimulus"":""img/green_wl/9.jpg"",""time"":551},{""stimulus"":""img/green_wl/10.jpg"",""time"":614},{""stimulus"":""img/green_wl/11.jpg"",""time"":677}]","[]"
"","","","choice","63d404f4eaf69448ef9e09e6","bdp_lott","Tue Mar 28 2023 20:13:14 GMT-0700 (Pacific Daylight Time)","305458","green","red","image-keyboard-response","119","129406","0.0-5.0-1.57","","548","","img/green_wl/choose11.jpg","1","168","green","0.5","0.5","0.5","l","",""
"","","","","63d404f4eaf69448ef9e09e6","bdp_lott","Tue Mar 28 2023 20:13:14 GMT-0700 (Pacific Daylight Time)","305458","green","red","animation","120","130163","0.0-5.0-2.57","","","","","","168","","","","","","[{""stimulus"":""img/green_ll/1.jpg"",""time"":65},{""stimulus"":""img/green_ll/2.jpg"",""time"":129},{""stimulus"":""img/green_ll/3.jpg"",""time"":192},{""stimulus"":""img/green_ll/4.jpg"",""time"":255},{""stimulus"":""img/green_ll/5.jpg"",""time"":318},{""stimulus"":""img/green_ll/6.jpg"",""time"":380},{""stimulus"":""img/green_ll/7.jpg"",""time"":443},{""stimulus"":""img/green_ll/8.jpg"",""time"":507},{""stimulus"":""img/green_ll/9.jpg"",""time"":569},{""stimulus"":""img/green_ll/10.jpg"",""time"":632},{""stimulus"":""img/green_ll/11.jpg"",""time"":695}]","[]"
"","","","choice","63d404f4eaf69448ef9e09e6","bdp_lott","Tue Mar 28 2023 20:13:14 GMT-0700 (Pacific Daylight Time)","305458","green","red","image-keyboard-response","121","130581","0.0-5.0-1.58","","418","","img/green_ll/choose11.jpg","1","167","green","0.5","0.5","0.5","l","",""
"","","","","63d404f4eaf69448ef9e09e6","bdp_lott","Tue Mar 28 2023 20:13:14 GMT-0700 (Pacific Daylight Time)","305458","green","red","animation","122","131327","0.0-5.0-2.58","","","","","","167","","","","","","[{""stimulus"":""img/green_ll/1.jpg"",""time"":55},{""stimulus"":""img/green_ll/2.jpg"",""time"":119},{""stimulus"":""img/green_ll/3.jpg"",""time"":180},{""stimulus"":""img/green_ll/4.jpg"",""time"":243},{""stimulus"":""img/green_ll/5.jpg"",""time"":306},{""stimulus"":""img/green_ll/6.jpg"",""time"":369},{""stimulus"":""img/green_ll/7.jpg"",""time"":433},{""stimulus"":""img/green_ll/8.jpg"",""time"":495},{""stimulus"":""img/green_ll/9.jpg"",""time"":557},{""stimulus"":""img/green_ll/10.jpg"",""time"":620},{""stimulus"":""img/green_ll/11.jpg"",""time"":683}]","[]"
"","","","choice","63d404f4eaf69448ef9e09e6","bdp_lott","Tue Mar 28 2023 20:13:14 GMT-0700 (Pacific Daylight Time)","305458","green","red","image-keyboard-response","123","131718","0.0-5.0-1.59","","390","","img/green_ll/choose11.jpg","2","166","red","0.5","0.5","0.5","l","",""
"","","","","63d404f4eaf69448ef9e09e6","bdp_lott","Tue Mar 28 2023 20:13:14 GMT-0700 (Pacific Daylight Time)","305458","green","red","animation","124","132474","0.0-5.0-2.59","","","","","","166","","","","","","[{""stimulus"":""img/red_ll/1.jpg"",""time"":65},{""stimulus"":""img/red_ll/2.jpg"",""time"":128},{""stimulus"":""img/red_ll/3.jpg"",""time"":191},{""stimulus"":""img/red_ll/4.jpg"",""time"":254},{""stimulus"":""img/red_ll/5.jpg"",""time"":316},{""stimulus"":""img/red_ll/6.jpg"",""time"":379},{""stimulus"":""img/red_ll/7.jpg"",""time"":442},{""stimulus"":""img/red_ll/8.jpg"",""time"":505},{""stimulus"":""img/red_ll/9.jpg"",""time"":567},{""stimulus"":""img/red_ll/10.jpg"",""time"":630},{""stimulus"":""img/red_ll/11.jpg"",""time"":693}]","[]"
"","","","choice","63d404f4eaf69448ef9e09e6","bdp_lott","Tue Mar 28 2023 20:13:14 GMT-0700 (Pacific Daylight Time)","305458","green","red","image-keyboard-response","125","132820","0.0-5.0-1.60","","345","","img/red_ll/choose11.jpg","2","165","red","0.5","0.5","0.5","l","",""
"","","","","63d404f4eaf69448ef9e09e6","bdp_lott","Tue Mar 28 2023 20:13:14 GMT-0700 (Pacific Daylight Time)","305458","green","red","animation","126","133574","0.0-5.0-2.60","","","","","","165","","","","","","[{""stimulus"":""img/red_ll/1.jpg"",""time"":63},{""stimulus"":""img/red_ll/2.jpg"",""time"":126},{""stimulus"":""img/red_ll/3.jpg"",""time"":189},{""stimulus"":""img/red_ll/4.jpg"",""time"":252},{""stimulus"":""img/red_ll/5.jpg"",""time"":315},{""stimulus"":""img/red_ll/6.jpg"",""time"":379},{""stimulus"":""img/red_ll/7.jpg"",""time"":441},{""stimulus"":""img/red_ll/8.jpg"",""time"":504},{""stimulus"":""img/red_ll/9.jpg"",""time"":567},{""stimulus"":""img/red_ll/10.jpg"",""time"":630},{""stimulus"":""img/red_ll/11.jpg"",""time"":692}]","[]"
"","","","choice","63d404f4eaf69448ef9e09e6","bdp_lott","Tue Mar 28 2023 20:13:14 GMT-0700 (Pacific Daylight Time)","305458","green","red","image-keyboard-response","127","133934","0.0-5.0-1.61","","359","","img/red_ll/choose11.jpg","2","164","red","0.5","0.5","0.5","l","",""
"","","","","63d404f4eaf69448ef9e09e6","bdp_lott","Tue Mar 28 2023 20:13:14 GMT-0700 (Pacific Daylight Time)","305458","green","red","animation","128","134691","0.0-5.0-2.61","","","","","","164","","","","","","[{""stimulus"":""img/red_ll/1.jpg"",""time"":66},{""stimulus"":""img/red_ll/2.jpg"",""time"":128},{""stimulus"":""img/red_ll/3.jpg"",""time"":192},{""stimulus"":""img/red_ll/4.jpg"",""time"":255},{""stimulus"":""img/red_ll/5.jpg"",""time"":318},{""stimulus"":""img/red_ll/6.jpg"",""time"":381},{""stimulus"":""img/red_ll/7.jpg"",""time"":443},{""stimulus"":""img/red_ll/8.jpg"",""time"":506},{""stimulus"":""img/red_ll/9.jpg"",""time"":569},{""stimulus"":""img/red_ll/10.jpg"",""time"":632},{""stimulus"":""img/red_ll/11.jpg"",""time"":694}]","[]"
"","","","choice","63d404f4eaf69448ef9e09e6","bdp_lott","Tue Mar 28 2023 20:13:14 GMT-0700 (Pacific Daylight Time)","305458","green","red","image-keyboard-response","129","134862","0.0-5.0-1.62","","170","","img/red_ll/choose11.jpg","2","163","red","0.5","0.5","0.5","w","",""
"","","","","63d404f4eaf69448ef9e09e6","bdp_lott","Tue Mar 28 2023 20:13:14 GMT-0700 (Pacific Daylight Time)","305458","green","red","animation","130","135618","0.0-5.0-2.62","","","","","","163","","","","","","[{""stimulus"":""img/red_lw/1.jpg"",""time"":65},{""stimulus"":""img/red_lw/2.jpg"",""time"":127},{""stimulus"":""img/red_lw/3.jpg"",""time"":191},{""stimulus"":""img/red_lw/4.jpg"",""time"":254},{""stimulus"":""img/red_lw/5.jpg"",""time"":316},{""stimulus"":""img/red_lw/6.jpg"",""time"":379},{""stimulus"":""img/red_lw/7.jpg"",""time"":441},{""stimulus"":""img/red_lw/8.jpg"",""time"":505},{""stimulus"":""img/red_lw/9.jpg"",""time"":568},{""stimulus"":""img/red_lw/10.jpg"",""time"":631},{""stimulus"":""img/red_lw/11.jpg"",""time"":694}]","[]"
"","","","choice","63d404f4eaf69448ef9e09e6","bdp_lott","Tue Mar 28 2023 20:13:14 GMT-0700 (Pacific Daylight Time)","305458","green","red","image-keyboard-response","131","136342","0.0-5.0-1.63","","722","","img/red_lw/choose11.jpg","1","162","green","0.5","0.5","0.5","l","",""
"","","","","63d404f4eaf69448ef9e09e6","bdp_lott","Tue Mar 28 2023 20:13:14 GMT-0700 (Pacific Daylight Time)","305458","green","red","animation","132","137095","0.0-5.0-2.63","","","","","","162","","","","","","[{""stimulus"":""img/green_lw/1.jpg"",""time"":62},{""stimulus"":""img/green_lw/2.jpg"",""time"":125},{""stimulus"":""img/green_lw/3.jpg"",""time"":188},{""stimulus"":""img/green_lw/4.jpg"",""time"":252},{""stimulus"":""img/green_lw/5.jpg"",""time"":314},{""stimulus"":""img/green_lw/6.jpg"",""time"":377},{""stimulus"":""img/green_lw/7.jpg"",""time"":439},{""stimulus"":""img/green_lw/8.jpg"",""time"":503},{""stimulus"":""img/green_lw/9.jpg"",""time"":565},{""stimulus"":""img/green_lw/10.jpg"",""time"":629},{""stimulus"":""img/green_lw/11.jpg"",""time"":691}]","[]"
"","","","choice","63d404f4eaf69448ef9e09e6","bdp_lott","Tue Mar 28 2023 20:13:14 GMT-0700 (Pacific Daylight Time)","305458","green","red","image-keyboard-response","133","137541","0.0-5.0-1.64","","445","","img/green_lw/choose11.jpg","1","161","green","0.5","0.5","0.5","w","",""
"","","","","63d404f4eaf69448ef9e09e6","bdp_lott","Tue Mar 28 2023 20:13:14 GMT-0700 (Pacific Daylight Time)","305458","green","red","animation","134","138289","0.0-5.0-2.64","","","","","","161","","","","","","[{""stimulus"":""img/green_ww/1.jpg"",""time"":57},{""stimulus"":""img/green_ww/2.jpg"",""time"":120},{""stimulus"":""img/green_ww/3.jpg"",""time"":183},{""stimulus"":""img/green_ww/4.jpg"",""time"":246},{""stimulus"":""img/green_ww/5.jpg"",""time"":308},{""stimulus"":""img/green_ww/6.jpg"",""time"":371},{""stimulus"":""img/green_ww/7.jpg"",""time"":434},{""stimulus"":""img/green_ww/8.jpg"",""time"":496},{""stimulus"":""img/green_ww/9.jpg"",""time"":559},{""stimulus"":""img/green_ww/10.jpg"",""time"":622},{""stimulus"":""img/green_ww/11.jpg"",""time"":684}]","[]"
"","","","choice","63d404f4eaf69448ef9e09e6","bdp_lott","Tue Mar 28 2023 20:13:14 GMT-0700 (Pacific Daylight Time)","305458","green","red","image-keyboard-response","135","138829","0.0-5.0-1.65","","539","","img/green_ww/choose11.jpg","1","160","green","0.5","0.5","0.5","l","",""
"","","","","63d404f4eaf69448ef9e09e6","bdp_lott","Tue Mar 28 2023 20:13:14 GMT-0700 (Pacific Daylight Time)","305458","green","red","animation","136","139578","0.0-5.0-2.65","","","","","","160","","","","","","[{""stimulus"":""img/green_lw/1.jpg"",""time"":57},{""stimulus"":""img/green_lw/2.jpg"",""time"":120},{""stimulus"":""img/green_lw/3.jpg"",""time"":184},{""stimulus"":""img/green_lw/4.jpg"",""time"":246},{""stimulus"":""img/green_lw/5.jpg"",""time"":309},{""stimulus"":""img/green_lw/6.jpg"",""time"":372},{""stimulus"":""img/green_lw/7.jpg"",""time"":434},{""stimulus"":""img/green_lw/8.jpg"",""time"":497},{""stimulus"":""img/green_lw/9.jpg"",""time"":561},{""stimulus"":""img/green_lw/10.jpg"",""time"":623},{""stimulus"":""img/green_lw/11.jpg"",""time"":686}]","[]"
"","","","choice","63d404f4eaf69448ef9e09e6","bdp_lott","Tue Mar 28 2023 20:13:14 GMT-0700 (Pacific Daylight Time)","305458","green","red","image-keyboard-response","137","139997","0.0-5.0-1.66","","419","","img/green_lw/choose11.jpg","1","159","green","0.5","0.5","0.5","l","",""
"","","","","63d404f4eaf69448ef9e09e6","bdp_lott","Tue Mar 28 2023 20:13:14 GMT-0700 (Pacific Daylight Time)","305458","green","red","animation","138","140741","0.0-5.0-2.66","","","","","","159","","","","","","[{""stimulus"":""img/green_lw/1.jpg"",""time"":54},{""stimulus"":""img/green_lw/2.jpg"",""time"":116},{""stimulus"":""img/green_lw/3.jpg"",""time"":178},{""stimulus"":""img/green_lw/4.jpg"",""time"":242},{""stimulus"":""img/green_lw/5.jpg"",""time"":305},{""stimulus"":""img/green_lw/6.jpg"",""time"":367},{""stimulus"":""img/green_lw/7.jpg"",""time"":430},{""stimulus"":""img/green_lw/8.jpg"",""time"":493},{""stimulus"":""img/green_lw/9.jpg"",""time"":556},{""stimulus"":""img/green_lw/10.jpg"",""time"":619},{""stimulus"":""img/green_lw/11.jpg"",""time"":681}]","[]"
"","","","choice","63d404f4eaf69448ef9e09e6","bdp_lott","Tue Mar 28 2023 20:13:14 GMT-0700 (Pacific Daylight Time)","305458","green","red","image-keyboard-response","139","141245","0.0-5.0-1.67","","503","","img/green_lw/choose11.jpg","1","158","green","0.5","0.5","0.5","w","",""
"","","","","63d404f4eaf69448ef9e09e6","bdp_lott","Tue Mar 28 2023 20:13:14 GMT-0700 (Pacific Daylight Time)","305458","green","red","animation","140","142007","0.0-5.0-2.67","","","","","","158","","","","","","[{""stimulus"":""img/green_ww/1.jpg"",""time"":64},{""stimulus"":""img/green_ww/2.jpg"",""time"":126},{""stimulus"":""img/green_ww/3.jpg"",""time"":189},{""stimulus"":""img/green_ww/4.jpg"",""time"":252},{""stimulus"":""img/green_ww/5.jpg"",""time"":314},{""stimulus"":""img/green_ww/6.jpg"",""time"":384},{""stimulus"":""img/green_ww/7.jpg"",""time"":446},{""stimulus"":""img/green_ww/8.jpg"",""time"":510},{""stimulus"":""img/green_ww/9.jpg"",""time"":574},{""stimulus"":""img/green_ww/10.jpg"",""time"":637},{""stimulus"":""img/green_ww/11.jpg"",""time"":699}]","[]"
"","","","choice","63d404f4eaf69448ef9e09e6","bdp_lott","Tue Mar 28 2023 20:13:14 GMT-0700 (Pacific Daylight Time)","305458","green","red","image-keyboard-response","141","142621","0.0-5.0-1.68","","613","","img/green_ww/choose11.jpg","1","157","green","0.5","0.5","0.5","w","",""
"","","","","63d404f4eaf69448ef9e09e6","bdp_lott","Tue Mar 28 2023 20:13:14 GMT-0700 (Pacific Daylight Time)","305458","green","red","animation","142","143365","0.0-5.0-2.68","","","","","","157","","","","","","[{""stimulus"":""img/green_ww/1.jpg"",""time"":54},{""stimulus"":""img/green_ww/2.jpg"",""time"":117},{""stimulus"":""img/green_ww/3.jpg"",""time"":180},{""stimulus"":""img/green_ww/4.jpg"",""time"":242},{""stimulus"":""img/green_ww/5.jpg"",""time"":305},{""stimulus"":""img/green_ww/6.jpg"",""time"":367},{""stimulus"":""img/green_ww/7.jpg"",""time"":431},{""stimulus"":""img/green_ww/8.jpg"",""time"":494},{""stimulus"":""img/green_ww/9.jpg"",""time"":556},{""stimulus"":""img/green_ww/10.jpg"",""time"":619},{""stimulus"":""img/green_ww/11.jpg"",""time"":682}]","[]"
"","","","choice","63d404f4eaf69448ef9e09e6","bdp_lott","Tue Mar 28 2023 20:13:14 GMT-0700 (Pacific Daylight Time)","305458","green","red","image-keyboard-response","143","144054","0.0-5.0-1.69","","688","","img/green_ww/choose11.jpg","1","156","green","0.5","0.5","0.5","w","",""
"","","","","63d404f4eaf69448ef9e09e6","bdp_lott","Tue Mar 28 2023 20:13:14 GMT-0700 (Pacific Daylight Time)","305458","green","red","animation","144","144797","0.0-5.0-2.69","","","","","","156","","","","","","[{""stimulus"":""img/green_ww/1.jpg"",""time"":51},{""stimulus"":""img/green_ww/2.jpg"",""time"":113},{""stimulus"":""img/green_ww/3.jpg"",""time"":177},{""stimulus"":""img/green_ww/4.jpg"",""time"":240},{""stimulus"":""img/green_ww/5.jpg"",""time"":302},{""stimulus"":""img/green_ww/6.jpg"",""time"":365},{""stimulus"":""img/green_ww/7.jpg"",""time"":427},{""stimulus"":""img/green_ww/8.jpg"",""time"":491},{""stimulus"":""img/green_ww/9.jpg"",""time"":554},{""stimulus"":""img/green_ww/10.jpg"",""time"":617},{""stimulus"":""img/green_ww/11.jpg"",""time"":679}]","[]"
"","","","choice","63d404f4eaf69448ef9e09e6","bdp_lott","Tue Mar 28 2023 20:13:14 GMT-0700 (Pacific Daylight Time)","305458","green","red","image-keyboard-response","145","145437","0.0-5.0-1.70","","640","","img/green_ww/choose11.jpg","1","155","green","0.5","0.5","0.5","l","",""
"","","","","63d404f4eaf69448ef9e09e6","bdp_lott","Tue Mar 28 2023 20:13:14 GMT-0700 (Pacific Daylight Time)","305458","green","red","animation","146","146180","0.0-5.0-2.70","","","","","","155","","","","","","[{""stimulus"":""img/green_lw/1.jpg"",""time"":52},{""stimulus"":""img/green_lw/2.jpg"",""time"":114},{""stimulus"":""img/green_lw/3.jpg"",""time"":177},{""stimulus"":""img/green_lw/4.jpg"",""time"":240},{""stimulus"":""img/green_lw/5.jpg"",""time"":302},{""stimulus"":""img/green_lw/6.jpg"",""time"":366},{""stimulus"":""img/green_lw/7.jpg"",""time"":428},{""stimulus"":""img/green_lw/8.jpg"",""time"":491},{""stimulus"":""img/green_lw/9.jpg"",""time"":553},{""stimulus"":""img/green_lw/10.jpg"",""time"":617},{""stimulus"":""img/green_lw/11.jpg"",""time"":679}]","[]"
"","","","choice","63d404f4eaf69448ef9e09e6","bdp_lott","Tue Mar 28 2023 20:13:14 GMT-0700 (Pacific Daylight Time)","305458","green","red","image-keyboard-response","147","146765","0.0-5.0-1.71","","585","","img/green_lw/choose11.jpg","1","154","green","0.5","0.5","0.5","l","",""
"","","","","63d404f4eaf69448ef9e09e6","bdp_lott","Tue Mar 28 2023 20:13:14 GMT-0700 (Pacific Daylight Time)","305458","green","red","animation","148","147515","0.0-5.0-2.71","","","","","","154","","","","","","[{""stimulus"":""img/green_lw/1.jpg"",""time"":60},{""stimulus"":""img/green_lw/2.jpg"",""time"":122},{""stimulus"":""img/green_lw/3.jpg"",""time"":185},{""stimulus"":""img/green_lw/4.jpg"",""time"":248},{""stimulus"":""img/green_lw/5.jpg"",""time"":310},{""stimulus"":""img/green_lw/6.jpg"",""time"":374},{""stimulus"":""img/green_lw/7.jpg"",""time"":436},{""stimulus"":""img/green_lw/8.jpg"",""time"":499},{""stimulus"":""img/green_lw/9.jpg"",""time"":563},{""stimulus"":""img/green_lw/10.jpg"",""time"":625},{""stimulus"":""img/green_lw/11.jpg"",""time"":688}]","[]"
"","","","choice","63d404f4eaf69448ef9e09e6","bdp_lott","Tue Mar 28 2023 20:13:14 GMT-0700 (Pacific Daylight Time)","305458","green","red","image-keyboard-response","149","148332","0.0-5.0-1.72","","817","","img/green_lw/choose11.jpg","1","153","green","0.5","0.5","0.5","w","",""
"","","","","63d404f4eaf69448ef9e09e6","bdp_lott","Tue Mar 28 2023 20:13:14 GMT-0700 (Pacific Daylight Time)","305458","green","red","animation","150","149085","0.0-5.0-2.72","","","","","","153","","","","","","[{""stimulus"":""img/green_ww/1.jpg"",""time"":63},{""stimulus"":""img/green_ww/2.jpg"",""time"":126},{""stimulus"":""img/green_ww/3.jpg"",""time"":189},{""stimulus"":""img/green_ww/4.jpg"",""time"":251},{""stimulus"":""img/green_ww/5.jpg"",""time"":315},{""stimulus"":""img/green_ww/6.jpg"",""time"":377},{""stimulus"":""img/green_ww/7.jpg"",""time"":440},{""stimulus"":""img/green_ww/8.jpg"",""time"":503},{""stimulus"":""img/green_ww/9.jpg"",""time"":565},{""stimulus"":""img/green_ww/10.jpg"",""time"":629},{""stimulus"":""img/green_ww/11.jpg"",""time"":691}]","[]"
"","","","choice","63d404f4eaf69448ef9e09e6","bdp_lott","Tue Mar 28 2023 20:13:14 GMT-0700 (Pacific Daylight Time)","305458","green","red","image-keyboard-response","151","149662","0.0-5.0-1.73","","576","","img/green_ww/choose11.jpg","1","152","green","0.5","0.5","0.5","l","",""
"","","","","63d404f4eaf69448ef9e09e6","bdp_lott","Tue Mar 28 2023 20:13:14 GMT-0700 (Pacific Daylight Time)","305458","green","red","animation","152","150407","0.0-5.0-2.73","","","","","","152","","","","","","[{""stimulus"":""img/green_lw/1.jpg"",""time"":54},{""stimulus"":""img/green_lw/2.jpg"",""time"":117},{""stimulus"":""img/green_lw/3.jpg"",""time"":180},{""stimulus"":""img/green_lw/4.jpg"",""time"":243},{""stimulus"":""img/green_lw/5.jpg"",""time"":305},{""stimulus"":""img/green_lw/6.jpg"",""time"":369},{""stimulus"":""img/green_lw/7.jpg"",""time"":431},{""stimulus"":""img/green_lw/8.jpg"",""time"":495},{""stimulus"":""img/green_lw/9.jpg"",""time"":557},{""stimulus"":""img/green_lw/10.jpg"",""time"":620},{""stimulus"":""img/green_lw/11.jpg"",""time"":684}]","[]"
"","","","choice","63d404f4eaf69448ef9e09e6","bdp_lott","Tue Mar 28 2023 20:13:14 GMT-0700 (Pacific Daylight Time)","305458","green","red","image-keyboard-response","153","151302","0.0-5.0-1.74","","894","","img/green_lw/choose11.jpg","2","151","red","0.5","0.5","0.5","w","",""
"","","","","63d404f4eaf69448ef9e09e6","bdp_lott","Tue Mar 28 2023 20:13:14 GMT-0700 (Pacific Daylight Time)","305458","green","red","animation","154","152053","0.0-5.0-2.74","","","","","","151","","","","","","[{""stimulus"":""img/red_lw/1.jpg"",""time"":62},{""stimulus"":""img/red_lw/2.jpg"",""time"":124},{""stimulus"":""img/red_lw/3.jpg"",""time"":185},{""stimulus"":""img/red_lw/4.jpg"",""time"":248},{""stimulus"":""img/red_lw/5.jpg"",""time"":311},{""stimulus"":""img/red_lw/6.jpg"",""time"":375},{""stimulus"":""img/red_lw/7.jpg"",""time"":438},{""stimulus"":""img/red_lw/8.jpg"",""time"":500},{""stimulus"":""img/red_lw/9.jpg"",""time"":563},{""stimulus"":""img/red_lw/10.jpg"",""time"":626},{""stimulus"":""img/red_lw/11.jpg"",""time"":689}]","[]"
"","","","choice","63d404f4eaf69448ef9e09e6","bdp_lott","Tue Mar 28 2023 20:13:14 GMT-0700 (Pacific Daylight Time)","305458","green","red","image-keyboard-response","155","153061","0.0-5.0-1.75","","1007","","img/red_lw/choose11.jpg","2","150","red","0.5","0.5","0.5","l","",""
"","","","","63d404f4eaf69448ef9e09e6","bdp_lott","Tue Mar 28 2023 20:13:14 GMT-0700 (Pacific Daylight Time)","305458","green","red","animation","156","153810","0.0-5.0-2.75","","","","","","150","","","","","","[{""stimulus"":""img/red_ll/1.jpg"",""time"":57},{""stimulus"":""img/red_ll/2.jpg"",""time"":120},{""stimulus"":""img/red_ll/3.jpg"",""time"":183},{""stimulus"":""img/red_ll/4.jpg"",""time"":246},{""stimulus"":""img/red_ll/5.jpg"",""time"":309},{""stimulus"":""img/red_ll/6.jpg"",""time"":372},{""stimulus"":""img/red_ll/7.jpg"",""time"":434},{""stimulus"":""img/red_ll/8.jpg"",""time"":498},{""stimulus"":""img/red_ll/9.jpg"",""time"":561},{""stimulus"":""img/red_ll/10.jpg"",""time"":623},{""stimulus"":""img/red_ll/11.jpg"",""time"":686}]","[]"
"","","","choice","63d404f4eaf69448ef9e09e6","bdp_lott","Tue Mar 28 2023 20:13:14 GMT-0700 (Pacific Daylight Time)","305458","green","red","image-keyboard-response","157","154205","0.0-5.0-1.76","","394","","img/red_ll/choose11.jpg","1","149","green","0.5","0.1","0.5","w","",""
"","","","","63d404f4eaf69448ef9e09e6","bdp_lott","Tue Mar 28 2023 20:13:14 GMT-0700 (Pacific Daylight Time)","305458","green","red","animation","158","154958","0.0-5.0-2.76","","","","","","149","","","","","","[{""stimulus"":""img/green_wl/1.jpg"",""time"":63},{""stimulus"":""img/green_wl/2.jpg"",""time"":125},{""stimulus"":""img/green_wl/3.jpg"",""time"":188},{""stimulus"":""img/green_wl/4.jpg"",""time"":250},{""stimulus"":""img/green_wl/5.jpg"",""time"":313},{""stimulus"":""img/green_wl/6.jpg"",""time"":376},{""stimulus"":""img/green_wl/7.jpg"",""time"":439},{""stimulus"":""img/green_wl/8.jpg"",""time"":502},{""stimulus"":""img/green_wl/9.jpg"",""time"":565},{""stimulus"":""img/green_wl/10.jpg"",""time"":628},{""stimulus"":""img/green_wl/11.jpg"",""time"":691}]","[]"
"","","","choice","63d404f4eaf69448ef9e09e6","bdp_lott","Tue Mar 28 2023 20:13:14 GMT-0700 (Pacific Daylight Time)","305458","green","red","image-keyboard-response","159","155429","0.0-5.0-1.77","","470","","img/green_wl/choose11.jpg","1","148","green","0.5","0.1","0.5","l","",""
"","","","","63d404f4eaf69448ef9e09e6","bdp_lott","Tue Mar 28 2023 20:13:14 GMT-0700 (Pacific Daylight Time)","305458","green","red","animation","160","156185","0.0-5.0-2.77","","","","","","148","","","","","","[{""stimulus"":""img/green_ll/1.jpg"",""time"":64},{""stimulus"":""img/green_ll/2.jpg"",""time"":127},{""stimulus"":""img/green_ll/3.jpg"",""time"":190},{""stimulus"":""img/green_ll/4.jpg"",""time"":253},{""stimulus"":""img/green_ll/5.jpg"",""time"":316},{""stimulus"":""img/green_ll/6.jpg"",""time"":379},{""stimulus"":""img/green_ll/7.jpg"",""time"":442},{""stimulus"":""img/green_ll/8.jpg"",""time"":505},{""stimulus"":""img/green_ll/9.jpg"",""time"":568},{""stimulus"":""img/green_ll/10.jpg"",""time"":630},{""stimulus"":""img/green_ll/11.jpg"",""time"":693}]","[]"
"","","","choice","63d404f4eaf69448ef9e09e6","bdp_lott","Tue Mar 28 2023 20:13:14 GMT-0700 (Pacific Daylight Time)","305458","green","red","image-keyboard-response","161","156629","0.0-5.0-1.78","","444","","img/green_ll/choose11.jpg","1","147","green","0.5","0.1","0.5","l","",""
"","","","","63d404f4eaf69448ef9e09e6","bdp_lott","Tue Mar 28 2023 20:13:14 GMT-0700 (Pacific Daylight Time)","305458","green","red","animation","162","157394","0.0-5.0-2.78","","","","","","147","","","","","","[{""stimulus"":""img/green_ll/1.jpg"",""time"":59},{""stimulus"":""img/green_ll/2.jpg"",""time"":136},{""stimulus"":""img/green_ll/3.jpg"",""time"":201},{""stimulus"":""img/green_ll/4.jpg"",""time"":262},{""stimulus"":""img/green_ll/5.jpg"",""time"":324},{""stimulus"":""img/green_ll/6.jpg"",""time"":387},{""stimulus"":""img/green_ll/7.jpg"",""time"":451},{""stimulus"":""img/green_ll/8.jpg"",""time"":515},{""stimulus"":""img/green_ll/9.jpg"",""time"":577},{""stimulus"":""img/green_ll/10.jpg"",""time"":641},{""stimulus"":""img/green_ll/11.jpg"",""time"":702}]","[]"
"","","","choice","63d404f4eaf69448ef9e09e6","bdp_lott","Tue Mar 28 2023 20:13:14 GMT-0700 (Pacific Daylight Time)","305458","green","red","image-keyboard-response","163","158054","0.0-5.0-1.79","","659","","img/green_ll/choose11.jpg","1","146","green","0.5","0.1","0.5","w","",""
"","","","","63d404f4eaf69448ef9e09e6","bdp_lott","Tue Mar 28 2023 20:13:14 GMT-0700 (Pacific Daylight Time)","305458","green","red","animation","164","158804","0.0-5.0-2.79","","","","","","146","","","","","","[{""stimulus"":""img/green_wl/1.jpg"",""time"":61},{""stimulus"":""img/green_wl/2.jpg"",""time"":123},{""stimulus"":""img/green_wl/3.jpg"",""time"":187},{""stimulus"":""img/green_wl/4.jpg"",""time"":250},{""stimulus"":""img/green_wl/5.jpg"",""time"":313},{""stimulus"":""img/green_wl/6.jpg"",""time"":375},{""stimulus"":""img/green_wl/7.jpg"",""time"":438},{""stimulus"":""img/green_wl/8.jpg"",""time"":501},{""stimulus"":""img/green_wl/9.jpg"",""time"":564},{""stimulus"":""img/green_wl/10.jpg"",""time"":626},{""stimulus"":""img/green_wl/11.jpg"",""time"":690}]","[]"
"","","","choice","63d404f4eaf69448ef9e09e6","bdp_lott","Tue Mar 28 2023 20:13:14 GMT-0700 (Pacific Daylight Time)","305458","green","red","image-keyboard-response","165","159356","0.0-5.0-1.80","","551","","img/green_wl/choose11.jpg","1","145","green","0.5","0.1","0.5","l","",""
"","","","","63d404f4eaf69448ef9e09e6","bdp_lott","Tue Mar 28 2023 20:13:14 GMT-0700 (Pacific Daylight Time)","305458","green","red","animation","166","160107","0.0-5.0-2.80","","","","","","145","","","","","","[{""stimulus"":""img/green_ll/1.jpg"",""time"":59},{""stimulus"":""img/green_ll/2.jpg"",""time"":123},{""stimulus"":""img/green_ll/3.jpg"",""time"":185},{""stimulus"":""img/green_ll/4.jpg"",""time"":248},{""stimulus"":""img/green_ll/5.jpg"",""time"":312},{""stimulus"":""img/green_ll/6.jpg"",""time"":374},{""stimulus"":""img/green_ll/7.jpg"",""time"":437},{""stimulus"":""img/green_ll/8.jpg"",""time"":500},{""stimulus"":""img/green_ll/9.jpg"",""time"":562},{""stimulus"":""img/green_ll/10.jpg"",""time"":625},{""stimulus"":""img/green_ll/11.jpg"",""time"":688}]","[]"
"","","","choice","63d404f4eaf69448ef9e09e6","bdp_lott","Tue Mar 28 2023 20:13:14 GMT-0700 (Pacific Daylight Time)","305458","green","red","image-keyboard-response","167","160508","0.0-5.0-1.81","","400","","img/green_ll/choose11.jpg","1","144","green","0.5","0.1","0.5","w","",""
"","","","","63d404f4eaf69448ef9e09e6","bdp_lott","Tue Mar 28 2023 20:13:14 GMT-0700 (Pacific Daylight Time)","305458","green","red","animation","168","161244","0.0-5.0-2.81","","","","","","144","","","","","","[{""stimulus"":""img/green_wl/1.jpg"",""time"":56},{""stimulus"":""img/green_wl/2.jpg"",""time"":118},{""stimulus"":""img/green_wl/3.jpg"",""time"":181},{""stimulus"":""img/green_wl/4.jpg"",""time"":243},{""stimulus"":""img/green_wl/5.jpg"",""time"":307},{""stimulus"":""img/green_wl/6.jpg"",""time"":369},{""stimulus"":""img/green_wl/7.jpg"",""time"":432},{""stimulus"":""img/green_wl/8.jpg"",""time"":496},{""stimulus"":""img/green_wl/9.jpg"",""time"":547},{""stimulus"":""img/green_wl/10.jpg"",""time"":610},{""stimulus"":""img/green_wl/11.jpg"",""time"":673}]","[]"
"","","","choice","63d404f4eaf69448ef9e09e6","bdp_lott","Tue Mar 28 2023 20:13:14 GMT-0700 (Pacific Daylight Time)","305458","green","red","image-keyboard-response","169","161701","0.0-5.0-1.82","","457","","img/green_wl/choose11.jpg","1","143","green","0.5","0.1","0.5","l","",""
"","","","","63d404f4eaf69448ef9e09e6","bdp_lott","Tue Mar 28 2023 20:13:14 GMT-0700 (Pacific Daylight Time)","305458","green","red","animation","170","162449","0.0-5.0-2.82","","","","","","143","","","","","","[{""stimulus"":""img/green_ll/1.jpg"",""time"":61},{""stimulus"":""img/green_ll/2.jpg"",""time"":123},{""stimulus"":""img/green_ll/3.jpg"",""time"":186},{""stimulus"":""img/green_ll/4.jpg"",""time"":249},{""stimulus"":""img/green_ll/5.jpg"",""time"":312},{""stimulus"":""img/green_ll/6.jpg"",""time"":370},{""stimulus"":""img/green_ll/7.jpg"",""time"":434},{""stimulus"":""img/green_ll/8.jpg"",""time"":495},{""stimulus"":""img/green_ll/9.jpg"",""time"":557},{""stimulus"":""img/green_ll/10.jpg"",""time"":621},{""stimulus"":""img/green_ll/11.jpg"",""time"":683}]","[]"
"","","","choice","63d404f4eaf69448ef9e09e6","bdp_lott","Tue Mar 28 2023 20:13:14 GMT-0700 (Pacific Daylight Time)","305458","green","red","image-keyboard-response","171","162781","0.0-5.0-1.83","","331","","img/green_ll/choose11.jpg","1","142","green","0.5","0.1","0.5","w","",""
"","","","","63d404f4eaf69448ef9e09e6","bdp_lott","Tue Mar 28 2023 20:13:14 GMT-0700 (Pacific Daylight Time)","305458","green","red","animation","172","163532","0.0-5.0-2.83","","","","","","142","","","","","","[{""stimulus"":""img/green_wl/1.jpg"",""time"":61},{""stimulus"":""img/green_wl/2.jpg"",""time"":124},{""stimulus"":""img/green_wl/3.jpg"",""time"":186},{""stimulus"":""img/green_wl/4.jpg"",""time"":249},{""stimulus"":""img/green_wl/5.jpg"",""time"":312},{""stimulus"":""img/green_wl/6.jpg"",""time"":376},{""stimulus"":""img/green_wl/7.jpg"",""time"":438},{""stimulus"":""img/green_wl/8.jpg"",""time"":501},{""stimulus"":""img/green_wl/9.jpg"",""time"":564},{""stimulus"":""img/green_wl/10.jpg"",""time"":627},{""stimulus"":""img/green_wl/11.jpg"",""time"":689}]","[]"
"","","","choice","63d404f4eaf69448ef9e09e6","bdp_lott","Tue Mar 28 2023 20:13:14 GMT-0700 (Pacific Daylight Time)","305458","green","red","image-keyboard-response","173","164022","0.0-5.0-1.84","","488","","img/green_wl/choose11.jpg","1","141","green","0.5","0.1","0.5","w","",""
"","","","","63d404f4eaf69448ef9e09e6","bdp_lott","Tue Mar 28 2023 20:13:14 GMT-0700 (Pacific Daylight Time)","305458","green","red","animation","174","164775","0.0-5.0-2.84","","","","","","141","","","","","","[{""stimulus"":""img/green_wl/1.jpg"",""time"":63},{""stimulus"":""img/green_wl/2.jpg"",""time"":126},{""stimulus"":""img/green_wl/3.jpg"",""time"":188},{""stimulus"":""img/green_wl/4.jpg"",""time"":251},{""stimulus"":""img/green_wl/5.jpg"",""time"":314},{""stimulus"":""img/green_wl/6.jpg"",""time"":377},{""stimulus"":""img/green_wl/7.jpg"",""time"":439},{""stimulus"":""img/green_wl/8.jpg"",""time"":502},{""stimulus"":""img/green_wl/9.jpg"",""time"":566},{""stimulus"":""img/green_wl/10.jpg"",""time"":628},{""stimulus"":""img/green_wl/11.jpg"",""time"":690}]","[]"
"","","","choice","63d404f4eaf69448ef9e09e6","bdp_lott","Tue Mar 28 2023 20:13:14 GMT-0700 (Pacific Daylight Time)","305458","green","red","image-keyboard-response","175","165238","0.0-5.0-1.85","","462","","img/green_wl/choose11.jpg","1","140","green","0.5","0.1","0.5","w","",""
"","","","","63d404f4eaf69448ef9e09e6","bdp_lott","Tue Mar 28 2023 20:13:14 GMT-0700 (Pacific Daylight Time)","305458","green","red","animation","176","165985","0.0-5.0-2.85","","","","","","140","","","","","","[{""stimulus"":""img/green_wl/1.jpg"",""time"":56},{""stimulus"":""img/green_wl/2.jpg"",""time"":120},{""stimulus"":""img/green_wl/3.jpg"",""time"":182},{""stimulus"":""img/green_wl/4.jpg"",""time"":245},{""stimulus"":""img/green_wl/5.jpg"",""time"":308},{""stimulus"":""img/green_wl/6.jpg"",""time"":371},{""stimulus"":""img/green_wl/7.jpg"",""time"":434},{""stimulus"":""img/green_wl/8.jpg"",""time"":496},{""stimulus"":""img/green_wl/9.jpg"",""time"":559},{""stimulus"":""img/green_wl/10.jpg"",""time"":622},{""stimulus"":""img/green_wl/11.jpg"",""time"":685}]","[]"
"","","","choice","63d404f4eaf69448ef9e09e6","bdp_lott","Tue Mar 28 2023 20:13:14 GMT-0700 (Pacific Daylight Time)","305458","green","red","image-keyboard-response","177","166453","0.0-5.0-1.86","","468","","img/green_wl/choose11.jpg","1","139","green","0.5","0.1","0.5","l","",""
"","","","","63d404f4eaf69448ef9e09e6","bdp_lott","Tue Mar 28 2023 20:13:14 GMT-0700 (Pacific Daylight Time)","305458","green","red","animation","178","167195","0.0-5.0-2.86","","","","","","139","","","","","","[{""stimulus"":""img/green_ll/1.jpg"",""time"":50},{""stimulus"":""img/green_ll/2.jpg"",""time"":113},{""stimulus"":""img/green_ll/3.jpg"",""time"":176},{""stimulus"":""img/green_ll/4.jpg"",""time"":239},{""stimulus"":""img/green_ll/5.jpg"",""time"":303},{""stimulus"":""img/green_ll/6.jpg"",""time"":364},{""stimulus"":""img/green_ll/7.jpg"",""time"":427},{""stimulus"":""img/green_ll/8.jpg"",""time"":490},{""stimulus"":""img/green_ll/9.jpg"",""time"":553},{""stimulus"":""img/green_ll/10.jpg"",""time"":616},{""stimulus"":""img/green_ll/11.jpg"",""time"":679}]","[]"
"","","","choice","63d404f4eaf69448ef9e09e6","bdp_lott","Tue Mar 28 2023 20:13:14 GMT-0700 (Pacific Daylight Time)","305458","green","red","image-keyboard-response","179","167694","0.0-5.0-1.87","","498","","img/green_ll/choose11.jpg","1","138","green","0.5","0.1","0.5","w","",""
"","","","","63d404f4eaf69448ef9e09e6","bdp_lott","Tue Mar 28 2023 20:13:14 GMT-0700 (Pacific Daylight Time)","305458","green","red","animation","180","168436","0.0-5.0-2.87","","","","","","138","","","","","","[{""stimulus"":""img/green_wl/1.jpg"",""time"":51},{""stimulus"":""img/green_wl/2.jpg"",""time"":114},{""stimulus"":""img/green_wl/3.jpg"",""time"":176},{""stimulus"":""img/green_wl/4.jpg"",""time"":239},{""stimulus"":""img/green_wl/5.jpg"",""time"":302},{""stimulus"":""img/green_wl/6.jpg"",""time"":365},{""stimulus"":""img/green_wl/7.jpg"",""time"":427},{""stimulus"":""img/green_wl/8.jpg"",""time"":490},{""stimulus"":""img/green_wl/9.jpg"",""time"":553},{""stimulus"":""img/green_wl/10.jpg"",""time"":616},{""stimulus"":""img/green_wl/11.jpg"",""time"":679}]","[]"
"","","","choice","63d404f4eaf69448ef9e09e6","bdp_lott","Tue Mar 28 2023 20:13:14 GMT-0700 (Pacific Daylight Time)","305458","green","red","image-keyboard-response","181","168797","0.0-5.0-1.88","","361","","img/green_wl/choose11.jpg","2","137","red","0.5","0.1","0.1","l","",""
"","","","","63d404f4eaf69448ef9e09e6","bdp_lott","Tue Mar 28 2023 20:13:14 GMT-0700 (Pacific Daylight Time)","305458","green","red","animation","182","169552","0.0-5.0-2.88","","","","","","137","","","","","","[{""stimulus"":""img/red_wl/1.jpg"",""time"":62},{""stimulus"":""img/red_wl/2.jpg"",""time"":125},{""stimulus"":""img/red_wl/3.jpg"",""time"":187},{""stimulus"":""img/red_wl/4.jpg"",""time"":250},{""stimulus"":""img/red_wl/5.jpg"",""time"":314},{""stimulus"":""img/red_wl/6.jpg"",""time"":377},{""stimulus"":""img/red_wl/7.jpg"",""time"":440},{""stimulus"":""img/red_wl/8.jpg"",""time"":502},{""stimulus"":""img/red_wl/9.jpg"",""time"":565},{""stimulus"":""img/red_wl/10.jpg"",""time"":628},{""stimulus"":""img/red_wl/11.jpg"",""time"":691}]","[]"
"","","","choice","63d404f4eaf69448ef9e09e6","bdp_lott","Tue Mar 28 2023 20:13:14 GMT-0700 (Pacific Daylight Time)","305458","green","red","image-keyboard-response","183","169884","0.0-5.0-1.89","","330","","img/red_wl/choose11.jpg","2","136","red","0.5","0.1","0.1","l","",""
"","","","","63d404f4eaf69448ef9e09e6","bdp_lott","Tue Mar 28 2023 20:13:14 GMT-0700 (Pacific Daylight Time)","305458","green","red","animation","184","170636","0.0-5.0-2.89","","","","","","136","","","","","","[{""stimulus"":""img/red_wl/1.jpg"",""time"":61},{""stimulus"":""img/red_wl/2.jpg"",""time"":123},{""stimulus"":""img/red_wl/3.jpg"",""time"":187},{""stimulus"":""img/red_wl/4.jpg"",""time"":249},{""stimulus"":""img/red_wl/5.jpg"",""time"":313},{""stimulus"":""img/red_wl/6.jpg"",""time"":376},{""stimulus"":""img/red_wl/7.jpg"",""time"":438},{""stimulus"":""img/red_wl/8.jpg"",""time"":501},{""stimulus"":""img/red_wl/9.jpg"",""time"":564},{""stimulus"":""img/red_wl/10.jpg"",""time"":627},{""stimulus"":""img/red_wl/11.jpg"",""time"":690}]","[]"
"","","","choice","63d404f4eaf69448ef9e09e6","bdp_lott","Tue Mar 28 2023 20:13:14 GMT-0700 (Pacific Daylight Time)","305458","green","red","image-keyboard-response","185","170949","0.0-5.0-1.90","","313","","img/red_wl/choose11.jpg","2","135","red","0.5","0.1","0.1","l","",""
"","","","","63d404f4eaf69448ef9e09e6","bdp_lott","Tue Mar 28 2023 20:13:14 GMT-0700 (Pacific Daylight Time)","305458","green","red","animation","186","171705","0.0-5.0-2.90","","","","","","135","","","","","","[{""stimulus"":""img/red_wl/1.jpg"",""time"":63},{""stimulus"":""img/red_wl/2.jpg"",""time"":126},{""stimulus"":""img/red_wl/3.jpg"",""time"":188},{""stimulus"":""img/red_wl/4.jpg"",""time"":251},{""stimulus"":""img/red_wl/5.jpg"",""time"":315},{""stimulus"":""img/red_wl/6.jpg"",""time"":377},{""stimulus"":""img/red_wl/7.jpg"",""time"":441},{""stimulus"":""img/red_wl/8.jpg"",""time"":502},{""stimulus"":""img/red_wl/9.jpg"",""time"":565},{""stimulus"":""img/red_wl/10.jpg"",""time"":629},{""stimulus"":""img/red_wl/11.jpg"",""time"":691}]","[]"
"","","","choice","63d404f4eaf69448ef9e09e6","bdp_lott","Tue Mar 28 2023 20:13:14 GMT-0700 (Pacific Daylight Time)","305458","green","red","image-keyboard-response","187","171981","0.0-5.0-1.91","","276","","img/red_wl/choose11.jpg","1","134","green","0.5","0.1","0.5","w","",""
"","","","","63d404f4eaf69448ef9e09e6","bdp_lott","Tue Mar 28 2023 20:13:14 GMT-0700 (Pacific Daylight Time)","305458","green","red","animation","188","172725","0.0-5.0-2.91","","","","","","134","","","","","","[{""stimulus"":""img/green_wl/1.jpg"",""time"":53},{""stimulus"":""img/green_wl/2.jpg"",""time"":116},{""stimulus"":""img/green_wl/3.jpg"",""time"":178},{""stimulus"":""img/green_wl/4.jpg"",""time"":242},{""stimulus"":""img/green_wl/5.jpg"",""time"":304},{""stimulus"":""img/green_wl/6.jpg"",""time"":368},{""stimulus"":""img/green_wl/7.jpg"",""time"":430},{""stimulus"":""img/green_wl/8.jpg"",""time"":493},{""stimulus"":""img/green_wl/9.jpg"",""time"":555},{""stimulus"":""img/green_wl/10.jpg"",""time"":618},{""stimulus"":""img/green_wl/11.jpg"",""time"":681}]","[]"
"","","","choice","63d404f4eaf69448ef9e09e6","bdp_lott","Tue Mar 28 2023 20:13:14 GMT-0700 (Pacific Daylight Time)","305458","green","red","image-keyboard-response","189","173028","0.0-5.0-1.92","","302","","img/green_wl/choose11.jpg","1","133","green","0.5","0.1","0.5","l","",""
"","","","","63d404f4eaf69448ef9e09e6","bdp_lott","Tue Mar 28 2023 20:13:14 GMT-0700 (Pacific Daylight Time)","305458","green","red","animation","190","173779","0.0-5.0-2.92","","","","","","133","","","","","","[{""stimulus"":""img/green_ll/1.jpg"",""time"":60},{""stimulus"":""img/green_ll/2.jpg"",""time"":123},{""stimulus"":""img/green_ll/3.jpg"",""time"":186},{""stimulus"":""img/green_ll/4.jpg"",""time"":249},{""stimulus"":""img/green_ll/5.jpg"",""time"":312},{""stimulus"":""img/green_ll/6.jpg"",""time"":374},{""stimulus"":""img/green_ll/7.jpg"",""time"":437},{""stimulus"":""img/green_ll/8.jpg"",""time"":499},{""stimulus"":""img/green_ll/9.jpg"",""time"":563},{""stimulus"":""img/green_ll/10.jpg"",""time"":625},{""stimulus"":""img/green_ll/11.jpg"",""time"":688}]","[]"
"","","","choice","63d404f4eaf69448ef9e09e6","bdp_lott","Tue Mar 28 2023 20:13:14 GMT-0700 (Pacific Daylight Time)","305458","green","red","image-keyboard-response","191","173957","0.0-5.0-1.93","","177","","img/green_ll/choose11.jpg","1","132","green","0.5","0.1","0.5","w","",""
