"trial_type","trial_index","time_elapsed","internal_node_id","subject_id","task","startTime","totalTime","fairMachine","unfairMachine","view_history","rt","event","trial","time","trialtype","success","stimulus","key_press","roundsLeft","chosen","pFairMachWin","pUnfairMachWin","pTrialWin","outcome","animation_sequence","responses"
"pavlovia","0","9","0.0-0.0","56b8de29e1d0a200051517f8","bdp_lott","Sat Mar 25 2023 22:13:48 GMT-0400 (Eastern Daylight Time)","295527","green","red","","","","","","","","","","","","","","","","",""
"instructions","1","5655","0.0-1.0","56b8de29e1d0a200051517f8","bdp_lott","Sat Mar 25 2023 22:13:48 GMT-0400 (Eastern Daylight Time)","295527","green","red","[{""page_index"":0,""viewing_time"":5643}]","5644","","","","","","","","","","","","","","",""
"","","","","56b8de29e1d0a200051517f8","bdp_lott","Sat Mar 25 2023 22:13:48 GMT-0400 (Eastern Daylight Time)","295527","green","red","","","fullscreenenter","2","9891","fullscreenenter","","","","","","","","","","",""
"fullscreen","2","10873","0.0-2.0","56b8de29e1d0a200051517f8","bdp_lott","Sat Mar 25 2023 22:13:48 GMT-0400 (Eastern Daylight Time)","295527","green","red","","","","","","","true","","","","","","","","","",""
"instructions","3","43452","0.0-4.0","56b8de29e1d0a200051517f8","bdp_lott","Sat Mar 25 2023 22:13:48 GMT-0400 (Eastern Daylight Time)","295527","green","red","[{""page_index"":0,""viewing_time"":32569}]","32570","","","","","","","","","","","","","","",""
"image-keyboard-response","4","45548","0.0-5.0-1.0","56b8de29e1d0a200051517f8","bdp_lott","Sat Mar 25 2023 22:13:48 GMT-0400 (Eastern Daylight Time)","295527","green","red","","2090","","","","choice","","img/red_ll/initchoose11.jpg","1","225","green","0.5","0.5","0.5","l","",""
"animation","5","46153","0.0-5.0-2.0","56b8de29e1d0a200051517f8","bdp_lott","Sat Mar 25 2023 22:13:48 GMT-0400 (Eastern Daylight Time)","295527","green","red","","","","","","","","","","225","","","","","","[{""stimulus"":""img/green_ll/1.jpg"",""time"":53},{""stimulus"":""img/green_ll/2.jpg"",""time"":102},{""stimulus"":""img/green_ll/3.jpg"",""time"":152},{""stimulus"":""img/green_ll/4.jpg"",""time"":202},{""stimulus"":""img/green_ll/5.jpg"",""time"":253},{""stimulus"":""img/green_ll/6.jpg"",""time"":303},{""stimulus"":""img/green_ll/7.jpg"",""time"":353},{""stimulus"":""img/green_ll/8.jpg"",""time"":402},{""stimulus"":""img/green_ll/9.jpg"",""time"":453},{""stimulus"":""img/green_ll/10.jpg"",""time"":503},{""stimulus"":""img/green_ll/11.jpg"",""time"":552}]","[]"
"image-keyboard-response","6","48616","0.0-5.0-1.1","56b8de29e1d0a200051517f8","bdp_lott","Sat Mar 25 2023 22:13:48 GMT-0400 (Eastern Daylight Time)","295527","green","red","","2459","","","","choice","","img/green_ll/choose11.jpg","2","224","red","0.5","0.5","0.5","l","",""
"animation","7","49218","0.0-5.0-2.1","56b8de29e1d0a200051517f8","bdp_lott","Sat Mar 25 2023 22:13:48 GMT-0400 (Eastern Daylight Time)","295527","green","red","","","","","","","","","","224","","","","","","[{""stimulus"":""img/red_ll/1.jpg"",""time"":52},{""stimulus"":""img/red_ll/2.jpg"",""time"":102},{""stimulus"":""img/red_ll/3.jpg"",""time"":153},{""stimulus"":""img/red_ll/4.jpg"",""time"":203},{""stimulus"":""img/red_ll/5.jpg"",""time"":252},{""stimulus"":""img/red_ll/6.jpg"",""time"":301},{""stimulus"":""img/red_ll/7.jpg"",""time"":352},{""stimulus"":""img/red_ll/8.jpg"",""time"":402},{""stimulus"":""img/red_ll/9.jpg"",""time"":452},{""stimulus"":""img/red_ll/10.jpg"",""time"":501},{""stimulus"":""img/red_ll/11.jpg"",""time"":552}]","[]"
"image-keyboard-response","8","50119","0.0-5.0-1.2","56b8de29e1d0a200051517f8","bdp_lott","Sat Mar 25 2023 22:13:48 GMT-0400 (Eastern Daylight Time)","295527","green","red","","895","","","","choice","","img/red_ll/choose11.jpg","1","223","green","0.5","0.5","0.5","l","",""
"animation","9","50721","0.0-5.0-2.2","56b8de29e1d0a200051517f8","bdp_lott","Sat Mar 25 2023 22:13:48 GMT-0400 (Eastern Daylight Time)","295527","green","red","","","","","","","","","","223","","","","","","[{""stimulus"":""img/green_ll/1.jpg"",""time"":53},{""stimulus"":""img/green_ll/2.jpg"",""time"":102},{""stimulus"":""img/green_ll/3.jpg"",""time"":152},{""stimulus"":""img/green_ll/4.jpg"",""time"":202},{""stimulus"":""img/green_ll/5.jpg"",""time"":252},{""stimulus"":""img/green_ll/6.jpg"",""time"":302},{""stimulus"":""img/green_ll/7.jpg"",""time"":350},{""stimulus"":""img/green_ll/8.jpg"",""time"":401},{""stimulus"":""img/green_ll/9.jpg"",""time"":451},{""stimulus"":""img/green_ll/10.jpg"",""time"":501},{""stimulus"":""img/green_ll/11.jpg"",""time"":552}]","[]"
"image-keyboard-response","10","51690","0.0-5.0-1.3","56b8de29e1d0a200051517f8","bdp_lott","Sat Mar 25 2023 22:13:48 GMT-0400 (Eastern Daylight Time)","295527","green","red","","964","","","","choice","","img/green_ll/choose11.jpg","1","222","green","0.5","0.5","0.5","l","",""
"animation","11","52292","0.0-5.0-2.3","56b8de29e1d0a200051517f8","bdp_lott","Sat Mar 25 2023 22:13:48 GMT-0400 (Eastern Daylight Time)","295527","green","red","","","","","","","","","","222","","","","","","[{""stimulus"":""img/green_ll/1.jpg"",""time"":53},{""stimulus"":""img/green_ll/2.jpg"",""time"":103},{""stimulus"":""img/green_ll/3.jpg"",""time"":153},{""stimulus"":""img/green_ll/4.jpg"",""time"":202},{""stimulus"":""img/green_ll/5.jpg"",""time"":252},{""stimulus"":""img/green_ll/6.jpg"",""time"":302},{""stimulus"":""img/green_ll/7.jpg"",""time"":352},{""stimulus"":""img/green_ll/8.jpg"",""time"":402},{""stimulus"":""img/green_ll/9.jpg"",""time"":452},{""stimulus"":""img/green_ll/10.jpg"",""time"":502},{""stimulus"":""img/green_ll/11.jpg"",""time"":551}]","[]"
"image-keyboard-response","12","53119","0.0-5.0-1.4","56b8de29e1d0a200051517f8","bdp_lott","Sat Mar 25 2023 22:13:48 GMT-0400 (Eastern Daylight Time)","295527","green","red","","825","","","","choice","","img/green_ll/choose11.jpg","2","221","red","0.5","0.5","0.5","l","",""
"animation","13","53722","0.0-5.0-2.4","56b8de29e1d0a200051517f8","bdp_lott","Sat Mar 25 2023 22:13:48 GMT-0400 (Eastern Daylight Time)","295527","green","red","","","","","","","","","","221","","","","","","[{""stimulus"":""img/red_ll/1.jpg"",""time"":53},{""stimulus"":""img/red_ll/2.jpg"",""time"":102},{""stimulus"":""img/red_ll/3.jpg"",""time"":153},{""stimulus"":""img/red_ll/4.jpg"",""time"":203},{""stimulus"":""img/red_ll/5.jpg"",""time"":253},{""stimulus"":""img/red_ll/6.jpg"",""time"":303},{""stimulus"":""img/red_ll/7.jpg"",""time"":353},{""stimulus"":""img/red_ll/8.jpg"",""time"":403},{""stimulus"":""img/red_ll/9.jpg"",""time"":453},{""stimulus"":""img/red_ll/10.jpg"",""time"":503},{""stimulus"":""img/red_ll/11.jpg"",""time"":553}]","[]"
"image-keyboard-response","14","54352","0.0-5.0-1.5","56b8de29e1d0a200051517f8","bdp_lott","Sat Mar 25 2023 22:13:48 GMT-0400 (Eastern Daylight Time)","295527","green","red","","626","","","","choice","","img/red_ll/choose11.jpg","2","220","red","0.5","0.5","0.5","l","",""
"animation","15","54954","0.0-5.0-2.5","56b8de29e1d0a200051517f8","bdp_lott","Sat Mar 25 2023 22:13:48 GMT-0400 (Eastern Daylight Time)","295527","green","red","","","","","","","","","","220","","","","","","[{""stimulus"":""img/red_ll/1.jpg"",""time"":53},{""stimulus"":""img/red_ll/2.jpg"",""time"":103},{""stimulus"":""img/red_ll/3.jpg"",""time"":153},{""stimulus"":""img/red_ll/4.jpg"",""time"":203},{""stimulus"":""img/red_ll/5.jpg"",""time"":253},{""stimulus"":""img/red_ll/6.jpg"",""time"":302},{""stimulus"":""img/red_ll/7.jpg"",""time"":353},{""stimulus"":""img/red_ll/8.jpg"",""time"":403},{""stimulus"":""img/red_ll/9.jpg"",""time"":453},{""stimulus"":""img/red_ll/10.jpg"",""time"":502},{""stimulus"":""img/red_ll/11.jpg"",""time"":553}]","[]"
"image-keyboard-response","16","56267","0.0-5.0-1.6","56b8de29e1d0a200051517f8","bdp_lott","Sat Mar 25 2023 22:13:48 GMT-0400 (Eastern Daylight Time)","295527","green","red","","1310","","","","choice","","img/red_ll/choose11.jpg","2","219","red","0.5","0.5","0.5","l","",""
"animation","17","56869","0.0-5.0-2.6","56b8de29e1d0a200051517f8","bdp_lott","Sat Mar 25 2023 22:13:48 GMT-0400 (Eastern Daylight Time)","295527","green","red","","","","","","","","","","219","","","","","","[{""stimulus"":""img/red_ll/1.jpg"",""time"":53},{""stimulus"":""img/red_ll/2.jpg"",""time"":102},{""stimulus"":""img/red_ll/3.jpg"",""time"":153},{""stimulus"":""img/red_ll/4.jpg"",""time"":201},{""stimulus"":""img/red_ll/5.jpg"",""time"":252},{""stimulus"":""img/red_ll/6.jpg"",""time"":302},{""stimulus"":""img/red_ll/7.jpg"",""time"":353},{""stimulus"":""img/red_ll/8.jpg"",""time"":402},{""stimulus"":""img/red_ll/9.jpg"",""time"":453},{""stimulus"":""img/red_ll/10.jpg"",""time"":503},{""stimulus"":""img/red_ll/11.jpg"",""time"":553}]","[]"
"image-keyboard-response","18","57863","0.0-5.0-1.7","56b8de29e1d0a200051517f8","bdp_lott","Sat Mar 25 2023 22:13:48 GMT-0400 (Eastern Daylight Time)","295527","green","red","","992","","","","choice","","img/red_ll/choose11.jpg","1","218","green","0.5","0.5","0.5","l","",""
"animation","19","58465","0.0-5.0-2.7","56b8de29e1d0a200051517f8","bdp_lott","Sat Mar 25 2023 22:13:48 GMT-0400 (Eastern Daylight Time)","295527","green","red","","","","","","","","","","218","","","","","","[{""stimulus"":""img/green_ll/1.jpg"",""time"":53},{""stimulus"":""img/green_ll/2.jpg"",""time"":103},{""stimulus"":""img/green_ll/3.jpg"",""time"":154},{""stimulus"":""img/green_ll/4.jpg"",""time"":203},{""stimulus"":""img/green_ll/5.jpg"",""time"":253},{""stimulus"":""img/green_ll/6.jpg"",""time"":303},{""stimulus"":""img/green_ll/7.jpg"",""time"":353},{""stimulus"":""img/green_ll/8.jpg"",""time"":403},{""stimulus"":""img/green_ll/9.jpg"",""time"":453},{""stimulus"":""img/green_ll/10.jpg"",""time"":503},{""stimulus"":""img/green_ll/11.jpg"",""time"":553}]","[]"
"image-keyboard-response","20","59050","0.0-5.0-1.8","56b8de29e1d0a200051517f8","bdp_lott","Sat Mar 25 2023 22:13:48 GMT-0400 (Eastern Daylight Time)","295527","green","red","","580","","","","choice","","img/green_ll/choose11.jpg","1","217","green","0.5","0.5","0.5","l","",""
"animation","21","59652","0.0-5.0-2.8","56b8de29e1d0a200051517f8","bdp_lott","Sat Mar 25 2023 22:13:48 GMT-0400 (Eastern Daylight Time)","295527","green","red","","","","","","","","","","217","","","","","","[{""stimulus"":""img/green_ll/1.jpg"",""time"":53},{""stimulus"":""img/green_ll/2.jpg"",""time"":102},{""stimulus"":""img/green_ll/3.jpg"",""time"":152},{""stimulus"":""img/green_ll/4.jpg"",""time"":203},{""stimulus"":""img/green_ll/5.jpg"",""time"":253},{""stimulus"":""img/green_ll/6.jpg"",""time"":303},{""stimulus"":""img/green_ll/7.jpg"",""time"":352},{""stimulus"":""img/green_ll/8.jpg"",""time"":403},{""stimulus"":""img/green_ll/9.jpg"",""time"":452},{""stimulus"":""img/green_ll/10.jpg"",""time"":502},{""stimulus"":""img/green_ll/11.jpg"",""time"":553}]","[]"
"image-keyboard-response","22","60345","0.0-5.0-1.9","56b8de29e1d0a200051517f8","bdp_lott","Sat Mar 25 2023 22:13:48 GMT-0400 (Eastern Daylight Time)","295527","green","red","","689","","","","choice","","img/green_ll/choose11.jpg","1","216","green","0.5","0.5","0.5","w","",""
"animation","23","60948","0.0-5.0-2.9","56b8de29e1d0a200051517f8","bdp_lott","Sat Mar 25 2023 22:13:48 GMT-0400 (Eastern Daylight Time)","295527","green","red","","","","","","","","","","216","","","","","","[{""stimulus"":""img/green_wl/1.jpg"",""time"":53},{""stimulus"":""img/green_wl/2.jpg"",""time"":103},{""stimulus"":""img/green_wl/3.jpg"",""time"":153},{""stimulus"":""img/green_wl/4.jpg"",""time"":203},{""stimulus"":""img/green_wl/5.jpg"",""time"":253},{""stimulus"":""img/green_wl/6.jpg"",""time"":303},{""stimulus"":""img/green_wl/7.jpg"",""time"":352},{""stimulus"":""img/green_wl/8.jpg"",""time"":403},{""stimulus"":""img/green_wl/9.jpg"",""time"":453},{""stimulus"":""img/green_wl/10.jpg"",""time"":503},{""stimulus"":""img/green_wl/11.jpg"",""time"":552}]","[]"
"image-keyboard-response","24","62347","0.0-5.0-1.10","56b8de29e1d0a200051517f8","bdp_lott","Sat Mar 25 2023 22:13:48 GMT-0400 (Eastern Daylight Time)","295527","green","red","","1396","","","","choice","","img/green_wl/choose11.jpg","1","215","green","0.5","0.5","0.5","w","",""
"animation","25","62949","0.0-5.0-2.10","56b8de29e1d0a200051517f8","bdp_lott","Sat Mar 25 2023 22:13:48 GMT-0400 (Eastern Daylight Time)","295527","green","red","","","","","","","","","","215","","","","","","[{""stimulus"":""img/green_wl/1.jpg"",""time"":53},{""stimulus"":""img/green_wl/2.jpg"",""time"":102},{""stimulus"":""img/green_wl/3.jpg"",""time"":152},{""stimulus"":""img/green_wl/4.jpg"",""time"":202},{""stimulus"":""img/green_wl/5.jpg"",""time"":252},{""stimulus"":""img/green_wl/6.jpg"",""time"":302},{""stimulus"":""img/green_wl/7.jpg"",""time"":351},{""stimulus"":""img/green_wl/8.jpg"",""time"":402},{""stimulus"":""img/green_wl/9.jpg"",""time"":452},{""stimulus"":""img/green_wl/10.jpg"",""time"":502},{""stimulus"":""img/green_wl/11.jpg"",""time"":551}]","[]"
"image-keyboard-response","26","63688","0.0-5.0-1.11","56b8de29e1d0a200051517f8","bdp_lott","Sat Mar 25 2023 22:13:48 GMT-0400 (Eastern Daylight Time)","295527","green","red","","735","","","","choice","","img/green_wl/choose11.jpg","1","214","green","0.5","0.5","0.5","w","",""
"animation","27","64290","0.0-5.0-2.11","56b8de29e1d0a200051517f8","bdp_lott","Sat Mar 25 2023 22:13:48 GMT-0400 (Eastern Daylight Time)","295527","green","red","","","","","","","","","","214","","","","","","[{""stimulus"":""img/green_wl/1.jpg"",""time"":51},{""stimulus"":""img/green_wl/2.jpg"",""time"":101},{""stimulus"":""img/green_wl/3.jpg"",""time"":152},{""stimulus"":""img/green_wl/4.jpg"",""time"":202},{""stimulus"":""img/green_wl/5.jpg"",""time"":251},{""stimulus"":""img/green_wl/6.jpg"",""time"":302},{""stimulus"":""img/green_wl/7.jpg"",""time"":352},{""stimulus"":""img/green_wl/8.jpg"",""time"":401},{""stimulus"":""img/green_wl/9.jpg"",""time"":452},{""stimulus"":""img/green_wl/10.jpg"",""time"":501},{""stimulus"":""img/green_wl/11.jpg"",""time"":552}]","[]"
"image-keyboard-response","28","64776","0.0-5.0-1.12","56b8de29e1d0a200051517f8","bdp_lott","Sat Mar 25 2023 22:13:48 GMT-0400 (Eastern Daylight Time)","295527","green","red","","483","","","","choice","","img/green_wl/choose11.jpg","1","213","green","0.5","0.5","0.5","w","",""
"animation","29","65378","0.0-5.0-2.12","56b8de29e1d0a200051517f8","bdp_lott","Sat Mar 25 2023 22:13:48 GMT-0400 (Eastern Daylight Time)","295527","green","red","","","","","","","","","","213","","","","","","[{""stimulus"":""img/green_wl/1.jpg"",""time"":55},{""stimulus"":""img/green_wl/2.jpg"",""time"":102},{""stimulus"":""img/green_wl/3.jpg"",""time"":153},{""stimulus"":""img/green_wl/4.jpg"",""time"":203},{""stimulus"":""img/green_wl/5.jpg"",""time"":253},{""stimulus"":""img/green_wl/6.jpg"",""time"":302},{""stimulus"":""img/green_wl/7.jpg"",""time"":353},{""stimulus"":""img/green_wl/8.jpg"",""time"":403},{""stimulus"":""img/green_wl/9.jpg"",""time"":453},{""stimulus"":""img/green_wl/10.jpg"",""time"":502},{""stimulus"":""img/green_wl/11.jpg"",""time"":553}]","[]"
"image-keyboard-response","30","65883","0.0-5.0-1.13","56b8de29e1d0a200051517f8","bdp_lott","Sat Mar 25 2023 22:13:48 GMT-0400 (Eastern Daylight Time)","295527","green","red","","500","","","","choice","","img/green_wl/choose11.jpg","1","212","green","0.5","0.5","0.5","w","",""
"animation","31","66486","0.0-5.0-2.13","56b8de29e1d0a200051517f8","bdp_lott","Sat Mar 25 2023 22:13:48 GMT-0400 (Eastern Daylight Time)","295527","green","red","","","","","","","","","","212","","","","","","[{""stimulus"":""img/green_wl/1.jpg"",""time"":51},{""stimulus"":""img/green_wl/2.jpg"",""time"":103},{""stimulus"":""img/green_wl/3.jpg"",""time"":152},{""stimulus"":""img/green_wl/4.jpg"",""time"":202},{""stimulus"":""img/green_wl/5.jpg"",""time"":252},{""stimulus"":""img/green_wl/6.jpg"",""time"":303},{""stimulus"":""img/green_wl/7.jpg"",""time"":352},{""stimulus"":""img/green_wl/8.jpg"",""time"":401},{""stimulus"":""img/green_wl/9.jpg"",""time"":452},{""stimulus"":""img/green_wl/10.jpg"",""time"":502},{""stimulus"":""img/green_wl/11.jpg"",""time"":552}]","[]"
"image-keyboard-response","32","67040","0.0-5.0-1.14","56b8de29e1d0a200051517f8","bdp_lott","Sat Mar 25 2023 22:13:48 GMT-0400 (Eastern Daylight Time)","295527","green","red","","549","","","","choice","","img/green_wl/choose11.jpg","1","211","green","0.5","0.5","0.5","l","",""
"animation","33","67642","0.0-5.0-2.14","56b8de29e1d0a200051517f8","bdp_lott","Sat Mar 25 2023 22:13:48 GMT-0400 (Eastern Daylight Time)","295527","green","red","","","","","","","","","","211","","","","","","[{""stimulus"":""img/green_ll/1.jpg"",""time"":53},{""stimulus"":""img/green_ll/2.jpg"",""time"":102},{""stimulus"":""img/green_ll/3.jpg"",""time"":152},{""stimulus"":""img/green_ll/4.jpg"",""time"":202},{""stimulus"":""img/green_ll/5.jpg"",""time"":251},{""stimulus"":""img/green_ll/6.jpg"",""time"":303},{""stimulus"":""img/green_ll/7.jpg"",""time"":353},{""stimulus"":""img/green_ll/8.jpg"",""time"":402},{""stimulus"":""img/green_ll/9.jpg"",""time"":452},{""stimulus"":""img/green_ll/10.jpg"",""time"":502},{""stimulus"":""img/green_ll/11.jpg"",""time"":552}]","[]"
"image-keyboard-response","34","69598","0.0-5.0-1.15","56b8de29e1d0a200051517f8","bdp_lott","Sat Mar 25 2023 22:13:48 GMT-0400 (Eastern Daylight Time)","295527","green","red","","1953","","","","choice","","img/green_ll/choose11.jpg","2","210","red","0.5","0.5","0.5","w","",""
"animation","35","70200","0.0-5.0-2.15","56b8de29e1d0a200051517f8","bdp_lott","Sat Mar 25 2023 22:13:48 GMT-0400 (Eastern Daylight Time)","295527","green","red","","","","","","","","","","210","","","","","","[{""stimulus"":""img/red_lw/1.jpg"",""time"":53},{""stimulus"":""img/red_lw/2.jpg"",""time"":103},{""stimulus"":""img/red_lw/3.jpg"",""time"":152},{""stimulus"":""img/red_lw/4.jpg"",""time"":202},{""stimulus"":""img/red_lw/5.jpg"",""time"":252},{""stimulus"":""img/red_lw/6.jpg"",""time"":302},{""stimulus"":""img/red_lw/7.jpg"",""time"":352},{""stimulus"":""img/red_lw/8.jpg"",""time"":402},{""stimulus"":""img/red_lw/9.jpg"",""time"":452},{""stimulus"":""img/red_lw/10.jpg"",""time"":502},{""stimulus"":""img/red_lw/11.jpg"",""time"":553}]","[]"
"image-keyboard-response","36","70870","0.0-5.0-1.16","56b8de29e1d0a200051517f8","bdp_lott","Sat Mar 25 2023 22:13:48 GMT-0400 (Eastern Daylight Time)","295527","green","red","","668","","","","choice","","img/red_lw/choose11.jpg","2","209","red","0.5","0.5","0.5","l","",""
"animation","37","71471","0.0-5.0-2.16","56b8de29e1d0a200051517f8","bdp_lott","Sat Mar 25 2023 22:13:48 GMT-0400 (Eastern Daylight Time)","295527","green","red","","","","","","","","","","209","","","","","","[{""stimulus"":""img/red_ll/1.jpg"",""time"":54},{""stimulus"":""img/red_ll/2.jpg"",""time"":102},{""stimulus"":""img/red_ll/3.jpg"",""time"":153},{""stimulus"":""img/red_ll/4.jpg"",""time"":202},{""stimulus"":""img/red_ll/5.jpg"",""time"":251},{""stimulus"":""img/red_ll/6.jpg"",""time"":302},{""stimulus"":""img/red_ll/7.jpg"",""time"":354},{""stimulus"":""img/red_ll/8.jpg"",""time"":403},{""stimulus"":""img/red_ll/9.jpg"",""time"":457},{""stimulus"":""img/red_ll/10.jpg"",""time"":503},{""stimulus"":""img/red_ll/11.jpg"",""time"":553}]","[]"
"image-keyboard-response","38","72829","0.0-5.0-1.17","56b8de29e1d0a200051517f8","bdp_lott","Sat Mar 25 2023 22:13:48 GMT-0400 (Eastern Daylight Time)","295527","green","red","","1356","","","","choice","","img/red_ll/choose11.jpg","2","208","red","0.5","0.5","0.5","w","",""
"animation","39","73430","0.0-5.0-2.17","56b8de29e1d0a200051517f8","bdp_lott","Sat Mar 25 2023 22:13:48 GMT-0400 (Eastern Daylight Time)","295527","green","red","","","","","","","","","","208","","","","","","[{""stimulus"":""img/red_lw/1.jpg"",""time"":52},{""stimulus"":""img/red_lw/2.jpg"",""time"":102},{""stimulus"":""img/red_lw/3.jpg"",""time"":152},{""stimulus"":""img/red_lw/4.jpg"",""time"":202},{""stimulus"":""img/red_lw/5.jpg"",""time"":252},{""stimulus"":""img/red_lw/6.jpg"",""time"":301},{""stimulus"":""img/red_lw/7.jpg"",""time"":352},{""stimulus"":""img/red_lw/8.jpg"",""time"":402},{""stimulus"":""img/red_lw/9.jpg"",""time"":452},{""stimulus"":""img/red_lw/10.jpg"",""time"":501},{""stimulus"":""img/red_lw/11.jpg"",""time"":552}]","[]"
"image-keyboard-response","40","74112","0.0-5.0-1.18","56b8de29e1d0a200051517f8","bdp_lott","Sat Mar 25 2023 22:13:48 GMT-0400 (Eastern Daylight Time)","295527","green","red","","678","","","","choice","","img/red_lw/choose11.jpg","2","207","red","0.5","0.5","0.5","l","",""
"animation","41","74714","0.0-5.0-2.18","56b8de29e1d0a200051517f8","bdp_lott","Sat Mar 25 2023 22:13:48 GMT-0400 (Eastern Daylight Time)","295527","green","red","","","","","","","","","","207","","","","","","[{""stimulus"":""img/red_ll/1.jpg"",""time"":53},{""stimulus"":""img/red_ll/2.jpg"",""time"":103},{""stimulus"":""img/red_ll/3.jpg"",""time"":152},{""stimulus"":""img/red_ll/4.jpg"",""time"":203},{""stimulus"":""img/red_ll/5.jpg"",""time"":253},{""stimulus"":""img/red_ll/6.jpg"",""time"":303},{""stimulus"":""img/red_ll/7.jpg"",""time"":353},{""stimulus"":""img/red_ll/8.jpg"",""time"":403},{""stimulus"":""img/red_ll/9.jpg"",""time"":452},{""stimulus"":""img/red_ll/10.jpg"",""time"":502},{""stimulus"":""img/red_ll/11.jpg"",""time"":552}]","[]"
"image-keyboard-response","42","75351","0.0-5.0-1.19","56b8de29e1d0a200051517f8","bdp_lott","Sat Mar 25 2023 22:13:48 GMT-0400 (Eastern Daylight Time)","295527","green","red","","633","","","","choice","","img/red_ll/choose11.jpg","2","206","red","0.5","0.5","0.5","l","",""
"animation","43","75953","0.0-5.0-2.19","56b8de29e1d0a200051517f8","bdp_lott","Sat Mar 25 2023 22:13:48 GMT-0400 (Eastern Daylight Time)","295527","green","red","","","","","","","","","","206","","","","","","[{""stimulus"":""img/red_ll/1.jpg"",""time"":52},{""stimulus"":""img/red_ll/2.jpg"",""time"":101},{""stimulus"":""img/red_ll/3.jpg"",""time"":152},{""stimulus"":""img/red_ll/4.jpg"",""time"":202},{""stimulus"":""img/red_ll/5.jpg"",""time"":252},{""stimulus"":""img/red_ll/6.jpg"",""time"":302},{""stimulus"":""img/red_ll/7.jpg"",""time"":352},{""stimulus"":""img/red_ll/8.jpg"",""time"":401},{""stimulus"":""img/red_ll/9.jpg"",""time"":452},{""stimulus"":""img/red_ll/10.jpg"",""time"":502},{""stimulus"":""img/red_ll/11.jpg"",""time"":551}]","[]"
"image-keyboard-response","44","76948","0.0-5.0-1.20","56b8de29e1d0a200051517f8","bdp_lott","Sat Mar 25 2023 22:13:48 GMT-0400 (Eastern Daylight Time)","295527","green","red","","991","","","","choice","","img/red_ll/choose11.jpg","2","205","red","0.5","0.5","0.5","w","",""
"animation","45","77550","0.0-5.0-2.20","56b8de29e1d0a200051517f8","bdp_lott","Sat Mar 25 2023 22:13:48 GMT-0400 (Eastern Daylight Time)","295527","green","red","","","","","","","","","","205","","","","","","[{""stimulus"":""img/red_lw/1.jpg"",""time"":54},{""stimulus"":""img/red_lw/2.jpg"",""time"":102},{""stimulus"":""img/red_lw/3.jpg"",""time"":152},{""stimulus"":""img/red_lw/4.jpg"",""time"":203},{""stimulus"":""img/red_lw/5.jpg"",""time"":253},{""stimulus"":""img/red_lw/6.jpg"",""time"":303},{""stimulus"":""img/red_lw/7.jpg"",""time"":353},{""stimulus"":""img/red_lw/8.jpg"",""time"":403},{""stimulus"":""img/red_lw/9.jpg"",""time"":453},{""stimulus"":""img/red_lw/10.jpg"",""time"":503},{""stimulus"":""img/red_lw/11.jpg"",""time"":552}]","[]"
"image-keyboard-response","46","78312","0.0-5.0-1.21","56b8de29e1d0a200051517f8","bdp_lott","Sat Mar 25 2023 22:13:48 GMT-0400 (Eastern Daylight Time)","295527","green","red","","758","","","","choice","","img/red_lw/choose11.jpg","2","204","red","0.5","0.5","0.5","l","",""
"animation","47","78914","0.0-5.0-2.21","56b8de29e1d0a200051517f8","bdp_lott","Sat Mar 25 2023 22:13:48 GMT-0400 (Eastern Daylight Time)","295527","green","red","","","","","","","","","","204","","","","","","[{""stimulus"":""img/red_ll/1.jpg"",""time"":53},{""stimulus"":""img/red_ll/2.jpg"",""time"":101},{""stimulus"":""img/red_ll/3.jpg"",""time"":152},{""stimulus"":""img/red_ll/4.jpg"",""time"":202},{""stimulus"":""img/red_ll/5.jpg"",""time"":251},{""stimulus"":""img/red_ll/6.jpg"",""time"":302},{""stimulus"":""img/red_ll/7.jpg"",""time"":352},{""stimulus"":""img/red_ll/8.jpg"",""time"":402},{""stimulus"":""img/red_ll/9.jpg"",""time"":451},{""stimulus"":""img/red_ll/10.jpg"",""time"":502},{""stimulus"":""img/red_ll/11.jpg"",""time"":552}]","[]"
"image-keyboard-response","48","79527","0.0-5.0-1.22","56b8de29e1d0a200051517f8","bdp_lott","Sat Mar 25 2023 22:13:48 GMT-0400 (Eastern Daylight Time)","295527","green","red","","611","","","","choice","","img/red_ll/choose11.jpg","1","203","green","0.5","0.5","0.5","l","",""
"animation","49","80129","0.0-5.0-2.22","56b8de29e1d0a200051517f8","bdp_lott","Sat Mar 25 2023 22:13:48 GMT-0400 (Eastern Daylight Time)","295527","green","red","","","","","","","","","","203","","","","","","[{""stimulus"":""img/green_ll/1.jpg"",""time"":53},{""stimulus"":""img/green_ll/2.jpg"",""time"":102},{""stimulus"":""img/green_ll/3.jpg"",""time"":153},{""stimulus"":""img/green_ll/4.jpg"",""time"":202},{""stimulus"":""img/green_ll/5.jpg"",""time"":251},{""stimulus"":""img/green_ll/6.jpg"",""time"":302},{""stimulus"":""img/green_ll/7.jpg"",""time"":352},{""stimulus"":""img/green_ll/8.jpg"",""time"":401},{""stimulus"":""img/green_ll/9.jpg"",""time"":452},{""stimulus"":""img/green_ll/10.jpg"",""time"":502},{""stimulus"":""img/green_ll/11.jpg"",""time"":553}]","[]"
"image-keyboard-response","50","80655","0.0-5.0-1.23","56b8de29e1d0a200051517f8","bdp_lott","Sat Mar 25 2023 22:13:48 GMT-0400 (Eastern Daylight Time)","295527","green","red","","522","","","","choice","","img/green_ll/choose11.jpg","1","202","green","0.5","0.5","0.5","l","",""
"animation","51","81257","0.0-5.0-2.23","56b8de29e1d0a200051517f8","bdp_lott","Sat Mar 25 2023 22:13:48 GMT-0400 (Eastern Daylight Time)","295527","green","red","","","","","","","","","","202","","","","","","[{""stimulus"":""img/green_ll/1.jpg"",""time"":54},{""stimulus"":""img/green_ll/2.jpg"",""time"":103},{""stimulus"":""img/green_ll/3.jpg"",""time"":152},{""stimulus"":""img/green_ll/4.jpg"",""time"":203},{""stimulus"":""img/green_ll/5.jpg"",""time"":253},{""stimulus"":""img/green_ll/6.jpg"",""time"":303},{""stimulus"":""img/green_ll/7.jpg"",""time"":353},{""stimulus"":""img/green_ll/8.jpg"",""time"":404},{""stimulus"":""img/green_ll/9.jpg"",""time"":453},{""stimulus"":""img/green_ll/10.jpg"",""time"":503},{""stimulus"":""img/green_ll/11.jpg"",""time"":553}]","[]"
"image-keyboard-response","52","81905","0.0-5.0-1.24","56b8de29e1d0a200051517f8","bdp_lott","Sat Mar 25 2023 22:13:48 GMT-0400 (Eastern Daylight Time)","295527","green","red","","645","","","","choice","","img/green_ll/choose11.jpg","2","201","red","0.5","0.5","0.5","w","",""
"animation","53","82507","0.0-5.0-2.24","56b8de29e1d0a200051517f8","bdp_lott","Sat Mar 25 2023 22:13:48 GMT-0400 (Eastern Daylight Time)","295527","green","red","","","","","","","","","","201","","","","","","[{""stimulus"":""img/red_lw/1.jpg"",""time"":53},{""stimulus"":""img/red_lw/2.jpg"",""time"":102},{""stimulus"":""img/red_lw/3.jpg"",""time"":153},{""stimulus"":""img/red_lw/4.jpg"",""time"":203},{""stimulus"":""img/red_lw/5.jpg"",""time"":253},{""stimulus"":""img/red_lw/6.jpg"",""time"":303},{""stimulus"":""img/red_lw/7.jpg"",""time"":352},{""stimulus"":""img/red_lw/8.jpg"",""time"":402},{""stimulus"":""img/red_lw/9.jpg"",""time"":452},{""stimulus"":""img/red_lw/10.jpg"",""time"":505},{""stimulus"":""img/red_lw/11.jpg"",""time"":554}]","[]"
"image-keyboard-response","54","83057","0.0-5.0-1.25","56b8de29e1d0a200051517f8","bdp_lott","Sat Mar 25 2023 22:13:48 GMT-0400 (Eastern Daylight Time)","295527","green","red","","544","","","","choice","","img/red_lw/choose11.jpg","2","200","red","0.5","0.5","0.5","l","",""
"animation","55","83659","0.0-5.0-2.25","56b8de29e1d0a200051517f8","bdp_lott","Sat Mar 25 2023 22:13:48 GMT-0400 (Eastern Daylight Time)","295527","green","red","","","","","","","","","","200","","","","","","[{""stimulus"":""img/red_ll/1.jpg"",""time"":54},{""stimulus"":""img/red_ll/2.jpg"",""time"":102},{""stimulus"":""img/red_ll/3.jpg"",""time"":151},{""stimulus"":""img/red_ll/4.jpg"",""time"":202},{""stimulus"":""img/red_ll/5.jpg"",""time"":252},{""stimulus"":""img/red_ll/6.jpg"",""time"":302},{""stimulus"":""img/red_ll/7.jpg"",""time"":352},{""stimulus"":""img/red_ll/8.jpg"",""time"":402},{""stimulus"":""img/red_ll/9.jpg"",""time"":452},{""stimulus"":""img/red_ll/10.jpg"",""time"":502},{""stimulus"":""img/red_ll/11.jpg"",""time"":552}]","[]"
"image-keyboard-response","56","84242","0.0-5.0-1.26","56b8de29e1d0a200051517f8","bdp_lott","Sat Mar 25 2023 22:13:48 GMT-0400 (Eastern Daylight Time)","295527","green","red","","581","","","","choice","","img/red_ll/choose11.jpg","2","199","red","0.5","0.5","0.5","w","",""
"animation","57","84846","0.0-5.0-2.26","56b8de29e1d0a200051517f8","bdp_lott","Sat Mar 25 2023 22:13:48 GMT-0400 (Eastern Daylight Time)","295527","green","red","","","","","","","","","","199","","","","","","[{""stimulus"":""img/red_lw/1.jpg"",""time"":52},{""stimulus"":""img/red_lw/2.jpg"",""time"":102},{""stimulus"":""img/red_lw/3.jpg"",""time"":151},{""stimulus"":""img/red_lw/4.jpg"",""time"":201},{""stimulus"":""img/red_lw/5.jpg"",""time"":251},{""stimulus"":""img/red_lw/6.jpg"",""time"":302},{""stimulus"":""img/red_lw/7.jpg"",""time"":352},{""stimulus"":""img/red_lw/8.jpg"",""time"":402},{""stimulus"":""img/red_lw/9.jpg"",""time"":452},{""stimulus"":""img/red_lw/10.jpg"",""time"":502},{""stimulus"":""img/red_lw/11.jpg"",""time"":551}]","[]"
"image-keyboard-response","58","85349","0.0-5.0-1.27","56b8de29e1d0a200051517f8","bdp_lott","Sat Mar 25 2023 22:13:48 GMT-0400 (Eastern Daylight Time)","295527","green","red","","499","","","","choice","","img/red_lw/choose11.jpg","1","198","green","0.5","0.5","0.5","w","",""
"animation","59","85951","0.0-5.0-2.27","56b8de29e1d0a200051517f8","bdp_lott","Sat Mar 25 2023 22:13:48 GMT-0400 (Eastern Daylight Time)","295527","green","red","","","","","","","","","","198","","","","","","[{""stimulus"":""img/green_ww/1.jpg"",""time"":53},{""stimulus"":""img/green_ww/2.jpg"",""time"":102},{""stimulus"":""img/green_ww/3.jpg"",""time"":152},{""stimulus"":""img/green_ww/4.jpg"",""time"":202},{""stimulus"":""img/green_ww/5.jpg"",""time"":252},{""stimulus"":""img/green_ww/6.jpg"",""time"":302},{""stimulus"":""img/green_ww/7.jpg"",""time"":353},{""stimulus"":""img/green_ww/8.jpg"",""time"":403},{""stimulus"":""img/green_ww/9.jpg"",""time"":452},{""stimulus"":""img/green_ww/10.jpg"",""time"":502},{""stimulus"":""img/green_ww/11.jpg"",""time"":552}]","[]"
"image-keyboard-response","60","86916","0.0-5.0-1.28","56b8de29e1d0a200051517f8","bdp_lott","Sat Mar 25 2023 22:13:48 GMT-0400 (Eastern Daylight Time)","295527","green","red","","962","","","","choice","","img/green_ww/choose11.jpg","1","197","green","0.5","0.5","0.5","w","",""
"animation","61","87518","0.0-5.0-2.28","56b8de29e1d0a200051517f8","bdp_lott","Sat Mar 25 2023 22:13:48 GMT-0400 (Eastern Daylight Time)","295527","green","red","","","","","","","","","","197","","","","","","[{""stimulus"":""img/green_ww/1.jpg"",""time"":53},{""stimulus"":""img/green_ww/2.jpg"",""time"":102},{""stimulus"":""img/green_ww/3.jpg"",""time"":152},{""stimulus"":""img/green_ww/4.jpg"",""time"":202},{""stimulus"":""img/green_ww/5.jpg"",""time"":252},{""stimulus"":""img/green_ww/6.jpg"",""time"":303},{""stimulus"":""img/green_ww/7.jpg"",""time"":352},{""stimulus"":""img/green_ww/8.jpg"",""time"":402},{""stimulus"":""img/green_ww/9.jpg"",""time"":452},{""stimulus"":""img/green_ww/10.jpg"",""time"":502},{""stimulus"":""img/green_ww/11.jpg"",""time"":552}]","[]"
"image-keyboard-response","62","88070","0.0-5.0-1.29","56b8de29e1d0a200051517f8","bdp_lott","Sat Mar 25 2023 22:13:48 GMT-0400 (Eastern Daylight Time)","295527","green","red","","549","","","","choice","","img/green_ww/choose11.jpg","1","196","green","0.5","0.5","0.5","w","",""
"animation","63","88672","0.0-5.0-2.29","56b8de29e1d0a200051517f8","bdp_lott","Sat Mar 25 2023 22:13:48 GMT-0400 (Eastern Daylight Time)","295527","green","red","","","","","","","","","","196","","","","","","[{""stimulus"":""img/green_ww/1.jpg"",""time"":53},{""stimulus"":""img/green_ww/2.jpg"",""time"":102},{""stimulus"":""img/green_ww/3.jpg"",""time"":152},{""stimulus"":""img/green_ww/4.jpg"",""time"":202},{""stimulus"":""img/green_ww/5.jpg"",""time"":253},{""stimulus"":""img/green_ww/6.jpg"",""time"":302},{""stimulus"":""img/green_ww/7.jpg"",""time"":352},{""stimulus"":""img/green_ww/8.jpg"",""time"":402},{""stimulus"":""img/green_ww/9.jpg"",""time"":452},{""stimulus"":""img/green_ww/10.jpg"",""time"":502},{""stimulus"":""img/green_ww/11.jpg"",""time"":552}]","[]"
"image-keyboard-response","64","89217","0.0-5.0-1.30","56b8de29e1d0a200051517f8","bdp_lott","Sat Mar 25 2023 22:13:48 GMT-0400 (Eastern Daylight Time)","295527","green","red","","542","","","","choice","","img/green_ww/choose11.jpg","1","195","green","0.5","0.5","0.5","w","",""
"animation","65","89819","0.0-5.0-2.30","56b8de29e1d0a200051517f8","bdp_lott","Sat Mar 25 2023 22:13:48 GMT-0400 (Eastern Daylight Time)","295527","green","red","","","","","","","","","","195","","","","","","[{""stimulus"":""img/green_ww/1.jpg"",""time"":52},{""stimulus"":""img/green_ww/2.jpg"",""time"":102},{""stimulus"":""img/green_ww/3.jpg"",""time"":153},{""stimulus"":""img/green_ww/4.jpg"",""time"":202},{""stimulus"":""img/green_ww/5.jpg"",""time"":251},{""stimulus"":""img/green_ww/6.jpg"",""time"":302},{""stimulus"":""img/green_ww/7.jpg"",""time"":352},{""stimulus"":""img/green_ww/8.jpg"",""time"":402},{""stimulus"":""img/green_ww/9.jpg"",""time"":452},{""stimulus"":""img/green_ww/10.jpg"",""time"":502},{""stimulus"":""img/green_ww/11.jpg"",""time"":552}]","[]"
"image-keyboard-response","66","90349","0.0-5.0-1.31","56b8de29e1d0a200051517f8","bdp_lott","Sat Mar 25 2023 22:13:48 GMT-0400 (Eastern Daylight Time)","295527","green","red","","528","","","","choice","","img/green_ww/choose11.jpg","1","194","green","0.5","0.5","0.5","l","",""
"animation","67","90952","0.0-5.0-2.31","56b8de29e1d0a200051517f8","bdp_lott","Sat Mar 25 2023 22:13:48 GMT-0400 (Eastern Daylight Time)","295527","green","red","","","","","","","","","","194","","","","","","[{""stimulus"":""img/green_lw/1.jpg"",""time"":53},{""stimulus"":""img/green_lw/2.jpg"",""time"":101},{""stimulus"":""img/green_lw/3.jpg"",""time"":152},{""stimulus"":""img/green_lw/4.jpg"",""time"":201},{""stimulus"":""img/green_lw/5.jpg"",""time"":252},{""stimulus"":""img/green_lw/6.jpg"",""time"":302},{""stimulus"":""img/green_lw/7.jpg"",""time"":351},{""stimulus"":""img/green_lw/8.jpg"",""time"":403},{""stimulus"":""img/green_lw/9.jpg"",""time"":452},{""stimulus"":""img/green_lw/10.jpg"",""time"":502},{""stimulus"":""img/green_lw/11.jpg"",""time"":552}]","[]"
"image-keyboard-response","68","91926","0.0-5.0-1.32","56b8de29e1d0a200051517f8","bdp_lott","Sat Mar 25 2023 22:13:48 GMT-0400 (Eastern Daylight Time)","295527","green","red","","972","","","","choice","","img/green_lw/choose11.jpg","2","193","red","0.5","0.5","0.5","w","",""
"animation","69","92529","0.0-5.0-2.32","56b8de29e1d0a200051517f8","bdp_lott","Sat Mar 25 2023 22:13:48 GMT-0400 (Eastern Daylight Time)","295527","green","red","","","","","","","","","","193","","","","","","[{""stimulus"":""img/red_lw/1.jpg"",""time"":54},{""stimulus"":""img/red_lw/2.jpg"",""time"":102},{""stimulus"":""img/red_lw/3.jpg"",""time"":153},{""stimulus"":""img/red_lw/4.jpg"",""time"":203},{""stimulus"":""img/red_lw/5.jpg"",""time"":252},{""stimulus"":""img/red_lw/6.jpg"",""time"":303},{""stimulus"":""img/red_lw/7.jpg"",""time"":353},{""stimulus"":""img/red_lw/8.jpg"",""time"":402},{""stimulus"":""img/red_lw/9.jpg"",""time"":453},{""stimulus"":""img/red_lw/10.jpg"",""time"":502},{""stimulus"":""img/red_lw/11.jpg"",""time"":552}]","[]"
"image-keyboard-response","70","93374","0.0-5.0-1.33","56b8de29e1d0a200051517f8","bdp_lott","Sat Mar 25 2023 22:13:48 GMT-0400 (Eastern Daylight Time)","295527","green","red","","843","","","","choice","","img/red_lw/choose11.jpg","2","192","red","0.5","0.5","0.5","w","",""
"animation","71","93976","0.0-5.0-2.33","56b8de29e1d0a200051517f8","bdp_lott","Sat Mar 25 2023 22:13:48 GMT-0400 (Eastern Daylight Time)","295527","green","red","","","","","","","","","","192","","","","","","[{""stimulus"":""img/red_lw/1.jpg"",""time"":53},{""stimulus"":""img/red_lw/2.jpg"",""time"":102},{""stimulus"":""img/red_lw/3.jpg"",""time"":153},{""stimulus"":""img/red_lw/4.jpg"",""time"":203},{""stimulus"":""img/red_lw/5.jpg"",""time"":252},{""stimulus"":""img/red_lw/6.jpg"",""time"":302},{""stimulus"":""img/red_lw/7.jpg"",""time"":352},{""stimulus"":""img/red_lw/8.jpg"",""time"":403},{""stimulus"":""img/red_lw/9.jpg"",""time"":452},{""stimulus"":""img/red_lw/10.jpg"",""time"":502},{""stimulus"":""img/red_lw/11.jpg"",""time"":552}]","[]"
"image-keyboard-response","72","94535","0.0-5.0-1.34","56b8de29e1d0a200051517f8","bdp_lott","Sat Mar 25 2023 22:13:48 GMT-0400 (Eastern Daylight Time)","295527","green","red","","556","","","","choice","","img/red_lw/choose11.jpg","2","191","red","0.5","0.5","0.5","w","",""
"animation","73","95137","0.0-5.0-2.34","56b8de29e1d0a200051517f8","bdp_lott","Sat Mar 25 2023 22:13:48 GMT-0400 (Eastern Daylight Time)","295527","green","red","","","","","","","","","","191","","","","","","[{""stimulus"":""img/red_lw/1.jpg"",""time"":53},{""stimulus"":""img/red_lw/2.jpg"",""time"":103},{""stimulus"":""img/red_lw/3.jpg"",""time"":152},{""stimulus"":""img/red_lw/4.jpg"",""time"":203},{""stimulus"":""img/red_lw/5.jpg"",""time"":252},{""stimulus"":""img/red_lw/6.jpg"",""time"":302},{""stimulus"":""img/red_lw/7.jpg"",""time"":352},{""stimulus"":""img/red_lw/8.jpg"",""time"":402},{""stimulus"":""img/red_lw/9.jpg"",""time"":453},{""stimulus"":""img/red_lw/10.jpg"",""time"":503},{""stimulus"":""img/red_lw/11.jpg"",""time"":553}]","[]"
"image-keyboard-response","74","95642","0.0-5.0-1.35","56b8de29e1d0a200051517f8","bdp_lott","Sat Mar 25 2023 22:13:48 GMT-0400 (Eastern Daylight Time)","295527","green","red","","502","","","","choice","","img/red_lw/choose11.jpg","2","190","red","0.5","0.5","0.5","w","",""
"animation","75","96245","0.0-5.0-2.35","56b8de29e1d0a200051517f8","bdp_lott","Sat Mar 25 2023 22:13:48 GMT-0400 (Eastern Daylight Time)","295527","green","red","","","","","","","","","","190","","","","","","[{""stimulus"":""img/red_lw/1.jpg"",""time"":53},{""stimulus"":""img/red_lw/2.jpg"",""time"":102},{""stimulus"":""img/red_lw/3.jpg"",""time"":153},{""stimulus"":""img/red_lw/4.jpg"",""time"":202},{""stimulus"":""img/red_lw/5.jpg"",""time"":253},{""stimulus"":""img/red_lw/6.jpg"",""time"":302},{""stimulus"":""img/red_lw/7.jpg"",""time"":352},{""stimulus"":""img/red_lw/8.jpg"",""time"":403},{""stimulus"":""img/red_lw/9.jpg"",""time"":453},{""stimulus"":""img/red_lw/10.jpg"",""time"":503},{""stimulus"":""img/red_lw/11.jpg"",""time"":553}]","[]"
"image-keyboard-response","76","96753","0.0-5.0-1.36","56b8de29e1d0a200051517f8","bdp_lott","Sat Mar 25 2023 22:13:48 GMT-0400 (Eastern Daylight Time)","295527","green","red","","505","","","","choice","","img/red_lw/choose11.jpg","2","189","red","0.5","0.5","0.5","w","",""
"animation","77","97355","0.0-5.0-2.36","56b8de29e1d0a200051517f8","bdp_lott","Sat Mar 25 2023 22:13:48 GMT-0400 (Eastern Daylight Time)","295527","green","red","","","","","","","","","","189","","","","","","[{""stimulus"":""img/red_lw/1.jpg"",""time"":53},{""stimulus"":""img/red_lw/2.jpg"",""time"":102},{""stimulus"":""img/red_lw/3.jpg"",""time"":153},{""stimulus"":""img/red_lw/4.jpg"",""time"":202},{""stimulus"":""img/red_lw/5.jpg"",""time"":252},{""stimulus"":""img/red_lw/6.jpg"",""time"":303},{""stimulus"":""img/red_lw/7.jpg"",""time"":353},{""stimulus"":""img/red_lw/8.jpg"",""time"":403},{""stimulus"":""img/red_lw/9.jpg"",""time"":452},{""stimulus"":""img/red_lw/10.jpg"",""time"":503},{""stimulus"":""img/red_lw/11.jpg"",""time"":554}]","[]"
"image-keyboard-response","78","97877","0.0-5.0-1.37","56b8de29e1d0a200051517f8","bdp_lott","Sat Mar 25 2023 22:13:48 GMT-0400 (Eastern Daylight Time)","295527","green","red","","519","","","","choice","","img/red_lw/choose11.jpg","2","188","red","0.5","0.5","0.5","w","",""
"animation","79","98479","0.0-5.0-2.37","56b8de29e1d0a200051517f8","bdp_lott","Sat Mar 25 2023 22:13:48 GMT-0400 (Eastern Daylight Time)","295527","green","red","","","","","","","","","","188","","","","","","[{""stimulus"":""img/red_lw/1.jpg"",""time"":53},{""stimulus"":""img/red_lw/2.jpg"",""time"":103},{""stimulus"":""img/red_lw/3.jpg"",""time"":154},{""stimulus"":""img/red_lw/4.jpg"",""time"":203},{""stimulus"":""img/red_lw/5.jpg"",""time"":253},{""stimulus"":""img/red_lw/6.jpg"",""time"":303},{""stimulus"":""img/red_lw/7.jpg"",""time"":353},{""stimulus"":""img/red_lw/8.jpg"",""time"":403},{""stimulus"":""img/red_lw/9.jpg"",""time"":453},{""stimulus"":""img/red_lw/10.jpg"",""time"":503},{""stimulus"":""img/red_lw/11.jpg"",""time"":553}]","[]"
"image-keyboard-response","80","98934","0.0-5.0-1.38","56b8de29e1d0a200051517f8","bdp_lott","Sat Mar 25 2023 22:13:48 GMT-0400 (Eastern Daylight Time)","295527","green","red","","451","","","","choice","","img/red_lw/choose11.jpg","2","187","red","0.5","0.5","0.5","w","",""
"animation","81","99536","0.0-5.0-2.38","56b8de29e1d0a200051517f8","bdp_lott","Sat Mar 25 2023 22:13:48 GMT-0400 (Eastern Daylight Time)","295527","green","red","","","","","","","","","","187","","","","","","[{""stimulus"":""img/red_lw/1.jpg"",""time"":52},{""stimulus"":""img/red_lw/2.jpg"",""time"":102},{""stimulus"":""img/red_lw/3.jpg"",""time"":152},{""stimulus"":""img/red_lw/4.jpg"",""time"":202},{""stimulus"":""img/red_lw/5.jpg"",""time"":252},{""stimulus"":""img/red_lw/6.jpg"",""time"":302},{""stimulus"":""img/red_lw/7.jpg"",""time"":352},{""stimulus"":""img/red_lw/8.jpg"",""time"":401},{""stimulus"":""img/red_lw/9.jpg"",""time"":452},{""stimulus"":""img/red_lw/10.jpg"",""time"":502},{""stimulus"":""img/red_lw/11.jpg"",""time"":552}]","[]"
"image-keyboard-response","82","99966","0.0-5.0-1.39","56b8de29e1d0a200051517f8","bdp_lott","Sat Mar 25 2023 22:13:48 GMT-0400 (Eastern Daylight Time)","295527","green","red","","426","","","","choice","","img/red_lw/choose11.jpg","2","186","red","0.5","0.5","0.5","l","",""
"animation","83","100567","0.0-5.0-2.39","56b8de29e1d0a200051517f8","bdp_lott","Sat Mar 25 2023 22:13:48 GMT-0400 (Eastern Daylight Time)","295527","green","red","","","","","","","","","","186","","","","","","[{""stimulus"":""img/red_ll/1.jpg"",""time"":53},{""stimulus"":""img/red_ll/2.jpg"",""time"":102},{""stimulus"":""img/red_ll/3.jpg"",""time"":153},{""stimulus"":""img/red_ll/4.jpg"",""time"":201},{""stimulus"":""img/red_ll/5.jpg"",""time"":251},{""stimulus"":""img/red_ll/6.jpg"",""time"":302},{""stimulus"":""img/red_ll/7.jpg"",""time"":352},{""stimulus"":""img/red_ll/8.jpg"",""time"":401},{""stimulus"":""img/red_ll/9.jpg"",""time"":451},{""stimulus"":""img/red_ll/10.jpg"",""time"":501},{""stimulus"":""img/red_ll/11.jpg"",""time"":552}]","[]"
"image-keyboard-response","84","101383","0.0-5.0-1.40","56b8de29e1d0a200051517f8","bdp_lott","Sat Mar 25 2023 22:13:48 GMT-0400 (Eastern Daylight Time)","295527","green","red","","812","","","","choice","","img/red_ll/choose11.jpg","1","185","green","0.5","0.5","0.5","l","",""
"animation","85","101984","0.0-5.0-2.40","56b8de29e1d0a200051517f8","bdp_lott","Sat Mar 25 2023 22:13:48 GMT-0400 (Eastern Daylight Time)","295527","green","red","","","","","","","","","","185","","","","","","[{""stimulus"":""img/green_ll/1.jpg"",""time"":53},{""stimulus"":""img/green_ll/2.jpg"",""time"":102},{""stimulus"":""img/green_ll/3.jpg"",""time"":152},{""stimulus"":""img/green_ll/4.jpg"",""time"":202},{""stimulus"":""img/green_ll/5.jpg"",""time"":252},{""stimulus"":""img/green_ll/6.jpg"",""time"":301},{""stimulus"":""img/green_ll/7.jpg"",""time"":351},{""stimulus"":""img/green_ll/8.jpg"",""time"":401},{""stimulus"":""img/green_ll/9.jpg"",""time"":452},{""stimulus"":""img/green_ll/10.jpg"",""time"":501},{""stimulus"":""img/green_ll/11.jpg"",""time"":552}]","[]"
"image-keyboard-response","86","102589","0.0-5.0-1.41","56b8de29e1d0a200051517f8","bdp_lott","Sat Mar 25 2023 22:13:48 GMT-0400 (Eastern Daylight Time)","295527","green","red","","602","","","","choice","","img/green_ll/choose11.jpg","1","184","green","0.5","0.5","0.5","l","",""
"animation","87","103191","0.0-5.0-2.41","56b8de29e1d0a200051517f8","bdp_lott","Sat Mar 25 2023 22:13:48 GMT-0400 (Eastern Daylight Time)","295527","green","red","","","","","","","","","","184","","","","","","[{""stimulus"":""img/green_ll/1.jpg"",""time"":53},{""stimulus"":""img/green_ll/2.jpg"",""time"":102},{""stimulus"":""img/green_ll/3.jpg"",""time"":152},{""stimulus"":""img/green_ll/4.jpg"",""time"":201},{""stimulus"":""img/green_ll/5.jpg"",""time"":253},{""stimulus"":""img/green_ll/6.jpg"",""time"":303},{""stimulus"":""img/green_ll/7.jpg"",""time"":352},{""stimulus"":""img/green_ll/8.jpg"",""time"":403},{""stimulus"":""img/green_ll/9.jpg"",""time"":452},{""stimulus"":""img/green_ll/10.jpg"",""time"":503},{""stimulus"":""img/green_ll/11.jpg"",""time"":553}]","[]"
"image-keyboard-response","88","103704","0.0-5.0-1.42","56b8de29e1d0a200051517f8","bdp_lott","Sat Mar 25 2023 22:13:48 GMT-0400 (Eastern Daylight Time)","295527","green","red","","509","","","","choice","","img/green_ll/choose11.jpg","2","183","red","0.5","0.5","0.5","w","",""
"animation","89","104306","0.0-5.0-2.42","56b8de29e1d0a200051517f8","bdp_lott","Sat Mar 25 2023 22:13:48 GMT-0400 (Eastern Daylight Time)","295527","green","red","","","","","","","","","","183","","","","","","[{""stimulus"":""img/red_lw/1.jpg"",""time"":54},{""stimulus"":""img/red_lw/2.jpg"",""time"":102},{""stimulus"":""img/red_lw/3.jpg"",""time"":153},{""stimulus"":""img/red_lw/4.jpg"",""time"":203},{""stimulus"":""img/red_lw/5.jpg"",""time"":253},{""stimulus"":""img/red_lw/6.jpg"",""time"":303},{""stimulus"":""img/red_lw/7.jpg"",""time"":353},{""stimulus"":""img/red_lw/8.jpg"",""time"":403},{""stimulus"":""img/red_lw/9.jpg"",""time"":453},{""stimulus"":""img/red_lw/10.jpg"",""time"":503},{""stimulus"":""img/red_lw/11.jpg"",""time"":553}]","[]"
"image-keyboard-response","90","104853","0.0-5.0-1.43","56b8de29e1d0a200051517f8","bdp_lott","Sat Mar 25 2023 22:13:48 GMT-0400 (Eastern Daylight Time)","295527","green","red","","542","","","","choice","","img/red_lw/choose11.jpg","2","182","red","0.5","0.5","0.5","w","",""
"animation","91","105454","0.0-5.0-2.43","56b8de29e1d0a200051517f8","bdp_lott","Sat Mar 25 2023 22:13:48 GMT-0400 (Eastern Daylight Time)","295527","green","red","","","","","","","","","","182","","","","","","[{""stimulus"":""img/red_lw/1.jpg"",""time"":52},{""stimulus"":""img/red_lw/2.jpg"",""time"":101},{""stimulus"":""img/red_lw/3.jpg"",""time"":152},{""stimulus"":""img/red_lw/4.jpg"",""time"":202},{""stimulus"":""img/red_lw/5.jpg"",""time"":250},{""stimulus"":""img/red_lw/6.jpg"",""time"":300},{""stimulus"":""img/red_lw/7.jpg"",""time"":350},{""stimulus"":""img/red_lw/8.jpg"",""time"":401},{""stimulus"":""img/red_lw/9.jpg"",""time"":452},{""stimulus"":""img/red_lw/10.jpg"",""time"":502},{""stimulus"":""img/red_lw/11.jpg"",""time"":552}]","[]"
"image-keyboard-response","92","105992","0.0-5.0-1.44","56b8de29e1d0a200051517f8","bdp_lott","Sat Mar 25 2023 22:13:48 GMT-0400 (Eastern Daylight Time)","295527","green","red","","534","","","","choice","","img/red_lw/choose11.jpg","2","181","red","0.5","0.5","0.5","l","",""
"animation","93","106594","0.0-5.0-2.44","56b8de29e1d0a200051517f8","bdp_lott","Sat Mar 25 2023 22:13:48 GMT-0400 (Eastern Daylight Time)","295527","green","red","","","","","","","","","","181","","","","","","[{""stimulus"":""img/red_ll/1.jpg"",""time"":53},{""stimulus"":""img/red_ll/2.jpg"",""time"":103},{""stimulus"":""img/red_ll/3.jpg"",""time"":152},{""stimulus"":""img/red_ll/4.jpg"",""time"":202},{""stimulus"":""img/red_ll/5.jpg"",""time"":253},{""stimulus"":""img/red_ll/6.jpg"",""time"":303},{""stimulus"":""img/red_ll/7.jpg"",""time"":352},{""stimulus"":""img/red_ll/8.jpg"",""time"":402},{""stimulus"":""img/red_ll/9.jpg"",""time"":452},{""stimulus"":""img/red_ll/10.jpg"",""time"":502},{""stimulus"":""img/red_ll/11.jpg"",""time"":552}]","[]"
"image-keyboard-response","94","107338","0.0-5.0-1.45","56b8de29e1d0a200051517f8","bdp_lott","Sat Mar 25 2023 22:13:48 GMT-0400 (Eastern Daylight Time)","295527","green","red","","741","","","","choice","","img/red_ll/choose11.jpg","2","180","red","0.5","0.5","0.5","w","",""
"animation","95","107940","0.0-5.0-2.45","56b8de29e1d0a200051517f8","bdp_lott","Sat Mar 25 2023 22:13:48 GMT-0400 (Eastern Daylight Time)","295527","green","red","","","","","","","","","","180","","","","","","[{""stimulus"":""img/red_lw/1.jpg"",""time"":53},{""stimulus"":""img/red_lw/2.jpg"",""time"":102},{""stimulus"":""img/red_lw/3.jpg"",""time"":153},{""stimulus"":""img/red_lw/4.jpg"",""time"":203},{""stimulus"":""img/red_lw/5.jpg"",""time"":252},{""stimulus"":""img/red_lw/6.jpg"",""time"":302},{""stimulus"":""img/red_lw/7.jpg"",""time"":352},{""stimulus"":""img/red_lw/8.jpg"",""time"":403},{""stimulus"":""img/red_lw/9.jpg"",""time"":453},{""stimulus"":""img/red_lw/10.jpg"",""time"":502},{""stimulus"":""img/red_lw/11.jpg"",""time"":552}]","[]"
"image-keyboard-response","96","108499","0.0-5.0-1.46","56b8de29e1d0a200051517f8","bdp_lott","Sat Mar 25 2023 22:13:48 GMT-0400 (Eastern Daylight Time)","295527","green","red","","555","","","","choice","","img/red_lw/choose11.jpg","2","179","red","0.5","0.5","0.5","l","",""
"animation","97","109100","0.0-5.0-2.46","56b8de29e1d0a200051517f8","bdp_lott","Sat Mar 25 2023 22:13:48 GMT-0400 (Eastern Daylight Time)","295527","green","red","","","","","","","","","","179","","","","","","[{""stimulus"":""img/red_ll/1.jpg"",""time"":53},{""stimulus"":""img/red_ll/2.jpg"",""time"":101},{""stimulus"":""img/red_ll/3.jpg"",""time"":152},{""stimulus"":""img/red_ll/4.jpg"",""time"":203},{""stimulus"":""img/red_ll/5.jpg"",""time"":252},{""stimulus"":""img/red_ll/6.jpg"",""time"":302},{""stimulus"":""img/red_ll/7.jpg"",""time"":352},{""stimulus"":""img/red_ll/8.jpg"",""time"":401},{""stimulus"":""img/red_ll/9.jpg"",""time"":452},{""stimulus"":""img/red_ll/10.jpg"",""time"":501},{""stimulus"":""img/red_ll/11.jpg"",""time"":553}]","[]"
"image-keyboard-response","98","109669","0.0-5.0-1.47","56b8de29e1d0a200051517f8","bdp_lott","Sat Mar 25 2023 22:13:48 GMT-0400 (Eastern Daylight Time)","295527","green","red","","564","","","","choice","","img/red_ll/choose11.jpg","2","178","red","0.5","0.5","0.5","w","",""
"animation","99","110272","0.0-5.0-2.47","56b8de29e1d0a200051517f8","bdp_lott","Sat Mar 25 2023 22:13:48 GMT-0400 (Eastern Daylight Time)","295527","green","red","","","","","","","","","","178","","","","","","[{""stimulus"":""img/red_lw/1.jpg"",""time"":54},{""stimulus"":""img/red_lw/2.jpg"",""time"":103},{""stimulus"":""img/red_lw/3.jpg"",""time"":153},{""stimulus"":""img/red_lw/4.jpg"",""time"":203},{""stimulus"":""img/red_lw/5.jpg"",""time"":252},{""stimulus"":""img/red_lw/6.jpg"",""time"":304},{""stimulus"":""img/red_lw/7.jpg"",""time"":353},{""stimulus"":""img/red_lw/8.jpg"",""time"":403},{""stimulus"":""img/red_lw/9.jpg"",""time"":453},{""stimulus"":""img/red_lw/10.jpg"",""time"":503},{""stimulus"":""img/red_lw/11.jpg"",""time"":553}]","[]"
"image-keyboard-response","100","110815","0.0-5.0-1.48","56b8de29e1d0a200051517f8","bdp_lott","Sat Mar 25 2023 22:13:48 GMT-0400 (Eastern Daylight Time)","295527","green","red","","540","","","","choice","","img/red_lw/choose11.jpg","2","177","red","0.5","0.5","0.5","w","",""
"animation","101","111417","0.0-5.0-2.48","56b8de29e1d0a200051517f8","bdp_lott","Sat Mar 25 2023 22:13:48 GMT-0400 (Eastern Daylight Time)","295527","green","red","","","","","","","","","","177","","","","","","[{""stimulus"":""img/red_lw/1.jpg"",""time"":52},{""stimulus"":""img/red_lw/2.jpg"",""time"":101},{""stimulus"":""img/red_lw/3.jpg"",""time"":152},{""stimulus"":""img/red_lw/4.jpg"",""time"":202},{""stimulus"":""img/red_lw/5.jpg"",""time"":252},{""stimulus"":""img/red_lw/6.jpg"",""time"":302},{""stimulus"":""img/red_lw/7.jpg"",""time"":352},{""stimulus"":""img/red_lw/8.jpg"",""time"":402},{""stimulus"":""img/red_lw/9.jpg"",""time"":453},{""stimulus"":""img/red_lw/10.jpg"",""time"":502},{""stimulus"":""img/red_lw/11.jpg"",""time"":551}]","[]"
"image-keyboard-response","102","111926","0.0-5.0-1.49","56b8de29e1d0a200051517f8","bdp_lott","Sat Mar 25 2023 22:13:48 GMT-0400 (Eastern Daylight Time)","295527","green","red","","506","","","","choice","","img/red_lw/choose11.jpg","2","176","red","0.5","0.5","0.5","w","",""
"animation","103","112527","0.0-5.0-2.49","56b8de29e1d0a200051517f8","bdp_lott","Sat Mar 25 2023 22:13:48 GMT-0400 (Eastern Daylight Time)","295527","green","red","","","","","","","","","","176","","","","","","[{""stimulus"":""img/red_lw/1.jpg"",""time"":51},{""stimulus"":""img/red_lw/2.jpg"",""time"":102},{""stimulus"":""img/red_lw/3.jpg"",""time"":152},{""stimulus"":""img/red_lw/4.jpg"",""time"":202},{""stimulus"":""img/red_lw/5.jpg"",""time"":252},{""stimulus"":""img/red_lw/6.jpg"",""time"":302},{""stimulus"":""img/red_lw/7.jpg"",""time"":351},{""stimulus"":""img/red_lw/8.jpg"",""time"":402},{""stimulus"":""img/red_lw/9.jpg"",""time"":451},{""stimulus"":""img/red_lw/10.jpg"",""time"":502},{""stimulus"":""img/red_lw/11.jpg"",""time"":551}]","[]"
"image-keyboard-response","104","112997","0.0-5.0-1.50","56b8de29e1d0a200051517f8","bdp_lott","Sat Mar 25 2023 22:13:48 GMT-0400 (Eastern Daylight Time)","295527","green","red","","466","","","","choice","","img/red_lw/choose11.jpg","2","175","red","0.5","0.5","0.5","w","",""
"animation","105","113599","0.0-5.0-2.50","56b8de29e1d0a200051517f8","bdp_lott","Sat Mar 25 2023 22:13:48 GMT-0400 (Eastern Daylight Time)","295527","green","red","","","","","","","","","","175","","","","","","[{""stimulus"":""img/red_lw/1.jpg"",""time"":53},{""stimulus"":""img/red_lw/2.jpg"",""time"":102},{""stimulus"":""img/red_lw/3.jpg"",""time"":152},{""stimulus"":""img/red_lw/4.jpg"",""time"":202},{""stimulus"":""img/red_lw/5.jpg"",""time"":252},{""stimulus"":""img/red_lw/6.jpg"",""time"":303},{""stimulus"":""img/red_lw/7.jpg"",""time"":353},{""stimulus"":""img/red_lw/8.jpg"",""time"":404},{""stimulus"":""img/red_lw/9.jpg"",""time"":452},{""stimulus"":""img/red_lw/10.jpg"",""time"":502},{""stimulus"":""img/red_lw/11.jpg"",""time"":552}]","[]"
"image-keyboard-response","106","114113","0.0-5.0-1.51","56b8de29e1d0a200051517f8","bdp_lott","Sat Mar 25 2023 22:13:48 GMT-0400 (Eastern Daylight Time)","295527","green","red","","511","","","","choice","","img/red_lw/choose11.jpg","2","174","red","0.5","0.5","0.5","l","",""
"animation","107","114715","0.0-5.0-2.51","56b8de29e1d0a200051517f8","bdp_lott","Sat Mar 25 2023 22:13:48 GMT-0400 (Eastern Daylight Time)","295527","green","red","","","","","","","","","","174","","","","","","[{""stimulus"":""img/red_ll/1.jpg"",""time"":53},{""stimulus"":""img/red_ll/2.jpg"",""time"":102},{""stimulus"":""img/red_ll/3.jpg"",""time"":153},{""stimulus"":""img/red_ll/4.jpg"",""time"":203},{""stimulus"":""img/red_ll/5.jpg"",""time"":252},{""stimulus"":""img/red_ll/6.jpg"",""time"":302},{""stimulus"":""img/red_ll/7.jpg"",""time"":352},{""stimulus"":""img/red_ll/8.jpg"",""time"":402},{""stimulus"":""img/red_ll/9.jpg"",""time"":453},{""stimulus"":""img/red_ll/10.jpg"",""time"":503},{""stimulus"":""img/red_ll/11.jpg"",""time"":553}]","[]"
"image-keyboard-response","108","115798","0.0-5.0-1.52","56b8de29e1d0a200051517f8","bdp_lott","Sat Mar 25 2023 22:13:48 GMT-0400 (Eastern Daylight Time)","295527","green","red","","1079","","","","choice","","img/red_ll/choose11.jpg","1","173","green","0.5","0.5","0.5","l","",""
"animation","109","116400","0.0-5.0-2.52","56b8de29e1d0a200051517f8","bdp_lott","Sat Mar 25 2023 22:13:48 GMT-0400 (Eastern Daylight Time)","295527","green","red","","","","","","","","","","173","","","","","","[{""stimulus"":""img/green_ll/1.jpg"",""time"":52},{""stimulus"":""img/green_ll/2.jpg"",""time"":103},{""stimulus"":""img/green_ll/3.jpg"",""time"":152},{""stimulus"":""img/green_ll/4.jpg"",""time"":202},{""stimulus"":""img/green_ll/5.jpg"",""time"":251},{""stimulus"":""img/green_ll/6.jpg"",""time"":303},{""stimulus"":""img/green_ll/7.jpg"",""time"":352},{""stimulus"":""img/green_ll/8.jpg"",""time"":403},{""stimulus"":""img/green_ll/9.jpg"",""time"":454},{""stimulus"":""img/green_ll/10.jpg"",""time"":503},{""stimulus"":""img/green_ll/11.jpg"",""time"":553}]","[]"
"image-keyboard-response","110","116995","0.0-5.0-1.53","56b8de29e1d0a200051517f8","bdp_lott","Sat Mar 25 2023 22:13:48 GMT-0400 (Eastern Daylight Time)","295527","green","red","","591","","","","choice","","img/green_ll/choose11.jpg","2","172","red","0.5","0.5","0.5","w","",""
"animation","111","117598","0.0-5.0-2.53","56b8de29e1d0a200051517f8","bdp_lott","Sat Mar 25 2023 22:13:48 GMT-0400 (Eastern Daylight Time)","295527","green","red","","","","","","","","","","172","","","","","","[{""stimulus"":""img/red_lw/1.jpg"",""time"":51},{""stimulus"":""img/red_lw/2.jpg"",""time"":102},{""stimulus"":""img/red_lw/3.jpg"",""time"":152},{""stimulus"":""img/red_lw/4.jpg"",""time"":202},{""stimulus"":""img/red_lw/5.jpg"",""time"":252},{""stimulus"":""img/red_lw/6.jpg"",""time"":303},{""stimulus"":""img/red_lw/7.jpg"",""time"":352},{""stimulus"":""img/red_lw/8.jpg"",""time"":403},{""stimulus"":""img/red_lw/9.jpg"",""time"":452},{""stimulus"":""img/red_lw/10.jpg"",""time"":502},{""stimulus"":""img/red_lw/11.jpg"",""time"":552}]","[]"
"image-keyboard-response","112","118029","0.0-5.0-1.54","56b8de29e1d0a200051517f8","bdp_lott","Sat Mar 25 2023 22:13:48 GMT-0400 (Eastern Daylight Time)","295527","green","red","","428","","","","choice","","img/red_lw/choose11.jpg","2","171","red","0.5","0.5","0.5","l","",""
"animation","113","118631","0.0-5.0-2.54","56b8de29e1d0a200051517f8","bdp_lott","Sat Mar 25 2023 22:13:48 GMT-0400 (Eastern Daylight Time)","295527","green","red","","","","","","","","","","171","","","","","","[{""stimulus"":""img/red_ll/1.jpg"",""time"":53},{""stimulus"":""img/red_ll/2.jpg"",""time"":102},{""stimulus"":""img/red_ll/3.jpg"",""time"":153},{""stimulus"":""img/red_ll/4.jpg"",""time"":204},{""stimulus"":""img/red_ll/5.jpg"",""time"":252},{""stimulus"":""img/red_ll/6.jpg"",""time"":302},{""stimulus"":""img/red_ll/7.jpg"",""time"":352},{""stimulus"":""img/red_ll/8.jpg"",""time"":402},{""stimulus"":""img/red_ll/9.jpg"",""time"":451},{""stimulus"":""img/red_ll/10.jpg"",""time"":501},{""stimulus"":""img/red_ll/11.jpg"",""time"":551}]","[]"
"image-keyboard-response","114","119217","0.0-5.0-1.55","56b8de29e1d0a200051517f8","bdp_lott","Sat Mar 25 2023 22:13:48 GMT-0400 (Eastern Daylight Time)","295527","green","red","","583","","","","choice","","img/red_ll/choose11.jpg","2","170","red","0.5","0.5","0.5","l","",""
"animation","115","119819","0.0-5.0-2.55","56b8de29e1d0a200051517f8","bdp_lott","Sat Mar 25 2023 22:13:48 GMT-0400 (Eastern Daylight Time)","295527","green","red","","","","","","","","","","170","","","","","","[{""stimulus"":""img/red_ll/1.jpg"",""time"":52},{""stimulus"":""img/red_ll/2.jpg"",""time"":102},{""stimulus"":""img/red_ll/3.jpg"",""time"":151},{""stimulus"":""img/red_ll/4.jpg"",""time"":202},{""stimulus"":""img/red_ll/5.jpg"",""time"":253},{""stimulus"":""img/red_ll/6.jpg"",""time"":303},{""stimulus"":""img/red_ll/7.jpg"",""time"":352},{""stimulus"":""img/red_ll/8.jpg"",""time"":402},{""stimulus"":""img/red_ll/9.jpg"",""time"":453},{""stimulus"":""img/red_ll/10.jpg"",""time"":503},{""stimulus"":""img/red_ll/11.jpg"",""time"":553}]","[]"
"image-keyboard-response","116","120392","0.0-5.0-1.56","56b8de29e1d0a200051517f8","bdp_lott","Sat Mar 25 2023 22:13:48 GMT-0400 (Eastern Daylight Time)","295527","green","red","","569","","","","choice","","img/red_ll/choose11.jpg","1","169","green","0.5","0.5","0.5","w","",""
"animation","117","120994","0.0-5.0-2.56","56b8de29e1d0a200051517f8","bdp_lott","Sat Mar 25 2023 22:13:48 GMT-0400 (Eastern Daylight Time)","295527","green","red","","","","","","","","","","169","","","","","","[{""stimulus"":""img/green_wl/1.jpg"",""time"":53},{""stimulus"":""img/green_wl/2.jpg"",""time"":102},{""stimulus"":""img/green_wl/3.jpg"",""time"":152},{""stimulus"":""img/green_wl/4.jpg"",""time"":202},{""stimulus"":""img/green_wl/5.jpg"",""time"":252},{""stimulus"":""img/green_wl/6.jpg"",""time"":302},{""stimulus"":""img/green_wl/7.jpg"",""time"":352},{""stimulus"":""img/green_wl/8.jpg"",""time"":402},{""stimulus"":""img/green_wl/9.jpg"",""time"":453},{""stimulus"":""img/green_wl/10.jpg"",""time"":502},{""stimulus"":""img/green_wl/11.jpg"",""time"":552}]","[]"
"image-keyboard-response","118","121367","0.0-5.0-1.57","56b8de29e1d0a200051517f8","bdp_lott","Sat Mar 25 2023 22:13:48 GMT-0400 (Eastern Daylight Time)","295527","green","red","","369","","","","choice","","img/green_wl/choose11.jpg","1","168","green","0.5","0.5","0.5","l","",""
"animation","119","121968","0.0-5.0-2.57","56b8de29e1d0a200051517f8","bdp_lott","Sat Mar 25 2023 22:13:48 GMT-0400 (Eastern Daylight Time)","295527","green","red","","","","","","","","","","168","","","","","","[{""stimulus"":""img/green_ll/1.jpg"",""time"":53},{""stimulus"":""img/green_ll/2.jpg"",""time"":102},{""stimulus"":""img/green_ll/3.jpg"",""time"":152},{""stimulus"":""img/green_ll/4.jpg"",""time"":202},{""stimulus"":""img/green_ll/5.jpg"",""time"":253},{""stimulus"":""img/green_ll/6.jpg"",""time"":303},{""stimulus"":""img/green_ll/7.jpg"",""time"":353},{""stimulus"":""img/green_ll/8.jpg"",""time"":403},{""stimulus"":""img/green_ll/9.jpg"",""time"":453},{""stimulus"":""img/green_ll/10.jpg"",""time"":503},{""stimulus"":""img/green_ll/11.jpg"",""time"":551}]","[]"
"image-keyboard-response","120","122506","0.0-5.0-1.58","56b8de29e1d0a200051517f8","bdp_lott","Sat Mar 25 2023 22:13:48 GMT-0400 (Eastern Daylight Time)","295527","green","red","","536","","","","choice","","img/green_ll/choose11.jpg","1","167","green","0.5","0.5","0.5","l","",""
"animation","121","123108","0.0-5.0-2.58","56b8de29e1d0a200051517f8","bdp_lott","Sat Mar 25 2023 22:13:48 GMT-0400 (Eastern Daylight Time)","295527","green","red","","","","","","","","","","167","","","","","","[{""stimulus"":""img/green_ll/1.jpg"",""time"":53},{""stimulus"":""img/green_ll/2.jpg"",""time"":102},{""stimulus"":""img/green_ll/3.jpg"",""time"":153},{""stimulus"":""img/green_ll/4.jpg"",""time"":202},{""stimulus"":""img/green_ll/5.jpg"",""time"":253},{""stimulus"":""img/green_ll/6.jpg"",""time"":302},{""stimulus"":""img/green_ll/7.jpg"",""time"":352},{""stimulus"":""img/green_ll/8.jpg"",""time"":404},{""stimulus"":""img/green_ll/9.jpg"",""time"":452},{""stimulus"":""img/green_ll/10.jpg"",""time"":502},{""stimulus"":""img/green_ll/11.jpg"",""time"":553}]","[]"
"image-keyboard-response","122","123556","0.0-5.0-1.59","56b8de29e1d0a200051517f8","bdp_lott","Sat Mar 25 2023 22:13:48 GMT-0400 (Eastern Daylight Time)","295527","green","red","","444","","","","choice","","img/green_ll/choose11.jpg","1","166","green","0.5","0.5","0.5","l","",""
"animation","123","124159","0.0-5.0-2.59","56b8de29e1d0a200051517f8","bdp_lott","Sat Mar 25 2023 22:13:48 GMT-0400 (Eastern Daylight Time)","295527","green","red","","","","","","","","","","166","","","","","","[{""stimulus"":""img/green_ll/1.jpg"",""time"":53},{""stimulus"":""img/green_ll/2.jpg"",""time"":102},{""stimulus"":""img/green_ll/3.jpg"",""time"":152},{""stimulus"":""img/green_ll/4.jpg"",""time"":203},{""stimulus"":""img/green_ll/5.jpg"",""time"":253},{""stimulus"":""img/green_ll/6.jpg"",""time"":302},{""stimulus"":""img/green_ll/7.jpg"",""time"":355},{""stimulus"":""img/green_ll/8.jpg"",""time"":405},{""stimulus"":""img/green_ll/9.jpg"",""time"":452},{""stimulus"":""img/green_ll/10.jpg"",""time"":503},{""stimulus"":""img/green_ll/11.jpg"",""time"":552}]","[]"
"image-keyboard-response","124","124540","0.0-5.0-1.60","56b8de29e1d0a200051517f8","bdp_lott","Sat Mar 25 2023 22:13:48 GMT-0400 (Eastern Daylight Time)","295527","green","red","","377","","","","choice","","img/green_ll/choose11.jpg","2","165","red","0.5","0.5","0.5","l","",""
"animation","125","125143","0.0-5.0-2.60","56b8de29e1d0a200051517f8","bdp_lott","Sat Mar 25 2023 22:13:48 GMT-0400 (Eastern Daylight Time)","295527","green","red","","","","","","","","","","165","","","","","","[{""stimulus"":""img/red_ll/1.jpg"",""time"":53},{""stimulus"":""img/red_ll/2.jpg"",""time"":102},{""stimulus"":""img/red_ll/3.jpg"",""time"":153},{""stimulus"":""img/red_ll/4.jpg"",""time"":203},{""stimulus"":""img/red_ll/5.jpg"",""time"":251},{""stimulus"":""img/red_ll/6.jpg"",""time"":301},{""stimulus"":""img/red_ll/7.jpg"",""time"":351},{""stimulus"":""img/red_ll/8.jpg"",""time"":402},{""stimulus"":""img/red_ll/9.jpg"",""time"":451},{""stimulus"":""img/red_ll/10.jpg"",""time"":503},{""stimulus"":""img/red_ll/11.jpg"",""time"":552}]","[]"
"image-keyboard-response","126","125539","0.0-5.0-1.61","56b8de29e1d0a200051517f8","bdp_lott","Sat Mar 25 2023 22:13:48 GMT-0400 (Eastern Daylight Time)","295527","green","red","","385","","","","choice","","img/red_ll/choose11.jpg","2","164","red","0.5","0.5","0.5","l","",""
"animation","127","126141","0.0-5.0-2.61","56b8de29e1d0a200051517f8","bdp_lott","Sat Mar 25 2023 22:13:48 GMT-0400 (Eastern Daylight Time)","295527","green","red","","","","","","","","","","164","","","","","","[{""stimulus"":""img/red_ll/1.jpg"",""time"":53},{""stimulus"":""img/red_ll/2.jpg"",""time"":103},{""stimulus"":""img/red_ll/3.jpg"",""time"":153},{""stimulus"":""img/red_ll/4.jpg"",""time"":202},{""stimulus"":""img/red_ll/5.jpg"",""time"":252},{""stimulus"":""img/red_ll/6.jpg"",""time"":302},{""stimulus"":""img/red_ll/7.jpg"",""time"":352},{""stimulus"":""img/red_ll/8.jpg"",""time"":402},{""stimulus"":""img/red_ll/9.jpg"",""time"":453},{""stimulus"":""img/red_ll/10.jpg"",""time"":502},{""stimulus"":""img/red_ll/11.jpg"",""time"":552}]","[]"
"image-keyboard-response","128","126551","0.0-5.0-1.62","56b8de29e1d0a200051517f8","bdp_lott","Sat Mar 25 2023 22:13:48 GMT-0400 (Eastern Daylight Time)","295527","green","red","","406","","","","choice","","img/red_ll/choose11.jpg","2","163","red","0.5","0.5","0.5","w","",""
"animation","129","127152","0.0-5.0-2.62","56b8de29e1d0a200051517f8","bdp_lott","Sat Mar 25 2023 22:13:48 GMT-0400 (Eastern Daylight Time)","295527","green","red","","","","","","","","","","163","","","","","","[{""stimulus"":""img/red_lw/1.jpg"",""time"":52},{""stimulus"":""img/red_lw/2.jpg"",""time"":102},{""stimulus"":""img/red_lw/3.jpg"",""time"":152},{""stimulus"":""img/red_lw/4.jpg"",""time"":202},{""stimulus"":""img/red_lw/5.jpg"",""time"":251},{""stimulus"":""img/red_lw/6.jpg"",""time"":302},{""stimulus"":""img/red_lw/7.jpg"",""time"":352},{""stimulus"":""img/red_lw/8.jpg"",""time"":402},{""stimulus"":""img/red_lw/9.jpg"",""time"":452},{""stimulus"":""img/red_lw/10.jpg"",""time"":502},{""stimulus"":""img/red_lw/11.jpg"",""time"":552}]","[]"
"image-keyboard-response","130","127770","0.0-5.0-1.63","56b8de29e1d0a200051517f8","bdp_lott","Sat Mar 25 2023 22:13:48 GMT-0400 (Eastern Daylight Time)","295527","green","red","","614","","","","choice","","img/red_lw/choose11.jpg","1","162","green","0.5","0.5","0.5","w","",""
"animation","131","128371","0.0-5.0-2.63","56b8de29e1d0a200051517f8","bdp_lott","Sat Mar 25 2023 22:13:48 GMT-0400 (Eastern Daylight Time)","295527","green","red","","","","","","","","","","162","","","","","","[{""stimulus"":""img/green_ww/1.jpg"",""time"":53},{""stimulus"":""img/green_ww/2.jpg"",""time"":102},{""stimulus"":""img/green_ww/3.jpg"",""time"":152},{""stimulus"":""img/green_ww/4.jpg"",""time"":202},{""stimulus"":""img/green_ww/5.jpg"",""time"":252},{""stimulus"":""img/green_ww/6.jpg"",""time"":302},{""stimulus"":""img/green_ww/7.jpg"",""time"":352},{""stimulus"":""img/green_ww/8.jpg"",""time"":402},{""stimulus"":""img/green_ww/9.jpg"",""time"":452},{""stimulus"":""img/green_ww/10.jpg"",""time"":503},{""stimulus"":""img/green_ww/11.jpg"",""time"":553}]","[]"
"image-keyboard-response","132","129009","0.0-5.0-1.64","56b8de29e1d0a200051517f8","bdp_lott","Sat Mar 25 2023 22:13:48 GMT-0400 (Eastern Daylight Time)","295527","green","red","","633","","","","choice","","img/green_ww/choose11.jpg","1","161","green","0.5","0.5","0.5","w","",""
"animation","133","129611","0.0-5.0-2.64","56b8de29e1d0a200051517f8","bdp_lott","Sat Mar 25 2023 22:13:48 GMT-0400 (Eastern Daylight Time)","295527","green","red","","","","","","","","","","161","","","","","","[{""stimulus"":""img/green_ww/1.jpg"",""time"":52},{""stimulus"":""img/green_ww/2.jpg"",""time"":103},{""stimulus"":""img/green_ww/3.jpg"",""time"":156},{""stimulus"":""img/green_ww/4.jpg"",""time"":203},{""stimulus"":""img/green_ww/5.jpg"",""time"":252},{""stimulus"":""img/green_ww/6.jpg"",""time"":303},{""stimulus"":""img/green_ww/7.jpg"",""time"":353},{""stimulus"":""img/green_ww/8.jpg"",""time"":403},{""stimulus"":""img/green_ww/9.jpg"",""time"":453},{""stimulus"":""img/green_ww/10.jpg"",""time"":503},{""stimulus"":""img/green_ww/11.jpg"",""time"":553}]","[]"
"image-keyboard-response","134","130155","0.0-5.0-1.65","56b8de29e1d0a200051517f8","bdp_lott","Sat Mar 25 2023 22:13:48 GMT-0400 (Eastern Daylight Time)","295527","green","red","","540","","","","choice","","img/green_ww/choose11.jpg","1","160","green","0.5","0.5","0.5","w","",""
"animation","135","130757","0.0-5.0-2.65","56b8de29e1d0a200051517f8","bdp_lott","Sat Mar 25 2023 22:13:48 GMT-0400 (Eastern Daylight Time)","295527","green","red","","","","","","","","","","160","","","","","","[{""stimulus"":""img/green_ww/1.jpg"",""time"":53},{""stimulus"":""img/green_ww/2.jpg"",""time"":103},{""stimulus"":""img/green_ww/3.jpg"",""time"":152},{""stimulus"":""img/green_ww/4.jpg"",""time"":202},{""stimulus"":""img/green_ww/5.jpg"",""time"":252},{""stimulus"":""img/green_ww/6.jpg"",""time"":302},{""stimulus"":""img/green_ww/7.jpg"",""time"":352},{""stimulus"":""img/green_ww/8.jpg"",""time"":401},{""stimulus"":""img/green_ww/9.jpg"",""time"":452},{""stimulus"":""img/green_ww/10.jpg"",""time"":502},{""stimulus"":""img/green_ww/11.jpg"",""time"":552}]","[]"
"image-keyboard-response","136","131300","0.0-5.0-1.66","56b8de29e1d0a200051517f8","bdp_lott","Sat Mar 25 2023 22:13:48 GMT-0400 (Eastern Daylight Time)","295527","green","red","","539","","","","choice","","img/green_ww/choose11.jpg","1","159","green","0.5","0.5","0.5","w","",""
"animation","137","131901","0.0-5.0-2.66","56b8de29e1d0a200051517f8","bdp_lott","Sat Mar 25 2023 22:13:48 GMT-0400 (Eastern Daylight Time)","295527","green","red","","","","","","","","","","159","","","","","","[{""stimulus"":""img/green_ww/1.jpg"",""time"":53},{""stimulus"":""img/green_ww/2.jpg"",""time"":102},{""stimulus"":""img/green_ww/3.jpg"",""time"":152},{""stimulus"":""img/green_ww/4.jpg"",""time"":203},{""stimulus"":""img/green_ww/5.jpg"",""time"":252},{""stimulus"":""img/green_ww/6.jpg"",""time"":302},{""stimulus"":""img/green_ww/7.jpg"",""time"":351},{""stimulus"":""img/green_ww/8.jpg"",""time"":401},{""stimulus"":""img/green_ww/9.jpg"",""time"":452},{""stimulus"":""img/green_ww/10.jpg"",""time"":503},{""stimulus"":""img/green_ww/11.jpg"",""time"":551}]","[]"
"image-keyboard-response","138","132415","0.0-5.0-1.67","56b8de29e1d0a200051517f8","bdp_lott","Sat Mar 25 2023 22:13:48 GMT-0400 (Eastern Daylight Time)","295527","green","red","","511","","","","choice","","img/green_ww/choose11.jpg","1","158","green","0.5","0.5","0.5","w","",""
"animation","139","133016","0.0-5.0-2.67","56b8de29e1d0a200051517f8","bdp_lott","Sat Mar 25 2023 22:13:48 GMT-0400 (Eastern Daylight Time)","295527","green","red","","","","","","","","","","158","","","","","","[{""stimulus"":""img/green_ww/1.jpg"",""time"":53},{""stimulus"":""img/green_ww/2.jpg"",""time"":102},{""stimulus"":""img/green_ww/3.jpg"",""time"":152},{""stimulus"":""img/green_ww/4.jpg"",""time"":202},{""stimulus"":""img/green_ww/5.jpg"",""time"":252},{""stimulus"":""img/green_ww/6.jpg"",""time"":301},{""stimulus"":""img/green_ww/7.jpg"",""time"":351},{""stimulus"":""img/green_ww/8.jpg"",""time"":403},{""stimulus"":""img/green_ww/9.jpg"",""time"":452},{""stimulus"":""img/green_ww/10.jpg"",""time"":502},{""stimulus"":""img/green_ww/11.jpg"",""time"":552}]","[]"
"image-keyboard-response","140","133511","0.0-5.0-1.68","56b8de29e1d0a200051517f8","bdp_lott","Sat Mar 25 2023 22:13:48 GMT-0400 (Eastern Daylight Time)","295527","green","red","","492","","","","choice","","img/green_ww/choose11.jpg","1","157","green","0.5","0.5","0.5","w","",""
"animation","141","134114","0.0-5.0-2.68","56b8de29e1d0a200051517f8","bdp_lott","Sat Mar 25 2023 22:13:48 GMT-0400 (Eastern Daylight Time)","295527","green","red","","","","","","","","","","157","","","","","","[{""stimulus"":""img/green_ww/1.jpg"",""time"":53},{""stimulus"":""img/green_ww/2.jpg"",""time"":102},{""stimulus"":""img/green_ww/3.jpg"",""time"":153},{""stimulus"":""img/green_ww/4.jpg"",""time"":203},{""stimulus"":""img/green_ww/5.jpg"",""time"":252},{""stimulus"":""img/green_ww/6.jpg"",""time"":303},{""stimulus"":""img/green_ww/7.jpg"",""time"":352},{""stimulus"":""img/green_ww/8.jpg"",""time"":402},{""stimulus"":""img/green_ww/9.jpg"",""time"":453},{""stimulus"":""img/green_ww/10.jpg"",""time"":501},{""stimulus"":""img/green_ww/11.jpg"",""time"":553}]","[]"
"image-keyboard-response","142","134700","0.0-5.0-1.69","56b8de29e1d0a200051517f8","bdp_lott","Sat Mar 25 2023 22:13:48 GMT-0400 (Eastern Daylight Time)","295527","green","red","","583","","","","choice","","img/green_ww/choose11.jpg","1","156","green","0.5","0.5","0.5","w","",""
"animation","143","135302","0.0-5.0-2.69","56b8de29e1d0a200051517f8","bdp_lott","Sat Mar 25 2023 22:13:48 GMT-0400 (Eastern Daylight Time)","295527","green","red","","","","","","","","","","156","","","","","","[{""stimulus"":""img/green_ww/1.jpg"",""time"":52},{""stimulus"":""img/green_ww/2.jpg"",""time"":103},{""stimulus"":""img/green_ww/3.jpg"",""time"":152},{""stimulus"":""img/green_ww/4.jpg"",""time"":202},{""stimulus"":""img/green_ww/5.jpg"",""time"":252},{""stimulus"":""img/green_ww/6.jpg"",""time"":302},{""stimulus"":""img/green_ww/7.jpg"",""time"":352},{""stimulus"":""img/green_ww/8.jpg"",""time"":402},{""stimulus"":""img/green_ww/9.jpg"",""time"":452},{""stimulus"":""img/green_ww/10.jpg"",""time"":503},{""stimulus"":""img/green_ww/11.jpg"",""time"":553}]","[]"
"image-keyboard-response","144","135753","0.0-5.0-1.70","56b8de29e1d0a200051517f8","bdp_lott","Sat Mar 25 2023 22:13:48 GMT-0400 (Eastern Daylight Time)","295527","green","red","","447","","","","choice","","img/green_ww/choose11.jpg","1","155","green","0.5","0.5","0.5","l","",""
"animation","145","136355","0.0-5.0-2.70","56b8de29e1d0a200051517f8","bdp_lott","Sat Mar 25 2023 22:13:48 GMT-0400 (Eastern Daylight Time)","295527","green","red","","","","","","","","","","155","","","","","","[{""stimulus"":""img/green_lw/1.jpg"",""time"":52},{""stimulus"":""img/green_lw/2.jpg"",""time"":102},{""stimulus"":""img/green_lw/3.jpg"",""time"":152},{""stimulus"":""img/green_lw/4.jpg"",""time"":202},{""stimulus"":""img/green_lw/5.jpg"",""time"":252},{""stimulus"":""img/green_lw/6.jpg"",""time"":302},{""stimulus"":""img/green_lw/7.jpg"",""time"":352},{""stimulus"":""img/green_lw/8.jpg"",""time"":401},{""stimulus"":""img/green_lw/9.jpg"",""time"":452},{""stimulus"":""img/green_lw/10.jpg"",""time"":502},{""stimulus"":""img/green_lw/11.jpg"",""time"":552}]","[]"
"image-keyboard-response","146","137668","0.0-5.0-1.71","56b8de29e1d0a200051517f8","bdp_lott","Sat Mar 25 2023 22:13:48 GMT-0400 (Eastern Daylight Time)","295527","green","red","","1309","","","","choice","","img/green_lw/choose11.jpg","2","154","red","0.5","0.5","0.5","w","",""
"animation","147","138270","0.0-5.0-2.71","56b8de29e1d0a200051517f8","bdp_lott","Sat Mar 25 2023 22:13:48 GMT-0400 (Eastern Daylight Time)","295527","green","red","","","","","","","","","","154","","","","","","[{""stimulus"":""img/red_lw/1.jpg"",""time"":53},{""stimulus"":""img/red_lw/2.jpg"",""time"":101},{""stimulus"":""img/red_lw/3.jpg"",""time"":151},{""stimulus"":""img/red_lw/4.jpg"",""time"":202},{""stimulus"":""img/red_lw/5.jpg"",""time"":251},{""stimulus"":""img/red_lw/6.jpg"",""time"":302},{""stimulus"":""img/red_lw/7.jpg"",""time"":352},{""stimulus"":""img/red_lw/8.jpg"",""time"":401},{""stimulus"":""img/red_lw/9.jpg"",""time"":452},{""stimulus"":""img/red_lw/10.jpg"",""time"":502},{""stimulus"":""img/red_lw/11.jpg"",""time"":551}]","[]"
"image-keyboard-response","148","138755","0.0-5.0-1.72","56b8de29e1d0a200051517f8","bdp_lott","Sat Mar 25 2023 22:13:48 GMT-0400 (Eastern Daylight Time)","295527","green","red","","482","","","","choice","","img/red_lw/choose11.jpg","2","153","red","0.5","0.5","0.5","w","",""
"animation","149","139357","0.0-5.0-2.72","56b8de29e1d0a200051517f8","bdp_lott","Sat Mar 25 2023 22:13:48 GMT-0400 (Eastern Daylight Time)","295527","green","red","","","","","","","","","","153","","","","","","[{""stimulus"":""img/red_lw/1.jpg"",""time"":53},{""stimulus"":""img/red_lw/2.jpg"",""time"":102},{""stimulus"":""img/red_lw/3.jpg"",""time"":152},{""stimulus"":""img/red_lw/4.jpg"",""time"":202},{""stimulus"":""img/red_lw/5.jpg"",""time"":252},{""stimulus"":""img/red_lw/6.jpg"",""time"":302},{""stimulus"":""img/red_lw/7.jpg"",""time"":353},{""stimulus"":""img/red_lw/8.jpg"",""time"":402},{""stimulus"":""img/red_lw/9.jpg"",""time"":452},{""stimulus"":""img/red_lw/10.jpg"",""time"":503},{""stimulus"":""img/red_lw/11.jpg"",""time"":552}]","[]"
"image-keyboard-response","150","139857","0.0-5.0-1.73","56b8de29e1d0a200051517f8","bdp_lott","Sat Mar 25 2023 22:13:48 GMT-0400 (Eastern Daylight Time)","295527","green","red","","497","","","","choice","","img/red_lw/choose11.jpg","2","152","red","0.5","0.5","0.5","l","",""
"animation","151","140460","0.0-5.0-2.73","56b8de29e1d0a200051517f8","bdp_lott","Sat Mar 25 2023 22:13:48 GMT-0400 (Eastern Daylight Time)","295527","green","red","","","","","","","","","","152","","","","","","[{""stimulus"":""img/red_ll/1.jpg"",""time"":52},{""stimulus"":""img/red_ll/2.jpg"",""time"":103},{""stimulus"":""img/red_ll/3.jpg"",""time"":153},{""stimulus"":""img/red_ll/4.jpg"",""time"":203},{""stimulus"":""img/red_ll/5.jpg"",""time"":253},{""stimulus"":""img/red_ll/6.jpg"",""time"":303},{""stimulus"":""img/red_ll/7.jpg"",""time"":352},{""stimulus"":""img/red_ll/8.jpg"",""time"":403},{""stimulus"":""img/red_ll/9.jpg"",""time"":453},{""stimulus"":""img/red_ll/10.jpg"",""time"":503},{""stimulus"":""img/red_ll/11.jpg"",""time"":552}]","[]"
"image-keyboard-response","152","141228","0.0-5.0-1.74","56b8de29e1d0a200051517f8","bdp_lott","Sat Mar 25 2023 22:13:48 GMT-0400 (Eastern Daylight Time)","295527","green","red","","764","","","","choice","","img/red_ll/choose11.jpg","1","151","green","0.5","0.5","0.5","w","",""
"animation","153","141830","0.0-5.0-2.74","56b8de29e1d0a200051517f8","bdp_lott","Sat Mar 25 2023 22:13:48 GMT-0400 (Eastern Daylight Time)","295527","green","red","","","","","","","","","","151","","","","","","[{""stimulus"":""img/green_wl/1.jpg"",""time"":53},{""stimulus"":""img/green_wl/2.jpg"",""time"":102},{""stimulus"":""img/green_wl/3.jpg"",""time"":151},{""stimulus"":""img/green_wl/4.jpg"",""time"":202},{""stimulus"":""img/green_wl/5.jpg"",""time"":252},{""stimulus"":""img/green_wl/6.jpg"",""time"":303},{""stimulus"":""img/green_wl/7.jpg"",""time"":352},{""stimulus"":""img/green_wl/8.jpg"",""time"":403},{""stimulus"":""img/green_wl/9.jpg"",""time"":452},{""stimulus"":""img/green_wl/10.jpg"",""time"":503},{""stimulus"":""img/green_wl/11.jpg"",""time"":552}]","[]"
"image-keyboard-response","154","142333","0.0-5.0-1.75","56b8de29e1d0a200051517f8","bdp_lott","Sat Mar 25 2023 22:13:48 GMT-0400 (Eastern Daylight Time)","295527","green","red","","499","","","","choice","","img/green_wl/choose11.jpg","1","150","green","0.5","0.5","0.5","w","",""
"animation","155","142935","0.0-5.0-2.75","56b8de29e1d0a200051517f8","bdp_lott","Sat Mar 25 2023 22:13:48 GMT-0400 (Eastern Daylight Time)","295527","green","red","","","","","","","","","","150","","","","","","[{""stimulus"":""img/green_wl/1.jpg"",""time"":53},{""stimulus"":""img/green_wl/2.jpg"",""time"":102},{""stimulus"":""img/green_wl/3.jpg"",""time"":153},{""stimulus"":""img/green_wl/4.jpg"",""time"":203},{""stimulus"":""img/green_wl/5.jpg"",""time"":252},{""stimulus"":""img/green_wl/6.jpg"",""time"":302},{""stimulus"":""img/green_wl/7.jpg"",""time"":353},{""stimulus"":""img/green_wl/8.jpg"",""time"":403},{""stimulus"":""img/green_wl/9.jpg"",""time"":452},{""stimulus"":""img/green_wl/10.jpg"",""time"":503},{""stimulus"":""img/green_wl/11.jpg"",""time"":553}]","[]"
"image-keyboard-response","156","143415","0.0-5.0-1.76","56b8de29e1d0a200051517f8","bdp_lott","Sat Mar 25 2023 22:13:48 GMT-0400 (Eastern Daylight Time)","295527","green","red","","477","","","","choice","","img/green_wl/choose11.jpg","1","149","green","0.5","0.1","0.5","w","",""
"animation","157","144016","0.0-5.0-2.76","56b8de29e1d0a200051517f8","bdp_lott","Sat Mar 25 2023 22:13:48 GMT-0400 (Eastern Daylight Time)","295527","green","red","","","","","","","","","","149","","","","","","[{""stimulus"":""img/green_wl/1.jpg"",""time"":53},{""stimulus"":""img/green_wl/2.jpg"",""time"":102},{""stimulus"":""img/green_wl/3.jpg"",""time"":154},{""stimulus"":""img/green_wl/4.jpg"",""time"":203},{""stimulus"":""img/green_wl/5.jpg"",""time"":253},{""stimulus"":""img/green_wl/6.jpg"",""time"":303},{""stimulus"":""img/green_wl/7.jpg"",""time"":353},{""stimulus"":""img/green_wl/8.jpg"",""time"":402},{""stimulus"":""img/green_wl/9.jpg"",""time"":453},{""stimulus"":""img/green_wl/10.jpg"",""time"":502},{""stimulus"":""img/green_wl/11.jpg"",""time"":553}]","[]"
"image-keyboard-response","158","144389","0.0-5.0-1.77","56b8de29e1d0a200051517f8","bdp_lott","Sat Mar 25 2023 22:13:48 GMT-0400 (Eastern Daylight Time)","295527","green","red","","369","","","","choice","","img/green_wl/choose11.jpg","1","148","green","0.5","0.1","0.5","l","",""
"animation","159","144991","0.0-5.0-2.77","56b8de29e1d0a200051517f8","bdp_lott","Sat Mar 25 2023 22:13:48 GMT-0400 (Eastern Daylight Time)","295527","green","red","","","","","","","","","","148","","","","","","[{""stimulus"":""img/green_ll/1.jpg"",""time"":53},{""stimulus"":""img/green_ll/2.jpg"",""time"":101},{""stimulus"":""img/green_ll/3.jpg"",""time"":152},{""stimulus"":""img/green_ll/4.jpg"",""time"":201},{""stimulus"":""img/green_ll/5.jpg"",""time"":251},{""stimulus"":""img/green_ll/6.jpg"",""time"":302},{""stimulus"":""img/green_ll/7.jpg"",""time"":352},{""stimulus"":""img/green_ll/8.jpg"",""time"":401},{""stimulus"":""img/green_ll/9.jpg"",""time"":452},{""stimulus"":""img/green_ll/10.jpg"",""time"":502},{""stimulus"":""img/green_ll/11.jpg"",""time"":552}]","[]"
"image-keyboard-response","160","145878","0.0-5.0-1.78","56b8de29e1d0a200051517f8","bdp_lott","Sat Mar 25 2023 22:13:48 GMT-0400 (Eastern Daylight Time)","295527","green","red","","884","","","","choice","","img/green_ll/choose11.jpg","2","147","red","0.5","0.1","0.1","l","",""
"animation","161","146479","0.0-5.0-2.78","56b8de29e1d0a200051517f8","bdp_lott","Sat Mar 25 2023 22:13:48 GMT-0400 (Eastern Daylight Time)","295527","green","red","","","","","","","","","","147","","","","","","[{""stimulus"":""img/red_ll/1.jpg"",""time"":52},{""stimulus"":""img/red_ll/2.jpg"",""time"":101},{""stimulus"":""img/red_ll/3.jpg"",""time"":151},{""stimulus"":""img/red_ll/4.jpg"",""time"":202},{""stimulus"":""img/red_ll/5.jpg"",""time"":253},{""stimulus"":""img/red_ll/6.jpg"",""time"":302},{""stimulus"":""img/red_ll/7.jpg"",""time"":352},{""stimulus"":""img/red_ll/8.jpg"",""time"":402},{""stimulus"":""img/red_ll/9.jpg"",""time"":452},{""stimulus"":""img/red_ll/10.jpg"",""time"":503},{""stimulus"":""img/red_ll/11.jpg"",""time"":552}]","[]"
"image-keyboard-response","162","147011","0.0-5.0-1.79","56b8de29e1d0a200051517f8","bdp_lott","Sat Mar 25 2023 22:13:48 GMT-0400 (Eastern Daylight Time)","295527","green","red","","529","","","","choice","","img/red_ll/choose11.jpg","2","146","red","0.5","0.1","0.1","l","",""
"animation","163","147613","0.0-5.0-2.79","56b8de29e1d0a200051517f8","bdp_lott","Sat Mar 25 2023 22:13:48 GMT-0400 (Eastern Daylight Time)","295527","green","red","","","","","","","","","","146","","","","","","[{""stimulus"":""img/red_ll/1.jpg"",""time"":51},{""stimulus"":""img/red_ll/2.jpg"",""time"":102},{""stimulus"":""img/red_ll/3.jpg"",""time"":151},{""stimulus"":""img/red_ll/4.jpg"",""time"":202},{""stimulus"":""img/red_ll/5.jpg"",""time"":251},{""stimulus"":""img/red_ll/6.jpg"",""time"":301},{""stimulus"":""img/red_ll/7.jpg"",""time"":352},{""stimulus"":""img/red_ll/8.jpg"",""time"":402},{""stimulus"":""img/red_ll/9.jpg"",""time"":451},{""stimulus"":""img/red_ll/10.jpg"",""time"":502},{""stimulus"":""img/red_ll/11.jpg"",""time"":552}]","[]"
"image-keyboard-response","164","148016","0.0-5.0-1.80","56b8de29e1d0a200051517f8","bdp_lott","Sat Mar 25 2023 22:13:48 GMT-0400 (Eastern Daylight Time)","295527","green","red","","399","","","","choice","","img/red_ll/choose11.jpg","1","145","green","0.5","0.1","0.5","l","",""
"animation","165","148618","0.0-5.0-2.80","56b8de29e1d0a200051517f8","bdp_lott","Sat Mar 25 2023 22:13:48 GMT-0400 (Eastern Daylight Time)","295527","green","red","","","","","","","","","","145","","","","","","[{""stimulus"":""img/green_ll/1.jpg"",""time"":54},{""stimulus"":""img/green_ll/2.jpg"",""time"":101},{""stimulus"":""img/green_ll/3.jpg"",""time"":151},{""stimulus"":""img/green_ll/4.jpg"",""time"":201},{""stimulus"":""img/green_ll/5.jpg"",""time"":252},{""stimulus"":""img/green_ll/6.jpg"",""time"":302},{""stimulus"":""img/green_ll/7.jpg"",""time"":352},{""stimulus"":""img/green_ll/8.jpg"",""time"":401},{""stimulus"":""img/green_ll/9.jpg"",""time"":452},{""stimulus"":""img/green_ll/10.jpg"",""time"":501},{""stimulus"":""img/green_ll/11.jpg"",""time"":552}]","[]"
"image-keyboard-response","166","149082","0.0-5.0-1.81","56b8de29e1d0a200051517f8","bdp_lott","Sat Mar 25 2023 22:13:48 GMT-0400 (Eastern Daylight Time)","295527","green","red","","462","","","","choice","","img/green_ll/choose11.jpg","1","144","green","0.5","0.1","0.5","l","",""
"animation","167","149684","0.0-5.0-2.81","56b8de29e1d0a200051517f8","bdp_lott","Sat Mar 25 2023 22:13:48 GMT-0400 (Eastern Daylight Time)","295527","green","red","","","","","","","","","","144","","","","","","[{""stimulus"":""img/green_ll/1.jpg"",""time"":53},{""stimulus"":""img/green_ll/2.jpg"",""time"":102},{""stimulus"":""img/green_ll/3.jpg"",""time"":152},{""stimulus"":""img/green_ll/4.jpg"",""time"":202},{""stimulus"":""img/green_ll/5.jpg"",""time"":252},{""stimulus"":""img/green_ll/6.jpg"",""time"":303},{""stimulus"":""img/green_ll/7.jpg"",""time"":353},{""stimulus"":""img/green_ll/8.jpg"",""time"":401},{""stimulus"":""img/green_ll/9.jpg"",""time"":451},{""stimulus"":""img/green_ll/10.jpg"",""time"":501},{""stimulus"":""img/green_ll/11.jpg"",""time"":553}]","[]"
"image-keyboard-response","168","150187","0.0-5.0-1.82","56b8de29e1d0a200051517f8","bdp_lott","Sat Mar 25 2023 22:13:48 GMT-0400 (Eastern Daylight Time)","295527","green","red","","500","","","","choice","","img/green_ll/choose11.jpg","2","143","red","0.5","0.1","0.1","l","",""
"animation","169","150789","0.0-5.0-2.82","56b8de29e1d0a200051517f8","bdp_lott","Sat Mar 25 2023 22:13:48 GMT-0400 (Eastern Daylight Time)","295527","green","red","","","","","","","","","","143","","","","","","[{""stimulus"":""img/red_ll/1.jpg"",""time"":53},{""stimulus"":""img/red_ll/2.jpg"",""time"":102},{""stimulus"":""img/red_ll/3.jpg"",""time"":153},{""stimulus"":""img/red_ll/4.jpg"",""time"":203},{""stimulus"":""img/red_ll/5.jpg"",""time"":252},{""stimulus"":""img/red_ll/6.jpg"",""time"":302},{""stimulus"":""img/red_ll/7.jpg"",""time"":352},{""stimulus"":""img/red_ll/8.jpg"",""time"":402},{""stimulus"":""img/red_ll/9.jpg"",""time"":453},{""stimulus"":""img/red_ll/10.jpg"",""time"":502},{""stimulus"":""img/red_ll/11.jpg"",""time"":553}]","[]"
"image-keyboard-response","170","151213","0.0-5.0-1.83","56b8de29e1d0a200051517f8","bdp_lott","Sat Mar 25 2023 22:13:48 GMT-0400 (Eastern Daylight Time)","295527","green","red","","419","","","","choice","","img/red_ll/choose11.jpg","2","142","red","0.5","0.1","0.1","l","",""
"animation","171","151814","0.0-5.0-2.83","56b8de29e1d0a200051517f8","bdp_lott","Sat Mar 25 2023 22:13:48 GMT-0400 (Eastern Daylight Time)","295527","green","red","","","","","","","","","","142","","","","","","[{""stimulus"":""img/red_ll/1.jpg"",""time"":53},{""stimulus"":""img/red_ll/2.jpg"",""time"":102},{""stimulus"":""img/red_ll/3.jpg"",""time"":151},{""stimulus"":""img/red_ll/4.jpg"",""time"":202},{""stimulus"":""img/red_ll/5.jpg"",""time"":252},{""stimulus"":""img/red_ll/6.jpg"",""time"":302},{""stimulus"":""img/red_ll/7.jpg"",""time"":352},{""stimulus"":""img/red_ll/8.jpg"",""time"":402},{""stimulus"":""img/red_ll/9.jpg"",""time"":452},{""stimulus"":""img/red_ll/10.jpg"",""time"":502},{""stimulus"":""img/red_ll/11.jpg"",""time"":552}]","[]"
"image-keyboard-response","172","152227","0.0-5.0-1.84","56b8de29e1d0a200051517f8","bdp_lott","Sat Mar 25 2023 22:13:48 GMT-0400 (Eastern Daylight Time)","295527","green","red","","409","","","","choice","","img/red_ll/choose11.jpg","2","141","red","0.5","0.1","0.1","l","",""
"animation","173","152828","0.0-5.0-2.84","56b8de29e1d0a200051517f8","bdp_lott","Sat Mar 25 2023 22:13:48 GMT-0400 (Eastern Daylight Time)","295527","green","red","","","","","","","","","","141","","","","","","[{""stimulus"":""img/red_ll/1.jpg"",""time"":53},{""stimulus"":""img/red_ll/2.jpg"",""time"":103},{""stimulus"":""img/red_ll/3.jpg"",""time"":152},{""stimulus"":""img/red_ll/4.jpg"",""time"":202},{""stimulus"":""img/red_ll/5.jpg"",""time"":253},{""stimulus"":""img/red_ll/6.jpg"",""time"":302},{""stimulus"":""img/red_ll/7.jpg"",""time"":352},{""stimulus"":""img/red_ll/8.jpg"",""time"":402},{""stimulus"":""img/red_ll/9.jpg"",""time"":452},{""stimulus"":""img/red_ll/10.jpg"",""time"":502},{""stimulus"":""img/red_ll/11.jpg"",""time"":552}]","[]"
"image-keyboard-response","174","153279","0.0-5.0-1.85","56b8de29e1d0a200051517f8","bdp_lott","Sat Mar 25 2023 22:13:48 GMT-0400 (Eastern Daylight Time)","295527","green","red","","447","","","","choice","","img/red_ll/choose11.jpg","1","140","green","0.5","0.1","0.5","w","",""
"animation","175","153881","0.0-5.0-2.85","56b8de29e1d0a200051517f8","bdp_lott","Sat Mar 25 2023 22:13:48 GMT-0400 (Eastern Daylight Time)","295527","green","red","","","","","","","","","","140","","","","","","[{""stimulus"":""img/green_wl/1.jpg"",""time"":53},{""stimulus"":""img/green_wl/2.jpg"",""time"":102},{""stimulus"":""img/green_wl/3.jpg"",""time"":152},{""stimulus"":""img/green_wl/4.jpg"",""time"":202},{""stimulus"":""img/green_wl/5.jpg"",""time"":252},{""stimulus"":""img/green_wl/6.jpg"",""time"":302},{""stimulus"":""img/green_wl/7.jpg"",""time"":352},{""stimulus"":""img/green_wl/8.jpg"",""time"":402},{""stimulus"":""img/green_wl/9.jpg"",""time"":452},{""stimulus"":""img/green_wl/10.jpg"",""time"":502},{""stimulus"":""img/green_wl/11.jpg"",""time"":552}]","[]"
"image-keyboard-response","176","154245","0.0-5.0-1.86","56b8de29e1d0a200051517f8","bdp_lott","Sat Mar 25 2023 22:13:48 GMT-0400 (Eastern Daylight Time)","295527","green","red","","361","","","","choice","","img/green_wl/choose11.jpg","1","139","green","0.5","0.1","0.5","l","",""
"animation","177","154847","0.0-5.0-2.86","56b8de29e1d0a200051517f8","bdp_lott","Sat Mar 25 2023 22:13:48 GMT-0400 (Eastern Daylight Time)","295527","green","red","","","","","","","","","","139","","","","","","[{""stimulus"":""img/green_ll/1.jpg"",""time"":53},{""stimulus"":""img/green_ll/2.jpg"",""time"":102},{""stimulus"":""img/green_ll/3.jpg"",""time"":153},{""stimulus"":""img/green_ll/4.jpg"",""time"":202},{""stimulus"":""img/green_ll/5.jpg"",""time"":253},{""stimulus"":""img/green_ll/6.jpg"",""time"":303},{""stimulus"":""img/green_ll/7.jpg"",""time"":354},{""stimulus"":""img/green_ll/8.jpg"",""time"":403},{""stimulus"":""img/green_ll/9.jpg"",""time"":453},{""stimulus"":""img/green_ll/10.jpg"",""time"":503},{""stimulus"":""img/green_ll/11.jpg"",""time"":553}]","[]"
"image-keyboard-response","178","155273","0.0-5.0-1.87","56b8de29e1d0a200051517f8","bdp_lott","Sat Mar 25 2023 22:13:48 GMT-0400 (Eastern Daylight Time)","295527","green","red","","421","","","","choice","","img/green_ll/choose11.jpg","1","138","green","0.5","0.1","0.5","w","",""
"animation","179","155874","0.0-5.0-2.87","56b8de29e1d0a200051517f8","bdp_lott","Sat Mar 25 2023 22:13:48 GMT-0400 (Eastern Daylight Time)","295527","green","red","","","","","","","","","","138","","","","","","[{""stimulus"":""img/green_wl/1.jpg"",""time"":53},{""stimulus"":""img/green_wl/2.jpg"",""time"":102},{""stimulus"":""img/green_wl/3.jpg"",""time"":151},{""stimulus"":""img/green_wl/4.jpg"",""time"":202},{""stimulus"":""img/green_wl/5.jpg"",""time"":252},{""stimulus"":""img/green_wl/6.jpg"",""time"":301},{""stimulus"":""img/green_wl/7.jpg"",""time"":352},{""stimulus"":""img/green_wl/8.jpg"",""time"":402},{""stimulus"":""img/green_wl/9.jpg"",""time"":452},{""stimulus"":""img/green_wl/10.jpg"",""time"":501},{""stimulus"":""img/green_wl/11.jpg"",""time"":552}]","[]"
"image-keyboard-response","180","156361","0.0-5.0-1.88","56b8de29e1d0a200051517f8","bdp_lott","Sat Mar 25 2023 22:13:48 GMT-0400 (Eastern Daylight Time)","295527","green","red","","484","","","","choice","","img/green_wl/choose11.jpg","1","137","green","0.5","0.1","0.5","w","",""
"animation","181","156963","0.0-5.0-2.88","56b8de29e1d0a200051517f8","bdp_lott","Sat Mar 25 2023 22:13:48 GMT-0400 (Eastern Daylight Time)","295527","green","red","","","","","","","","","","137","","","","","","[{""stimulus"":""img/green_wl/1.jpg"",""time"":53},{""stimulus"":""img/green_wl/2.jpg"",""time"":102},{""stimulus"":""img/green_wl/3.jpg"",""time"":152},{""stimulus"":""img/green_wl/4.jpg"",""time"":201},{""stimulus"":""img/green_wl/5.jpg"",""time"":252},{""stimulus"":""img/green_wl/6.jpg"",""time"":302},{""stimulus"":""img/green_wl/7.jpg"",""time"":352},{""stimulus"":""img/green_wl/8.jpg"",""time"":402},{""stimulus"":""img/green_wl/9.jpg"",""time"":452},{""stimulus"":""img/green_wl/10.jpg"",""time"":502},{""stimulus"":""img/green_wl/11.jpg"",""time"":552}]","[]"
"image-keyboard-response","182","157359","0.0-5.0-1.89","56b8de29e1d0a200051517f8","bdp_lott","Sat Mar 25 2023 22:13:48 GMT-0400 (Eastern Daylight Time)","295527","green","red","","392","","","","choice","","img/green_wl/choose11.jpg","1","136","green","0.5","0.1","0.5","w","",""
"animation","183","157961","0.0-5.0-2.89","56b8de29e1d0a200051517f8","bdp_lott","Sat Mar 25 2023 22:13:48 GMT-0400 (Eastern Daylight Time)","295527","green","red","","","","","","","","","","136","","","","","","[{""stimulus"":""img/green_wl/1.jpg"",""time"":53},{""stimulus"":""img/green_wl/2.jpg"",""time"":102},{""stimulus"":""img/green_wl/3.jpg"",""time"":152},{""stimulus"":""img/green_wl/4.jpg"",""time"":202},{""stimulus"":""img/green_wl/5.jpg"",""time"":252},{""stimulus"":""img/green_wl/6.jpg"",""time"":302},{""stimulus"":""img/green_wl/7.jpg"",""time"":352},{""stimulus"":""img/green_wl/8.jpg"",""time"":402},{""stimulus"":""img/green_wl/9.jpg"",""time"":452},{""stimulus"":""img/green_wl/10.jpg"",""time"":502},{""stimulus"":""img/green_wl/11.jpg"",""time"":552}]","[]"
"image-keyboard-response","184","158388","0.0-5.0-1.90","56b8de29e1d0a200051517f8","bdp_lott","Sat Mar 25 2023 22:13:48 GMT-0400 (Eastern Daylight Time)","295527","green","red","","423","","","","choice","","img/green_wl/choose11.jpg","1","135","green","0.5","0.1","0.5","w","",""
"animation","185","158989","0.0-5.0-2.90","56b8de29e1d0a200051517f8","bdp_lott","Sat Mar 25 2023 22:13:48 GMT-0400 (Eastern Daylight Time)","295527","green","red","","","","","","","","","","135","","","","","","[{""stimulus"":""img/green_wl/1.jpg"",""time"":52},{""stimulus"":""img/green_wl/2.jpg"",""time"":102},{""stimulus"":""img/green_wl/3.jpg"",""time"":152},{""stimulus"":""img/green_wl/4.jpg"",""time"":202},{""stimulus"":""img/green_wl/5.jpg"",""time"":252},{""stimulus"":""img/green_wl/6.jpg"",""time"":302},{""stimulus"":""img/green_wl/7.jpg"",""time"":352},{""stimulus"":""img/green_wl/8.jpg"",""time"":402},{""stimulus"":""img/green_wl/9.jpg"",""time"":452},{""stimulus"":""img/green_wl/10.jpg"",""time"":502},{""stimulus"":""img/green_wl/11.jpg"",""time"":551}]","[]"
"image-keyboard-response","186","159340","0.0-5.0-1.91","56b8de29e1d0a200051517f8","bdp_lott","Sat Mar 25 2023 22:13:48 GMT-0400 (Eastern Daylight Time)","295527","green","red","","348","","","","choice","","img/green_wl/choose11.jpg","1","134","green","0.5","0.1","0.5","w","",""
"animation","187","159942","0.0-5.0-2.91","56b8de29e1d0a200051517f8","bdp_lott","Sat Mar 25 2023 22:13:48 GMT-0400 (Eastern Daylight Time)","295527","green","red","","","","","","","","","","134","","","","","","[{""stimulus"":""img/green_wl/1.jpg"",""time"":53},{""stimulus"":""img/green_wl/2.jpg"",""time"":102},{""stimulus"":""img/green_wl/3.jpg"",""time"":153},{""stimulus"":""img/green_wl/4.jpg"",""time"":203},{""stimulus"":""img/green_wl/5.jpg"",""time"":252},{""stimulus"":""img/green_wl/6.jpg"",""time"":303},{""stimulus"":""img/green_wl/7.jpg"",""time"":353},{""stimulus"":""img/green_wl/8.jpg"",""time"":403},{""stimulus"":""img/green_wl/9.jpg"",""time"":452},{""stimulus"":""img/green_wl/10.jpg"",""time"":503},{""stimulus"":""img/green_wl/11.jpg"",""time"":552}]","[]"
"image-keyboard-response","188","160378","0.0-5.0-1.92","56b8de29e1d0a200051517f8","bdp_lott","Sat Mar 25 2023 22:13:48 GMT-0400 (Eastern Daylight Time)","295527","green","red","","432","","","","choice","","img/green_wl/choose11.jpg","1","133","green","0.5","0.1","0.5","w","",""
"animation","189","160980","0.0-5.0-2.92","56b8de29e1d0a200051517f8","bdp_lott","Sat Mar 25 2023 22:13:48 GMT-0400 (Eastern Daylight Time)","295527","green","red","","","","","","","","","","133","","","","","","[{""stimulus"":""img/green_wl/1.jpg"",""time"":53},{""stimulus"":""img/green_wl/2.jpg"",""time"":102},{""stimulus"":""img/green_wl/3.jpg"",""time"":152},{""stimulus"":""img/green_wl/4.jpg"",""time"":203},{""stimulus"":""img/green_wl/5.jpg"",""time"":252},{""stimulus"":""img/green_wl/6.jpg"",""time"":303},{""stimulus"":""img/green_wl/7.jpg"",""time"":353},{""stimulus"":""img/green_wl/8.jpg"",""time"":403},{""stimulus"":""img/green_wl/9.jpg"",""time"":452},{""stimulus"":""img/green_wl/10.jpg"",""time"":503},{""stimulus"":""img/green_wl/11.jpg"",""time"":552}]","[]"
"image-keyboard-response","190","161346","0.0-5.0-1.93","56b8de29e1d0a200051517f8","bdp_lott","Sat Mar 25 2023 22:13:48 GMT-0400 (Eastern Daylight Time)","295527","green","red","","362","","","","choice","","img/green_wl/choose11.jpg","1","132","green","0.5","0.1","0.5","l","",""
