"trial_type","trial_index","time_elapsed","internal_node_id","subject_id","task","startTime","totalTime","fairMachine","unfairMachine","view_history","rt","event","trial","time","trialtype","success","stimulus","key_press","roundsLeft","chosen","pFairMachWin","pUnfairMachWin","pTrialWin","outcome","animation_sequence","responses"
"pavlovia","0","4","0.0-0.0","60f08e2a0d6d27ff93244345","bdp_lott","Sun Mar 26 2023 08:35:57 GMT-0400 (Eastern Daylight Time)","202168","red","green","","","","","","","","","","","","","","","","",""
"instructions","1","9436","0.0-1.0","60f08e2a0d6d27ff93244345","bdp_lott","Sun Mar 26 2023 08:35:57 GMT-0400 (Eastern Daylight Time)","202168","red","green","[{""page_index"":0,""viewing_time"":9432}]","9432","","","","","","","","","","","","","","",""
"","","","","60f08e2a0d6d27ff93244345","bdp_lott","Sun Mar 26 2023 08:35:57 GMT-0400 (Eastern Daylight Time)","202168","red","green","","","fullscreenenter","2","10904","fullscreenenter","","","","","","","","","","",""
"fullscreen","2","11900","0.0-2.0","60f08e2a0d6d27ff93244345","bdp_lott","Sun Mar 26 2023 08:35:57 GMT-0400 (Eastern Daylight Time)","202168","red","green","","","","","","","true","","","","","","","","","",""
"instructions","3","21596","0.0-4.0","60f08e2a0d6d27ff93244345","bdp_lott","Sun Mar 26 2023 08:35:57 GMT-0400 (Eastern Daylight Time)","202168","red","green","[{""page_index"":0,""viewing_time"":9694}]","9694","","","","","","","","","","","","","","",""
"image-keyboard-response","4","22633","0.0-5.0-1.0","60f08e2a0d6d27ff93244345","bdp_lott","Sun Mar 26 2023 08:35:57 GMT-0400 (Eastern Daylight Time)","202168","red","green","","1034","","","","choice","","img/red_ll/initchoose11.jpg","2","225","red","0.5","0.5","0.5","w","",""
"animation","5","23235","0.0-5.0-2.0","60f08e2a0d6d27ff93244345","bdp_lott","Sun Mar 26 2023 08:35:57 GMT-0400 (Eastern Daylight Time)","202168","red","green","","","","","","","","","","225","","","","","","[{""stimulus"":""img/red_lw/1.jpg"",""time"":53},{""stimulus"":""img/red_lw/2.jpg"",""time"":101},{""stimulus"":""img/red_lw/3.jpg"",""time"":155},{""stimulus"":""img/red_lw/4.jpg"",""time"":203},{""stimulus"":""img/red_lw/5.jpg"",""time"":253},{""stimulus"":""img/red_lw/6.jpg"",""time"":301},{""stimulus"":""img/red_lw/7.jpg"",""time"":352},{""stimulus"":""img/red_lw/8.jpg"",""time"":401},{""stimulus"":""img/red_lw/9.jpg"",""time"":453},{""stimulus"":""img/red_lw/10.jpg"",""time"":501},{""stimulus"":""img/red_lw/11.jpg"",""time"":554}]","[]"
"image-keyboard-response","6","25170","0.0-5.0-1.1","60f08e2a0d6d27ff93244345","bdp_lott","Sun Mar 26 2023 08:35:57 GMT-0400 (Eastern Daylight Time)","202168","red","green","","1934","","","","choice","","img/red_lw/choose11.jpg","2","224","red","0.5","0.5","0.5","l","",""
"animation","7","25774","0.0-5.0-2.1","60f08e2a0d6d27ff93244345","bdp_lott","Sun Mar 26 2023 08:35:57 GMT-0400 (Eastern Daylight Time)","202168","red","green","","","","","","","","","","224","","","","","","[{""stimulus"":""img/red_ll/1.jpg"",""time"":51},{""stimulus"":""img/red_ll/2.jpg"",""time"":102},{""stimulus"":""img/red_ll/3.jpg"",""time"":151},{""stimulus"":""img/red_ll/4.jpg"",""time"":203},{""stimulus"":""img/red_ll/5.jpg"",""time"":250},{""stimulus"":""img/red_ll/6.jpg"",""time"":304},{""stimulus"":""img/red_ll/7.jpg"",""time"":350},{""stimulus"":""img/red_ll/8.jpg"",""time"":402},{""stimulus"":""img/red_ll/9.jpg"",""time"":450},{""stimulus"":""img/red_ll/10.jpg"",""time"":504},{""stimulus"":""img/red_ll/11.jpg"",""time"":550}]","[]"
"image-keyboard-response","8","26253","0.0-5.0-1.2","60f08e2a0d6d27ff93244345","bdp_lott","Sun Mar 26 2023 08:35:57 GMT-0400 (Eastern Daylight Time)","202168","red","green","","478","","","","choice","","img/red_ll/choose11.jpg","1","223","green","0.5","0.5","0.5","l","",""
"animation","9","26858","0.0-5.0-2.2","60f08e2a0d6d27ff93244345","bdp_lott","Sun Mar 26 2023 08:35:57 GMT-0400 (Eastern Daylight Time)","202168","red","green","","","","","","","","","","223","","","","","","[{""stimulus"":""img/green_ll/1.jpg"",""time"":56},{""stimulus"":""img/green_ll/2.jpg"",""time"":102},{""stimulus"":""img/green_ll/3.jpg"",""time"":155},{""stimulus"":""img/green_ll/4.jpg"",""time"":204},{""stimulus"":""img/green_ll/5.jpg"",""time"":254},{""stimulus"":""img/green_ll/6.jpg"",""time"":305},{""stimulus"":""img/green_ll/7.jpg"",""time"":353},{""stimulus"":""img/green_ll/8.jpg"",""time"":401},{""stimulus"":""img/green_ll/9.jpg"",""time"":455},{""stimulus"":""img/green_ll/10.jpg"",""time"":505},{""stimulus"":""img/green_ll/11.jpg"",""time"":555}]","[]"
"image-keyboard-response","10","27311","0.0-5.0-1.3","60f08e2a0d6d27ff93244345","bdp_lott","Sun Mar 26 2023 08:35:57 GMT-0400 (Eastern Daylight Time)","202168","red","green","","451","","","","choice","","img/green_ll/choose11.jpg","1","222","green","0.5","0.5","0.5","w","",""
"animation","11","27914","0.0-5.0-2.3","60f08e2a0d6d27ff93244345","bdp_lott","Sun Mar 26 2023 08:35:57 GMT-0400 (Eastern Daylight Time)","202168","red","green","","","","","","","","","","222","","","","","","[{""stimulus"":""img/green_wl/1.jpg"",""time"":53},{""stimulus"":""img/green_wl/2.jpg"",""time"":103},{""stimulus"":""img/green_wl/3.jpg"",""time"":155},{""stimulus"":""img/green_wl/4.jpg"",""time"":203},{""stimulus"":""img/green_wl/5.jpg"",""time"":255},{""stimulus"":""img/green_wl/6.jpg"",""time"":300},{""stimulus"":""img/green_wl/7.jpg"",""time"":354},{""stimulus"":""img/green_wl/8.jpg"",""time"":404},{""stimulus"":""img/green_wl/9.jpg"",""time"":453},{""stimulus"":""img/green_wl/10.jpg"",""time"":503},{""stimulus"":""img/green_wl/11.jpg"",""time"":553}]","[]"
"image-keyboard-response","12","28418","0.0-5.0-1.4","60f08e2a0d6d27ff93244345","bdp_lott","Sun Mar 26 2023 08:35:57 GMT-0400 (Eastern Daylight Time)","202168","red","green","","502","","","","choice","","img/green_wl/choose11.jpg","1","221","green","0.5","0.5","0.5","l","",""
"animation","13","29021","0.0-5.0-2.4","60f08e2a0d6d27ff93244345","bdp_lott","Sun Mar 26 2023 08:35:57 GMT-0400 (Eastern Daylight Time)","202168","red","green","","","","","","","","","","221","","","","","","[{""stimulus"":""img/green_ll/1.jpg"",""time"":55},{""stimulus"":""img/green_ll/2.jpg"",""time"":103},{""stimulus"":""img/green_ll/3.jpg"",""time"":150},{""stimulus"":""img/green_ll/4.jpg"",""time"":200},{""stimulus"":""img/green_ll/5.jpg"",""time"":254},{""stimulus"":""img/green_ll/6.jpg"",""time"":303},{""stimulus"":""img/green_ll/7.jpg"",""time"":354},{""stimulus"":""img/green_ll/8.jpg"",""time"":402},{""stimulus"":""img/green_ll/9.jpg"",""time"":450},{""stimulus"":""img/green_ll/10.jpg"",""time"":503},{""stimulus"":""img/green_ll/11.jpg"",""time"":552}]","[]"
"image-keyboard-response","14","29427","0.0-5.0-1.5","60f08e2a0d6d27ff93244345","bdp_lott","Sun Mar 26 2023 08:35:57 GMT-0400 (Eastern Daylight Time)","202168","red","green","","406","","","","choice","","img/green_ll/choose11.jpg","1","220","green","0.5","0.5","0.5","l","",""
"animation","15","30027","0.0-5.0-2.5","60f08e2a0d6d27ff93244345","bdp_lott","Sun Mar 26 2023 08:35:57 GMT-0400 (Eastern Daylight Time)","202168","red","green","","","","","","","","","","220","","","","","","[{""stimulus"":""img/green_ll/1.jpg"",""time"":54},{""stimulus"":""img/green_ll/2.jpg"",""time"":102},{""stimulus"":""img/green_ll/3.jpg"",""time"":155},{""stimulus"":""img/green_ll/4.jpg"",""time"":202},{""stimulus"":""img/green_ll/5.jpg"",""time"":254},{""stimulus"":""img/green_ll/6.jpg"",""time"":302},{""stimulus"":""img/green_ll/7.jpg"",""time"":354},{""stimulus"":""img/green_ll/8.jpg"",""time"":402},{""stimulus"":""img/green_ll/9.jpg"",""time"":454},{""stimulus"":""img/green_ll/10.jpg"",""time"":502},{""stimulus"":""img/green_ll/11.jpg"",""time"":555}]","[]"
"image-keyboard-response","16","30505","0.0-5.0-1.6","60f08e2a0d6d27ff93244345","bdp_lott","Sun Mar 26 2023 08:35:57 GMT-0400 (Eastern Daylight Time)","202168","red","green","","477","","","","choice","","img/green_ll/choose11.jpg","1","219","green","0.5","0.5","0.5","w","",""
"animation","17","31107","0.0-5.0-2.6","60f08e2a0d6d27ff93244345","bdp_lott","Sun Mar 26 2023 08:35:57 GMT-0400 (Eastern Daylight Time)","202168","red","green","","","","","","","","","","219","","","","","","[{""stimulus"":""img/green_wl/1.jpg"",""time"":53},{""stimulus"":""img/green_wl/2.jpg"",""time"":101},{""stimulus"":""img/green_wl/3.jpg"",""time"":155},{""stimulus"":""img/green_wl/4.jpg"",""time"":203},{""stimulus"":""img/green_wl/5.jpg"",""time"":255},{""stimulus"":""img/green_wl/6.jpg"",""time"":304},{""stimulus"":""img/green_wl/7.jpg"",""time"":355},{""stimulus"":""img/green_wl/8.jpg"",""time"":405},{""stimulus"":""img/green_wl/9.jpg"",""time"":453},{""stimulus"":""img/green_wl/10.jpg"",""time"":501},{""stimulus"":""img/green_wl/11.jpg"",""time"":555}]","[]"
"image-keyboard-response","18","31618","0.0-5.0-1.7","60f08e2a0d6d27ff93244345","bdp_lott","Sun Mar 26 2023 08:35:57 GMT-0400 (Eastern Daylight Time)","202168","red","green","","510","","","","choice","","img/green_wl/choose11.jpg","1","218","green","0.5","0.5","0.5","l","",""
"animation","19","32219","0.0-5.0-2.7","60f08e2a0d6d27ff93244345","bdp_lott","Sun Mar 26 2023 08:35:57 GMT-0400 (Eastern Daylight Time)","202168","red","green","","","","","","","","","","218","","","","","","[{""stimulus"":""img/green_ll/1.jpg"",""time"":55},{""stimulus"":""img/green_ll/2.jpg"",""time"":102},{""stimulus"":""img/green_ll/3.jpg"",""time"":153},{""stimulus"":""img/green_ll/4.jpg"",""time"":201},{""stimulus"":""img/green_ll/5.jpg"",""time"":251},{""stimulus"":""img/green_ll/6.jpg"",""time"":301},{""stimulus"":""img/green_ll/7.jpg"",""time"":353},{""stimulus"":""img/green_ll/8.jpg"",""time"":402},{""stimulus"":""img/green_ll/9.jpg"",""time"":455},{""stimulus"":""img/green_ll/10.jpg"",""time"":503},{""stimulus"":""img/green_ll/11.jpg"",""time"":552}]","[]"
"image-keyboard-response","20","32824","0.0-5.0-1.8","60f08e2a0d6d27ff93244345","bdp_lott","Sun Mar 26 2023 08:35:57 GMT-0400 (Eastern Daylight Time)","202168","red","green","","605","","","","choice","","img/green_ll/choose11.jpg","1","217","green","0.5","0.5","0.5","l","",""
"animation","21","33425","0.0-5.0-2.8","60f08e2a0d6d27ff93244345","bdp_lott","Sun Mar 26 2023 08:35:57 GMT-0400 (Eastern Daylight Time)","202168","red","green","","","","","","","","","","217","","","","","","[{""stimulus"":""img/green_ll/1.jpg"",""time"":52},{""stimulus"":""img/green_ll/2.jpg"",""time"":101},{""stimulus"":""img/green_ll/3.jpg"",""time"":155},{""stimulus"":""img/green_ll/4.jpg"",""time"":201},{""stimulus"":""img/green_ll/5.jpg"",""time"":254},{""stimulus"":""img/green_ll/6.jpg"",""time"":302},{""stimulus"":""img/green_ll/7.jpg"",""time"":355},{""stimulus"":""img/green_ll/8.jpg"",""time"":401},{""stimulus"":""img/green_ll/9.jpg"",""time"":454},{""stimulus"":""img/green_ll/10.jpg"",""time"":501},{""stimulus"":""img/green_ll/11.jpg"",""time"":555}]","[]"
"image-keyboard-response","22","33960","0.0-5.0-1.9","60f08e2a0d6d27ff93244345","bdp_lott","Sun Mar 26 2023 08:35:57 GMT-0400 (Eastern Daylight Time)","202168","red","green","","534","","","","choice","","img/green_ll/choose11.jpg","2","216","red","0.5","0.5","0.5","w","",""
"animation","23","34563","0.0-5.0-2.9","60f08e2a0d6d27ff93244345","bdp_lott","Sun Mar 26 2023 08:35:57 GMT-0400 (Eastern Daylight Time)","202168","red","green","","","","","","","","","","216","","","","","","[{""stimulus"":""img/red_lw/1.jpg"",""time"":55},{""stimulus"":""img/red_lw/2.jpg"",""time"":104},{""stimulus"":""img/red_lw/3.jpg"",""time"":154},{""stimulus"":""img/red_lw/4.jpg"",""time"":205},{""stimulus"":""img/red_lw/5.jpg"",""time"":254},{""stimulus"":""img/red_lw/6.jpg"",""time"":304},{""stimulus"":""img/red_lw/7.jpg"",""time"":354},{""stimulus"":""img/red_lw/8.jpg"",""time"":404},{""stimulus"":""img/red_lw/9.jpg"",""time"":454},{""stimulus"":""img/red_lw/10.jpg"",""time"":504},{""stimulus"":""img/red_lw/11.jpg"",""time"":554}]","[]"
"image-keyboard-response","24","34815","0.0-5.0-1.10","60f08e2a0d6d27ff93244345","bdp_lott","Sun Mar 26 2023 08:35:57 GMT-0400 (Eastern Daylight Time)","202168","red","green","","251","","","","choice","","img/red_lw/choose11.jpg","2","215","red","0.5","0.5","0.5","l","",""
"animation","25","35418","0.0-5.0-2.10","60f08e2a0d6d27ff93244345","bdp_lott","Sun Mar 26 2023 08:35:57 GMT-0400 (Eastern Daylight Time)","202168","red","green","","","","","","","","","","215","","","","","","[{""stimulus"":""img/red_ll/1.jpg"",""time"":53},{""stimulus"":""img/red_ll/2.jpg"",""time"":101},{""stimulus"":""img/red_ll/3.jpg"",""time"":155},{""stimulus"":""img/red_ll/4.jpg"",""time"":205},{""stimulus"":""img/red_ll/5.jpg"",""time"":255},{""stimulus"":""img/red_ll/6.jpg"",""time"":304},{""stimulus"":""img/red_ll/7.jpg"",""time"":354},{""stimulus"":""img/red_ll/8.jpg"",""time"":404},{""stimulus"":""img/red_ll/9.jpg"",""time"":452},{""stimulus"":""img/red_ll/10.jpg"",""time"":504},{""stimulus"":""img/red_ll/11.jpg"",""time"":554}]","[]"
"image-keyboard-response","26","35790","0.0-5.0-1.11","60f08e2a0d6d27ff93244345","bdp_lott","Sun Mar 26 2023 08:35:57 GMT-0400 (Eastern Daylight Time)","202168","red","green","","372","","","","choice","","img/red_ll/choose11.jpg","2","214","red","0.5","0.5","0.5","l","",""
"animation","27","36393","0.0-5.0-2.11","60f08e2a0d6d27ff93244345","bdp_lott","Sun Mar 26 2023 08:35:57 GMT-0400 (Eastern Daylight Time)","202168","red","green","","","","","","","","","","214","","","","","","[{""stimulus"":""img/red_ll/1.jpg"",""time"":53},{""stimulus"":""img/red_ll/2.jpg"",""time"":101},{""stimulus"":""img/red_ll/3.jpg"",""time"":153},{""stimulus"":""img/red_ll/4.jpg"",""time"":205},{""stimulus"":""img/red_ll/5.jpg"",""time"":252},{""stimulus"":""img/red_ll/6.jpg"",""time"":303},{""stimulus"":""img/red_ll/7.jpg"",""time"":351},{""stimulus"":""img/red_ll/8.jpg"",""time"":404},{""stimulus"":""img/red_ll/9.jpg"",""time"":452},{""stimulus"":""img/red_ll/10.jpg"",""time"":501},{""stimulus"":""img/red_ll/11.jpg"",""time"":554}]","[]"
"image-keyboard-response","28","36649","0.0-5.0-1.12","60f08e2a0d6d27ff93244345","bdp_lott","Sun Mar 26 2023 08:35:57 GMT-0400 (Eastern Daylight Time)","202168","red","green","","255","","","","choice","","img/red_ll/choose11.jpg","2","213","red","0.5","0.5","0.5","l","",""
"animation","29","37250","0.0-5.0-2.12","60f08e2a0d6d27ff93244345","bdp_lott","Sun Mar 26 2023 08:35:57 GMT-0400 (Eastern Daylight Time)","202168","red","green","","","","","","","","","","213","","","","","","[{""stimulus"":""img/red_ll/1.jpg"",""time"":55},{""stimulus"":""img/red_ll/2.jpg"",""time"":102},{""stimulus"":""img/red_ll/3.jpg"",""time"":151},{""stimulus"":""img/red_ll/4.jpg"",""time"":202},{""stimulus"":""img/red_ll/5.jpg"",""time"":251},{""stimulus"":""img/red_ll/6.jpg"",""time"":305},{""stimulus"":""img/red_ll/7.jpg"",""time"":351},{""stimulus"":""img/red_ll/8.jpg"",""time"":405},{""stimulus"":""img/red_ll/9.jpg"",""time"":455},{""stimulus"":""img/red_ll/10.jpg"",""time"":502},{""stimulus"":""img/red_ll/11.jpg"",""time"":554}]","[]"
"image-keyboard-response","30","37441","0.0-5.0-1.13","60f08e2a0d6d27ff93244345","bdp_lott","Sun Mar 26 2023 08:35:57 GMT-0400 (Eastern Daylight Time)","202168","red","green","","190","","","","choice","","img/red_ll/choose11.jpg","2","212","red","0.5","0.5","0.5","l","",""
"animation","31","38045","0.0-5.0-2.13","60f08e2a0d6d27ff93244345","bdp_lott","Sun Mar 26 2023 08:35:57 GMT-0400 (Eastern Daylight Time)","202168","red","green","","","","","","","","","","212","","","","","","[{""stimulus"":""img/red_ll/1.jpg"",""time"":56},{""stimulus"":""img/red_ll/2.jpg"",""time"":105},{""stimulus"":""img/red_ll/3.jpg"",""time"":155},{""stimulus"":""img/red_ll/4.jpg"",""time"":205},{""stimulus"":""img/red_ll/5.jpg"",""time"":254},{""stimulus"":""img/red_ll/6.jpg"",""time"":305},{""stimulus"":""img/red_ll/7.jpg"",""time"":354},{""stimulus"":""img/red_ll/8.jpg"",""time"":402},{""stimulus"":""img/red_ll/9.jpg"",""time"":455},{""stimulus"":""img/red_ll/10.jpg"",""time"":504},{""stimulus"":""img/red_ll/11.jpg"",""time"":552}]","[]"
"image-keyboard-response","32","38267","0.0-5.0-1.14","60f08e2a0d6d27ff93244345","bdp_lott","Sun Mar 26 2023 08:35:57 GMT-0400 (Eastern Daylight Time)","202168","red","green","","221","","","","choice","","img/red_ll/choose11.jpg","2","211","red","0.5","0.5","0.5","w","",""
"animation","33","38868","0.0-5.0-2.14","60f08e2a0d6d27ff93244345","bdp_lott","Sun Mar 26 2023 08:35:57 GMT-0400 (Eastern Daylight Time)","202168","red","green","","","","","","","","","","211","","","","","","[{""stimulus"":""img/red_lw/1.jpg"",""time"":54},{""stimulus"":""img/red_lw/2.jpg"",""time"":104},{""stimulus"":""img/red_lw/3.jpg"",""time"":152},{""stimulus"":""img/red_lw/4.jpg"",""time"":202},{""stimulus"":""img/red_lw/5.jpg"",""time"":254},{""stimulus"":""img/red_lw/6.jpg"",""time"":301},{""stimulus"":""img/red_lw/7.jpg"",""time"":351},{""stimulus"":""img/red_lw/8.jpg"",""time"":405},{""stimulus"":""img/red_lw/9.jpg"",""time"":454},{""stimulus"":""img/red_lw/10.jpg"",""time"":504},{""stimulus"":""img/red_lw/11.jpg"",""time"":553}]","[]"
"image-keyboard-response","34","39085","0.0-5.0-1.15","60f08e2a0d6d27ff93244345","bdp_lott","Sun Mar 26 2023 08:35:57 GMT-0400 (Eastern Daylight Time)","202168","red","green","","217","","","","choice","","img/red_lw/choose11.jpg","1","210","green","0.5","0.5","0.5","l","",""
"animation","35","39688","0.0-5.0-2.15","60f08e2a0d6d27ff93244345","bdp_lott","Sun Mar 26 2023 08:35:57 GMT-0400 (Eastern Daylight Time)","202168","red","green","","","","","","","","","","210","","","","","","[{""stimulus"":""img/green_lw/1.jpg"",""time"":54},{""stimulus"":""img/green_lw/2.jpg"",""time"":102},{""stimulus"":""img/green_lw/3.jpg"",""time"":153},{""stimulus"":""img/green_lw/4.jpg"",""time"":204},{""stimulus"":""img/green_lw/5.jpg"",""time"":253},{""stimulus"":""img/green_lw/6.jpg"",""time"":304},{""stimulus"":""img/green_lw/7.jpg"",""time"":354},{""stimulus"":""img/green_lw/8.jpg"",""time"":401},{""stimulus"":""img/green_lw/9.jpg"",""time"":454},{""stimulus"":""img/green_lw/10.jpg"",""time"":502},{""stimulus"":""img/green_lw/11.jpg"",""time"":552}]","[]"
"image-keyboard-response","36","39874","0.0-5.0-1.16","60f08e2a0d6d27ff93244345","bdp_lott","Sun Mar 26 2023 08:35:57 GMT-0400 (Eastern Daylight Time)","202168","red","green","","185","","","","choice","","img/green_lw/choose11.jpg","1","209","green","0.5","0.5","0.5","l","",""
"animation","37","40478","0.0-5.0-2.16","60f08e2a0d6d27ff93244345","bdp_lott","Sun Mar 26 2023 08:35:57 GMT-0400 (Eastern Daylight Time)","202168","red","green","","","","","","","","","","209","","","","","","[{""stimulus"":""img/green_lw/1.jpg"",""time"":52},{""stimulus"":""img/green_lw/2.jpg"",""time"":103},{""stimulus"":""img/green_lw/3.jpg"",""time"":151},{""stimulus"":""img/green_lw/4.jpg"",""time"":205},{""stimulus"":""img/green_lw/5.jpg"",""time"":251},{""stimulus"":""img/green_lw/6.jpg"",""time"":303},{""stimulus"":""img/green_lw/7.jpg"",""time"":351},{""stimulus"":""img/green_lw/8.jpg"",""time"":401},{""stimulus"":""img/green_lw/9.jpg"",""time"":452},{""stimulus"":""img/green_lw/10.jpg"",""time"":503},{""stimulus"":""img/green_lw/11.jpg"",""time"":551}]","[]"
"image-keyboard-response","38","40656","0.0-5.0-1.17","60f08e2a0d6d27ff93244345","bdp_lott","Sun Mar 26 2023 08:35:57 GMT-0400 (Eastern Daylight Time)","202168","red","green","","178","","","","choice","","img/green_lw/choose11.jpg","1","208","green","0.5","0.5","0.5","w","",""
"animation","39","41259","0.0-5.0-2.17","60f08e2a0d6d27ff93244345","bdp_lott","Sun Mar 26 2023 08:35:57 GMT-0400 (Eastern Daylight Time)","202168","red","green","","","","","","","","","","208","","","","","","[{""stimulus"":""img/green_ww/1.jpg"",""time"":51},{""stimulus"":""img/green_ww/2.jpg"",""time"":103},{""stimulus"":""img/green_ww/3.jpg"",""time"":152},{""stimulus"":""img/green_ww/4.jpg"",""time"":205},{""stimulus"":""img/green_ww/5.jpg"",""time"":253},{""stimulus"":""img/green_ww/6.jpg"",""time"":301},{""stimulus"":""img/green_ww/7.jpg"",""time"":354},{""stimulus"":""img/green_ww/8.jpg"",""time"":403},{""stimulus"":""img/green_ww/9.jpg"",""time"":450},{""stimulus"":""img/green_ww/10.jpg"",""time"":504},{""stimulus"":""img/green_ww/11.jpg"",""time"":552}]","[]"
"image-keyboard-response","40","41571","0.0-5.0-1.18","60f08e2a0d6d27ff93244345","bdp_lott","Sun Mar 26 2023 08:35:57 GMT-0400 (Eastern Daylight Time)","202168","red","green","","311","","","","choice","","img/green_ww/choose11.jpg","1","207","green","0.5","0.5","0.5","l","",""
"animation","41","42174","0.0-5.0-2.18","60f08e2a0d6d27ff93244345","bdp_lott","Sun Mar 26 2023 08:35:57 GMT-0400 (Eastern Daylight Time)","202168","red","green","","","","","","","","","","207","","","","","","[{""stimulus"":""img/green_lw/1.jpg"",""time"":50},{""stimulus"":""img/green_lw/2.jpg"",""time"":103},{""stimulus"":""img/green_lw/3.jpg"",""time"":150},{""stimulus"":""img/green_lw/4.jpg"",""time"":203},{""stimulus"":""img/green_lw/5.jpg"",""time"":251},{""stimulus"":""img/green_lw/6.jpg"",""time"":301},{""stimulus"":""img/green_lw/7.jpg"",""time"":351},{""stimulus"":""img/green_lw/8.jpg"",""time"":403},{""stimulus"":""img/green_lw/9.jpg"",""time"":451},{""stimulus"":""img/green_lw/10.jpg"",""time"":502},{""stimulus"":""img/green_lw/11.jpg"",""time"":550}]","[]"
"image-keyboard-response","42","42367","0.0-5.0-1.19","60f08e2a0d6d27ff93244345","bdp_lott","Sun Mar 26 2023 08:35:57 GMT-0400 (Eastern Daylight Time)","202168","red","green","","193","","","","choice","","img/green_lw/choose11.jpg","1","206","green","0.5","0.5","0.5","l","",""
"animation","43","42969","0.0-5.0-2.19","60f08e2a0d6d27ff93244345","bdp_lott","Sun Mar 26 2023 08:35:57 GMT-0400 (Eastern Daylight Time)","202168","red","green","","","","","","","","","","206","","","","","","[{""stimulus"":""img/green_lw/1.jpg"",""time"":52},{""stimulus"":""img/green_lw/2.jpg"",""time"":102},{""stimulus"":""img/green_lw/3.jpg"",""time"":154},{""stimulus"":""img/green_lw/4.jpg"",""time"":201},{""stimulus"":""img/green_lw/5.jpg"",""time"":250},{""stimulus"":""img/green_lw/6.jpg"",""time"":305},{""stimulus"":""img/green_lw/7.jpg"",""time"":354},{""stimulus"":""img/green_lw/8.jpg"",""time"":404},{""stimulus"":""img/green_lw/9.jpg"",""time"":452},{""stimulus"":""img/green_lw/10.jpg"",""time"":500},{""stimulus"":""img/green_lw/11.jpg"",""time"":554}]","[]"
"image-keyboard-response","44","43167","0.0-5.0-1.20","60f08e2a0d6d27ff93244345","bdp_lott","Sun Mar 26 2023 08:35:57 GMT-0400 (Eastern Daylight Time)","202168","red","green","","197","","","","choice","","img/green_lw/choose11.jpg","1","205","green","0.5","0.5","0.5","w","",""
"animation","45","43768","0.0-5.0-2.20","60f08e2a0d6d27ff93244345","bdp_lott","Sun Mar 26 2023 08:35:57 GMT-0400 (Eastern Daylight Time)","202168","red","green","","","","","","","","","","205","","","","","","[{""stimulus"":""img/green_ww/1.jpg"",""time"":54},{""stimulus"":""img/green_ww/2.jpg"",""time"":104},{""stimulus"":""img/green_ww/3.jpg"",""time"":154},{""stimulus"":""img/green_ww/4.jpg"",""time"":201},{""stimulus"":""img/green_ww/5.jpg"",""time"":251},{""stimulus"":""img/green_ww/6.jpg"",""time"":305},{""stimulus"":""img/green_ww/7.jpg"",""time"":351},{""stimulus"":""img/green_ww/8.jpg"",""time"":404},{""stimulus"":""img/green_ww/9.jpg"",""time"":453},{""stimulus"":""img/green_ww/10.jpg"",""time"":504},{""stimulus"":""img/green_ww/11.jpg"",""time"":554}]","[]"
"image-keyboard-response","46","43969","0.0-5.0-1.21","60f08e2a0d6d27ff93244345","bdp_lott","Sun Mar 26 2023 08:35:57 GMT-0400 (Eastern Daylight Time)","202168","red","green","","200","","","","choice","","img/green_ww/choose11.jpg","1","204","green","0.5","0.5","0.5","w","",""
"animation","47","44574","0.0-5.0-2.21","60f08e2a0d6d27ff93244345","bdp_lott","Sun Mar 26 2023 08:35:57 GMT-0400 (Eastern Daylight Time)","202168","red","green","","","","","","","","","","204","","","","","","[{""stimulus"":""img/green_ww/1.jpg"",""time"":51},{""stimulus"":""img/green_ww/2.jpg"",""time"":104},{""stimulus"":""img/green_ww/3.jpg"",""time"":152},{""stimulus"":""img/green_ww/4.jpg"",""time"":205},{""stimulus"":""img/green_ww/5.jpg"",""time"":251},{""stimulus"":""img/green_ww/6.jpg"",""time"":301},{""stimulus"":""img/green_ww/7.jpg"",""time"":351},{""stimulus"":""img/green_ww/8.jpg"",""time"":402},{""stimulus"":""img/green_ww/9.jpg"",""time"":450},{""stimulus"":""img/green_ww/10.jpg"",""time"":504},{""stimulus"":""img/green_ww/11.jpg"",""time"":552}]","[]"
"image-keyboard-response","48","44724","0.0-5.0-1.22","60f08e2a0d6d27ff93244345","bdp_lott","Sun Mar 26 2023 08:35:57 GMT-0400 (Eastern Daylight Time)","202168","red","green","","149","","","","choice","","img/green_ww/choose11.jpg","1","203","green","0.5","0.5","0.5","l","",""
"animation","49","45325","0.0-5.0-2.22","60f08e2a0d6d27ff93244345","bdp_lott","Sun Mar 26 2023 08:35:57 GMT-0400 (Eastern Daylight Time)","202168","red","green","","","","","","","","","","203","","","","","","[{""stimulus"":""img/green_lw/1.jpg"",""time"":53},{""stimulus"":""img/green_lw/2.jpg"",""time"":102},{""stimulus"":""img/green_lw/3.jpg"",""time"":153},{""stimulus"":""img/green_lw/4.jpg"",""time"":202},{""stimulus"":""img/green_lw/5.jpg"",""time"":255},{""stimulus"":""img/green_lw/6.jpg"",""time"":302},{""stimulus"":""img/green_lw/7.jpg"",""time"":355},{""stimulus"":""img/green_lw/8.jpg"",""time"":402},{""stimulus"":""img/green_lw/9.jpg"",""time"":453},{""stimulus"":""img/green_lw/10.jpg"",""time"":501},{""stimulus"":""img/green_lw/11.jpg"",""time"":554}]","[]"
"image-keyboard-response","50","45508","0.0-5.0-1.23","60f08e2a0d6d27ff93244345","bdp_lott","Sun Mar 26 2023 08:35:57 GMT-0400 (Eastern Daylight Time)","202168","red","green","","183","","","","choice","","img/green_lw/choose11.jpg","1","202","green","0.5","0.5","0.5","l","",""
"animation","51","46110","0.0-5.0-2.23","60f08e2a0d6d27ff93244345","bdp_lott","Sun Mar 26 2023 08:35:57 GMT-0400 (Eastern Daylight Time)","202168","red","green","","","","","","","","","","202","","","","","","[{""stimulus"":""img/green_lw/1.jpg"",""time"":53},{""stimulus"":""img/green_lw/2.jpg"",""time"":101},{""stimulus"":""img/green_lw/3.jpg"",""time"":154},{""stimulus"":""img/green_lw/4.jpg"",""time"":205},{""stimulus"":""img/green_lw/5.jpg"",""time"":255},{""stimulus"":""img/green_lw/6.jpg"",""time"":303},{""stimulus"":""img/green_lw/7.jpg"",""time"":351},{""stimulus"":""img/green_lw/8.jpg"",""time"":405},{""stimulus"":""img/green_lw/9.jpg"",""time"":452},{""stimulus"":""img/green_lw/10.jpg"",""time"":502},{""stimulus"":""img/green_lw/11.jpg"",""time"":555}]","[]"
"image-keyboard-response","52","46191","0.0-5.0-1.24","60f08e2a0d6d27ff93244345","bdp_lott","Sun Mar 26 2023 08:35:57 GMT-0400 (Eastern Daylight Time)","202168","red","green","","81","","","","choice","","img/green_lw/choose11.jpg","1","201","green","0.5","0.5","0.5","l","",""
"animation","53","46792","0.0-5.0-2.24","60f08e2a0d6d27ff93244345","bdp_lott","Sun Mar 26 2023 08:35:57 GMT-0400 (Eastern Daylight Time)","202168","red","green","","","","","","","","","","201","","","","","","[{""stimulus"":""img/green_lw/1.jpg"",""time"":52},{""stimulus"":""img/green_lw/2.jpg"",""time"":101},{""stimulus"":""img/green_lw/3.jpg"",""time"":154},{""stimulus"":""img/green_lw/4.jpg"",""time"":203},{""stimulus"":""img/green_lw/5.jpg"",""time"":255},{""stimulus"":""img/green_lw/6.jpg"",""time"":301},{""stimulus"":""img/green_lw/7.jpg"",""time"":351},{""stimulus"":""img/green_lw/8.jpg"",""time"":406},{""stimulus"":""img/green_lw/9.jpg"",""time"":452},{""stimulus"":""img/green_lw/10.jpg"",""time"":501},{""stimulus"":""img/green_lw/11.jpg"",""time"":554}]","[]"
"image-keyboard-response","54","46957","0.0-5.0-1.25","60f08e2a0d6d27ff93244345","bdp_lott","Sun Mar 26 2023 08:35:57 GMT-0400 (Eastern Daylight Time)","202168","red","green","","165","","","","choice","","img/green_lw/choose11.jpg","1","200","green","0.5","0.5","0.5","w","",""
"animation","55","47560","0.0-5.0-2.25","60f08e2a0d6d27ff93244345","bdp_lott","Sun Mar 26 2023 08:35:57 GMT-0400 (Eastern Daylight Time)","202168","red","green","","","","","","","","","","200","","","","","","[{""stimulus"":""img/green_ww/1.jpg"",""time"":54},{""stimulus"":""img/green_ww/2.jpg"",""time"":103},{""stimulus"":""img/green_ww/3.jpg"",""time"":155},{""stimulus"":""img/green_ww/4.jpg"",""time"":205},{""stimulus"":""img/green_ww/5.jpg"",""time"":252},{""stimulus"":""img/green_ww/6.jpg"",""time"":302},{""stimulus"":""img/green_ww/7.jpg"",""time"":355},{""stimulus"":""img/green_ww/8.jpg"",""time"":401},{""stimulus"":""img/green_ww/9.jpg"",""time"":454},{""stimulus"":""img/green_ww/10.jpg"",""time"":502},{""stimulus"":""img/green_ww/11.jpg"",""time"":556}]","[]"
"image-keyboard-response","56","47781","0.0-5.0-1.26","60f08e2a0d6d27ff93244345","bdp_lott","Sun Mar 26 2023 08:35:57 GMT-0400 (Eastern Daylight Time)","202168","red","green","","220","","","","choice","","img/green_ww/choose11.jpg","1","199","green","0.5","0.5","0.5","l","",""
"animation","57","48381","0.0-5.0-2.26","60f08e2a0d6d27ff93244345","bdp_lott","Sun Mar 26 2023 08:35:57 GMT-0400 (Eastern Daylight Time)","202168","red","green","","","","","","","","","","199","","","","","","[{""stimulus"":""img/green_lw/1.jpg"",""time"":52},{""stimulus"":""img/green_lw/2.jpg"",""time"":104},{""stimulus"":""img/green_lw/3.jpg"",""time"":153},{""stimulus"":""img/green_lw/4.jpg"",""time"":204},{""stimulus"":""img/green_lw/5.jpg"",""time"":252},{""stimulus"":""img/green_lw/6.jpg"",""time"":305},{""stimulus"":""img/green_lw/7.jpg"",""time"":351},{""stimulus"":""img/green_lw/8.jpg"",""time"":404},{""stimulus"":""img/green_lw/9.jpg"",""time"":452},{""stimulus"":""img/green_lw/10.jpg"",""time"":504},{""stimulus"":""img/green_lw/11.jpg"",""time"":552}]","[]"
"image-keyboard-response","58","48676","0.0-5.0-1.27","60f08e2a0d6d27ff93244345","bdp_lott","Sun Mar 26 2023 08:35:57 GMT-0400 (Eastern Daylight Time)","202168","red","green","","294","","","","choice","","img/green_lw/choose11.jpg","1","198","green","0.5","0.5","0.5","w","",""
"animation","59","49280","0.0-5.0-2.27","60f08e2a0d6d27ff93244345","bdp_lott","Sun Mar 26 2023 08:35:57 GMT-0400 (Eastern Daylight Time)","202168","red","green","","","","","","","","","","198","","","","","","[{""stimulus"":""img/green_ww/1.jpg"",""time"":52},{""stimulus"":""img/green_ww/2.jpg"",""time"":105},{""stimulus"":""img/green_ww/3.jpg"",""time"":153},{""stimulus"":""img/green_ww/4.jpg"",""time"":203},{""stimulus"":""img/green_ww/5.jpg"",""time"":253},{""stimulus"":""img/green_ww/6.jpg"",""time"":305},{""stimulus"":""img/green_ww/7.jpg"",""time"":351},{""stimulus"":""img/green_ww/8.jpg"",""time"":402},{""stimulus"":""img/green_ww/9.jpg"",""time"":451},{""stimulus"":""img/green_ww/10.jpg"",""time"":504},{""stimulus"":""img/green_ww/11.jpg"",""time"":552}]","[]"
"image-keyboard-response","60","49407","0.0-5.0-1.28","60f08e2a0d6d27ff93244345","bdp_lott","Sun Mar 26 2023 08:35:57 GMT-0400 (Eastern Daylight Time)","202168","red","green","","126","","","","choice","","img/green_ww/choose11.jpg","1","197","green","0.5","0.5","0.5","w","",""
"animation","61","50008","0.0-5.0-2.28","60f08e2a0d6d27ff93244345","bdp_lott","Sun Mar 26 2023 08:35:57 GMT-0400 (Eastern Daylight Time)","202168","red","green","","","","","","","","","","197","","","","","","[{""stimulus"":""img/green_ww/1.jpg"",""time"":52},{""stimulus"":""img/green_ww/2.jpg"",""time"":101},{""stimulus"":""img/green_ww/3.jpg"",""time"":154},{""stimulus"":""img/green_ww/4.jpg"",""time"":203},{""stimulus"":""img/green_ww/5.jpg"",""time"":255},{""stimulus"":""img/green_ww/6.jpg"",""time"":303},{""stimulus"":""img/green_ww/7.jpg"",""time"":355},{""stimulus"":""img/green_ww/8.jpg"",""time"":403},{""stimulus"":""img/green_ww/9.jpg"",""time"":452},{""stimulus"":""img/green_ww/10.jpg"",""time"":505},{""stimulus"":""img/green_ww/11.jpg"",""time"":553}]","[]"
"image-keyboard-response","62","50484","0.0-5.0-1.29","60f08e2a0d6d27ff93244345","bdp_lott","Sun Mar 26 2023 08:35:57 GMT-0400 (Eastern Daylight Time)","202168","red","green","","475","","","","choice","","img/green_ww/choose11.jpg","1","196","green","0.5","0.5","0.5","l","",""
"animation","63","51085","0.0-5.0-2.29","60f08e2a0d6d27ff93244345","bdp_lott","Sun Mar 26 2023 08:35:57 GMT-0400 (Eastern Daylight Time)","202168","red","green","","","","","","","","","","196","","","","","","[{""stimulus"":""img/green_lw/1.jpg"",""time"":53},{""stimulus"":""img/green_lw/2.jpg"",""time"":102},{""stimulus"":""img/green_lw/3.jpg"",""time"":154},{""stimulus"":""img/green_lw/4.jpg"",""time"":205},{""stimulus"":""img/green_lw/5.jpg"",""time"":253},{""stimulus"":""img/green_lw/6.jpg"",""time"":304},{""stimulus"":""img/green_lw/7.jpg"",""time"":355},{""stimulus"":""img/green_lw/8.jpg"",""time"":404},{""stimulus"":""img/green_lw/9.jpg"",""time"":453},{""stimulus"":""img/green_lw/10.jpg"",""time"":502},{""stimulus"":""img/green_lw/11.jpg"",""time"":554}]","[]"
"image-keyboard-response","64","51086","0.0-5.0-1.30","60f08e2a0d6d27ff93244345","bdp_lott","Sun Mar 26 2023 08:35:57 GMT-0400 (Eastern Daylight Time)","202168","red","green","","0","","","","choice","","img/green_lw/choose11.jpg","1","195","green","0.5","0.5","0.5","w","",""
"animation","65","51688","0.0-5.0-2.30","60f08e2a0d6d27ff93244345","bdp_lott","Sun Mar 26 2023 08:35:57 GMT-0400 (Eastern Daylight Time)","202168","red","green","","","","","","","","","","195","","","","","","[{""stimulus"":""img/green_ww/1.jpg"",""time"":54},{""stimulus"":""img/green_ww/2.jpg"",""time"":100},{""stimulus"":""img/green_ww/3.jpg"",""time"":154},{""stimulus"":""img/green_ww/4.jpg"",""time"":202},{""stimulus"":""img/green_ww/5.jpg"",""time"":253},{""stimulus"":""img/green_ww/6.jpg"",""time"":304},{""stimulus"":""img/green_ww/7.jpg"",""time"":350},{""stimulus"":""img/green_ww/8.jpg"",""time"":404},{""stimulus"":""img/green_ww/9.jpg"",""time"":451},{""stimulus"":""img/green_ww/10.jpg"",""time"":500},{""stimulus"":""img/green_ww/11.jpg"",""time"":551}]","[]"
"image-keyboard-response","66","52502","0.0-5.0-1.31","60f08e2a0d6d27ff93244345","bdp_lott","Sun Mar 26 2023 08:35:57 GMT-0400 (Eastern Daylight Time)","202168","red","green","","813","","","","choice","","img/green_ww/choose11.jpg","1","194","green","0.5","0.5","0.5","w","",""
"animation","67","53107","0.0-5.0-2.31","60f08e2a0d6d27ff93244345","bdp_lott","Sun Mar 26 2023 08:35:57 GMT-0400 (Eastern Daylight Time)","202168","red","green","","","","","","","","","","194","","","","","","[{""stimulus"":""img/green_ww/1.jpg"",""time"":55},{""stimulus"":""img/green_ww/2.jpg"",""time"":103},{""stimulus"":""img/green_ww/3.jpg"",""time"":151},{""stimulus"":""img/green_ww/4.jpg"",""time"":204},{""stimulus"":""img/green_ww/5.jpg"",""time"":255},{""stimulus"":""img/green_ww/6.jpg"",""time"":300},{""stimulus"":""img/green_ww/7.jpg"",""time"":354},{""stimulus"":""img/green_ww/8.jpg"",""time"":402},{""stimulus"":""img/green_ww/9.jpg"",""time"":455},{""stimulus"":""img/green_ww/10.jpg"",""time"":503},{""stimulus"":""img/green_ww/11.jpg"",""time"":555}]","[]"
"image-keyboard-response","68","53235","0.0-5.0-1.32","60f08e2a0d6d27ff93244345","bdp_lott","Sun Mar 26 2023 08:35:57 GMT-0400 (Eastern Daylight Time)","202168","red","green","","127","","","","choice","","img/green_ww/choose11.jpg","2","193","red","0.5","0.5","0.5","l","",""
"animation","69","53838","0.0-5.0-2.32","60f08e2a0d6d27ff93244345","bdp_lott","Sun Mar 26 2023 08:35:57 GMT-0400 (Eastern Daylight Time)","202168","red","green","","","","","","","","","","193","","","","","","[{""stimulus"":""img/red_wl/1.jpg"",""time"":55},{""stimulus"":""img/red_wl/2.jpg"",""time"":104},{""stimulus"":""img/red_wl/3.jpg"",""time"":155},{""stimulus"":""img/red_wl/4.jpg"",""time"":202},{""stimulus"":""img/red_wl/5.jpg"",""time"":251},{""stimulus"":""img/red_wl/6.jpg"",""time"":304},{""stimulus"":""img/red_wl/7.jpg"",""time"":352},{""stimulus"":""img/red_wl/8.jpg"",""time"":402},{""stimulus"":""img/red_wl/9.jpg"",""time"":454},{""stimulus"":""img/red_wl/10.jpg"",""time"":502},{""stimulus"":""img/red_wl/11.jpg"",""time"":554}]","[]"
"image-keyboard-response","70","53921","0.0-5.0-1.33","60f08e2a0d6d27ff93244345","bdp_lott","Sun Mar 26 2023 08:35:57 GMT-0400 (Eastern Daylight Time)","202168","red","green","","82","","","","choice","","img/red_wl/choose11.jpg","2","192","red","0.5","0.5","0.5","w","",""
"animation","71","54521","0.0-5.0-2.33","60f08e2a0d6d27ff93244345","bdp_lott","Sun Mar 26 2023 08:35:57 GMT-0400 (Eastern Daylight Time)","202168","red","green","","","","","","","","","","192","","","","","","[{""stimulus"":""img/red_ww/1.jpg"",""time"":53},{""stimulus"":""img/red_ww/2.jpg"",""time"":101},{""stimulus"":""img/red_ww/3.jpg"",""time"":152},{""stimulus"":""img/red_ww/4.jpg"",""time"":201},{""stimulus"":""img/red_ww/5.jpg"",""time"":253},{""stimulus"":""img/red_ww/6.jpg"",""time"":301},{""stimulus"":""img/red_ww/7.jpg"",""time"":354},{""stimulus"":""img/red_ww/8.jpg"",""time"":400},{""stimulus"":""img/red_ww/9.jpg"",""time"":454},{""stimulus"":""img/red_ww/10.jpg"",""time"":501},{""stimulus"":""img/red_ww/11.jpg"",""time"":553}]","[]"
"image-keyboard-response","72","54749","0.0-5.0-1.34","60f08e2a0d6d27ff93244345","bdp_lott","Sun Mar 26 2023 08:35:57 GMT-0400 (Eastern Daylight Time)","202168","red","green","","227","","","","choice","","img/red_ww/choose11.jpg","2","191","red","0.5","0.5","0.5","l","",""
"animation","73","55352","0.0-5.0-2.34","60f08e2a0d6d27ff93244345","bdp_lott","Sun Mar 26 2023 08:35:57 GMT-0400 (Eastern Daylight Time)","202168","red","green","","","","","","","","","","191","","","","","","[{""stimulus"":""img/red_wl/1.jpg"",""time"":54},{""stimulus"":""img/red_wl/2.jpg"",""time"":102},{""stimulus"":""img/red_wl/3.jpg"",""time"":156},{""stimulus"":""img/red_wl/4.jpg"",""time"":205},{""stimulus"":""img/red_wl/5.jpg"",""time"":251},{""stimulus"":""img/red_wl/6.jpg"",""time"":305},{""stimulus"":""img/red_wl/7.jpg"",""time"":355},{""stimulus"":""img/red_wl/8.jpg"",""time"":401},{""stimulus"":""img/red_wl/9.jpg"",""time"":455},{""stimulus"":""img/red_wl/10.jpg"",""time"":502},{""stimulus"":""img/red_wl/11.jpg"",""time"":555}]","[]"
"image-keyboard-response","74","55538","0.0-5.0-1.35","60f08e2a0d6d27ff93244345","bdp_lott","Sun Mar 26 2023 08:35:57 GMT-0400 (Eastern Daylight Time)","202168","red","green","","185","","","","choice","","img/red_wl/choose11.jpg","2","190","red","0.5","0.5","0.5","l","",""
"animation","75","56142","0.0-5.0-2.35","60f08e2a0d6d27ff93244345","bdp_lott","Sun Mar 26 2023 08:35:57 GMT-0400 (Eastern Daylight Time)","202168","red","green","","","","","","","","","","190","","","","","","[{""stimulus"":""img/red_wl/1.jpg"",""time"":55},{""stimulus"":""img/red_wl/2.jpg"",""time"":103},{""stimulus"":""img/red_wl/3.jpg"",""time"":151},{""stimulus"":""img/red_wl/4.jpg"",""time"":204},{""stimulus"":""img/red_wl/5.jpg"",""time"":252},{""stimulus"":""img/red_wl/6.jpg"",""time"":305},{""stimulus"":""img/red_wl/7.jpg"",""time"":354},{""stimulus"":""img/red_wl/8.jpg"",""time"":402},{""stimulus"":""img/red_wl/9.jpg"",""time"":455},{""stimulus"":""img/red_wl/10.jpg"",""time"":504},{""stimulus"":""img/red_wl/11.jpg"",""time"":552}]","[]"
"image-keyboard-response","76","56341","0.0-5.0-1.36","60f08e2a0d6d27ff93244345","bdp_lott","Sun Mar 26 2023 08:35:57 GMT-0400 (Eastern Daylight Time)","202168","red","green","","199","","","","choice","","img/red_wl/choose11.jpg","2","189","red","0.5","0.5","0.5","l","",""
"animation","77","56943","0.0-5.0-2.36","60f08e2a0d6d27ff93244345","bdp_lott","Sun Mar 26 2023 08:35:57 GMT-0400 (Eastern Daylight Time)","202168","red","green","","","","","","","","","","189","","","","","","[{""stimulus"":""img/red_wl/1.jpg"",""time"":52},{""stimulus"":""img/red_wl/2.jpg"",""time"":105},{""stimulus"":""img/red_wl/3.jpg"",""time"":154},{""stimulus"":""img/red_wl/4.jpg"",""time"":201},{""stimulus"":""img/red_wl/5.jpg"",""time"":254},{""stimulus"":""img/red_wl/6.jpg"",""time"":302},{""stimulus"":""img/red_wl/7.jpg"",""time"":354},{""stimulus"":""img/red_wl/8.jpg"",""time"":404},{""stimulus"":""img/red_wl/9.jpg"",""time"":452},{""stimulus"":""img/red_wl/10.jpg"",""time"":505},{""stimulus"":""img/red_wl/11.jpg"",""time"":553}]","[]"
"image-keyboard-response","78","57151","0.0-5.0-1.37","60f08e2a0d6d27ff93244345","bdp_lott","Sun Mar 26 2023 08:35:57 GMT-0400 (Eastern Daylight Time)","202168","red","green","","207","","","","choice","","img/red_wl/choose11.jpg","2","188","red","0.5","0.5","0.5","w","",""
"animation","79","57756","0.0-5.0-2.37","60f08e2a0d6d27ff93244345","bdp_lott","Sun Mar 26 2023 08:35:57 GMT-0400 (Eastern Daylight Time)","202168","red","green","","","","","","","","","","188","","","","","","[{""stimulus"":""img/red_ww/1.jpg"",""time"":52},{""stimulus"":""img/red_ww/2.jpg"",""time"":100},{""stimulus"":""img/red_ww/3.jpg"",""time"":153},{""stimulus"":""img/red_ww/4.jpg"",""time"":201},{""stimulus"":""img/red_ww/5.jpg"",""time"":255},{""stimulus"":""img/red_ww/6.jpg"",""time"":303},{""stimulus"":""img/red_ww/7.jpg"",""time"":351},{""stimulus"":""img/red_ww/8.jpg"",""time"":404},{""stimulus"":""img/red_ww/9.jpg"",""time"":452},{""stimulus"":""img/red_ww/10.jpg"",""time"":504},{""stimulus"":""img/red_ww/11.jpg"",""time"":554}]","[]"
"image-keyboard-response","80","58407","0.0-5.0-1.38","60f08e2a0d6d27ff93244345","bdp_lott","Sun Mar 26 2023 08:35:57 GMT-0400 (Eastern Daylight Time)","202168","red","green","","651","","","","choice","","img/red_ww/choose11.jpg","1","187","green","0.5","0.5","0.5","l","",""
"animation","81","59011","0.0-5.0-2.38","60f08e2a0d6d27ff93244345","bdp_lott","Sun Mar 26 2023 08:35:57 GMT-0400 (Eastern Daylight Time)","202168","red","green","","","","","","","","","","187","","","","","","[{""stimulus"":""img/green_lw/1.jpg"",""time"":55},{""stimulus"":""img/green_lw/2.jpg"",""time"":103},{""stimulus"":""img/green_lw/3.jpg"",""time"":155},{""stimulus"":""img/green_lw/4.jpg"",""time"":204},{""stimulus"":""img/green_lw/5.jpg"",""time"":255},{""stimulus"":""img/green_lw/6.jpg"",""time"":306},{""stimulus"":""img/green_lw/7.jpg"",""time"":352},{""stimulus"":""img/green_lw/8.jpg"",""time"":401},{""stimulus"":""img/green_lw/9.jpg"",""time"":451},{""stimulus"":""img/green_lw/10.jpg"",""time"":505},{""stimulus"":""img/green_lw/11.jpg"",""time"":551}]","[]"
"image-keyboard-response","82","59029","0.0-5.0-1.39","60f08e2a0d6d27ff93244345","bdp_lott","Sun Mar 26 2023 08:35:57 GMT-0400 (Eastern Daylight Time)","202168","red","green","","18","","","","choice","","img/green_lw/choose11.jpg","1","186","green","0.5","0.5","0.5","w","",""
"animation","83","59630","0.0-5.0-2.39","60f08e2a0d6d27ff93244345","bdp_lott","Sun Mar 26 2023 08:35:57 GMT-0400 (Eastern Daylight Time)","202168","red","green","","","","","","","","","","186","","","","","","[{""stimulus"":""img/green_ww/1.jpg"",""time"":53},{""stimulus"":""img/green_ww/2.jpg"",""time"":102},{""stimulus"":""img/green_ww/3.jpg"",""time"":156},{""stimulus"":""img/green_ww/4.jpg"",""time"":201},{""stimulus"":""img/green_ww/5.jpg"",""time"":254},{""stimulus"":""img/green_ww/6.jpg"",""time"":302},{""stimulus"":""img/green_ww/7.jpg"",""time"":356},{""stimulus"":""img/green_ww/8.jpg"",""time"":403},{""stimulus"":""img/green_ww/9.jpg"",""time"":451},{""stimulus"":""img/green_ww/10.jpg"",""time"":501},{""stimulus"":""img/green_ww/11.jpg"",""time"":555}]","[]"
"image-keyboard-response","84","59722","0.0-5.0-1.40","60f08e2a0d6d27ff93244345","bdp_lott","Sun Mar 26 2023 08:35:57 GMT-0400 (Eastern Daylight Time)","202168","red","green","","92","","","","choice","","img/green_ww/choose11.jpg","1","185","green","0.5","0.5","0.5","w","",""
"animation","85","60323","0.0-5.0-2.40","60f08e2a0d6d27ff93244345","bdp_lott","Sun Mar 26 2023 08:35:57 GMT-0400 (Eastern Daylight Time)","202168","red","green","","","","","","","","","","185","","","","","","[{""stimulus"":""img/green_ww/1.jpg"",""time"":51},{""stimulus"":""img/green_ww/2.jpg"",""time"":101},{""stimulus"":""img/green_ww/3.jpg"",""time"":151},{""stimulus"":""img/green_ww/4.jpg"",""time"":201},{""stimulus"":""img/green_ww/5.jpg"",""time"":255},{""stimulus"":""img/green_ww/6.jpg"",""time"":301},{""stimulus"":""img/green_ww/7.jpg"",""time"":354},{""stimulus"":""img/green_ww/8.jpg"",""time"":401},{""stimulus"":""img/green_ww/9.jpg"",""time"":454},{""stimulus"":""img/green_ww/10.jpg"",""time"":501},{""stimulus"":""img/green_ww/11.jpg"",""time"":553}]","[]"
"image-keyboard-response","86","60499","0.0-5.0-1.41","60f08e2a0d6d27ff93244345","bdp_lott","Sun Mar 26 2023 08:35:57 GMT-0400 (Eastern Daylight Time)","202168","red","green","","175","","","","choice","","img/green_ww/choose11.jpg","1","184","green","0.5","0.5","0.5","w","",""
"animation","87","61104","0.0-5.0-2.41","60f08e2a0d6d27ff93244345","bdp_lott","Sun Mar 26 2023 08:35:57 GMT-0400 (Eastern Daylight Time)","202168","red","green","","","","","","","","","","184","","","","","","[{""stimulus"":""img/green_ww/1.jpg"",""time"":53},{""stimulus"":""img/green_ww/2.jpg"",""time"":102},{""stimulus"":""img/green_ww/3.jpg"",""time"":155},{""stimulus"":""img/green_ww/4.jpg"",""time"":205},{""stimulus"":""img/green_ww/5.jpg"",""time"":251},{""stimulus"":""img/green_ww/6.jpg"",""time"":304},{""stimulus"":""img/green_ww/7.jpg"",""time"":354},{""stimulus"":""img/green_ww/8.jpg"",""time"":405},{""stimulus"":""img/green_ww/9.jpg"",""time"":455},{""stimulus"":""img/green_ww/10.jpg"",""time"":505},{""stimulus"":""img/green_ww/11.jpg"",""time"":555}]","[]"
"image-keyboard-response","88","61216","0.0-5.0-1.42","60f08e2a0d6d27ff93244345","bdp_lott","Sun Mar 26 2023 08:35:57 GMT-0400 (Eastern Daylight Time)","202168","red","green","","112","","","","choice","","img/green_ww/choose11.jpg","1","183","green","0.5","0.5","0.5","w","",""
"animation","89","61816","0.0-5.0-2.42","60f08e2a0d6d27ff93244345","bdp_lott","Sun Mar 26 2023 08:35:57 GMT-0400 (Eastern Daylight Time)","202168","red","green","","","","","","","","","","183","","","","","","[{""stimulus"":""img/green_ww/1.jpg"",""time"":51},{""stimulus"":""img/green_ww/2.jpg"",""time"":105},{""stimulus"":""img/green_ww/3.jpg"",""time"":154},{""stimulus"":""img/green_ww/4.jpg"",""time"":203},{""stimulus"":""img/green_ww/5.jpg"",""time"":252},{""stimulus"":""img/green_ww/6.jpg"",""time"":302},{""stimulus"":""img/green_ww/7.jpg"",""time"":354},{""stimulus"":""img/green_ww/8.jpg"",""time"":404},{""stimulus"":""img/green_ww/9.jpg"",""time"":451},{""stimulus"":""img/green_ww/10.jpg"",""time"":505},{""stimulus"":""img/green_ww/11.jpg"",""time"":553}]","[]"
"image-keyboard-response","90","62022","0.0-5.0-1.43","60f08e2a0d6d27ff93244345","bdp_lott","Sun Mar 26 2023 08:35:57 GMT-0400 (Eastern Daylight Time)","202168","red","green","","205","","","","choice","","img/green_ww/choose11.jpg","1","182","green","0.5","0.5","0.5","w","",""
"animation","91","62623","0.0-5.0-2.43","60f08e2a0d6d27ff93244345","bdp_lott","Sun Mar 26 2023 08:35:57 GMT-0400 (Eastern Daylight Time)","202168","red","green","","","","","","","","","","182","","","","","","[{""stimulus"":""img/green_ww/1.jpg"",""time"":52},{""stimulus"":""img/green_ww/2.jpg"",""time"":101},{""stimulus"":""img/green_ww/3.jpg"",""time"":155},{""stimulus"":""img/green_ww/4.jpg"",""time"":202},{""stimulus"":""img/green_ww/5.jpg"",""time"":251},{""stimulus"":""img/green_ww/6.jpg"",""time"":301},{""stimulus"":""img/green_ww/7.jpg"",""time"":355},{""stimulus"":""img/green_ww/8.jpg"",""time"":401},{""stimulus"":""img/green_ww/9.jpg"",""time"":452},{""stimulus"":""img/green_ww/10.jpg"",""time"":501},{""stimulus"":""img/green_ww/11.jpg"",""time"":553}]","[]"
"image-keyboard-response","92","62754","0.0-5.0-1.44","60f08e2a0d6d27ff93244345","bdp_lott","Sun Mar 26 2023 08:35:57 GMT-0400 (Eastern Daylight Time)","202168","red","green","","131","","","","choice","","img/green_ww/choose11.jpg","1","181","green","0.5","0.5","0.5","w","",""
"animation","93","63357","0.0-5.0-2.44","60f08e2a0d6d27ff93244345","bdp_lott","Sun Mar 26 2023 08:35:57 GMT-0400 (Eastern Daylight Time)","202168","red","green","","","","","","","","","","181","","","","","","[{""stimulus"":""img/green_ww/1.jpg"",""time"":54},{""stimulus"":""img/green_ww/2.jpg"",""time"":104},{""stimulus"":""img/green_ww/3.jpg"",""time"":155},{""stimulus"":""img/green_ww/4.jpg"",""time"":204},{""stimulus"":""img/green_ww/5.jpg"",""time"":252},{""stimulus"":""img/green_ww/6.jpg"",""time"":306},{""stimulus"":""img/green_ww/7.jpg"",""time"":353},{""stimulus"":""img/green_ww/8.jpg"",""time"":405},{""stimulus"":""img/green_ww/9.jpg"",""time"":455},{""stimulus"":""img/green_ww/10.jpg"",""time"":503},{""stimulus"":""img/green_ww/11.jpg"",""time"":552}]","[]"
"image-keyboard-response","94","63535","0.0-5.0-1.45","60f08e2a0d6d27ff93244345","bdp_lott","Sun Mar 26 2023 08:35:57 GMT-0400 (Eastern Daylight Time)","202168","red","green","","177","","","","choice","","img/green_ww/choose11.jpg","1","180","green","0.5","0.5","0.5","w","",""
"animation","95","64136","0.0-5.0-2.45","60f08e2a0d6d27ff93244345","bdp_lott","Sun Mar 26 2023 08:35:57 GMT-0400 (Eastern Daylight Time)","202168","red","green","","","","","","","","","","180","","","","","","[{""stimulus"":""img/green_ww/1.jpg"",""time"":52},{""stimulus"":""img/green_ww/2.jpg"",""time"":103},{""stimulus"":""img/green_ww/3.jpg"",""time"":153},{""stimulus"":""img/green_ww/4.jpg"",""time"":202},{""stimulus"":""img/green_ww/5.jpg"",""time"":255},{""stimulus"":""img/green_ww/6.jpg"",""time"":304},{""stimulus"":""img/green_ww/7.jpg"",""time"":351},{""stimulus"":""img/green_ww/8.jpg"",""time"":404},{""stimulus"":""img/green_ww/9.jpg"",""time"":453},{""stimulus"":""img/green_ww/10.jpg"",""time"":504},{""stimulus"":""img/green_ww/11.jpg"",""time"":555}]","[]"
"image-keyboard-response","96","64336","0.0-5.0-1.46","60f08e2a0d6d27ff93244345","bdp_lott","Sun Mar 26 2023 08:35:57 GMT-0400 (Eastern Daylight Time)","202168","red","green","","199","","","","choice","","img/green_ww/choose11.jpg","1","179","green","0.5","0.5","0.5","l","",""
"animation","97","64940","0.0-5.0-2.46","60f08e2a0d6d27ff93244345","bdp_lott","Sun Mar 26 2023 08:35:57 GMT-0400 (Eastern Daylight Time)","202168","red","green","","","","","","","","","","179","","","","","","[{""stimulus"":""img/green_lw/1.jpg"",""time"":55},{""stimulus"":""img/green_lw/2.jpg"",""time"":104},{""stimulus"":""img/green_lw/3.jpg"",""time"":155},{""stimulus"":""img/green_lw/4.jpg"",""time"":201},{""stimulus"":""img/green_lw/5.jpg"",""time"":254},{""stimulus"":""img/green_lw/6.jpg"",""time"":302},{""stimulus"":""img/green_lw/7.jpg"",""time"":355},{""stimulus"":""img/green_lw/8.jpg"",""time"":403},{""stimulus"":""img/green_lw/9.jpg"",""time"":452},{""stimulus"":""img/green_lw/10.jpg"",""time"":505},{""stimulus"":""img/green_lw/11.jpg"",""time"":552}]","[]"
"image-keyboard-response","98","65179","0.0-5.0-1.47","60f08e2a0d6d27ff93244345","bdp_lott","Sun Mar 26 2023 08:35:57 GMT-0400 (Eastern Daylight Time)","202168","red","green","","238","","","","choice","","img/green_lw/choose11.jpg","1","178","green","0.5","0.5","0.5","l","",""
"animation","99","65784","0.0-5.0-2.47","60f08e2a0d6d27ff93244345","bdp_lott","Sun Mar 26 2023 08:35:57 GMT-0400 (Eastern Daylight Time)","202168","red","green","","","","","","","","","","178","","","","","","[{""stimulus"":""img/green_lw/1.jpg"",""time"":51},{""stimulus"":""img/green_lw/2.jpg"",""time"":104},{""stimulus"":""img/green_lw/3.jpg"",""time"":152},{""stimulus"":""img/green_lw/4.jpg"",""time"":201},{""stimulus"":""img/green_lw/5.jpg"",""time"":254},{""stimulus"":""img/green_lw/6.jpg"",""time"":301},{""stimulus"":""img/green_lw/7.jpg"",""time"":351},{""stimulus"":""img/green_lw/8.jpg"",""time"":404},{""stimulus"":""img/green_lw/9.jpg"",""time"":451},{""stimulus"":""img/green_lw/10.jpg"",""time"":504},{""stimulus"":""img/green_lw/11.jpg"",""time"":552}]","[]"
"image-keyboard-response","100","65945","0.0-5.0-1.48","60f08e2a0d6d27ff93244345","bdp_lott","Sun Mar 26 2023 08:35:57 GMT-0400 (Eastern Daylight Time)","202168","red","green","","160","","","","choice","","img/green_lw/choose11.jpg","1","177","green","0.5","0.5","0.5","w","",""
"animation","101","66547","0.0-5.0-2.48","60f08e2a0d6d27ff93244345","bdp_lott","Sun Mar 26 2023 08:35:57 GMT-0400 (Eastern Daylight Time)","202168","red","green","","","","","","","","","","177","","","","","","[{""stimulus"":""img/green_ww/1.jpg"",""time"":53},{""stimulus"":""img/green_ww/2.jpg"",""time"":102},{""stimulus"":""img/green_ww/3.jpg"",""time"":155},{""stimulus"":""img/green_ww/4.jpg"",""time"":202},{""stimulus"":""img/green_ww/5.jpg"",""time"":256},{""stimulus"":""img/green_ww/6.jpg"",""time"":301},{""stimulus"":""img/green_ww/7.jpg"",""time"":353},{""stimulus"":""img/green_ww/8.jpg"",""time"":404},{""stimulus"":""img/green_ww/9.jpg"",""time"":453},{""stimulus"":""img/green_ww/10.jpg"",""time"":503},{""stimulus"":""img/green_ww/11.jpg"",""time"":554}]","[]"
"image-keyboard-response","102","66673","0.0-5.0-1.49","60f08e2a0d6d27ff93244345","bdp_lott","Sun Mar 26 2023 08:35:57 GMT-0400 (Eastern Daylight Time)","202168","red","green","","126","","","","choice","","img/green_ww/choose11.jpg","1","176","green","0.5","0.5","0.5","w","",""
"animation","103","67277","0.0-5.0-2.49","60f08e2a0d6d27ff93244345","bdp_lott","Sun Mar 26 2023 08:35:57 GMT-0400 (Eastern Daylight Time)","202168","red","green","","","","","","","","","","176","","","","","","[{""stimulus"":""img/green_ww/1.jpg"",""time"":51},{""stimulus"":""img/green_ww/2.jpg"",""time"":104},{""stimulus"":""img/green_ww/3.jpg"",""time"":152},{""stimulus"":""img/green_ww/4.jpg"",""time"":203},{""stimulus"":""img/green_ww/5.jpg"",""time"":251},{""stimulus"":""img/green_ww/6.jpg"",""time"":301},{""stimulus"":""img/green_ww/7.jpg"",""time"":351},{""stimulus"":""img/green_ww/8.jpg"",""time"":402},{""stimulus"":""img/green_ww/9.jpg"",""time"":452},{""stimulus"":""img/green_ww/10.jpg"",""time"":504},{""stimulus"":""img/green_ww/11.jpg"",""time"":551}]","[]"
"image-keyboard-response","104","67422","0.0-5.0-1.50","60f08e2a0d6d27ff93244345","bdp_lott","Sun Mar 26 2023 08:35:57 GMT-0400 (Eastern Daylight Time)","202168","red","green","","144","","","","choice","","img/green_ww/choose11.jpg","1","175","green","0.5","0.5","0.5","w","",""
"animation","105","68023","0.0-5.0-2.50","60f08e2a0d6d27ff93244345","bdp_lott","Sun Mar 26 2023 08:35:57 GMT-0400 (Eastern Daylight Time)","202168","red","green","","","","","","","","","","175","","","","","","[{""stimulus"":""img/green_ww/1.jpg"",""time"":53},{""stimulus"":""img/green_ww/2.jpg"",""time"":101},{""stimulus"":""img/green_ww/3.jpg"",""time"":154},{""stimulus"":""img/green_ww/4.jpg"",""time"":201},{""stimulus"":""img/green_ww/5.jpg"",""time"":256},{""stimulus"":""img/green_ww/6.jpg"",""time"":301},{""stimulus"":""img/green_ww/7.jpg"",""time"":356},{""stimulus"":""img/green_ww/8.jpg"",""time"":401},{""stimulus"":""img/green_ww/9.jpg"",""time"":451},{""stimulus"":""img/green_ww/10.jpg"",""time"":501},{""stimulus"":""img/green_ww/11.jpg"",""time"":555}]","[]"
"image-keyboard-response","106","68155","0.0-5.0-1.51","60f08e2a0d6d27ff93244345","bdp_lott","Sun Mar 26 2023 08:35:57 GMT-0400 (Eastern Daylight Time)","202168","red","green","","131","","","","choice","","img/green_ww/choose11.jpg","1","174","green","0.5","0.5","0.5","w","",""
"animation","107","68760","0.0-5.0-2.51","60f08e2a0d6d27ff93244345","bdp_lott","Sun Mar 26 2023 08:35:57 GMT-0400 (Eastern Daylight Time)","202168","red","green","","","","","","","","","","174","","","","","","[{""stimulus"":""img/green_ww/1.jpg"",""time"":55},{""stimulus"":""img/green_ww/2.jpg"",""time"":102},{""stimulus"":""img/green_ww/3.jpg"",""time"":152},{""stimulus"":""img/green_ww/4.jpg"",""time"":206},{""stimulus"":""img/green_ww/5.jpg"",""time"":253},{""stimulus"":""img/green_ww/6.jpg"",""time"":302},{""stimulus"":""img/green_ww/7.jpg"",""time"":355},{""stimulus"":""img/green_ww/8.jpg"",""time"":402},{""stimulus"":""img/green_ww/9.jpg"",""time"":451},{""stimulus"":""img/green_ww/10.jpg"",""time"":504},{""stimulus"":""img/green_ww/11.jpg"",""time"":552}]","[]"
"image-keyboard-response","108","68874","0.0-5.0-1.52","60f08e2a0d6d27ff93244345","bdp_lott","Sun Mar 26 2023 08:35:57 GMT-0400 (Eastern Daylight Time)","202168","red","green","","113","","","","choice","","img/green_ww/choose11.jpg","1","173","green","0.5","0.5","0.5","w","",""
"animation","109","69475","0.0-5.0-2.52","60f08e2a0d6d27ff93244345","bdp_lott","Sun Mar 26 2023 08:35:57 GMT-0400 (Eastern Daylight Time)","202168","red","green","","","","","","","","","","173","","","","","","[{""stimulus"":""img/green_ww/1.jpg"",""time"":51},{""stimulus"":""img/green_ww/2.jpg"",""time"":105},{""stimulus"":""img/green_ww/3.jpg"",""time"":150},{""stimulus"":""img/green_ww/4.jpg"",""time"":204},{""stimulus"":""img/green_ww/5.jpg"",""time"":252},{""stimulus"":""img/green_ww/6.jpg"",""time"":303},{""stimulus"":""img/green_ww/7.jpg"",""time"":352},{""stimulus"":""img/green_ww/8.jpg"",""time"":404},{""stimulus"":""img/green_ww/9.jpg"",""time"":452},{""stimulus"":""img/green_ww/10.jpg"",""time"":505},{""stimulus"":""img/green_ww/11.jpg"",""time"":551}]","[]"
"image-keyboard-response","110","69570","0.0-5.0-1.53","60f08e2a0d6d27ff93244345","bdp_lott","Sun Mar 26 2023 08:35:57 GMT-0400 (Eastern Daylight Time)","202168","red","green","","94","","","","choice","","img/green_ww/choose11.jpg","1","172","green","0.5","0.5","0.5","w","",""
"animation","111","70174","0.0-5.0-2.53","60f08e2a0d6d27ff93244345","bdp_lott","Sun Mar 26 2023 08:35:57 GMT-0400 (Eastern Daylight Time)","202168","red","green","","","","","","","","","","172","","","","","","[{""stimulus"":""img/green_ww/1.jpg"",""time"":51},{""stimulus"":""img/green_ww/2.jpg"",""time"":104},{""stimulus"":""img/green_ww/3.jpg"",""time"":151},{""stimulus"":""img/green_ww/4.jpg"",""time"":203},{""stimulus"":""img/green_ww/5.jpg"",""time"":251},{""stimulus"":""img/green_ww/6.jpg"",""time"":302},{""stimulus"":""img/green_ww/7.jpg"",""time"":351},{""stimulus"":""img/green_ww/8.jpg"",""time"":401},{""stimulus"":""img/green_ww/9.jpg"",""time"":451},{""stimulus"":""img/green_ww/10.jpg"",""time"":502},{""stimulus"":""img/green_ww/11.jpg"",""time"":551}]","[]"
"image-keyboard-response","112","70280","0.0-5.0-1.54","60f08e2a0d6d27ff93244345","bdp_lott","Sun Mar 26 2023 08:35:57 GMT-0400 (Eastern Daylight Time)","202168","red","green","","106","","","","choice","","img/green_ww/choose11.jpg","1","171","green","0.5","0.5","0.5","l","",""
"animation","113","70883","0.0-5.0-2.54","60f08e2a0d6d27ff93244345","bdp_lott","Sun Mar 26 2023 08:35:57 GMT-0400 (Eastern Daylight Time)","202168","red","green","","","","","","","","","","171","","","","","","[{""stimulus"":""img/green_lw/1.jpg"",""time"":53},{""stimulus"":""img/green_lw/2.jpg"",""time"":101},{""stimulus"":""img/green_lw/3.jpg"",""time"":153},{""stimulus"":""img/green_lw/4.jpg"",""time"":203},{""stimulus"":""img/green_lw/5.jpg"",""time"":251},{""stimulus"":""img/green_lw/6.jpg"",""time"":306},{""stimulus"":""img/green_lw/7.jpg"",""time"":352},{""stimulus"":""img/green_lw/8.jpg"",""time"":406},{""stimulus"":""img/green_lw/9.jpg"",""time"":453},{""stimulus"":""img/green_lw/10.jpg"",""time"":504},{""stimulus"":""img/green_lw/11.jpg"",""time"":554}]","[]"
"image-keyboard-response","114","71027","0.0-5.0-1.55","60f08e2a0d6d27ff93244345","bdp_lott","Sun Mar 26 2023 08:35:57 GMT-0400 (Eastern Daylight Time)","202168","red","green","","143","","","","choice","","img/green_lw/choose11.jpg","1","170","green","0.5","0.5","0.5","l","",""
"animation","115","71628","0.0-5.0-2.55","60f08e2a0d6d27ff93244345","bdp_lott","Sun Mar 26 2023 08:35:57 GMT-0400 (Eastern Daylight Time)","202168","red","green","","","","","","","","","","170","","","","","","[{""stimulus"":""img/green_lw/1.jpg"",""time"":55},{""stimulus"":""img/green_lw/2.jpg"",""time"":102},{""stimulus"":""img/green_lw/3.jpg"",""time"":155},{""stimulus"":""img/green_lw/4.jpg"",""time"":201},{""stimulus"":""img/green_lw/5.jpg"",""time"":253},{""stimulus"":""img/green_lw/6.jpg"",""time"":301},{""stimulus"":""img/green_lw/7.jpg"",""time"":354},{""stimulus"":""img/green_lw/8.jpg"",""time"":401},{""stimulus"":""img/green_lw/9.jpg"",""time"":453},{""stimulus"":""img/green_lw/10.jpg"",""time"":502},{""stimulus"":""img/green_lw/11.jpg"",""time"":555}]","[]"
"image-keyboard-response","116","71737","0.0-5.0-1.56","60f08e2a0d6d27ff93244345","bdp_lott","Sun Mar 26 2023 08:35:57 GMT-0400 (Eastern Daylight Time)","202168","red","green","","109","","","","choice","","img/green_lw/choose11.jpg","1","169","green","0.5","0.5","0.5","l","",""
"animation","117","72339","0.0-5.0-2.56","60f08e2a0d6d27ff93244345","bdp_lott","Sun Mar 26 2023 08:35:57 GMT-0400 (Eastern Daylight Time)","202168","red","green","","","","","","","","","","169","","","","","","[{""stimulus"":""img/green_lw/1.jpg"",""time"":53},{""stimulus"":""img/green_lw/2.jpg"",""time"":101},{""stimulus"":""img/green_lw/3.jpg"",""time"":154},{""stimulus"":""img/green_lw/4.jpg"",""time"":203},{""stimulus"":""img/green_lw/5.jpg"",""time"":256},{""stimulus"":""img/green_lw/6.jpg"",""time"":303},{""stimulus"":""img/green_lw/7.jpg"",""time"":352},{""stimulus"":""img/green_lw/8.jpg"",""time"":405},{""stimulus"":""img/green_lw/9.jpg"",""time"":453},{""stimulus"":""img/green_lw/10.jpg"",""time"":504},{""stimulus"":""img/green_lw/11.jpg"",""time"":555}]","[]"
"image-keyboard-response","118","72454","0.0-5.0-1.57","60f08e2a0d6d27ff93244345","bdp_lott","Sun Mar 26 2023 08:35:57 GMT-0400 (Eastern Daylight Time)","202168","red","green","","115","","","","choice","","img/green_lw/choose11.jpg","1","168","green","0.5","0.5","0.5","w","",""
"animation","119","73059","0.0-5.0-2.57","60f08e2a0d6d27ff93244345","bdp_lott","Sun Mar 26 2023 08:35:57 GMT-0400 (Eastern Daylight Time)","202168","red","green","","","","","","","","","","168","","","","","","[{""stimulus"":""img/green_ww/1.jpg"",""time"":53},{""stimulus"":""img/green_ww/2.jpg"",""time"":104},{""stimulus"":""img/green_ww/3.jpg"",""time"":152},{""stimulus"":""img/green_ww/4.jpg"",""time"":205},{""stimulus"":""img/green_ww/5.jpg"",""time"":251},{""stimulus"":""img/green_ww/6.jpg"",""time"":303},{""stimulus"":""img/green_ww/7.jpg"",""time"":354},{""stimulus"":""img/green_ww/8.jpg"",""time"":404},{""stimulus"":""img/green_ww/9.jpg"",""time"":455},{""stimulus"":""img/green_ww/10.jpg"",""time"":504},{""stimulus"":""img/green_ww/11.jpg"",""time"":552}]","[]"
"image-keyboard-response","120","73181","0.0-5.0-1.58","60f08e2a0d6d27ff93244345","bdp_lott","Sun Mar 26 2023 08:35:57 GMT-0400 (Eastern Daylight Time)","202168","red","green","","121","","","","choice","","img/green_ww/choose11.jpg","1","167","green","0.5","0.5","0.5","w","",""
"animation","121","73785","0.0-5.0-2.58","60f08e2a0d6d27ff93244345","bdp_lott","Sun Mar 26 2023 08:35:57 GMT-0400 (Eastern Daylight Time)","202168","red","green","","","","","","","","","","167","","","","","","[{""stimulus"":""img/green_ww/1.jpg"",""time"":52},{""stimulus"":""img/green_ww/2.jpg"",""time"":102},{""stimulus"":""img/green_ww/3.jpg"",""time"":152},{""stimulus"":""img/green_ww/4.jpg"",""time"":203},{""stimulus"":""img/green_ww/5.jpg"",""time"":251},{""stimulus"":""img/green_ww/6.jpg"",""time"":305},{""stimulus"":""img/green_ww/7.jpg"",""time"":353},{""stimulus"":""img/green_ww/8.jpg"",""time"":405},{""stimulus"":""img/green_ww/9.jpg"",""time"":451},{""stimulus"":""img/green_ww/10.jpg"",""time"":504},{""stimulus"":""img/green_ww/11.jpg"",""time"":552}]","[]"
"image-keyboard-response","122","73833","0.0-5.0-1.59","60f08e2a0d6d27ff93244345","bdp_lott","Sun Mar 26 2023 08:35:57 GMT-0400 (Eastern Daylight Time)","202168","red","green","","48","","","","choice","","img/green_ww/choose11.jpg","1","166","green","0.5","0.5","0.5","l","",""
"animation","123","74435","0.0-5.0-2.59","60f08e2a0d6d27ff93244345","bdp_lott","Sun Mar 26 2023 08:35:57 GMT-0400 (Eastern Daylight Time)","202168","red","green","","","","","","","","","","166","","","","","","[{""stimulus"":""img/green_lw/1.jpg"",""time"":53},{""stimulus"":""img/green_lw/2.jpg"",""time"":102},{""stimulus"":""img/green_lw/3.jpg"",""time"":154},{""stimulus"":""img/green_lw/4.jpg"",""time"":203},{""stimulus"":""img/green_lw/5.jpg"",""time"":255},{""stimulus"":""img/green_lw/6.jpg"",""time"":303},{""stimulus"":""img/green_lw/7.jpg"",""time"":351},{""stimulus"":""img/green_lw/8.jpg"",""time"":401},{""stimulus"":""img/green_lw/9.jpg"",""time"":454},{""stimulus"":""img/green_lw/10.jpg"",""time"":500},{""stimulus"":""img/green_lw/11.jpg"",""time"":554}]","[]"
"image-keyboard-response","124","74498","0.0-5.0-1.60","60f08e2a0d6d27ff93244345","bdp_lott","Sun Mar 26 2023 08:35:57 GMT-0400 (Eastern Daylight Time)","202168","red","green","","63","","","","choice","","img/green_lw/choose11.jpg","1","165","green","0.5","0.5","0.5","w","",""
"animation","125","75103","0.0-5.0-2.60","60f08e2a0d6d27ff93244345","bdp_lott","Sun Mar 26 2023 08:35:57 GMT-0400 (Eastern Daylight Time)","202168","red","green","","","","","","","","","","165","","","","","","[{""stimulus"":""img/green_ww/1.jpg"",""time"":53},{""stimulus"":""img/green_ww/2.jpg"",""time"":102},{""stimulus"":""img/green_ww/3.jpg"",""time"":156},{""stimulus"":""img/green_ww/4.jpg"",""time"":205},{""stimulus"":""img/green_ww/5.jpg"",""time"":256},{""stimulus"":""img/green_ww/6.jpg"",""time"":305},{""stimulus"":""img/green_ww/7.jpg"",""time"":353},{""stimulus"":""img/green_ww/8.jpg"",""time"":402},{""stimulus"":""img/green_ww/9.jpg"",""time"":455},{""stimulus"":""img/green_ww/10.jpg"",""time"":502},{""stimulus"":""img/green_ww/11.jpg"",""time"":556}]","[]"
"image-keyboard-response","126","75142","0.0-5.0-1.61","60f08e2a0d6d27ff93244345","bdp_lott","Sun Mar 26 2023 08:35:57 GMT-0400 (Eastern Daylight Time)","202168","red","green","","38","","","","choice","","img/green_ww/choose11.jpg","1","164","green","0.5","0.5","0.5","l","",""
"animation","127","75747","0.0-5.0-2.61","60f08e2a0d6d27ff93244345","bdp_lott","Sun Mar 26 2023 08:35:57 GMT-0400 (Eastern Daylight Time)","202168","red","green","","","","","","","","","","164","","","","","","[{""stimulus"":""img/green_lw/1.jpg"",""time"":55},{""stimulus"":""img/green_lw/2.jpg"",""time"":101},{""stimulus"":""img/green_lw/3.jpg"",""time"":154},{""stimulus"":""img/green_lw/4.jpg"",""time"":204},{""stimulus"":""img/green_lw/5.jpg"",""time"":254},{""stimulus"":""img/green_lw/6.jpg"",""time"":301},{""stimulus"":""img/green_lw/7.jpg"",""time"":354},{""stimulus"":""img/green_lw/8.jpg"",""time"":404},{""stimulus"":""img/green_lw/9.jpg"",""time"":455},{""stimulus"":""img/green_lw/10.jpg"",""time"":501},{""stimulus"":""img/green_lw/11.jpg"",""time"":554}]","[]"
"image-keyboard-response","128","75756","0.0-5.0-1.62","60f08e2a0d6d27ff93244345","bdp_lott","Sun Mar 26 2023 08:35:57 GMT-0400 (Eastern Daylight Time)","202168","red","green","","9","","","","choice","","img/green_lw/choose11.jpg","1","163","green","0.5","0.5","0.5","l","",""
"animation","129","76360","0.0-5.0-2.62","60f08e2a0d6d27ff93244345","bdp_lott","Sun Mar 26 2023 08:35:57 GMT-0400 (Eastern Daylight Time)","202168","red","green","","","","","","","","","","163","","","","","","[{""stimulus"":""img/green_lw/1.jpg"",""time"":55},{""stimulus"":""img/green_lw/2.jpg"",""time"":101},{""stimulus"":""img/green_lw/3.jpg"",""time"":152},{""stimulus"":""img/green_lw/4.jpg"",""time"":204},{""stimulus"":""img/green_lw/5.jpg"",""time"":255},{""stimulus"":""img/green_lw/6.jpg"",""time"":301},{""stimulus"":""img/green_lw/7.jpg"",""time"":354},{""stimulus"":""img/green_lw/8.jpg"",""time"":404},{""stimulus"":""img/green_lw/9.jpg"",""time"":455},{""stimulus"":""img/green_lw/10.jpg"",""time"":503},{""stimulus"":""img/green_lw/11.jpg"",""time"":551}]","[]"
"image-keyboard-response","130","76683","0.0-5.0-1.63","60f08e2a0d6d27ff93244345","bdp_lott","Sun Mar 26 2023 08:35:57 GMT-0400 (Eastern Daylight Time)","202168","red","green","","322","","","","choice","","img/green_lw/choose11.jpg","1","162","green","0.5","0.5","0.5","w","",""
"animation","131","77288","0.0-5.0-2.63","60f08e2a0d6d27ff93244345","bdp_lott","Sun Mar 26 2023 08:35:57 GMT-0400 (Eastern Daylight Time)","202168","red","green","","","","","","","","","","162","","","","","","[{""stimulus"":""img/green_ww/1.jpg"",""time"":51},{""stimulus"":""img/green_ww/2.jpg"",""time"":104},{""stimulus"":""img/green_ww/3.jpg"",""time"":152},{""stimulus"":""img/green_ww/4.jpg"",""time"":202},{""stimulus"":""img/green_ww/5.jpg"",""time"":254},{""stimulus"":""img/green_ww/6.jpg"",""time"":301},{""stimulus"":""img/green_ww/7.jpg"",""time"":353},{""stimulus"":""img/green_ww/8.jpg"",""time"":403},{""stimulus"":""img/green_ww/9.jpg"",""time"":452},{""stimulus"":""img/green_ww/10.jpg"",""time"":504},{""stimulus"":""img/green_ww/11.jpg"",""time"":552}]","[]"
"image-keyboard-response","132","77481","0.0-5.0-1.64","60f08e2a0d6d27ff93244345","bdp_lott","Sun Mar 26 2023 08:35:57 GMT-0400 (Eastern Daylight Time)","202168","red","green","","193","","","","choice","","img/green_ww/choose11.jpg","1","161","green","0.5","0.5","0.5","l","",""
"animation","133","78083","0.0-5.0-2.64","60f08e2a0d6d27ff93244345","bdp_lott","Sun Mar 26 2023 08:35:57 GMT-0400 (Eastern Daylight Time)","202168","red","green","","","","","","","","","","161","","","","","","[{""stimulus"":""img/green_lw/1.jpg"",""time"":52},{""stimulus"":""img/green_lw/2.jpg"",""time"":105},{""stimulus"":""img/green_lw/3.jpg"",""time"":153},{""stimulus"":""img/green_lw/4.jpg"",""time"":201},{""stimulus"":""img/green_lw/5.jpg"",""time"":253},{""stimulus"":""img/green_lw/6.jpg"",""time"":300},{""stimulus"":""img/green_lw/7.jpg"",""time"":353},{""stimulus"":""img/green_lw/8.jpg"",""time"":404},{""stimulus"":""img/green_lw/9.jpg"",""time"":453},{""stimulus"":""img/green_lw/10.jpg"",""time"":502},{""stimulus"":""img/green_lw/11.jpg"",""time"":553}]","[]"
"image-keyboard-response","134","78251","0.0-5.0-1.65","60f08e2a0d6d27ff93244345","bdp_lott","Sun Mar 26 2023 08:35:57 GMT-0400 (Eastern Daylight Time)","202168","red","green","","167","","","","choice","","img/green_lw/choose11.jpg","1","160","green","0.5","0.5","0.5","w","",""
"animation","135","78855","0.0-5.0-2.65","60f08e2a0d6d27ff93244345","bdp_lott","Sun Mar 26 2023 08:35:57 GMT-0400 (Eastern Daylight Time)","202168","red","green","","","","","","","","","","160","","","","","","[{""stimulus"":""img/green_ww/1.jpg"",""time"":53},{""stimulus"":""img/green_ww/2.jpg"",""time"":104},{""stimulus"":""img/green_ww/3.jpg"",""time"":152},{""stimulus"":""img/green_ww/4.jpg"",""time"":202},{""stimulus"":""img/green_ww/5.jpg"",""time"":253},{""stimulus"":""img/green_ww/6.jpg"",""time"":301},{""stimulus"":""img/green_ww/7.jpg"",""time"":355},{""stimulus"":""img/green_ww/8.jpg"",""time"":403},{""stimulus"":""img/green_ww/9.jpg"",""time"":454},{""stimulus"":""img/green_ww/10.jpg"",""time"":503},{""stimulus"":""img/green_ww/11.jpg"",""time"":552}]","[]"
"image-keyboard-response","136","79046","0.0-5.0-1.66","60f08e2a0d6d27ff93244345","bdp_lott","Sun Mar 26 2023 08:35:57 GMT-0400 (Eastern Daylight Time)","202168","red","green","","190","","","","choice","","img/green_ww/choose11.jpg","1","159","green","0.5","0.5","0.5","w","",""
"animation","137","79647","0.0-5.0-2.66","60f08e2a0d6d27ff93244345","bdp_lott","Sun Mar 26 2023 08:35:57 GMT-0400 (Eastern Daylight Time)","202168","red","green","","","","","","","","","","159","","","","","","[{""stimulus"":""img/green_ww/1.jpg"",""time"":55},{""stimulus"":""img/green_ww/2.jpg"",""time"":104},{""stimulus"":""img/green_ww/3.jpg"",""time"":155},{""stimulus"":""img/green_ww/4.jpg"",""time"":202},{""stimulus"":""img/green_ww/5.jpg"",""time"":253},{""stimulus"":""img/green_ww/6.jpg"",""time"":301},{""stimulus"":""img/green_ww/7.jpg"",""time"":354},{""stimulus"":""img/green_ww/8.jpg"",""time"":402},{""stimulus"":""img/green_ww/9.jpg"",""time"":456},{""stimulus"":""img/green_ww/10.jpg"",""time"":501},{""stimulus"":""img/green_ww/11.jpg"",""time"":555}]","[]"
"image-keyboard-response","138","79821","0.0-5.0-1.67","60f08e2a0d6d27ff93244345","bdp_lott","Sun Mar 26 2023 08:35:57 GMT-0400 (Eastern Daylight Time)","202168","red","green","","174","","","","choice","","img/green_ww/choose11.jpg","1","158","green","0.5","0.5","0.5","w","",""
"animation","139","80421","0.0-5.0-2.67","60f08e2a0d6d27ff93244345","bdp_lott","Sun Mar 26 2023 08:35:57 GMT-0400 (Eastern Daylight Time)","202168","red","green","","","","","","","","","","158","","","","","","[{""stimulus"":""img/green_ww/1.jpg"",""time"":51},{""stimulus"":""img/green_ww/2.jpg"",""time"":101},{""stimulus"":""img/green_ww/3.jpg"",""time"":153},{""stimulus"":""img/green_ww/4.jpg"",""time"":201},{""stimulus"":""img/green_ww/5.jpg"",""time"":251},{""stimulus"":""img/green_ww/6.jpg"",""time"":300},{""stimulus"":""img/green_ww/7.jpg"",""time"":353},{""stimulus"":""img/green_ww/8.jpg"",""time"":400},{""stimulus"":""img/green_ww/9.jpg"",""time"":454},{""stimulus"":""img/green_ww/10.jpg"",""time"":501},{""stimulus"":""img/green_ww/11.jpg"",""time"":553}]","[]"
"image-keyboard-response","140","80425","0.0-5.0-1.68","60f08e2a0d6d27ff93244345","bdp_lott","Sun Mar 26 2023 08:35:57 GMT-0400 (Eastern Daylight Time)","202168","red","green","","3","","","","choice","","img/green_ww/choose11.jpg","1","157","green","0.5","0.5","0.5","l","",""
"animation","141","81026","0.0-5.0-2.68","60f08e2a0d6d27ff93244345","bdp_lott","Sun Mar 26 2023 08:35:57 GMT-0400 (Eastern Daylight Time)","202168","red","green","","","","","","","","","","157","","","","","","[{""stimulus"":""img/green_lw/1.jpg"",""time"":55},{""stimulus"":""img/green_lw/2.jpg"",""time"":101},{""stimulus"":""img/green_lw/3.jpg"",""time"":155},{""stimulus"":""img/green_lw/4.jpg"",""time"":202},{""stimulus"":""img/green_lw/5.jpg"",""time"":255},{""stimulus"":""img/green_lw/6.jpg"",""time"":300},{""stimulus"":""img/green_lw/7.jpg"",""time"":355},{""stimulus"":""img/green_lw/8.jpg"",""time"":400},{""stimulus"":""img/green_lw/9.jpg"",""time"":451},{""stimulus"":""img/green_lw/10.jpg"",""time"":501},{""stimulus"":""img/green_lw/11.jpg"",""time"":555}]","[]"
"image-keyboard-response","142","81229","0.0-5.0-1.69","60f08e2a0d6d27ff93244345","bdp_lott","Sun Mar 26 2023 08:35:57 GMT-0400 (Eastern Daylight Time)","202168","red","green","","202","","","","choice","","img/green_lw/choose11.jpg","1","156","green","0.5","0.5","0.5","w","",""
"animation","143","81832","0.0-5.0-2.69","60f08e2a0d6d27ff93244345","bdp_lott","Sun Mar 26 2023 08:35:57 GMT-0400 (Eastern Daylight Time)","202168","red","green","","","","","","","","","","156","","","","","","[{""stimulus"":""img/green_ww/1.jpg"",""time"":53},{""stimulus"":""img/green_ww/2.jpg"",""time"":100},{""stimulus"":""img/green_ww/3.jpg"",""time"":154},{""stimulus"":""img/green_ww/4.jpg"",""time"":202},{""stimulus"":""img/green_ww/5.jpg"",""time"":255},{""stimulus"":""img/green_ww/6.jpg"",""time"":300},{""stimulus"":""img/green_ww/7.jpg"",""time"":353},{""stimulus"":""img/green_ww/8.jpg"",""time"":401},{""stimulus"":""img/green_ww/9.jpg"",""time"":453},{""stimulus"":""img/green_ww/10.jpg"",""time"":501},{""stimulus"":""img/green_ww/11.jpg"",""time"":554}]","[]"
"image-keyboard-response","144","81837","0.0-5.0-1.70","60f08e2a0d6d27ff93244345","bdp_lott","Sun Mar 26 2023 08:35:57 GMT-0400 (Eastern Daylight Time)","202168","red","green","","4","","","","choice","","img/green_ww/choose11.jpg","1","155","green","0.5","0.5","0.5","w","",""
"animation","145","82442","0.0-5.0-2.70","60f08e2a0d6d27ff93244345","bdp_lott","Sun Mar 26 2023 08:35:57 GMT-0400 (Eastern Daylight Time)","202168","red","green","","","","","","","","","","155","","","","","","[{""stimulus"":""img/green_ww/1.jpg"",""time"":54},{""stimulus"":""img/green_ww/2.jpg"",""time"":100},{""stimulus"":""img/green_ww/3.jpg"",""time"":154},{""stimulus"":""img/green_ww/4.jpg"",""time"":204},{""stimulus"":""img/green_ww/5.jpg"",""time"":252},{""stimulus"":""img/green_ww/6.jpg"",""time"":303},{""stimulus"":""img/green_ww/7.jpg"",""time"":352},{""stimulus"":""img/green_ww/8.jpg"",""time"":402},{""stimulus"":""img/green_ww/9.jpg"",""time"":454},{""stimulus"":""img/green_ww/10.jpg"",""time"":501},{""stimulus"":""img/green_ww/11.jpg"",""time"":554}]","[]"
"image-keyboard-response","146","82464","0.0-5.0-1.71","60f08e2a0d6d27ff93244345","bdp_lott","Sun Mar 26 2023 08:35:57 GMT-0400 (Eastern Daylight Time)","202168","red","green","","21","","","","choice","","img/green_ww/choose11.jpg","1","154","green","0.5","0.5","0.5","w","",""
"animation","147","83068","0.0-5.0-2.71","60f08e2a0d6d27ff93244345","bdp_lott","Sun Mar 26 2023 08:35:57 GMT-0400 (Eastern Daylight Time)","202168","red","green","","","","","","","","","","154","","","","","","[{""stimulus"":""img/green_ww/1.jpg"",""time"":54},{""stimulus"":""img/green_ww/2.jpg"",""time"":104},{""stimulus"":""img/green_ww/3.jpg"",""time"":152},{""stimulus"":""img/green_ww/4.jpg"",""time"":201},{""stimulus"":""img/green_ww/5.jpg"",""time"":254},{""stimulus"":""img/green_ww/6.jpg"",""time"":303},{""stimulus"":""img/green_ww/7.jpg"",""time"":355},{""stimulus"":""img/green_ww/8.jpg"",""time"":403},{""stimulus"":""img/green_ww/9.jpg"",""time"":451},{""stimulus"":""img/green_ww/10.jpg"",""time"":506},{""stimulus"":""img/green_ww/11.jpg"",""time"":556}]","[]"
"image-keyboard-response","148","83117","0.0-5.0-1.72","60f08e2a0d6d27ff93244345","bdp_lott","Sun Mar 26 2023 08:35:57 GMT-0400 (Eastern Daylight Time)","202168","red","green","","48","","","","choice","","img/green_ww/choose11.jpg","1","153","green","0.5","0.5","0.5","l","",""
"animation","149","83717","0.0-5.0-2.72","60f08e2a0d6d27ff93244345","bdp_lott","Sun Mar 26 2023 08:35:57 GMT-0400 (Eastern Daylight Time)","202168","red","green","","","","","","","","","","153","","","","","","[{""stimulus"":""img/green_lw/1.jpg"",""time"":54},{""stimulus"":""img/green_lw/2.jpg"",""time"":102},{""stimulus"":""img/green_lw/3.jpg"",""time"":155},{""stimulus"":""img/green_lw/4.jpg"",""time"":204},{""stimulus"":""img/green_lw/5.jpg"",""time"":252},{""stimulus"":""img/green_lw/6.jpg"",""time"":301},{""stimulus"":""img/green_lw/7.jpg"",""time"":351},{""stimulus"":""img/green_lw/8.jpg"",""time"":401},{""stimulus"":""img/green_lw/9.jpg"",""time"":454},{""stimulus"":""img/green_lw/10.jpg"",""time"":502},{""stimulus"":""img/green_lw/11.jpg"",""time"":555}]","[]"
"image-keyboard-response","150","83842","0.0-5.0-1.73","60f08e2a0d6d27ff93244345","bdp_lott","Sun Mar 26 2023 08:35:57 GMT-0400 (Eastern Daylight Time)","202168","red","green","","124","","","","choice","","img/green_lw/choose11.jpg","1","152","green","0.5","0.5","0.5","l","",""
"animation","151","84447","0.0-5.0-2.73","60f08e2a0d6d27ff93244345","bdp_lott","Sun Mar 26 2023 08:35:57 GMT-0400 (Eastern Daylight Time)","202168","red","green","","","","","","","","","","152","","","","","","[{""stimulus"":""img/green_lw/1.jpg"",""time"":55},{""stimulus"":""img/green_lw/2.jpg"",""time"":105},{""stimulus"":""img/green_lw/3.jpg"",""time"":156},{""stimulus"":""img/green_lw/4.jpg"",""time"":205},{""stimulus"":""img/green_lw/5.jpg"",""time"":255},{""stimulus"":""img/green_lw/6.jpg"",""time"":305},{""stimulus"":""img/green_lw/7.jpg"",""time"":351},{""stimulus"":""img/green_lw/8.jpg"",""time"":401},{""stimulus"":""img/green_lw/9.jpg"",""time"":455},{""stimulus"":""img/green_lw/10.jpg"",""time"":502},{""stimulus"":""img/green_lw/11.jpg"",""time"":556}]","[]"
"image-keyboard-response","152","84631","0.0-5.0-1.74","60f08e2a0d6d27ff93244345","bdp_lott","Sun Mar 26 2023 08:35:57 GMT-0400 (Eastern Daylight Time)","202168","red","green","","184","","","","choice","","img/green_lw/choose11.jpg","2","151","red","0.5","0.5","0.5","l","",""
"animation","153","85235","0.0-5.0-2.74","60f08e2a0d6d27ff93244345","bdp_lott","Sun Mar 26 2023 08:35:57 GMT-0400 (Eastern Daylight Time)","202168","red","green","","","","","","","","","","151","","","","","","[{""stimulus"":""img/red_ll/1.jpg"",""time"":55},{""stimulus"":""img/red_ll/2.jpg"",""time"":103},{""stimulus"":""img/red_ll/3.jpg"",""time"":155},{""stimulus"":""img/red_ll/4.jpg"",""time"":204},{""stimulus"":""img/red_ll/5.jpg"",""time"":254},{""stimulus"":""img/red_ll/6.jpg"",""time"":301},{""stimulus"":""img/red_ll/7.jpg"",""time"":353},{""stimulus"":""img/red_ll/8.jpg"",""time"":401},{""stimulus"":""img/red_ll/9.jpg"",""time"":455},{""stimulus"":""img/red_ll/10.jpg"",""time"":502},{""stimulus"":""img/red_ll/11.jpg"",""time"":554}]","[]"
"image-keyboard-response","154","85508","0.0-5.0-1.75","60f08e2a0d6d27ff93244345","bdp_lott","Sun Mar 26 2023 08:35:57 GMT-0400 (Eastern Daylight Time)","202168","red","green","","273","","","","choice","","img/red_ll/choose11.jpg","2","150","red","0.5","0.5","0.5","w","",""
"animation","155","86109","0.0-5.0-2.75","60f08e2a0d6d27ff93244345","bdp_lott","Sun Mar 26 2023 08:35:57 GMT-0400 (Eastern Daylight Time)","202168","red","green","","","","","","","","","","150","","","","","","[{""stimulus"":""img/red_lw/1.jpg"",""time"":52},{""stimulus"":""img/red_lw/2.jpg"",""time"":101},{""stimulus"":""img/red_lw/3.jpg"",""time"":153},{""stimulus"":""img/red_lw/4.jpg"",""time"":201},{""stimulus"":""img/red_lw/5.jpg"",""time"":255},{""stimulus"":""img/red_lw/6.jpg"",""time"":303},{""stimulus"":""img/red_lw/7.jpg"",""time"":351},{""stimulus"":""img/red_lw/8.jpg"",""time"":405},{""stimulus"":""img/red_lw/9.jpg"",""time"":452},{""stimulus"":""img/red_lw/10.jpg"",""time"":503},{""stimulus"":""img/red_lw/11.jpg"",""time"":555}]","[]"
"image-keyboard-response","156","86173","0.0-5.0-1.76","60f08e2a0d6d27ff93244345","bdp_lott","Sun Mar 26 2023 08:35:57 GMT-0400 (Eastern Daylight Time)","202168","red","green","","63","","","","choice","","img/red_lw/choose11.jpg","2","149","red","0.5","0.1","0.5","w","",""
"animation","157","86776","0.0-5.0-2.76","60f08e2a0d6d27ff93244345","bdp_lott","Sun Mar 26 2023 08:35:57 GMT-0400 (Eastern Daylight Time)","202168","red","green","","","","","","","","","","149","","","","","","[{""stimulus"":""img/red_lw/1.jpg"",""time"":52},{""stimulus"":""img/red_lw/2.jpg"",""time"":104},{""stimulus"":""img/red_lw/3.jpg"",""time"":152},{""stimulus"":""img/red_lw/4.jpg"",""time"":205},{""stimulus"":""img/red_lw/5.jpg"",""time"":251},{""stimulus"":""img/red_lw/6.jpg"",""time"":305},{""stimulus"":""img/red_lw/7.jpg"",""time"":351},{""stimulus"":""img/red_lw/8.jpg"",""time"":405},{""stimulus"":""img/red_lw/9.jpg"",""time"":451},{""stimulus"":""img/red_lw/10.jpg"",""time"":502},{""stimulus"":""img/red_lw/11.jpg"",""time"":552}]","[]"
"image-keyboard-response","158","86919","0.0-5.0-1.77","60f08e2a0d6d27ff93244345","bdp_lott","Sun Mar 26 2023 08:35:57 GMT-0400 (Eastern Daylight Time)","202168","red","green","","141","","","","choice","","img/red_lw/choose11.jpg","2","148","red","0.5","0.1","0.5","w","",""
"animation","159","87519","0.0-5.0-2.77","60f08e2a0d6d27ff93244345","bdp_lott","Sun Mar 26 2023 08:35:57 GMT-0400 (Eastern Daylight Time)","202168","red","green","","","","","","","","","","148","","","","","","[{""stimulus"":""img/red_lw/1.jpg"",""time"":55},{""stimulus"":""img/red_lw/2.jpg"",""time"":101},{""stimulus"":""img/red_lw/3.jpg"",""time"":153},{""stimulus"":""img/red_lw/4.jpg"",""time"":201},{""stimulus"":""img/red_lw/5.jpg"",""time"":252},{""stimulus"":""img/red_lw/6.jpg"",""time"":300},{""stimulus"":""img/red_lw/7.jpg"",""time"":353},{""stimulus"":""img/red_lw/8.jpg"",""time"":401},{""stimulus"":""img/red_lw/9.jpg"",""time"":455},{""stimulus"":""img/red_lw/10.jpg"",""time"":500},{""stimulus"":""img/red_lw/11.jpg"",""time"":551}]","[]"
"image-keyboard-response","160","87616","0.0-5.0-1.78","60f08e2a0d6d27ff93244345","bdp_lott","Sun Mar 26 2023 08:35:57 GMT-0400 (Eastern Daylight Time)","202168","red","green","","96","","","","choice","","img/red_lw/choose11.jpg","2","147","red","0.5","0.1","0.5","w","",""
"animation","161","88217","0.0-5.0-2.78","60f08e2a0d6d27ff93244345","bdp_lott","Sun Mar 26 2023 08:35:57 GMT-0400 (Eastern Daylight Time)","202168","red","green","","","","","","","","","","147","","","","","","[{""stimulus"":""img/red_lw/1.jpg"",""time"":55},{""stimulus"":""img/red_lw/2.jpg"",""time"":104},{""stimulus"":""img/red_lw/3.jpg"",""time"":152},{""stimulus"":""img/red_lw/4.jpg"",""time"":201},{""stimulus"":""img/red_lw/5.jpg"",""time"":251},{""stimulus"":""img/red_lw/6.jpg"",""time"":302},{""stimulus"":""img/red_lw/7.jpg"",""time"":352},{""stimulus"":""img/red_lw/8.jpg"",""time"":403},{""stimulus"":""img/red_lw/9.jpg"",""time"":452},{""stimulus"":""img/red_lw/10.jpg"",""time"":504},{""stimulus"":""img/red_lw/11.jpg"",""time"":553}]","[]"
"image-keyboard-response","162","88347","0.0-5.0-1.79","60f08e2a0d6d27ff93244345","bdp_lott","Sun Mar 26 2023 08:35:57 GMT-0400 (Eastern Daylight Time)","202168","red","green","","130","","","","choice","","img/red_lw/choose11.jpg","2","146","red","0.5","0.1","0.5","l","",""
"animation","163","88952","0.0-5.0-2.79","60f08e2a0d6d27ff93244345","bdp_lott","Sun Mar 26 2023 08:35:57 GMT-0400 (Eastern Daylight Time)","202168","red","green","","","","","","","","","","146","","","","","","[{""stimulus"":""img/red_ll/1.jpg"",""time"":56},{""stimulus"":""img/red_ll/2.jpg"",""time"":104},{""stimulus"":""img/red_ll/3.jpg"",""time"":155},{""stimulus"":""img/red_ll/4.jpg"",""time"":205},{""stimulus"":""img/red_ll/5.jpg"",""time"":253},{""stimulus"":""img/red_ll/6.jpg"",""time"":301},{""stimulus"":""img/red_ll/7.jpg"",""time"":356},{""stimulus"":""img/red_ll/8.jpg"",""time"":404},{""stimulus"":""img/red_ll/9.jpg"",""time"":454},{""stimulus"":""img/red_ll/10.jpg"",""time"":503},{""stimulus"":""img/red_ll/11.jpg"",""time"":555}]","[]"
"image-keyboard-response","164","88998","0.0-5.0-1.80","60f08e2a0d6d27ff93244345","bdp_lott","Sun Mar 26 2023 08:35:57 GMT-0400 (Eastern Daylight Time)","202168","red","green","","45","","","","choice","","img/red_ll/choose11.jpg","2","145","red","0.5","0.1","0.5","l","",""
"animation","165","89603","0.0-5.0-2.80","60f08e2a0d6d27ff93244345","bdp_lott","Sun Mar 26 2023 08:35:57 GMT-0400 (Eastern Daylight Time)","202168","red","green","","","","","","","","","","145","","","","","","[{""stimulus"":""img/red_ll/1.jpg"",""time"":56},{""stimulus"":""img/red_ll/2.jpg"",""time"":103},{""stimulus"":""img/red_ll/3.jpg"",""time"":152},{""stimulus"":""img/red_ll/4.jpg"",""time"":205},{""stimulus"":""img/red_ll/5.jpg"",""time"":251},{""stimulus"":""img/red_ll/6.jpg"",""time"":301},{""stimulus"":""img/red_ll/7.jpg"",""time"":351},{""stimulus"":""img/red_ll/8.jpg"",""time"":402},{""stimulus"":""img/red_ll/9.jpg"",""time"":451},{""stimulus"":""img/red_ll/10.jpg"",""time"":504},{""stimulus"":""img/red_ll/11.jpg"",""time"":552}]","[]"
"image-keyboard-response","166","89662","0.0-5.0-1.81","60f08e2a0d6d27ff93244345","bdp_lott","Sun Mar 26 2023 08:35:57 GMT-0400 (Eastern Daylight Time)","202168","red","green","","59","","","","choice","","img/red_ll/choose11.jpg","2","144","red","0.5","0.1","0.5","w","",""
"animation","167","90265","0.0-5.0-2.81","60f08e2a0d6d27ff93244345","bdp_lott","Sun Mar 26 2023 08:35:57 GMT-0400 (Eastern Daylight Time)","202168","red","green","","","","","","","","","","144","","","","","","[{""stimulus"":""img/red_lw/1.jpg"",""time"":53},{""stimulus"":""img/red_lw/2.jpg"",""time"":103},{""stimulus"":""img/red_lw/3.jpg"",""time"":154},{""stimulus"":""img/red_lw/4.jpg"",""time"":202},{""stimulus"":""img/red_lw/5.jpg"",""time"":252},{""stimulus"":""img/red_lw/6.jpg"",""time"":303},{""stimulus"":""img/red_lw/7.jpg"",""time"":353},{""stimulus"":""img/red_lw/8.jpg"",""time"":405},{""stimulus"":""img/red_lw/9.jpg"",""time"":451},{""stimulus"":""img/red_lw/10.jpg"",""time"":502},{""stimulus"":""img/red_lw/11.jpg"",""time"":553}]","[]"
"image-keyboard-response","168","90328","0.0-5.0-1.82","60f08e2a0d6d27ff93244345","bdp_lott","Sun Mar 26 2023 08:35:57 GMT-0400 (Eastern Daylight Time)","202168","red","green","","63","","","","choice","","img/red_lw/choose11.jpg","2","143","red","0.5","0.1","0.5","w","",""
"animation","169","90931","0.0-5.0-2.82","60f08e2a0d6d27ff93244345","bdp_lott","Sun Mar 26 2023 08:35:57 GMT-0400 (Eastern Daylight Time)","202168","red","green","","","","","","","","","","143","","","","","","[{""stimulus"":""img/red_lw/1.jpg"",""time"":52},{""stimulus"":""img/red_lw/2.jpg"",""time"":102},{""stimulus"":""img/red_lw/3.jpg"",""time"":154},{""stimulus"":""img/red_lw/4.jpg"",""time"":202},{""stimulus"":""img/red_lw/5.jpg"",""time"":251},{""stimulus"":""img/red_lw/6.jpg"",""time"":301},{""stimulus"":""img/red_lw/7.jpg"",""time"":353},{""stimulus"":""img/red_lw/8.jpg"",""time"":401},{""stimulus"":""img/red_lw/9.jpg"",""time"":453},{""stimulus"":""img/red_lw/10.jpg"",""time"":500},{""stimulus"":""img/red_lw/11.jpg"",""time"":551}]","[]"
"image-keyboard-response","170","91134","0.0-5.0-1.83","60f08e2a0d6d27ff93244345","bdp_lott","Sun Mar 26 2023 08:35:57 GMT-0400 (Eastern Daylight Time)","202168","red","green","","203","","","","choice","","img/red_lw/choose11.jpg","2","142","red","0.5","0.1","0.5","l","",""
"animation","171","91736","0.0-5.0-2.83","60f08e2a0d6d27ff93244345","bdp_lott","Sun Mar 26 2023 08:35:57 GMT-0400 (Eastern Daylight Time)","202168","red","green","","","","","","","","","","142","","","","","","[{""stimulus"":""img/red_ll/1.jpg"",""time"":53},{""stimulus"":""img/red_ll/2.jpg"",""time"":101},{""stimulus"":""img/red_ll/3.jpg"",""time"":155},{""stimulus"":""img/red_ll/4.jpg"",""time"":204},{""stimulus"":""img/red_ll/5.jpg"",""time"":256},{""stimulus"":""img/red_ll/6.jpg"",""time"":303},{""stimulus"":""img/red_ll/7.jpg"",""time"":352},{""stimulus"":""img/red_ll/8.jpg"",""time"":403},{""stimulus"":""img/red_ll/9.jpg"",""time"":453},{""stimulus"":""img/red_ll/10.jpg"",""time"":501},{""stimulus"":""img/red_ll/11.jpg"",""time"":552}]","[]"
"image-keyboard-response","172","91795","0.0-5.0-1.84","60f08e2a0d6d27ff93244345","bdp_lott","Sun Mar 26 2023 08:35:57 GMT-0400 (Eastern Daylight Time)","202168","red","green","","59","","","","choice","","img/red_ll/choose11.jpg","2","141","red","0.5","0.1","0.5","l","",""
"animation","173","92397","0.0-5.0-2.84","60f08e2a0d6d27ff93244345","bdp_lott","Sun Mar 26 2023 08:35:57 GMT-0400 (Eastern Daylight Time)","202168","red","green","","","","","","","","","","141","","","","","","[{""stimulus"":""img/red_ll/1.jpg"",""time"":53},{""stimulus"":""img/red_ll/2.jpg"",""time"":101},{""stimulus"":""img/red_ll/3.jpg"",""time"":155},{""stimulus"":""img/red_ll/4.jpg"",""time"":203},{""stimulus"":""img/red_ll/5.jpg"",""time"":251},{""stimulus"":""img/red_ll/6.jpg"",""time"":304},{""stimulus"":""img/red_ll/7.jpg"",""time"":352},{""stimulus"":""img/red_ll/8.jpg"",""time"":405},{""stimulus"":""img/red_ll/9.jpg"",""time"":451},{""stimulus"":""img/red_ll/10.jpg"",""time"":503},{""stimulus"":""img/red_ll/11.jpg"",""time"":551}]","[]"
"image-keyboard-response","174","92451","0.0-5.0-1.85","60f08e2a0d6d27ff93244345","bdp_lott","Sun Mar 26 2023 08:35:57 GMT-0400 (Eastern Daylight Time)","202168","red","green","","53","","","","choice","","img/red_ll/choose11.jpg","2","140","red","0.5","0.1","0.5","w","",""
"animation","175","93053","0.0-5.0-2.85","60f08e2a0d6d27ff93244345","bdp_lott","Sun Mar 26 2023 08:35:57 GMT-0400 (Eastern Daylight Time)","202168","red","green","","","","","","","","","","140","","","","","","[{""stimulus"":""img/red_lw/1.jpg"",""time"":56},{""stimulus"":""img/red_lw/2.jpg"",""time"":101},{""stimulus"":""img/red_lw/3.jpg"",""time"":155},{""stimulus"":""img/red_lw/4.jpg"",""time"":206},{""stimulus"":""img/red_lw/5.jpg"",""time"":254},{""stimulus"":""img/red_lw/6.jpg"",""time"":303},{""stimulus"":""img/red_lw/7.jpg"",""time"":352},{""stimulus"":""img/red_lw/8.jpg"",""time"":405},{""stimulus"":""img/red_lw/9.jpg"",""time"":453},{""stimulus"":""img/red_lw/10.jpg"",""time"":503},{""stimulus"":""img/red_lw/11.jpg"",""time"":554}]","[]"
"image-keyboard-response","176","93151","0.0-5.0-1.86","60f08e2a0d6d27ff93244345","bdp_lott","Sun Mar 26 2023 08:35:57 GMT-0400 (Eastern Daylight Time)","202168","red","green","","97","","","","choice","","img/red_lw/choose11.jpg","2","139","red","0.5","0.1","0.5","w","",""
"animation","177","93755","0.0-5.0-2.86","60f08e2a0d6d27ff93244345","bdp_lott","Sun Mar 26 2023 08:35:57 GMT-0400 (Eastern Daylight Time)","202168","red","green","","","","","","","","","","139","","","","","","[{""stimulus"":""img/red_lw/1.jpg"",""time"":52},{""stimulus"":""img/red_lw/2.jpg"",""time"":100},{""stimulus"":""img/red_lw/3.jpg"",""time"":153},{""stimulus"":""img/red_lw/4.jpg"",""time"":201},{""stimulus"":""img/red_lw/5.jpg"",""time"":255},{""stimulus"":""img/red_lw/6.jpg"",""time"":303},{""stimulus"":""img/red_lw/7.jpg"",""time"":351},{""stimulus"":""img/red_lw/8.jpg"",""time"":404},{""stimulus"":""img/red_lw/9.jpg"",""time"":452},{""stimulus"":""img/red_lw/10.jpg"",""time"":501},{""stimulus"":""img/red_lw/11.jpg"",""time"":553}]","[]"
"image-keyboard-response","178","93863","0.0-5.0-1.87","60f08e2a0d6d27ff93244345","bdp_lott","Sun Mar 26 2023 08:35:57 GMT-0400 (Eastern Daylight Time)","202168","red","green","","108","","","","choice","","img/red_lw/choose11.jpg","2","138","red","0.5","0.1","0.5","w","",""
"animation","179","94468","0.0-5.0-2.87","60f08e2a0d6d27ff93244345","bdp_lott","Sun Mar 26 2023 08:35:57 GMT-0400 (Eastern Daylight Time)","202168","red","green","","","","","","","","","","138","","","","","","[{""stimulus"":""img/red_lw/1.jpg"",""time"":55},{""stimulus"":""img/red_lw/2.jpg"",""time"":105},{""stimulus"":""img/red_lw/3.jpg"",""time"":152},{""stimulus"":""img/red_lw/4.jpg"",""time"":205},{""stimulus"":""img/red_lw/5.jpg"",""time"":253},{""stimulus"":""img/red_lw/6.jpg"",""time"":305},{""stimulus"":""img/red_lw/7.jpg"",""time"":351},{""stimulus"":""img/red_lw/8.jpg"",""time"":402},{""stimulus"":""img/red_lw/9.jpg"",""time"":452},{""stimulus"":""img/red_lw/10.jpg"",""time"":502},{""stimulus"":""img/red_lw/11.jpg"",""time"":551}]","[]"
"image-keyboard-response","180","94567","0.0-5.0-1.88","60f08e2a0d6d27ff93244345","bdp_lott","Sun Mar 26 2023 08:35:57 GMT-0400 (Eastern Daylight Time)","202168","red","green","","98","","","","choice","","img/red_lw/choose11.jpg","2","137","red","0.5","0.1","0.5","w","",""
"animation","181","95172","0.0-5.0-2.88","60f08e2a0d6d27ff93244345","bdp_lott","Sun Mar 26 2023 08:35:57 GMT-0400 (Eastern Daylight Time)","202168","red","green","","","","","","","","","","137","","","","","","[{""stimulus"":""img/red_lw/1.jpg"",""time"":51},{""stimulus"":""img/red_lw/2.jpg"",""time"":103},{""stimulus"":""img/red_lw/3.jpg"",""time"":153},{""stimulus"":""img/red_lw/4.jpg"",""time"":204},{""stimulus"":""img/red_lw/5.jpg"",""time"":252},{""stimulus"":""img/red_lw/6.jpg"",""time"":301},{""stimulus"":""img/red_lw/7.jpg"",""time"":351},{""stimulus"":""img/red_lw/8.jpg"",""time"":402},{""stimulus"":""img/red_lw/9.jpg"",""time"":453},{""stimulus"":""img/red_lw/10.jpg"",""time"":505},{""stimulus"":""img/red_lw/11.jpg"",""time"":552}]","[]"
"image-keyboard-response","182","95280","0.0-5.0-1.89","60f08e2a0d6d27ff93244345","bdp_lott","Sun Mar 26 2023 08:35:57 GMT-0400 (Eastern Daylight Time)","202168","red","green","","108","","","","choice","","img/red_lw/choose11.jpg","2","136","red","0.5","0.1","0.5","w","",""
"animation","183","95881","0.0-5.0-2.89","60f08e2a0d6d27ff93244345","bdp_lott","Sun Mar 26 2023 08:35:57 GMT-0400 (Eastern Daylight Time)","202168","red","green","","","","","","","","","","136","","","","","","[{""stimulus"":""img/red_lw/1.jpg"",""time"":51},{""stimulus"":""img/red_lw/2.jpg"",""time"":103},{""stimulus"":""img/red_lw/3.jpg"",""time"":152},{""stimulus"":""img/red_lw/4.jpg"",""time"":204},{""stimulus"":""img/red_lw/5.jpg"",""time"":250},{""stimulus"":""img/red_lw/6.jpg"",""time"":305},{""stimulus"":""img/red_lw/7.jpg"",""time"":351},{""stimulus"":""img/red_lw/8.jpg"",""time"":403},{""stimulus"":""img/red_lw/9.jpg"",""time"":451},{""stimulus"":""img/red_lw/10.jpg"",""time"":504},{""stimulus"":""img/red_lw/11.jpg"",""time"":552}]","[]"
"image-keyboard-response","184","95983","0.0-5.0-1.90","60f08e2a0d6d27ff93244345","bdp_lott","Sun Mar 26 2023 08:35:57 GMT-0400 (Eastern Daylight Time)","202168","red","green","","101","","","","choice","","img/red_lw/choose11.jpg","2","135","red","0.5","0.1","0.5","w","",""
"animation","185","96585","0.0-5.0-2.90","60f08e2a0d6d27ff93244345","bdp_lott","Sun Mar 26 2023 08:35:57 GMT-0400 (Eastern Daylight Time)","202168","red","green","","","","","","","","","","135","","","","","","[{""stimulus"":""img/red_lw/1.jpg"",""time"":52},{""stimulus"":""img/red_lw/2.jpg"",""time"":103},{""stimulus"":""img/red_lw/3.jpg"",""time"":152},{""stimulus"":""img/red_lw/4.jpg"",""time"":200},{""stimulus"":""img/red_lw/5.jpg"",""time"":253},{""stimulus"":""img/red_lw/6.jpg"",""time"":302},{""stimulus"":""img/red_lw/7.jpg"",""time"":353},{""stimulus"":""img/red_lw/8.jpg"",""time"":405},{""stimulus"":""img/red_lw/9.jpg"",""time"":451},{""stimulus"":""img/red_lw/10.jpg"",""time"":504},{""stimulus"":""img/red_lw/11.jpg"",""time"":552}]","[]"
"image-keyboard-response","186","97268","0.0-5.0-1.91","60f08e2a0d6d27ff93244345","bdp_lott","Sun Mar 26 2023 08:35:57 GMT-0400 (Eastern Daylight Time)","202168","red","green","","682","","","","choice","","img/red_lw/choose11.jpg","1","134","green","0.5","0.1","0.1","l","",""
"animation","187","97869","0.0-5.0-2.91","60f08e2a0d6d27ff93244345","bdp_lott","Sun Mar 26 2023 08:35:57 GMT-0400 (Eastern Daylight Time)","202168","red","green","","","","","","","","","","134","","","","","","[{""stimulus"":""img/green_lw/1.jpg"",""time"":52},{""stimulus"":""img/green_lw/2.jpg"",""time"":104},{""stimulus"":""img/green_lw/3.jpg"",""time"":150},{""stimulus"":""img/green_lw/4.jpg"",""time"":204},{""stimulus"":""img/green_lw/5.jpg"",""time"":252},{""stimulus"":""img/green_lw/6.jpg"",""time"":305},{""stimulus"":""img/green_lw/7.jpg"",""time"":350},{""stimulus"":""img/green_lw/8.jpg"",""time"":403},{""stimulus"":""img/green_lw/9.jpg"",""time"":451},{""stimulus"":""img/green_lw/10.jpg"",""time"":505},{""stimulus"":""img/green_lw/11.jpg"",""time"":550}]","[]"
"image-keyboard-response","188","97895","0.0-5.0-1.92","60f08e2a0d6d27ff93244345","bdp_lott","Sun Mar 26 2023 08:35:57 GMT-0400 (Eastern Daylight Time)","202168","red","green","","25","","","","choice","","img/green_lw/choose11.jpg","1","133","green","0.5","0.1","0.1","l","",""
"animation","189","98499","0.0-5.0-2.92","60f08e2a0d6d27ff93244345","bdp_lott","Sun Mar 26 2023 08:35:57 GMT-0400 (Eastern Daylight Time)","202168","red","green","","","","","","","","","","133","","","","","","[{""stimulus"":""img/green_lw/1.jpg"",""time"":54},{""stimulus"":""img/green_lw/2.jpg"",""time"":105},{""stimulus"":""img/green_lw/3.jpg"",""time"":151},{""stimulus"":""img/green_lw/4.jpg"",""time"":204},{""stimulus"":""img/green_lw/5.jpg"",""time"":251},{""stimulus"":""img/green_lw/6.jpg"",""time"":305},{""stimulus"":""img/green_lw/7.jpg"",""time"":351},{""stimulus"":""img/green_lw/8.jpg"",""time"":403},{""stimulus"":""img/green_lw/9.jpg"",""time"":454},{""stimulus"":""img/green_lw/10.jpg"",""time"":502},{""stimulus"":""img/green_lw/11.jpg"",""time"":553}]","[]"
"image-keyboard-response","190","98722","0.0-5.0-1.93","60f08e2a0d6d27ff93244345","bdp_lott","Sun Mar 26 2023 08:35:57 GMT-0400 (Eastern Daylight Time)","202168","red","green","","223","","","","choice","","img/green_lw/choose11.jpg","1","132","green","0.5","0.1","0.1","l","",""
