"event","trial","time","trialtype","subject_id","task","startTime","totalTime","fairMachine","unfairMachine","trial_type","trial_index","time_elapsed","internal_node_id","view_history","rt","success","stimulus","key_press","roundsLeft","chosen","pFairMachWin","pUnfairMachWin","pTrialWin","outcome","animation_sequence","responses"
"focus","0","0","focusevent","63ed12d2c25b08ba24fe8a41","bdp_lott","Fri Mar 24 2023 21:03:32 GMT-0700 (Pacific Daylight Time)","352735","red","green","","","","","","","","","","","","","","","","",""
"focus","0","0","focusevent","63ed12d2c25b08ba24fe8a41","bdp_lott","Fri Mar 24 2023 21:03:32 GMT-0700 (Pacific Daylight Time)","352735","red","green","","","","","","","","","","","","","","","","",""
"","","","","63ed12d2c25b08ba24fe8a41","bdp_lott","Fri Mar 24 2023 21:03:32 GMT-0700 (Pacific Daylight Time)","352735","red","green","pavlovia","0","3","0.0-0.0","","","","","","","","","","","","",""
"","","","","63ed12d2c25b08ba24fe8a41","bdp_lott","Fri Mar 24 2023 21:03:32 GMT-0700 (Pacific Daylight Time)","352735","red","green","instructions","1","3311","0.0-1.0","[{""page_index"":0,""viewing_time"":3307}]","3308","","","","","","","","","","",""
"fullscreenenter","2","4948","fullscreenenter","63ed12d2c25b08ba24fe8a41","bdp_lott","Fri Mar 24 2023 21:03:32 GMT-0700 (Pacific Daylight Time)","352735","red","green","","","","","","","","","","","","","","","","",""
"","","","","63ed12d2c25b08ba24fe8a41","bdp_lott","Fri Mar 24 2023 21:03:32 GMT-0700 (Pacific Daylight Time)","352735","red","green","fullscreen","2","5938","0.0-2.0","","","true","","","","","","","","","",""
"","","","","63ed12d2c25b08ba24fe8a41","bdp_lott","Fri Mar 24 2023 21:03:32 GMT-0700 (Pacific Daylight Time)","352735","red","green","instructions","3","46378","0.0-4.0","[{""page_index"":0,""viewing_time"":40439}]","40439","","","","","","","","","","",""
"","","","choice","63ed12d2c25b08ba24fe8a41","bdp_lott","Fri Mar 24 2023 21:03:32 GMT-0700 (Pacific Daylight Time)","352735","red","green","image-keyboard-response","4","54103","0.0-5.0-1.0","","7723","","img/red_ll/initchoose11.jpg","1","225","green","0.5","0.5","0.5","l","",""
"","","","","63ed12d2c25b08ba24fe8a41","bdp_lott","Fri Mar 24 2023 21:03:32 GMT-0700 (Pacific Daylight Time)","352735","red","green","animation","5","54705","0.0-5.0-2.0","","","","","","225","","","","","","[{""stimulus"":""img/green_ll/1.jpg"",""time"":64},{""stimulus"":""img/green_ll/2.jpg"",""time"":102},{""stimulus"":""img/green_ll/3.jpg"",""time"":151},{""stimulus"":""img/green_ll/4.jpg"",""time"":204},{""stimulus"":""img/green_ll/5.jpg"",""time"":273},{""stimulus"":""img/green_ll/6.jpg"",""time"":302},{""stimulus"":""img/green_ll/7.jpg"",""time"":351},{""stimulus"":""img/green_ll/8.jpg"",""time"":401},{""stimulus"":""img/green_ll/9.jpg"",""time"":451},{""stimulus"":""img/green_ll/10.jpg"",""time"":501},{""stimulus"":""img/green_ll/11.jpg"",""time"":551}]","[]"
"","","","choice","63ed12d2c25b08ba24fe8a41","bdp_lott","Fri Mar 24 2023 21:03:32 GMT-0700 (Pacific Daylight Time)","352735","red","green","image-keyboard-response","6","56825","0.0-5.0-1.1","","2119","","img/green_ll/choose11.jpg","1","224","green","0.5","0.5","0.5","w","",""
"","","","","63ed12d2c25b08ba24fe8a41","bdp_lott","Fri Mar 24 2023 21:03:32 GMT-0700 (Pacific Daylight Time)","352735","red","green","animation","7","57427","0.0-5.0-2.1","","","","","","224","","","","","","[{""stimulus"":""img/green_wl/1.jpg"",""time"":58},{""stimulus"":""img/green_wl/2.jpg"",""time"":107},{""stimulus"":""img/green_wl/3.jpg"",""time"":153},{""stimulus"":""img/green_wl/4.jpg"",""time"":209},{""stimulus"":""img/green_wl/5.jpg"",""time"":253},{""stimulus"":""img/green_wl/6.jpg"",""time"":309},{""stimulus"":""img/green_wl/7.jpg"",""time"":357},{""stimulus"":""img/green_wl/8.jpg"",""time"":403},{""stimulus"":""img/green_wl/9.jpg"",""time"":459},{""stimulus"":""img/green_wl/10.jpg"",""time"":503},{""stimulus"":""img/green_wl/11.jpg"",""time"":559}]","[]"
"","","","choice","63ed12d2c25b08ba24fe8a41","bdp_lott","Fri Mar 24 2023 21:03:32 GMT-0700 (Pacific Daylight Time)","352735","red","green","image-keyboard-response","8","58844","0.0-5.0-1.2","","1416","","img/green_wl/choose11.jpg","2","223","red","0.5","0.5","0.5","w","",""
"","","","","63ed12d2c25b08ba24fe8a41","bdp_lott","Fri Mar 24 2023 21:03:32 GMT-0700 (Pacific Daylight Time)","352735","red","green","animation","9","59451","0.0-5.0-2.2","","","","","","223","","","","","","[{""stimulus"":""img/red_ww/1.jpg"",""time"":56},{""stimulus"":""img/red_ww/2.jpg"",""time"":108},{""stimulus"":""img/red_ww/3.jpg"",""time"":156},{""stimulus"":""img/red_ww/4.jpg"",""time"":208},{""stimulus"":""img/red_ww/5.jpg"",""time"":259},{""stimulus"":""img/red_ww/6.jpg"",""time"":307},{""stimulus"":""img/red_ww/7.jpg"",""time"":355},{""stimulus"":""img/red_ww/8.jpg"",""time"":407},{""stimulus"":""img/red_ww/9.jpg"",""time"":459},{""stimulus"":""img/red_ww/10.jpg"",""time"":501},{""stimulus"":""img/red_ww/11.jpg"",""time"":556}]","[]"
"","","","choice","63ed12d2c25b08ba24fe8a41","bdp_lott","Fri Mar 24 2023 21:03:32 GMT-0700 (Pacific Daylight Time)","352735","red","green","image-keyboard-response","10","61200","0.0-5.0-1.3","","1748","","img/red_ww/choose11.jpg","2","222","red","0.5","0.5","0.5","l","",""
"","","","","63ed12d2c25b08ba24fe8a41","bdp_lott","Fri Mar 24 2023 21:03:32 GMT-0700 (Pacific Daylight Time)","352735","red","green","animation","11","61807","0.0-5.0-2.3","","","","","","222","","","","","","[{""stimulus"":""img/red_wl/1.jpg"",""time"":64},{""stimulus"":""img/red_wl/2.jpg"",""time"":108},{""stimulus"":""img/red_wl/3.jpg"",""time"":165},{""stimulus"":""img/red_wl/4.jpg"",""time"":205},{""stimulus"":""img/red_wl/5.jpg"",""time"":254},{""stimulus"":""img/red_wl/6.jpg"",""time"":310},{""stimulus"":""img/red_wl/7.jpg"",""time"":357},{""stimulus"":""img/red_wl/8.jpg"",""time"":407},{""stimulus"":""img/red_wl/9.jpg"",""time"":465},{""stimulus"":""img/red_wl/10.jpg"",""time"":507},{""stimulus"":""img/red_wl/11.jpg"",""time"":563}]","[]"
"","","","choice","63ed12d2c25b08ba24fe8a41","bdp_lott","Fri Mar 24 2023 21:03:32 GMT-0700 (Pacific Daylight Time)","352735","red","green","image-keyboard-response","12","63165","0.0-5.0-1.4","","1357","","img/red_wl/choose11.jpg","2","221","red","0.5","0.5","0.5","w","",""
"","","","","63ed12d2c25b08ba24fe8a41","bdp_lott","Fri Mar 24 2023 21:03:32 GMT-0700 (Pacific Daylight Time)","352735","red","green","animation","13","63768","0.0-5.0-2.4","","","","","","221","","","","","","[{""stimulus"":""img/red_ww/1.jpg"",""time"":64},{""stimulus"":""img/red_ww/2.jpg"",""time"":107},{""stimulus"":""img/red_ww/3.jpg"",""time"":171},{""stimulus"":""img/red_ww/4.jpg"",""time"":207},{""stimulus"":""img/red_ww/5.jpg"",""time"":255},{""stimulus"":""img/red_ww/6.jpg"",""time"":306},{""stimulus"":""img/red_ww/7.jpg"",""time"":363},{""stimulus"":""img/red_ww/8.jpg"",""time"":406},{""stimulus"":""img/red_ww/9.jpg"",""time"":456},{""stimulus"":""img/red_ww/10.jpg"",""time"":506},{""stimulus"":""img/red_ww/11.jpg"",""time"":554}]","[]"
"","","","choice","63ed12d2c25b08ba24fe8a41","bdp_lott","Fri Mar 24 2023 21:03:32 GMT-0700 (Pacific Daylight Time)","352735","red","green","image-keyboard-response","14","64431","0.0-5.0-1.5","","662","","img/red_ww/choose11.jpg","1","220","green","0.5","0.5","0.5","w","",""
"","","","","63ed12d2c25b08ba24fe8a41","bdp_lott","Fri Mar 24 2023 21:03:32 GMT-0700 (Pacific Daylight Time)","352735","red","green","animation","15","65037","0.0-5.0-2.5","","","","","","220","","","","","","[{""stimulus"":""img/green_ww/1.jpg"",""time"":61},{""stimulus"":""img/green_ww/2.jpg"",""time"":111},{""stimulus"":""img/green_ww/3.jpg"",""time"":158},{""stimulus"":""img/green_ww/4.jpg"",""time"":215},{""stimulus"":""img/green_ww/5.jpg"",""time"":257},{""stimulus"":""img/green_ww/6.jpg"",""time"":315},{""stimulus"":""img/green_ww/7.jpg"",""time"":363},{""stimulus"":""img/green_ww/8.jpg"",""time"":412},{""stimulus"":""img/green_ww/9.jpg"",""time"":457},{""stimulus"":""img/green_ww/10.jpg"",""time"":507},{""stimulus"":""img/green_ww/11.jpg"",""time"":556}]","[]"
"","","","choice","63ed12d2c25b08ba24fe8a41","bdp_lott","Fri Mar 24 2023 21:03:32 GMT-0700 (Pacific Daylight Time)","352735","red","green","image-keyboard-response","16","65947","0.0-5.0-1.6","","909","","img/green_ww/choose11.jpg","1","219","green","0.5","0.5","0.5","w","",""
"","","","","63ed12d2c25b08ba24fe8a41","bdp_lott","Fri Mar 24 2023 21:03:32 GMT-0700 (Pacific Daylight Time)","352735","red","green","animation","17","66555","0.0-5.0-2.6","","","","","","219","","","","","","[{""stimulus"":""img/green_ww/1.jpg"",""time"":57},{""stimulus"":""img/green_ww/2.jpg"",""time"":106},{""stimulus"":""img/green_ww/3.jpg"",""time"":155},{""stimulus"":""img/green_ww/4.jpg"",""time"":205},{""stimulus"":""img/green_ww/5.jpg"",""time"":255},{""stimulus"":""img/green_ww/6.jpg"",""time"":305},{""stimulus"":""img/green_ww/7.jpg"",""time"":355},{""stimulus"":""img/green_ww/8.jpg"",""time"":406},{""stimulus"":""img/green_ww/9.jpg"",""time"":455},{""stimulus"":""img/green_ww/10.jpg"",""time"":514},{""stimulus"":""img/green_ww/11.jpg"",""time"":562}]","[]"
"","","","choice","63ed12d2c25b08ba24fe8a41","bdp_lott","Fri Mar 24 2023 21:03:32 GMT-0700 (Pacific Daylight Time)","352735","red","green","image-keyboard-response","18","67522","0.0-5.0-1.7","","966","","img/green_ww/choose11.jpg","2","218","red","0.5","0.5","0.5","w","",""
"","","","","63ed12d2c25b08ba24fe8a41","bdp_lott","Fri Mar 24 2023 21:03:32 GMT-0700 (Pacific Daylight Time)","352735","red","green","animation","19","68126","0.0-5.0-2.7","","","","","","218","","","","","","[{""stimulus"":""img/red_ww/1.jpg"",""time"":65},{""stimulus"":""img/red_ww/2.jpg"",""time"":105},{""stimulus"":""img/red_ww/3.jpg"",""time"":153},{""stimulus"":""img/red_ww/4.jpg"",""time"":225},{""stimulus"":""img/red_ww/5.jpg"",""time"":255},{""stimulus"":""img/red_ww/6.jpg"",""time"":305},{""stimulus"":""img/red_ww/7.jpg"",""time"":354},{""stimulus"":""img/red_ww/8.jpg"",""time"":405},{""stimulus"":""img/red_ww/9.jpg"",""time"":458},{""stimulus"":""img/red_ww/10.jpg"",""time"":504},{""stimulus"":""img/red_ww/11.jpg"",""time"":571}]","[]"
"","","","choice","63ed12d2c25b08ba24fe8a41","bdp_lott","Fri Mar 24 2023 21:03:32 GMT-0700 (Pacific Daylight Time)","352735","red","green","image-keyboard-response","20","68947","0.0-5.0-1.8","","820","","img/red_ww/choose11.jpg","1","217","green","0.5","0.5","0.5","w","",""
"","","","","63ed12d2c25b08ba24fe8a41","bdp_lott","Fri Mar 24 2023 21:03:32 GMT-0700 (Pacific Daylight Time)","352735","red","green","animation","21","69551","0.0-5.0-2.8","","","","","","217","","","","","","[{""stimulus"":""img/green_ww/1.jpg"",""time"":60},{""stimulus"":""img/green_ww/2.jpg"",""time"":108},{""stimulus"":""img/green_ww/3.jpg"",""time"":154},{""stimulus"":""img/green_ww/4.jpg"",""time"":211},{""stimulus"":""img/green_ww/5.jpg"",""time"":252},{""stimulus"":""img/green_ww/6.jpg"",""time"":302},{""stimulus"":""img/green_ww/7.jpg"",""time"":358},{""stimulus"":""img/green_ww/8.jpg"",""time"":410},{""stimulus"":""img/green_ww/9.jpg"",""time"":461},{""stimulus"":""img/green_ww/10.jpg"",""time"":502},{""stimulus"":""img/green_ww/11.jpg"",""time"":551}]","[]"
"","","","choice","63ed12d2c25b08ba24fe8a41","bdp_lott","Fri Mar 24 2023 21:03:32 GMT-0700 (Pacific Daylight Time)","352735","red","green","image-keyboard-response","22","70731","0.0-5.0-1.9","","1180","","img/green_ww/choose11.jpg","1","216","green","0.5","0.5","0.5","w","",""
"","","","","63ed12d2c25b08ba24fe8a41","bdp_lott","Fri Mar 24 2023 21:03:32 GMT-0700 (Pacific Daylight Time)","352735","red","green","animation","23","71332","0.0-5.0-2.9","","","","","","216","","","","","","[{""stimulus"":""img/green_ww/1.jpg"",""time"":56},{""stimulus"":""img/green_ww/2.jpg"",""time"":109},{""stimulus"":""img/green_ww/3.jpg"",""time"":156},{""stimulus"":""img/green_ww/4.jpg"",""time"":201},{""stimulus"":""img/green_ww/5.jpg"",""time"":257},{""stimulus"":""img/green_ww/6.jpg"",""time"":315},{""stimulus"":""img/green_ww/7.jpg"",""time"":351},{""stimulus"":""img/green_ww/8.jpg"",""time"":402},{""stimulus"":""img/green_ww/9.jpg"",""time"":451},{""stimulus"":""img/green_ww/10.jpg"",""time"":502},{""stimulus"":""img/green_ww/11.jpg"",""time"":558}]","[]"
"","","","choice","63ed12d2c25b08ba24fe8a41","bdp_lott","Fri Mar 24 2023 21:03:32 GMT-0700 (Pacific Daylight Time)","352735","red","green","image-keyboard-response","24","71988","0.0-5.0-1.10","","656","","img/green_ww/choose11.jpg","2","215","red","0.5","0.5","0.5","w","",""
"","","","","63ed12d2c25b08ba24fe8a41","bdp_lott","Fri Mar 24 2023 21:03:32 GMT-0700 (Pacific Daylight Time)","352735","red","green","animation","25","72590","0.0-5.0-2.10","","","","","","215","","","","","","[{""stimulus"":""img/red_ww/1.jpg"",""time"":65},{""stimulus"":""img/red_ww/2.jpg"",""time"":109},{""stimulus"":""img/red_ww/3.jpg"",""time"":151},{""stimulus"":""img/red_ww/4.jpg"",""time"":201},{""stimulus"":""img/red_ww/5.jpg"",""time"":251},{""stimulus"":""img/red_ww/6.jpg"",""time"":302},{""stimulus"":""img/red_ww/7.jpg"",""time"":351},{""stimulus"":""img/red_ww/8.jpg"",""time"":401},{""stimulus"":""img/red_ww/9.jpg"",""time"":451},{""stimulus"":""img/red_ww/10.jpg"",""time"":501},{""stimulus"":""img/red_ww/11.jpg"",""time"":551}]","[]"
"","","","choice","63ed12d2c25b08ba24fe8a41","bdp_lott","Fri Mar 24 2023 21:03:32 GMT-0700 (Pacific Daylight Time)","352735","red","green","image-keyboard-response","26","73257","0.0-5.0-1.11","","667","","img/red_ww/choose11.jpg","2","214","red","0.5","0.5","0.5","l","",""
"","","","","63ed12d2c25b08ba24fe8a41","bdp_lott","Fri Mar 24 2023 21:03:32 GMT-0700 (Pacific Daylight Time)","352735","red","green","animation","27","73862","0.0-5.0-2.11","","","","","","214","","","","","","[{""stimulus"":""img/red_wl/1.jpg"",""time"":63},{""stimulus"":""img/red_wl/2.jpg"",""time"":107},{""stimulus"":""img/red_wl/3.jpg"",""time"":157},{""stimulus"":""img/red_wl/4.jpg"",""time"":211},{""stimulus"":""img/red_wl/5.jpg"",""time"":257},{""stimulus"":""img/red_wl/6.jpg"",""time"":313},{""stimulus"":""img/red_wl/7.jpg"",""time"":357},{""stimulus"":""img/red_wl/8.jpg"",""time"":406},{""stimulus"":""img/red_wl/9.jpg"",""time"":456},{""stimulus"":""img/red_wl/10.jpg"",""time"":513},{""stimulus"":""img/red_wl/11.jpg"",""time"":557}]","[]"
"","","","choice","63ed12d2c25b08ba24fe8a41","bdp_lott","Fri Mar 24 2023 21:03:32 GMT-0700 (Pacific Daylight Time)","352735","red","green","image-keyboard-response","28","74393","0.0-5.0-1.12","","530","","img/red_wl/choose11.jpg","1","213","green","0.5","0.5","0.5","l","",""
"","","","","63ed12d2c25b08ba24fe8a41","bdp_lott","Fri Mar 24 2023 21:03:32 GMT-0700 (Pacific Daylight Time)","352735","red","green","animation","29","74995","0.0-5.0-2.12","","","","","","213","","","","","","[{""stimulus"":""img/green_ll/1.jpg"",""time"":52},{""stimulus"":""img/green_ll/2.jpg"",""time"":110},{""stimulus"":""img/green_ll/3.jpg"",""time"":152},{""stimulus"":""img/green_ll/4.jpg"",""time"":210},{""stimulus"":""img/green_ll/5.jpg"",""time"":252},{""stimulus"":""img/green_ll/6.jpg"",""time"":310},{""stimulus"":""img/green_ll/7.jpg"",""time"":360},{""stimulus"":""img/green_ll/8.jpg"",""time"":402},{""stimulus"":""img/green_ll/9.jpg"",""time"":451},{""stimulus"":""img/green_ll/10.jpg"",""time"":501},{""stimulus"":""img/green_ll/11.jpg"",""time"":552}]","[]"
"","","","choice","63ed12d2c25b08ba24fe8a41","bdp_lott","Fri Mar 24 2023 21:03:32 GMT-0700 (Pacific Daylight Time)","352735","red","green","image-keyboard-response","30","75591","0.0-5.0-1.13","","595","","img/green_ll/choose11.jpg","1","212","green","0.5","0.5","0.5","w","",""
"","","","","63ed12d2c25b08ba24fe8a41","bdp_lott","Fri Mar 24 2023 21:03:32 GMT-0700 (Pacific Daylight Time)","352735","red","green","animation","31","76201","0.0-5.0-2.13","","","","","","212","","","","","","[{""stimulus"":""img/green_wl/1.jpg"",""time"":57},{""stimulus"":""img/green_wl/2.jpg"",""time"":105},{""stimulus"":""img/green_wl/3.jpg"",""time"":154},{""stimulus"":""img/green_wl/4.jpg"",""time"":210},{""stimulus"":""img/green_wl/5.jpg"",""time"":254},{""stimulus"":""img/green_wl/6.jpg"",""time"":304},{""stimulus"":""img/green_wl/7.jpg"",""time"":354},{""stimulus"":""img/green_wl/8.jpg"",""time"":411},{""stimulus"":""img/green_wl/9.jpg"",""time"":453},{""stimulus"":""img/green_wl/10.jpg"",""time"":511},{""stimulus"":""img/green_wl/11.jpg"",""time"":554}]","[]"
"","","","choice","63ed12d2c25b08ba24fe8a41","bdp_lott","Fri Mar 24 2023 21:03:32 GMT-0700 (Pacific Daylight Time)","352735","red","green","image-keyboard-response","32","76882","0.0-5.0-1.14","","681","","img/green_wl/choose11.jpg","2","211","red","0.5","0.5","0.5","w","",""
"","","","","63ed12d2c25b08ba24fe8a41","bdp_lott","Fri Mar 24 2023 21:03:32 GMT-0700 (Pacific Daylight Time)","352735","red","green","animation","33","77484","0.0-5.0-2.14","","","","","","211","","","","","","[{""stimulus"":""img/red_ww/1.jpg"",""time"":62},{""stimulus"":""img/red_ww/2.jpg"",""time"":102},{""stimulus"":""img/red_ww/3.jpg"",""time"":174},{""stimulus"":""img/red_ww/4.jpg"",""time"":203},{""stimulus"":""img/red_ww/5.jpg"",""time"":255},{""stimulus"":""img/red_ww/6.jpg"",""time"":303},{""stimulus"":""img/red_ww/7.jpg"",""time"":351},{""stimulus"":""img/red_ww/8.jpg"",""time"":402},{""stimulus"":""img/red_ww/9.jpg"",""time"":450},{""stimulus"":""img/red_ww/10.jpg"",""time"":502},{""stimulus"":""img/red_ww/11.jpg"",""time"":558}]","[]"
"","","","choice","63ed12d2c25b08ba24fe8a41","bdp_lott","Fri Mar 24 2023 21:03:32 GMT-0700 (Pacific Daylight Time)","352735","red","green","image-keyboard-response","34","78076","0.0-5.0-1.15","","591","","img/red_ww/choose11.jpg","2","210","red","0.5","0.5","0.5","w","",""
"","","","","63ed12d2c25b08ba24fe8a41","bdp_lott","Fri Mar 24 2023 21:03:32 GMT-0700 (Pacific Daylight Time)","352735","red","green","animation","35","78684","0.0-5.0-2.15","","","","","","210","","","","","","[{""stimulus"":""img/red_ww/1.jpg"",""time"":57},{""stimulus"":""img/red_ww/2.jpg"",""time"":109},{""stimulus"":""img/red_ww/3.jpg"",""time"":157},{""stimulus"":""img/red_ww/4.jpg"",""time"":201},{""stimulus"":""img/red_ww/5.jpg"",""time"":258},{""stimulus"":""img/red_ww/6.jpg"",""time"":308},{""stimulus"":""img/red_ww/7.jpg"",""time"":358},{""stimulus"":""img/red_ww/8.jpg"",""time"":408},{""stimulus"":""img/red_ww/9.jpg"",""time"":458},{""stimulus"":""img/red_ww/10.jpg"",""time"":508},{""stimulus"":""img/red_ww/11.jpg"",""time"":557}]","[]"
"","","","choice","63ed12d2c25b08ba24fe8a41","bdp_lott","Fri Mar 24 2023 21:03:32 GMT-0700 (Pacific Daylight Time)","352735","red","green","image-keyboard-response","36","79438","0.0-5.0-1.16","","754","","img/red_ww/choose11.jpg","1","209","green","0.5","0.5","0.5","l","",""
"","","","","63ed12d2c25b08ba24fe8a41","bdp_lott","Fri Mar 24 2023 21:03:32 GMT-0700 (Pacific Daylight Time)","352735","red","green","animation","37","80041","0.0-5.0-2.16","","","","","","209","","","","","","[{""stimulus"":""img/green_lw/1.jpg"",""time"":57},{""stimulus"":""img/green_lw/2.jpg"",""time"":111},{""stimulus"":""img/green_lw/3.jpg"",""time"":151},{""stimulus"":""img/green_lw/4.jpg"",""time"":203},{""stimulus"":""img/green_lw/5.jpg"",""time"":252},{""stimulus"":""img/green_lw/6.jpg"",""time"":311},{""stimulus"":""img/green_lw/7.jpg"",""time"":352},{""stimulus"":""img/green_lw/8.jpg"",""time"":403},{""stimulus"":""img/green_lw/9.jpg"",""time"":459},{""stimulus"":""img/green_lw/10.jpg"",""time"":502},{""stimulus"":""img/green_lw/11.jpg"",""time"":551}]","[]"
"","","","choice","63ed12d2c25b08ba24fe8a41","bdp_lott","Fri Mar 24 2023 21:03:32 GMT-0700 (Pacific Daylight Time)","352735","red","green","image-keyboard-response","38","80884","0.0-5.0-1.17","","842","","img/green_lw/choose11.jpg","1","208","green","0.5","0.5","0.5","l","",""
"","","","","63ed12d2c25b08ba24fe8a41","bdp_lott","Fri Mar 24 2023 21:03:32 GMT-0700 (Pacific Daylight Time)","352735","red","green","animation","39","81491","0.0-5.0-2.17","","","","","","208","","","","","","[{""stimulus"":""img/green_lw/1.jpg"",""time"":58},{""stimulus"":""img/green_lw/2.jpg"",""time"":104},{""stimulus"":""img/green_lw/3.jpg"",""time"":165},{""stimulus"":""img/green_lw/4.jpg"",""time"":206},{""stimulus"":""img/green_lw/5.jpg"",""time"":251},{""stimulus"":""img/green_lw/6.jpg"",""time"":303},{""stimulus"":""img/green_lw/7.jpg"",""time"":356},{""stimulus"":""img/green_lw/8.jpg"",""time"":414},{""stimulus"":""img/green_lw/9.jpg"",""time"":456},{""stimulus"":""img/green_lw/10.jpg"",""time"":505},{""stimulus"":""img/green_lw/11.jpg"",""time"":561}]","[]"
"","","","choice","63ed12d2c25b08ba24fe8a41","bdp_lott","Fri Mar 24 2023 21:03:32 GMT-0700 (Pacific Daylight Time)","352735","red","green","image-keyboard-response","40","82173","0.0-5.0-1.18","","682","","img/green_lw/choose11.jpg","1","207","green","0.5","0.5","0.5","l","",""
"","","","","63ed12d2c25b08ba24fe8a41","bdp_lott","Fri Mar 24 2023 21:03:32 GMT-0700 (Pacific Daylight Time)","352735","red","green","animation","41","82779","0.0-5.0-2.18","","","","","","207","","","","","","[{""stimulus"":""img/green_lw/1.jpg"",""time"":56},{""stimulus"":""img/green_lw/2.jpg"",""time"":107},{""stimulus"":""img/green_lw/3.jpg"",""time"":157},{""stimulus"":""img/green_lw/4.jpg"",""time"":207},{""stimulus"":""img/green_lw/5.jpg"",""time"":256},{""stimulus"":""img/green_lw/6.jpg"",""time"":307},{""stimulus"":""img/green_lw/7.jpg"",""time"":350},{""stimulus"":""img/green_lw/8.jpg"",""time"":400},{""stimulus"":""img/green_lw/9.jpg"",""time"":450},{""stimulus"":""img/green_lw/10.jpg"",""time"":506},{""stimulus"":""img/green_lw/11.jpg"",""time"":554}]","[]"
"","","","choice","63ed12d2c25b08ba24fe8a41","bdp_lott","Fri Mar 24 2023 21:03:32 GMT-0700 (Pacific Daylight Time)","352735","red","green","image-keyboard-response","42","83401","0.0-5.0-1.19","","621","","img/green_lw/choose11.jpg","2","206","red","0.5","0.5","0.5","w","",""
"","","","","63ed12d2c25b08ba24fe8a41","bdp_lott","Fri Mar 24 2023 21:03:32 GMT-0700 (Pacific Daylight Time)","352735","red","green","animation","43","84005","0.0-5.0-2.19","","","","","","206","","","","","","[{""stimulus"":""img/red_lw/1.jpg"",""time"":60},{""stimulus"":""img/red_lw/2.jpg"",""time"":103},{""stimulus"":""img/red_lw/3.jpg"",""time"":155},{""stimulus"":""img/red_lw/4.jpg"",""time"":202},{""stimulus"":""img/red_lw/5.jpg"",""time"":253},{""stimulus"":""img/red_lw/6.jpg"",""time"":301},{""stimulus"":""img/red_lw/7.jpg"",""time"":353},{""stimulus"":""img/red_lw/8.jpg"",""time"":409},{""stimulus"":""img/red_lw/9.jpg"",""time"":453},{""stimulus"":""img/red_lw/10.jpg"",""time"":502},{""stimulus"":""img/red_lw/11.jpg"",""time"":551}]","[]"
"","","","choice","63ed12d2c25b08ba24fe8a41","bdp_lott","Fri Mar 24 2023 21:03:32 GMT-0700 (Pacific Daylight Time)","352735","red","green","image-keyboard-response","44","85166","0.0-5.0-1.20","","1161","","img/red_lw/choose11.jpg","1","205","green","0.5","0.5","0.5","l","",""
"","","","","63ed12d2c25b08ba24fe8a41","bdp_lott","Fri Mar 24 2023 21:03:32 GMT-0700 (Pacific Daylight Time)","352735","red","green","animation","45","85776","0.0-5.0-2.20","","","","","","205","","","","","","[{""stimulus"":""img/green_lw/1.jpg"",""time"":58},{""stimulus"":""img/green_lw/2.jpg"",""time"":106},{""stimulus"":""img/green_lw/3.jpg"",""time"":151},{""stimulus"":""img/green_lw/4.jpg"",""time"":213},{""stimulus"":""img/green_lw/5.jpg"",""time"":254},{""stimulus"":""img/green_lw/6.jpg"",""time"":313},{""stimulus"":""img/green_lw/7.jpg"",""time"":354},{""stimulus"":""img/green_lw/8.jpg"",""time"":411},{""stimulus"":""img/green_lw/9.jpg"",""time"":454},{""stimulus"":""img/green_lw/10.jpg"",""time"":510},{""stimulus"":""img/green_lw/11.jpg"",""time"":554}]","[]"
"","","","choice","63ed12d2c25b08ba24fe8a41","bdp_lott","Fri Mar 24 2023 21:03:32 GMT-0700 (Pacific Daylight Time)","352735","red","green","image-keyboard-response","46","86715","0.0-5.0-1.21","","938","","img/green_lw/choose11.jpg","2","204","red","0.5","0.5","0.5","w","",""
"","","","","63ed12d2c25b08ba24fe8a41","bdp_lott","Fri Mar 24 2023 21:03:32 GMT-0700 (Pacific Daylight Time)","352735","red","green","animation","47","87318","0.0-5.0-2.21","","","","","","204","","","","","","[{""stimulus"":""img/red_lw/1.jpg"",""time"":60},{""stimulus"":""img/red_lw/2.jpg"",""time"":104},{""stimulus"":""img/red_lw/3.jpg"",""time"":151},{""stimulus"":""img/red_lw/4.jpg"",""time"":203},{""stimulus"":""img/red_lw/5.jpg"",""time"":262},{""stimulus"":""img/red_lw/6.jpg"",""time"":302},{""stimulus"":""img/red_lw/7.jpg"",""time"":357},{""stimulus"":""img/red_lw/8.jpg"",""time"":403},{""stimulus"":""img/red_lw/9.jpg"",""time"":452},{""stimulus"":""img/red_lw/10.jpg"",""time"":503},{""stimulus"":""img/red_lw/11.jpg"",""time"":560}]","[]"
"","","","choice","63ed12d2c25b08ba24fe8a41","bdp_lott","Fri Mar 24 2023 21:03:32 GMT-0700 (Pacific Daylight Time)","352735","red","green","image-keyboard-response","48","88494","0.0-5.0-1.22","","1175","","img/red_lw/choose11.jpg","1","203","green","0.5","0.5","0.5","w","",""
"","","","","63ed12d2c25b08ba24fe8a41","bdp_lott","Fri Mar 24 2023 21:03:32 GMT-0700 (Pacific Daylight Time)","352735","red","green","animation","49","89100","0.0-5.0-2.22","","","","","","203","","","","","","[{""stimulus"":""img/green_ww/1.jpg"",""time"":57},{""stimulus"":""img/green_ww/2.jpg"",""time"":112},{""stimulus"":""img/green_ww/3.jpg"",""time"":161},{""stimulus"":""img/green_ww/4.jpg"",""time"":209},{""stimulus"":""img/green_ww/5.jpg"",""time"":256},{""stimulus"":""img/green_ww/6.jpg"",""time"":305},{""stimulus"":""img/green_ww/7.jpg"",""time"":355},{""stimulus"":""img/green_ww/8.jpg"",""time"":405},{""stimulus"":""img/green_ww/9.jpg"",""time"":461},{""stimulus"":""img/green_ww/10.jpg"",""time"":505},{""stimulus"":""img/green_ww/11.jpg"",""time"":555}]","[]"
"","","","choice","63ed12d2c25b08ba24fe8a41","bdp_lott","Fri Mar 24 2023 21:03:32 GMT-0700 (Pacific Daylight Time)","352735","red","green","image-keyboard-response","50","89886","0.0-5.0-1.23","","785","","img/green_ww/choose11.jpg","1","202","green","0.5","0.5","0.5","l","",""
"","","","","63ed12d2c25b08ba24fe8a41","bdp_lott","Fri Mar 24 2023 21:03:32 GMT-0700 (Pacific Daylight Time)","352735","red","green","animation","51","90490","0.0-5.0-2.23","","","","","","202","","","","","","[{""stimulus"":""img/green_lw/1.jpg"",""time"":65},{""stimulus"":""img/green_lw/2.jpg"",""time"":104},{""stimulus"":""img/green_lw/3.jpg"",""time"":152},{""stimulus"":""img/green_lw/4.jpg"",""time"":204},{""stimulus"":""img/green_lw/5.jpg"",""time"":271},{""stimulus"":""img/green_lw/6.jpg"",""time"":304},{""stimulus"":""img/green_lw/7.jpg"",""time"":354},{""stimulus"":""img/green_lw/8.jpg"",""time"":405},{""stimulus"":""img/green_lw/9.jpg"",""time"":454},{""stimulus"":""img/green_lw/10.jpg"",""time"":512},{""stimulus"":""img/green_lw/11.jpg"",""time"":562}]","[]"
"","","","choice","63ed12d2c25b08ba24fe8a41","bdp_lott","Fri Mar 24 2023 21:03:32 GMT-0700 (Pacific Daylight Time)","352735","red","green","image-keyboard-response","52","91032","0.0-5.0-1.24","","542","","img/green_lw/choose11.jpg","2","201","red","0.5","0.5","0.5","w","",""
"","","","","63ed12d2c25b08ba24fe8a41","bdp_lott","Fri Mar 24 2023 21:03:32 GMT-0700 (Pacific Daylight Time)","352735","red","green","animation","53","91639","0.0-5.0-2.24","","","","","","201","","","","","","[{""stimulus"":""img/red_lw/1.jpg"",""time"":57},{""stimulus"":""img/red_lw/2.jpg"",""time"":111},{""stimulus"":""img/red_lw/3.jpg"",""time"":155},{""stimulus"":""img/red_lw/4.jpg"",""time"":216},{""stimulus"":""img/red_lw/5.jpg"",""time"":274},{""stimulus"":""img/red_lw/6.jpg"",""time"":307},{""stimulus"":""img/red_lw/7.jpg"",""time"":355},{""stimulus"":""img/red_lw/8.jpg"",""time"":401},{""stimulus"":""img/red_lw/9.jpg"",""time"":458},{""stimulus"":""img/red_lw/10.jpg"",""time"":507},{""stimulus"":""img/red_lw/11.jpg"",""time"":557}]","[]"
"","","","choice","63ed12d2c25b08ba24fe8a41","bdp_lott","Fri Mar 24 2023 21:03:32 GMT-0700 (Pacific Daylight Time)","352735","red","green","image-keyboard-response","54","92244","0.0-5.0-1.25","","604","","img/red_lw/choose11.jpg","2","200","red","0.5","0.5","0.5","l","",""
"","","","","63ed12d2c25b08ba24fe8a41","bdp_lott","Fri Mar 24 2023 21:03:32 GMT-0700 (Pacific Daylight Time)","352735","red","green","animation","55","92846","0.0-5.0-2.25","","","","","","200","","","","","","[{""stimulus"":""img/red_ll/1.jpg"",""time"":57},{""stimulus"":""img/red_ll/2.jpg"",""time"":103},{""stimulus"":""img/red_ll/3.jpg"",""time"":153},{""stimulus"":""img/red_ll/4.jpg"",""time"":209},{""stimulus"":""img/red_ll/5.jpg"",""time"":253},{""stimulus"":""img/red_ll/6.jpg"",""time"":309},{""stimulus"":""img/red_ll/7.jpg"",""time"":353},{""stimulus"":""img/red_ll/8.jpg"",""time"":403},{""stimulus"":""img/red_ll/9.jpg"",""time"":453},{""stimulus"":""img/red_ll/10.jpg"",""time"":501},{""stimulus"":""img/red_ll/11.jpg"",""time"":566}]","[]"
"","","","choice","63ed12d2c25b08ba24fe8a41","bdp_lott","Fri Mar 24 2023 21:03:32 GMT-0700 (Pacific Daylight Time)","352735","red","green","image-keyboard-response","56","93264","0.0-5.0-1.26","","417","","img/red_ll/choose11.jpg","1","199","green","0.5","0.5","0.5","l","",""
"","","","","63ed12d2c25b08ba24fe8a41","bdp_lott","Fri Mar 24 2023 21:03:32 GMT-0700 (Pacific Daylight Time)","352735","red","green","animation","57","93870","0.0-5.0-2.26","","","","","","199","","","","","","[{""stimulus"":""img/green_ll/1.jpg"",""time"":57},{""stimulus"":""img/green_ll/2.jpg"",""time"":101},{""stimulus"":""img/green_ll/3.jpg"",""time"":157},{""stimulus"":""img/green_ll/4.jpg"",""time"":207},{""stimulus"":""img/green_ll/5.jpg"",""time"":257},{""stimulus"":""img/green_ll/6.jpg"",""time"":307},{""stimulus"":""img/green_ll/7.jpg"",""time"":365},{""stimulus"":""img/green_ll/8.jpg"",""time"":406},{""stimulus"":""img/green_ll/9.jpg"",""time"":456},{""stimulus"":""img/green_ll/10.jpg"",""time"":507},{""stimulus"":""img/green_ll/11.jpg"",""time"":559}]","[]"
"","","","choice","63ed12d2c25b08ba24fe8a41","bdp_lott","Fri Mar 24 2023 21:03:32 GMT-0700 (Pacific Daylight Time)","352735","red","green","image-keyboard-response","58","95415","0.0-5.0-1.27","","1544","","img/green_ll/choose11.jpg","1","198","green","0.5","0.5","0.5","l","",""
"","","","","63ed12d2c25b08ba24fe8a41","bdp_lott","Fri Mar 24 2023 21:03:32 GMT-0700 (Pacific Daylight Time)","352735","red","green","animation","59","96019","0.0-5.0-2.27","","","","","","198","","","","","","[{""stimulus"":""img/green_ll/1.jpg"",""time"":62},{""stimulus"":""img/green_ll/2.jpg"",""time"":103},{""stimulus"":""img/green_ll/3.jpg"",""time"":150},{""stimulus"":""img/green_ll/4.jpg"",""time"":211},{""stimulus"":""img/green_ll/5.jpg"",""time"":253},{""stimulus"":""img/green_ll/6.jpg"",""time"":303},{""stimulus"":""img/green_ll/7.jpg"",""time"":373},{""stimulus"":""img/green_ll/8.jpg"",""time"":404},{""stimulus"":""img/green_ll/9.jpg"",""time"":454},{""stimulus"":""img/green_ll/10.jpg"",""time"":504},{""stimulus"":""img/green_ll/11.jpg"",""time"":553}]","[]"
"","","","choice","63ed12d2c25b08ba24fe8a41","bdp_lott","Fri Mar 24 2023 21:03:32 GMT-0700 (Pacific Daylight Time)","352735","red","green","image-keyboard-response","60","98031","0.0-5.0-1.28","","2011","","img/green_ll/choose11.jpg","2","197","red","0.5","0.5","0.5","w","",""
"","","","","63ed12d2c25b08ba24fe8a41","bdp_lott","Fri Mar 24 2023 21:03:32 GMT-0700 (Pacific Daylight Time)","352735","red","green","animation","61","98634","0.0-5.0-2.28","","","","","","197","","","","","","[{""stimulus"":""img/red_lw/1.jpg"",""time"":58},{""stimulus"":""img/red_lw/2.jpg"",""time"":101},{""stimulus"":""img/red_lw/3.jpg"",""time"":157},{""stimulus"":""img/red_lw/4.jpg"",""time"":209},{""stimulus"":""img/red_lw/5.jpg"",""time"":250},{""stimulus"":""img/red_lw/6.jpg"",""time"":309},{""stimulus"":""img/red_lw/7.jpg"",""time"":352},{""stimulus"":""img/red_lw/8.jpg"",""time"":401},{""stimulus"":""img/red_lw/9.jpg"",""time"":451},{""stimulus"":""img/red_lw/10.jpg"",""time"":524},{""stimulus"":""img/red_lw/11.jpg"",""time"":552}]","[]"
"","","","choice","63ed12d2c25b08ba24fe8a41","bdp_lott","Fri Mar 24 2023 21:03:32 GMT-0700 (Pacific Daylight Time)","352735","red","green","image-keyboard-response","62","99427","0.0-5.0-1.29","","793","","img/red_lw/choose11.jpg","2","196","red","0.5","0.5","0.5","w","",""
"","","","","63ed12d2c25b08ba24fe8a41","bdp_lott","Fri Mar 24 2023 21:03:32 GMT-0700 (Pacific Daylight Time)","352735","red","green","animation","63","100032","0.0-5.0-2.29","","","","","","196","","","","","","[{""stimulus"":""img/red_lw/1.jpg"",""time"":64},{""stimulus"":""img/red_lw/2.jpg"",""time"":105},{""stimulus"":""img/red_lw/3.jpg"",""time"":156},{""stimulus"":""img/red_lw/4.jpg"",""time"":201},{""stimulus"":""img/red_lw/5.jpg"",""time"":255},{""stimulus"":""img/red_lw/6.jpg"",""time"":301},{""stimulus"":""img/red_lw/7.jpg"",""time"":355},{""stimulus"":""img/red_lw/8.jpg"",""time"":405},{""stimulus"":""img/red_lw/9.jpg"",""time"":456},{""stimulus"":""img/red_lw/10.jpg"",""time"":505},{""stimulus"":""img/red_lw/11.jpg"",""time"":554}]","[]"
"","","","choice","63ed12d2c25b08ba24fe8a41","bdp_lott","Fri Mar 24 2023 21:03:32 GMT-0700 (Pacific Daylight Time)","352735","red","green","image-keyboard-response","64","100837","0.0-5.0-1.30","","804","","img/red_lw/choose11.jpg","1","195","green","0.5","0.5","0.5","l","",""
"","","","","63ed12d2c25b08ba24fe8a41","bdp_lott","Fri Mar 24 2023 21:03:32 GMT-0700 (Pacific Daylight Time)","352735","red","green","animation","65","101447","0.0-5.0-2.30","","","","","","195","","","","","","[{""stimulus"":""img/green_lw/1.jpg"",""time"":58},{""stimulus"":""img/green_lw/2.jpg"",""time"":103},{""stimulus"":""img/green_lw/3.jpg"",""time"":151},{""stimulus"":""img/green_lw/4.jpg"",""time"":203},{""stimulus"":""img/green_lw/5.jpg"",""time"":252},{""stimulus"":""img/green_lw/6.jpg"",""time"":310},{""stimulus"":""img/green_lw/7.jpg"",""time"":361},{""stimulus"":""img/green_lw/8.jpg"",""time"":403},{""stimulus"":""img/green_lw/9.jpg"",""time"":452},{""stimulus"":""img/green_lw/10.jpg"",""time"":502},{""stimulus"":""img/green_lw/11.jpg"",""time"":551}]","[]"
"","","","choice","63ed12d2c25b08ba24fe8a41","bdp_lott","Fri Mar 24 2023 21:03:32 GMT-0700 (Pacific Daylight Time)","352735","red","green","image-keyboard-response","66","102060","0.0-5.0-1.31","","613","","img/green_lw/choose11.jpg","1","194","green","0.5","0.5","0.5","w","",""
"","","","","63ed12d2c25b08ba24fe8a41","bdp_lott","Fri Mar 24 2023 21:03:32 GMT-0700 (Pacific Daylight Time)","352735","red","green","animation","67","102662","0.0-5.0-2.31","","","","","","194","","","","","","[{""stimulus"":""img/green_ww/1.jpg"",""time"":66},{""stimulus"":""img/green_ww/2.jpg"",""time"":103},{""stimulus"":""img/green_ww/3.jpg"",""time"":153},{""stimulus"":""img/green_ww/4.jpg"",""time"":201},{""stimulus"":""img/green_ww/5.jpg"",""time"":273},{""stimulus"":""img/green_ww/6.jpg"",""time"":303},{""stimulus"":""img/green_ww/7.jpg"",""time"":354},{""stimulus"":""img/green_ww/8.jpg"",""time"":402},{""stimulus"":""img/green_ww/9.jpg"",""time"":458},{""stimulus"":""img/green_ww/10.jpg"",""time"":524},{""stimulus"":""img/green_ww/11.jpg"",""time"":552}]","[]"
"","","","choice","63ed12d2c25b08ba24fe8a41","bdp_lott","Fri Mar 24 2023 21:03:32 GMT-0700 (Pacific Daylight Time)","352735","red","green","image-keyboard-response","68","104702","0.0-5.0-1.32","","2038","","img/green_ww/choose11.jpg","1","193","green","0.5","0.5","0.5","l","",""
"","","","","63ed12d2c25b08ba24fe8a41","bdp_lott","Fri Mar 24 2023 21:03:32 GMT-0700 (Pacific Daylight Time)","352735","red","green","animation","69","105302","0.0-5.0-2.32","","","","","","193","","","","","","[{""stimulus"":""img/green_lw/1.jpg"",""time"":57},{""stimulus"":""img/green_lw/2.jpg"",""time"":101},{""stimulus"":""img/green_lw/3.jpg"",""time"":151},{""stimulus"":""img/green_lw/4.jpg"",""time"":207},{""stimulus"":""img/green_lw/5.jpg"",""time"":252},{""stimulus"":""img/green_lw/6.jpg"",""time"":301},{""stimulus"":""img/green_lw/7.jpg"",""time"":358},{""stimulus"":""img/green_lw/8.jpg"",""time"":401},{""stimulus"":""img/green_lw/9.jpg"",""time"":466},{""stimulus"":""img/green_lw/10.jpg"",""time"":501},{""stimulus"":""img/green_lw/11.jpg"",""time"":550}]","[]"
"","","","choice","63ed12d2c25b08ba24fe8a41","bdp_lott","Fri Mar 24 2023 21:03:32 GMT-0700 (Pacific Daylight Time)","352735","red","green","image-keyboard-response","70","105728","0.0-5.0-1.33","","425","","img/green_lw/choose11.jpg","2","192","red","0.5","0.5","0.5","l","",""
"","","","","63ed12d2c25b08ba24fe8a41","bdp_lott","Fri Mar 24 2023 21:03:32 GMT-0700 (Pacific Daylight Time)","352735","red","green","animation","71","106335","0.0-5.0-2.33","","","","","","192","","","","","","[{""stimulus"":""img/red_ll/1.jpg"",""time"":57},{""stimulus"":""img/red_ll/2.jpg"",""time"":106},{""stimulus"":""img/red_ll/3.jpg"",""time"":164},{""stimulus"":""img/red_ll/4.jpg"",""time"":206},{""stimulus"":""img/red_ll/5.jpg"",""time"":262},{""stimulus"":""img/red_ll/6.jpg"",""time"":306},{""stimulus"":""img/red_ll/7.jpg"",""time"":354},{""stimulus"":""img/red_ll/8.jpg"",""time"":407},{""stimulus"":""img/red_ll/9.jpg"",""time"":456},{""stimulus"":""img/red_ll/10.jpg"",""time"":506},{""stimulus"":""img/red_ll/11.jpg"",""time"":554}]","[]"
"","","","choice","63ed12d2c25b08ba24fe8a41","bdp_lott","Fri Mar 24 2023 21:03:32 GMT-0700 (Pacific Daylight Time)","352735","red","green","image-keyboard-response","72","106926","0.0-5.0-1.34","","591","","img/red_ll/choose11.jpg","2","191","red","0.5","0.5","0.5","l","",""
"","","","","63ed12d2c25b08ba24fe8a41","bdp_lott","Fri Mar 24 2023 21:03:32 GMT-0700 (Pacific Daylight Time)","352735","red","green","animation","73","107533","0.0-5.0-2.34","","","","","","191","","","","","","[{""stimulus"":""img/red_ll/1.jpg"",""time"":65},{""stimulus"":""img/red_ll/2.jpg"",""time"":108},{""stimulus"":""img/red_ll/3.jpg"",""time"":166},{""stimulus"":""img/red_ll/4.jpg"",""time"":207},{""stimulus"":""img/red_ll/5.jpg"",""time"":259},{""stimulus"":""img/red_ll/6.jpg"",""time"":308},{""stimulus"":""img/red_ll/7.jpg"",""time"":358},{""stimulus"":""img/red_ll/8.jpg"",""time"":414},{""stimulus"":""img/red_ll/9.jpg"",""time"":458},{""stimulus"":""img/red_ll/10.jpg"",""time"":512},{""stimulus"":""img/red_ll/11.jpg"",""time"":555}]","[]"
"","","","choice","63ed12d2c25b08ba24fe8a41","bdp_lott","Fri Mar 24 2023 21:03:32 GMT-0700 (Pacific Daylight Time)","352735","red","green","image-keyboard-response","74","108161","0.0-5.0-1.35","","627","","img/red_ll/choose11.jpg","1","190","green","0.5","0.5","0.5","w","",""
"","","","","63ed12d2c25b08ba24fe8a41","bdp_lott","Fri Mar 24 2023 21:03:32 GMT-0700 (Pacific Daylight Time)","352735","red","green","animation","75","108765","0.0-5.0-2.35","","","","","","190","","","","","","[{""stimulus"":""img/green_wl/1.jpg"",""time"":58},{""stimulus"":""img/green_wl/2.jpg"",""time"":106},{""stimulus"":""img/green_wl/3.jpg"",""time"":154},{""stimulus"":""img/green_wl/4.jpg"",""time"":205},{""stimulus"":""img/green_wl/5.jpg"",""time"":255},{""stimulus"":""img/green_wl/6.jpg"",""time"":305},{""stimulus"":""img/green_wl/7.jpg"",""time"":355},{""stimulus"":""img/green_wl/8.jpg"",""time"":413},{""stimulus"":""img/green_wl/9.jpg"",""time"":456},{""stimulus"":""img/green_wl/10.jpg"",""time"":505},{""stimulus"":""img/green_wl/11.jpg"",""time"":554}]","[]"
"","","","choice","63ed12d2c25b08ba24fe8a41","bdp_lott","Fri Mar 24 2023 21:03:32 GMT-0700 (Pacific Daylight Time)","352735","red","green","image-keyboard-response","76","109630","0.0-5.0-1.36","","864","","img/green_wl/choose11.jpg","2","189","red","0.5","0.5","0.5","l","",""
"","","","","63ed12d2c25b08ba24fe8a41","bdp_lott","Fri Mar 24 2023 21:03:32 GMT-0700 (Pacific Daylight Time)","352735","red","green","animation","77","110237","0.0-5.0-2.36","","","","","","189","","","","","","[{""stimulus"":""img/red_wl/1.jpg"",""time"":59},{""stimulus"":""img/red_wl/2.jpg"",""time"":102},{""stimulus"":""img/red_wl/3.jpg"",""time"":159},{""stimulus"":""img/red_wl/4.jpg"",""time"":202},{""stimulus"":""img/red_wl/5.jpg"",""time"":258},{""stimulus"":""img/red_wl/6.jpg"",""time"":302},{""stimulus"":""img/red_wl/7.jpg"",""time"":351},{""stimulus"":""img/red_wl/8.jpg"",""time"":402},{""stimulus"":""img/red_wl/9.jpg"",""time"":452},{""stimulus"":""img/red_wl/10.jpg"",""time"":501},{""stimulus"":""img/red_wl/11.jpg"",""time"":551}]","[]"
"","","","choice","63ed12d2c25b08ba24fe8a41","bdp_lott","Fri Mar 24 2023 21:03:32 GMT-0700 (Pacific Daylight Time)","352735","red","green","image-keyboard-response","78","110830","0.0-5.0-1.37","","592","","img/red_wl/choose11.jpg","2","188","red","0.5","0.5","0.5","w","",""
"","","","","63ed12d2c25b08ba24fe8a41","bdp_lott","Fri Mar 24 2023 21:03:32 GMT-0700 (Pacific Daylight Time)","352735","red","green","animation","79","111437","0.0-5.0-2.37","","","","","","188","","","","","","[{""stimulus"":""img/red_ww/1.jpg"",""time"":58},{""stimulus"":""img/red_ww/2.jpg"",""time"":103},{""stimulus"":""img/red_ww/3.jpg"",""time"":152},{""stimulus"":""img/red_ww/4.jpg"",""time"":201},{""stimulus"":""img/red_ww/5.jpg"",""time"":252},{""stimulus"":""img/red_ww/6.jpg"",""time"":309},{""stimulus"":""img/red_ww/7.jpg"",""time"":359},{""stimulus"":""img/red_ww/8.jpg"",""time"":408},{""stimulus"":""img/red_ww/9.jpg"",""time"":460},{""stimulus"":""img/red_ww/10.jpg"",""time"":508},{""stimulus"":""img/red_ww/11.jpg"",""time"":551}]","[]"
"","","","choice","63ed12d2c25b08ba24fe8a41","bdp_lott","Fri Mar 24 2023 21:03:32 GMT-0700 (Pacific Daylight Time)","352735","red","green","image-keyboard-response","80","112027","0.0-5.0-1.38","","590","","img/red_ww/choose11.jpg","1","187","green","0.5","0.5","0.5","w","",""
"","","","","63ed12d2c25b08ba24fe8a41","bdp_lott","Fri Mar 24 2023 21:03:32 GMT-0700 (Pacific Daylight Time)","352735","red","green","animation","81","112629","0.0-5.0-2.38","","","","","","187","","","","","","[{""stimulus"":""img/green_ww/1.jpg"",""time"":59},{""stimulus"":""img/green_ww/2.jpg"",""time"":106},{""stimulus"":""img/green_ww/3.jpg"",""time"":154},{""stimulus"":""img/green_ww/4.jpg"",""time"":209},{""stimulus"":""img/green_ww/5.jpg"",""time"":259},{""stimulus"":""img/green_ww/6.jpg"",""time"":303},{""stimulus"":""img/green_ww/7.jpg"",""time"":355},{""stimulus"":""img/green_ww/8.jpg"",""time"":403},{""stimulus"":""img/green_ww/9.jpg"",""time"":459},{""stimulus"":""img/green_ww/10.jpg"",""time"":503},{""stimulus"":""img/green_ww/11.jpg"",""time"":559}]","[]"
"","","","choice","63ed12d2c25b08ba24fe8a41","bdp_lott","Fri Mar 24 2023 21:03:32 GMT-0700 (Pacific Daylight Time)","352735","red","green","image-keyboard-response","82","113482","0.0-5.0-1.39","","851","","img/green_ww/choose11.jpg","2","186","red","0.5","0.5","0.5","w","",""
"","","","","63ed12d2c25b08ba24fe8a41","bdp_lott","Fri Mar 24 2023 21:03:32 GMT-0700 (Pacific Daylight Time)","352735","red","green","animation","83","114087","0.0-5.0-2.39","","","","","","186","","","","","","[{""stimulus"":""img/red_ww/1.jpg"",""time"":65},{""stimulus"":""img/red_ww/2.jpg"",""time"":105},{""stimulus"":""img/red_ww/3.jpg"",""time"":152},{""stimulus"":""img/red_ww/4.jpg"",""time"":213},{""stimulus"":""img/red_ww/5.jpg"",""time"":251},{""stimulus"":""img/red_ww/6.jpg"",""time"":308},{""stimulus"":""img/red_ww/7.jpg"",""time"":355},{""stimulus"":""img/red_ww/8.jpg"",""time"":403},{""stimulus"":""img/red_ww/9.jpg"",""time"":454},{""stimulus"":""img/red_ww/10.jpg"",""time"":505},{""stimulus"":""img/red_ww/11.jpg"",""time"":574}]","[]"
"","","","choice","63ed12d2c25b08ba24fe8a41","bdp_lott","Fri Mar 24 2023 21:03:32 GMT-0700 (Pacific Daylight Time)","352735","red","green","image-keyboard-response","84","115250","0.0-5.0-1.40","","1162","","img/red_ww/choose11.jpg","2","185","red","0.5","0.5","0.5","l","",""
"","","","","63ed12d2c25b08ba24fe8a41","bdp_lott","Fri Mar 24 2023 21:03:32 GMT-0700 (Pacific Daylight Time)","352735","red","green","animation","85","115860","0.0-5.0-2.40","","","","","","185","","","","","","[{""stimulus"":""img/red_wl/1.jpg"",""time"":66},{""stimulus"":""img/red_wl/2.jpg"",""time"":114},{""stimulus"":""img/red_wl/3.jpg"",""time"":152},{""stimulus"":""img/red_wl/4.jpg"",""time"":202},{""stimulus"":""img/red_wl/5.jpg"",""time"":251},{""stimulus"":""img/red_wl/6.jpg"",""time"":300},{""stimulus"":""img/red_wl/7.jpg"",""time"":351},{""stimulus"":""img/red_wl/8.jpg"",""time"":402},{""stimulus"":""img/red_wl/9.jpg"",""time"":451},{""stimulus"":""img/red_wl/10.jpg"",""time"":501},{""stimulus"":""img/red_wl/11.jpg"",""time"":566}]","[]"
"","","","choice","63ed12d2c25b08ba24fe8a41","bdp_lott","Fri Mar 24 2023 21:03:32 GMT-0700 (Pacific Daylight Time)","352735","red","green","image-keyboard-response","86","116344","0.0-5.0-1.41","","483","","img/red_wl/choose11.jpg","1","184","green","0.5","0.5","0.5","l","",""
"","","","","63ed12d2c25b08ba24fe8a41","bdp_lott","Fri Mar 24 2023 21:03:32 GMT-0700 (Pacific Daylight Time)","352735","red","green","animation","87","116951","0.0-5.0-2.41","","","","","","184","","","","","","[{""stimulus"":""img/green_ll/1.jpg"",""time"":64},{""stimulus"":""img/green_ll/2.jpg"",""time"":107},{""stimulus"":""img/green_ll/3.jpg"",""time"":155},{""stimulus"":""img/green_ll/4.jpg"",""time"":208},{""stimulus"":""img/green_ll/5.jpg"",""time"":256},{""stimulus"":""img/green_ll/6.jpg"",""time"":304},{""stimulus"":""img/green_ll/7.jpg"",""time"":356},{""stimulus"":""img/green_ll/8.jpg"",""time"":406},{""stimulus"":""img/green_ll/9.jpg"",""time"":450},{""stimulus"":""img/green_ll/10.jpg"",""time"":506},{""stimulus"":""img/green_ll/11.jpg"",""time"":551}]","[]"
"","","","choice","63ed12d2c25b08ba24fe8a41","bdp_lott","Fri Mar 24 2023 21:03:32 GMT-0700 (Pacific Daylight Time)","352735","red","green","image-keyboard-response","88","117523","0.0-5.0-1.42","","571","","img/green_ll/choose11.jpg","1","183","green","0.5","0.5","0.5","l","",""
"","","","","63ed12d2c25b08ba24fe8a41","bdp_lott","Fri Mar 24 2023 21:03:32 GMT-0700 (Pacific Daylight Time)","352735","red","green","animation","89","118130","0.0-5.0-2.42","","","","","","183","","","","","","[{""stimulus"":""img/green_ll/1.jpg"",""time"":58},{""stimulus"":""img/green_ll/2.jpg"",""time"":110},{""stimulus"":""img/green_ll/3.jpg"",""time"":154},{""stimulus"":""img/green_ll/4.jpg"",""time"":209},{""stimulus"":""img/green_ll/5.jpg"",""time"":260},{""stimulus"":""img/green_ll/6.jpg"",""time"":301},{""stimulus"":""img/green_ll/7.jpg"",""time"":355},{""stimulus"":""img/green_ll/8.jpg"",""time"":401},{""stimulus"":""img/green_ll/9.jpg"",""time"":457},{""stimulus"":""img/green_ll/10.jpg"",""time"":501},{""stimulus"":""img/green_ll/11.jpg"",""time"":558}]","[]"
"","","","choice","63ed12d2c25b08ba24fe8a41","bdp_lott","Fri Mar 24 2023 21:03:32 GMT-0700 (Pacific Daylight Time)","352735","red","green","image-keyboard-response","90","118526","0.0-5.0-1.43","","395","","img/green_ll/choose11.jpg","2","182","red","0.5","0.5","0.5","l","",""
"","","","","63ed12d2c25b08ba24fe8a41","bdp_lott","Fri Mar 24 2023 21:03:32 GMT-0700 (Pacific Daylight Time)","352735","red","green","animation","91","119127","0.0-5.0-2.43","","","","","","182","","","","","","[{""stimulus"":""img/red_ll/1.jpg"",""time"":64},{""stimulus"":""img/red_ll/2.jpg"",""time"":105},{""stimulus"":""img/red_ll/3.jpg"",""time"":154},{""stimulus"":""img/red_ll/4.jpg"",""time"":206},{""stimulus"":""img/red_ll/5.jpg"",""time"":254},{""stimulus"":""img/red_ll/6.jpg"",""time"":313},{""stimulus"":""img/red_ll/7.jpg"",""time"":355},{""stimulus"":""img/red_ll/8.jpg"",""time"":405},{""stimulus"":""img/red_ll/9.jpg"",""time"":454},{""stimulus"":""img/red_ll/10.jpg"",""time"":503},{""stimulus"":""img/red_ll/11.jpg"",""time"":552}]","[]"
"","","","choice","63ed12d2c25b08ba24fe8a41","bdp_lott","Fri Mar 24 2023 21:03:32 GMT-0700 (Pacific Daylight Time)","352735","red","green","image-keyboard-response","92","119629","0.0-5.0-1.44","","501","","img/red_ll/choose11.jpg","2","181","red","0.5","0.5","0.5","w","",""
"","","","","63ed12d2c25b08ba24fe8a41","bdp_lott","Fri Mar 24 2023 21:03:32 GMT-0700 (Pacific Daylight Time)","352735","red","green","animation","93","120230","0.0-5.0-2.44","","","","","","181","","","","","","[{""stimulus"":""img/red_lw/1.jpg"",""time"":65},{""stimulus"":""img/red_lw/2.jpg"",""time"":103},{""stimulus"":""img/red_lw/3.jpg"",""time"":153},{""stimulus"":""img/red_lw/4.jpg"",""time"":203},{""stimulus"":""img/red_lw/5.jpg"",""time"":274},{""stimulus"":""img/red_lw/6.jpg"",""time"":303},{""stimulus"":""img/red_lw/7.jpg"",""time"":353},{""stimulus"":""img/red_lw/8.jpg"",""time"":403},{""stimulus"":""img/red_lw/9.jpg"",""time"":452},{""stimulus"":""img/red_lw/10.jpg"",""time"":502},{""stimulus"":""img/red_lw/11.jpg"",""time"":552}]","[]"
"","","","choice","63ed12d2c25b08ba24fe8a41","bdp_lott","Fri Mar 24 2023 21:03:32 GMT-0700 (Pacific Daylight Time)","352735","red","green","image-keyboard-response","94","120916","0.0-5.0-1.45","","685","","img/red_lw/choose11.jpg","2","180","red","0.5","0.5","0.5","l","",""
"","","","","63ed12d2c25b08ba24fe8a41","bdp_lott","Fri Mar 24 2023 21:03:32 GMT-0700 (Pacific Daylight Time)","352735","red","green","animation","95","121521","0.0-5.0-2.45","","","","","","180","","","","","","[{""stimulus"":""img/red_ll/1.jpg"",""time"":58},{""stimulus"":""img/red_ll/2.jpg"",""time"":115},{""stimulus"":""img/red_ll/3.jpg"",""time"":156},{""stimulus"":""img/red_ll/4.jpg"",""time"":214},{""stimulus"":""img/red_ll/5.jpg"",""time"":257},{""stimulus"":""img/red_ll/6.jpg"",""time"":322},{""stimulus"":""img/red_ll/7.jpg"",""time"":356},{""stimulus"":""img/red_ll/8.jpg"",""time"":406},{""stimulus"":""img/red_ll/9.jpg"",""time"":456},{""stimulus"":""img/red_ll/10.jpg"",""time"":514},{""stimulus"":""img/red_ll/11.jpg"",""time"":564}]","[]"
"","","","choice","63ed12d2c25b08ba24fe8a41","bdp_lott","Fri Mar 24 2023 21:03:32 GMT-0700 (Pacific Daylight Time)","352735","red","green","image-keyboard-response","96","121947","0.0-5.0-1.46","","425","","img/red_ll/choose11.jpg","1","179","green","0.5","0.5","0.5","l","",""
"","","","","63ed12d2c25b08ba24fe8a41","bdp_lott","Fri Mar 24 2023 21:03:32 GMT-0700 (Pacific Daylight Time)","352735","red","green","animation","97","122560","0.0-5.0-2.46","","","","","","179","","","","","","[{""stimulus"":""img/green_ll/1.jpg"",""time"":65},{""stimulus"":""img/green_ll/2.jpg"",""time"":108},{""stimulus"":""img/green_ll/3.jpg"",""time"":166},{""stimulus"":""img/green_ll/4.jpg"",""time"":205},{""stimulus"":""img/green_ll/5.jpg"",""time"":257},{""stimulus"":""img/green_ll/6.jpg"",""time"":324},{""stimulus"":""img/green_ll/7.jpg"",""time"":356},{""stimulus"":""img/green_ll/8.jpg"",""time"":407},{""stimulus"":""img/green_ll/9.jpg"",""time"":457},{""stimulus"":""img/green_ll/10.jpg"",""time"":513},{""stimulus"":""img/green_ll/11.jpg"",""time"":557}]","[]"
"","","","choice","63ed12d2c25b08ba24fe8a41","bdp_lott","Fri Mar 24 2023 21:03:32 GMT-0700 (Pacific Daylight Time)","352735","red","green","image-keyboard-response","98","123148","0.0-5.0-1.47","","587","","img/green_ll/choose11.jpg","1","178","green","0.5","0.5","0.5","w","",""
"","","","","63ed12d2c25b08ba24fe8a41","bdp_lott","Fri Mar 24 2023 21:03:32 GMT-0700 (Pacific Daylight Time)","352735","red","green","animation","99","123752","0.0-5.0-2.47","","","","","","178","","","","","","[{""stimulus"":""img/green_wl/1.jpg"",""time"":62},{""stimulus"":""img/green_wl/2.jpg"",""time"":106},{""stimulus"":""img/green_wl/3.jpg"",""time"":163},{""stimulus"":""img/green_wl/4.jpg"",""time"":204},{""stimulus"":""img/green_wl/5.jpg"",""time"":254},{""stimulus"":""img/green_wl/6.jpg"",""time"":304},{""stimulus"":""img/green_wl/7.jpg"",""time"":355},{""stimulus"":""img/green_wl/8.jpg"",""time"":404},{""stimulus"":""img/green_wl/9.jpg"",""time"":461},{""stimulus"":""img/green_wl/10.jpg"",""time"":501},{""stimulus"":""img/green_wl/11.jpg"",""time"":555}]","[]"
"","","","choice","63ed12d2c25b08ba24fe8a41","bdp_lott","Fri Mar 24 2023 21:03:32 GMT-0700 (Pacific Daylight Time)","352735","red","green","image-keyboard-response","100","124598","0.0-5.0-1.48","","845","","img/green_wl/choose11.jpg","1","177","green","0.5","0.5","0.5","w","",""
"","","","","63ed12d2c25b08ba24fe8a41","bdp_lott","Fri Mar 24 2023 21:03:32 GMT-0700 (Pacific Daylight Time)","352735","red","green","animation","101","125210","0.0-5.0-2.48","","","","","","177","","","","","","[{""stimulus"":""img/green_wl/1.jpg"",""time"":58},{""stimulus"":""img/green_wl/2.jpg"",""time"":106},{""stimulus"":""img/green_wl/3.jpg"",""time"":162},{""stimulus"":""img/green_wl/4.jpg"",""time"":212},{""stimulus"":""img/green_wl/5.jpg"",""time"":254},{""stimulus"":""img/green_wl/6.jpg"",""time"":303},{""stimulus"":""img/green_wl/7.jpg"",""time"":353},{""stimulus"":""img/green_wl/8.jpg"",""time"":410},{""stimulus"":""img/green_wl/9.jpg"",""time"":453},{""stimulus"":""img/green_wl/10.jpg"",""time"":510},{""stimulus"":""img/green_wl/11.jpg"",""time"":561}]","[]"
"","","","choice","63ed12d2c25b08ba24fe8a41","bdp_lott","Fri Mar 24 2023 21:03:32 GMT-0700 (Pacific Daylight Time)","352735","red","green","image-keyboard-response","102","125601","0.0-5.0-1.49","","390","","img/green_wl/choose11.jpg","2","176","red","0.5","0.5","0.5","l","",""
"","","","","63ed12d2c25b08ba24fe8a41","bdp_lott","Fri Mar 24 2023 21:03:32 GMT-0700 (Pacific Daylight Time)","352735","red","green","animation","103","126209","0.0-5.0-2.49","","","","","","176","","","","","","[{""stimulus"":""img/red_wl/1.jpg"",""time"":57},{""stimulus"":""img/red_wl/2.jpg"",""time"":100},{""stimulus"":""img/red_wl/3.jpg"",""time"":154},{""stimulus"":""img/red_wl/4.jpg"",""time"":206},{""stimulus"":""img/red_wl/5.jpg"",""time"":257},{""stimulus"":""img/red_wl/6.jpg"",""time"":307},{""stimulus"":""img/red_wl/7.jpg"",""time"":355},{""stimulus"":""img/red_wl/8.jpg"",""time"":404},{""stimulus"":""img/red_wl/9.jpg"",""time"":457},{""stimulus"":""img/red_wl/10.jpg"",""time"":508},{""stimulus"":""img/red_wl/11.jpg"",""time"":557}]","[]"
"","","","choice","63ed12d2c25b08ba24fe8a41","bdp_lott","Fri Mar 24 2023 21:03:32 GMT-0700 (Pacific Daylight Time)","352735","red","green","image-keyboard-response","104","127144","0.0-5.0-1.50","","934","","img/red_wl/choose11.jpg","1","175","green","0.5","0.5","0.5","w","",""
"","","","","63ed12d2c25b08ba24fe8a41","bdp_lott","Fri Mar 24 2023 21:03:32 GMT-0700 (Pacific Daylight Time)","352735","red","green","animation","105","127755","0.0-5.0-2.50","","","","","","175","","","","","","[{""stimulus"":""img/green_wl/1.jpg"",""time"":62},{""stimulus"":""img/green_wl/2.jpg"",""time"":110},{""stimulus"":""img/green_wl/3.jpg"",""time"":156},{""stimulus"":""img/green_wl/4.jpg"",""time"":212},{""stimulus"":""img/green_wl/5.jpg"",""time"":256},{""stimulus"":""img/green_wl/6.jpg"",""time"":306},{""stimulus"":""img/green_wl/7.jpg"",""time"":356},{""stimulus"":""img/green_wl/8.jpg"",""time"":406},{""stimulus"":""img/green_wl/9.jpg"",""time"":464},{""stimulus"":""img/green_wl/10.jpg"",""time"":513},{""stimulus"":""img/green_wl/11.jpg"",""time"":556}]","[]"
"","","","choice","63ed12d2c25b08ba24fe8a41","bdp_lott","Fri Mar 24 2023 21:03:32 GMT-0700 (Pacific Daylight Time)","352735","red","green","image-keyboard-response","106","128527","0.0-5.0-1.51","","771","","img/green_wl/choose11.jpg","2","174","red","0.5","0.5","0.5","w","",""
"","","","","63ed12d2c25b08ba24fe8a41","bdp_lott","Fri Mar 24 2023 21:03:32 GMT-0700 (Pacific Daylight Time)","352735","red","green","animation","107","129138","0.0-5.0-2.51","","","","","","174","","","","","","[{""stimulus"":""img/red_ww/1.jpg"",""time"":57},{""stimulus"":""img/red_ww/2.jpg"",""time"":113},{""stimulus"":""img/red_ww/3.jpg"",""time"":157},{""stimulus"":""img/red_ww/4.jpg"",""time"":204},{""stimulus"":""img/red_ww/5.jpg"",""time"":254},{""stimulus"":""img/red_ww/6.jpg"",""time"":304},{""stimulus"":""img/red_ww/7.jpg"",""time"":362},{""stimulus"":""img/red_ww/8.jpg"",""time"":404},{""stimulus"":""img/red_ww/9.jpg"",""time"":462},{""stimulus"":""img/red_ww/10.jpg"",""time"":504},{""stimulus"":""img/red_ww/11.jpg"",""time"":554}]","[]"
"","","","choice","63ed12d2c25b08ba24fe8a41","bdp_lott","Fri Mar 24 2023 21:03:32 GMT-0700 (Pacific Daylight Time)","352735","red","green","image-keyboard-response","108","129946","0.0-5.0-1.52","","808","","img/red_ww/choose11.jpg","2","173","red","0.5","0.5","0.5","l","",""
"","","","","63ed12d2c25b08ba24fe8a41","bdp_lott","Fri Mar 24 2023 21:03:32 GMT-0700 (Pacific Daylight Time)","352735","red","green","animation","109","130555","0.0-5.0-2.52","","","","","","173","","","","","","[{""stimulus"":""img/red_wl/1.jpg"",""time"":56},{""stimulus"":""img/red_wl/2.jpg"",""time"":103},{""stimulus"":""img/red_wl/3.jpg"",""time"":152},{""stimulus"":""img/red_wl/4.jpg"",""time"":209},{""stimulus"":""img/red_wl/5.jpg"",""time"":251},{""stimulus"":""img/red_wl/6.jpg"",""time"":308},{""stimulus"":""img/red_wl/7.jpg"",""time"":351},{""stimulus"":""img/red_wl/8.jpg"",""time"":407},{""stimulus"":""img/red_wl/9.jpg"",""time"":456},{""stimulus"":""img/red_wl/10.jpg"",""time"":500},{""stimulus"":""img/red_wl/11.jpg"",""time"":550}]","[]"
"","","","choice","63ed12d2c25b08ba24fe8a41","bdp_lott","Fri Mar 24 2023 21:03:32 GMT-0700 (Pacific Daylight Time)","352735","red","green","image-keyboard-response","110","130970","0.0-5.0-1.53","","414","","img/red_wl/choose11.jpg","1","172","green","0.5","0.5","0.5","w","",""
"","","","","63ed12d2c25b08ba24fe8a41","bdp_lott","Fri Mar 24 2023 21:03:32 GMT-0700 (Pacific Daylight Time)","352735","red","green","animation","111","131595","0.0-5.0-2.53","","","","","","172","","","","","","[{""stimulus"":""img/green_wl/1.jpg"",""time"":59},{""stimulus"":""img/green_wl/2.jpg"",""time"":101},{""stimulus"":""img/green_wl/3.jpg"",""time"":159},{""stimulus"":""img/green_wl/4.jpg"",""time"":206},{""stimulus"":""img/green_wl/5.jpg"",""time"":251},{""stimulus"":""img/green_wl/6.jpg"",""time"":300},{""stimulus"":""img/green_wl/7.jpg"",""time"":366},{""stimulus"":""img/green_wl/8.jpg"",""time"":409},{""stimulus"":""img/green_wl/9.jpg"",""time"":451},{""stimulus"":""img/green_wl/10.jpg"",""time"":501},{""stimulus"":""img/green_wl/11.jpg"",""time"":550}]","[]"
"","","","choice","63ed12d2c25b08ba24fe8a41","bdp_lott","Fri Mar 24 2023 21:03:32 GMT-0700 (Pacific Daylight Time)","352735","red","green","image-keyboard-response","112","132365","0.0-5.0-1.54","","769","","img/green_wl/choose11.jpg","1","171","green","0.5","0.5","0.5","l","",""
"","","","","63ed12d2c25b08ba24fe8a41","bdp_lott","Fri Mar 24 2023 21:03:32 GMT-0700 (Pacific Daylight Time)","352735","red","green","animation","113","132969","0.0-5.0-2.54","","","","","","171","","","","","","[{""stimulus"":""img/green_ll/1.jpg"",""time"":55},{""stimulus"":""img/green_ll/2.jpg"",""time"":106},{""stimulus"":""img/green_ll/3.jpg"",""time"":156},{""stimulus"":""img/green_ll/4.jpg"",""time"":201},{""stimulus"":""img/green_ll/5.jpg"",""time"":273},{""stimulus"":""img/green_ll/6.jpg"",""time"":305},{""stimulus"":""img/green_ll/7.jpg"",""time"":351},{""stimulus"":""img/green_ll/8.jpg"",""time"":405},{""stimulus"":""img/green_ll/9.jpg"",""time"":455},{""stimulus"":""img/green_ll/10.jpg"",""time"":506},{""stimulus"":""img/green_ll/11.jpg"",""time"":555}]","[]"
"","","","choice","63ed12d2c25b08ba24fe8a41","bdp_lott","Fri Mar 24 2023 21:03:32 GMT-0700 (Pacific Daylight Time)","352735","red","green","image-keyboard-response","114","133508","0.0-5.0-1.55","","538","","img/green_ll/choose11.jpg","2","170","red","0.5","0.5","0.5","w","",""
"","","","","63ed12d2c25b08ba24fe8a41","bdp_lott","Fri Mar 24 2023 21:03:32 GMT-0700 (Pacific Daylight Time)","352735","red","green","animation","115","134110","0.0-5.0-2.55","","","","","","170","","","","","","[{""stimulus"":""img/red_lw/1.jpg"",""time"":58},{""stimulus"":""img/red_lw/2.jpg"",""time"":106},{""stimulus"":""img/red_lw/3.jpg"",""time"":153},{""stimulus"":""img/red_lw/4.jpg"",""time"":210},{""stimulus"":""img/red_lw/5.jpg"",""time"":253},{""stimulus"":""img/red_lw/6.jpg"",""time"":303},{""stimulus"":""img/red_lw/7.jpg"",""time"":353},{""stimulus"":""img/red_lw/8.jpg"",""time"":403},{""stimulus"":""img/red_lw/9.jpg"",""time"":453},{""stimulus"":""img/red_lw/10.jpg"",""time"":509},{""stimulus"":""img/red_lw/11.jpg"",""time"":553}]","[]"
"","","","choice","63ed12d2c25b08ba24fe8a41","bdp_lott","Fri Mar 24 2023 21:03:32 GMT-0700 (Pacific Daylight Time)","352735","red","green","image-keyboard-response","116","134803","0.0-5.0-1.56","","692","","img/red_lw/choose11.jpg","2","169","red","0.5","0.5","0.5","w","",""
"","","","","63ed12d2c25b08ba24fe8a41","bdp_lott","Fri Mar 24 2023 21:03:32 GMT-0700 (Pacific Daylight Time)","352735","red","green","animation","117","135409","0.0-5.0-2.56","","","","","","169","","","","","","[{""stimulus"":""img/red_lw/1.jpg"",""time"":57},{""stimulus"":""img/red_lw/2.jpg"",""time"":105},{""stimulus"":""img/red_lw/3.jpg"",""time"":172},{""stimulus"":""img/red_lw/4.jpg"",""time"":205},{""stimulus"":""img/red_lw/5.jpg"",""time"":256},{""stimulus"":""img/red_lw/6.jpg"",""time"":306},{""stimulus"":""img/red_lw/7.jpg"",""time"":355},{""stimulus"":""img/red_lw/8.jpg"",""time"":406},{""stimulus"":""img/red_lw/9.jpg"",""time"":456},{""stimulus"":""img/red_lw/10.jpg"",""time"":513},{""stimulus"":""img/red_lw/11.jpg"",""time"":556}]","[]"
"","","","choice","63ed12d2c25b08ba24fe8a41","bdp_lott","Fri Mar 24 2023 21:03:32 GMT-0700 (Pacific Daylight Time)","352735","red","green","image-keyboard-response","118","136389","0.0-5.0-1.57","","979","","img/red_lw/choose11.jpg","1","168","green","0.5","0.5","0.5","w","",""
"","","","","63ed12d2c25b08ba24fe8a41","bdp_lott","Fri Mar 24 2023 21:03:32 GMT-0700 (Pacific Daylight Time)","352735","red","green","animation","119","136990","0.0-5.0-2.57","","","","","","168","","","","","","[{""stimulus"":""img/green_ww/1.jpg"",""time"":57},{""stimulus"":""img/green_ww/2.jpg"",""time"":112},{""stimulus"":""img/green_ww/3.jpg"",""time"":161},{""stimulus"":""img/green_ww/4.jpg"",""time"":203},{""stimulus"":""img/green_ww/5.jpg"",""time"":252},{""stimulus"":""img/green_ww/6.jpg"",""time"":302},{""stimulus"":""img/green_ww/7.jpg"",""time"":352},{""stimulus"":""img/green_ww/8.jpg"",""time"":402},{""stimulus"":""img/green_ww/9.jpg"",""time"":463},{""stimulus"":""img/green_ww/10.jpg"",""time"":503},{""stimulus"":""img/green_ww/11.jpg"",""time"":561}]","[]"
"","","","choice","63ed12d2c25b08ba24fe8a41","bdp_lott","Fri Mar 24 2023 21:03:32 GMT-0700 (Pacific Daylight Time)","352735","red","green","image-keyboard-response","120","137717","0.0-5.0-1.58","","726","","img/green_ww/choose11.jpg","1","167","green","0.5","0.5","0.5","l","",""
"","","","","63ed12d2c25b08ba24fe8a41","bdp_lott","Fri Mar 24 2023 21:03:32 GMT-0700 (Pacific Daylight Time)","352735","red","green","animation","121","138319","0.0-5.0-2.58","","","","","","167","","","","","","[{""stimulus"":""img/green_lw/1.jpg"",""time"":64},{""stimulus"":""img/green_lw/2.jpg"",""time"":107},{""stimulus"":""img/green_lw/3.jpg"",""time"":155},{""stimulus"":""img/green_lw/4.jpg"",""time"":215},{""stimulus"":""img/green_lw/5.jpg"",""time"":254},{""stimulus"":""img/green_lw/6.jpg"",""time"":306},{""stimulus"":""img/green_lw/7.jpg"",""time"":356},{""stimulus"":""img/green_lw/8.jpg"",""time"":400},{""stimulus"":""img/green_lw/9.jpg"",""time"":456},{""stimulus"":""img/green_lw/10.jpg"",""time"":504},{""stimulus"":""img/green_lw/11.jpg"",""time"":552}]","[]"
"","","","choice","63ed12d2c25b08ba24fe8a41","bdp_lott","Fri Mar 24 2023 21:03:32 GMT-0700 (Pacific Daylight Time)","352735","red","green","image-keyboard-response","122","138774","0.0-5.0-1.59","","455","","img/green_lw/choose11.jpg","2","166","red","0.5","0.5","0.5","l","",""
"","","","","63ed12d2c25b08ba24fe8a41","bdp_lott","Fri Mar 24 2023 21:03:32 GMT-0700 (Pacific Daylight Time)","352735","red","green","animation","123","139381","0.0-5.0-2.59","","","","","","166","","","","","","[{""stimulus"":""img/red_ll/1.jpg"",""time"":65},{""stimulus"":""img/red_ll/2.jpg"",""time"":107},{""stimulus"":""img/red_ll/3.jpg"",""time"":165},{""stimulus"":""img/red_ll/4.jpg"",""time"":207},{""stimulus"":""img/red_ll/5.jpg"",""time"":255},{""stimulus"":""img/red_ll/6.jpg"",""time"":303},{""stimulus"":""img/red_ll/7.jpg"",""time"":351},{""stimulus"":""img/red_ll/8.jpg"",""time"":407},{""stimulus"":""img/red_ll/9.jpg"",""time"":455},{""stimulus"":""img/red_ll/10.jpg"",""time"":502},{""stimulus"":""img/red_ll/11.jpg"",""time"":574}]","[]"
"","","","choice","63ed12d2c25b08ba24fe8a41","bdp_lott","Fri Mar 24 2023 21:03:32 GMT-0700 (Pacific Daylight Time)","352735","red","green","image-keyboard-response","124","140584","0.0-5.0-1.60","","1203","","img/red_ll/choose11.jpg","1","165","green","0.5","0.5","0.5","w","",""
"","","","","63ed12d2c25b08ba24fe8a41","bdp_lott","Fri Mar 24 2023 21:03:32 GMT-0700 (Pacific Daylight Time)","352735","red","green","animation","125","141188","0.0-5.0-2.60","","","","","","165","","","","","","[{""stimulus"":""img/green_wl/1.jpg"",""time"":56},{""stimulus"":""img/green_wl/2.jpg"",""time"":113},{""stimulus"":""img/green_wl/3.jpg"",""time"":163},{""stimulus"":""img/green_wl/4.jpg"",""time"":203},{""stimulus"":""img/green_wl/5.jpg"",""time"":252},{""stimulus"":""img/green_wl/6.jpg"",""time"":302},{""stimulus"":""img/green_wl/7.jpg"",""time"":357},{""stimulus"":""img/green_wl/8.jpg"",""time"":406},{""stimulus"":""img/green_wl/9.jpg"",""time"":454},{""stimulus"":""img/green_wl/10.jpg"",""time"":503},{""stimulus"":""img/green_wl/11.jpg"",""time"":561}]","[]"
"","","","choice","63ed12d2c25b08ba24fe8a41","bdp_lott","Fri Mar 24 2023 21:03:32 GMT-0700 (Pacific Daylight Time)","352735","red","green","image-keyboard-response","126","142520","0.0-5.0-1.61","","1331","","img/green_wl/choose11.jpg","2","164","red","0.5","0.5","0.5","l","",""
"","","","","63ed12d2c25b08ba24fe8a41","bdp_lott","Fri Mar 24 2023 21:03:32 GMT-0700 (Pacific Daylight Time)","352735","red","green","animation","127","143127","0.0-5.0-2.61","","","","","","164","","","","","","[{""stimulus"":""img/red_wl/1.jpg"",""time"":57},{""stimulus"":""img/red_wl/2.jpg"",""time"":109},{""stimulus"":""img/red_wl/3.jpg"",""time"":157},{""stimulus"":""img/red_wl/4.jpg"",""time"":208},{""stimulus"":""img/red_wl/5.jpg"",""time"":258},{""stimulus"":""img/red_wl/6.jpg"",""time"":308},{""stimulus"":""img/red_wl/7.jpg"",""time"":359},{""stimulus"":""img/red_wl/8.jpg"",""time"":408},{""stimulus"":""img/red_wl/9.jpg"",""time"":451},{""stimulus"":""img/red_wl/10.jpg"",""time"":508},{""stimulus"":""img/red_wl/11.jpg"",""time"":575}]","[]"
"","","","choice","63ed12d2c25b08ba24fe8a41","bdp_lott","Fri Mar 24 2023 21:03:32 GMT-0700 (Pacific Daylight Time)","352735","red","green","image-keyboard-response","128","143836","0.0-5.0-1.62","","709","","img/red_wl/choose11.jpg","2","163","red","0.5","0.5","0.5","l","",""
"","","","","63ed12d2c25b08ba24fe8a41","bdp_lott","Fri Mar 24 2023 21:03:32 GMT-0700 (Pacific Daylight Time)","352735","red","green","animation","129","144443","0.0-5.0-2.62","","","","","","163","","","","","","[{""stimulus"":""img/red_wl/1.jpg"",""time"":64},{""stimulus"":""img/red_wl/2.jpg"",""time"":107},{""stimulus"":""img/red_wl/3.jpg"",""time"":157},{""stimulus"":""img/red_wl/4.jpg"",""time"":201},{""stimulus"":""img/red_wl/5.jpg"",""time"":251},{""stimulus"":""img/red_wl/6.jpg"",""time"":301},{""stimulus"":""img/red_wl/7.jpg"",""time"":357},{""stimulus"":""img/red_wl/8.jpg"",""time"":405},{""stimulus"":""img/red_wl/9.jpg"",""time"":456},{""stimulus"":""img/red_wl/10.jpg"",""time"":507},{""stimulus"":""img/red_wl/11.jpg"",""time"":556}]","[]"
"","","","choice","63ed12d2c25b08ba24fe8a41","bdp_lott","Fri Mar 24 2023 21:03:32 GMT-0700 (Pacific Daylight Time)","352735","red","green","image-keyboard-response","130","144726","0.0-5.0-1.63","","282","","img/red_wl/choose11.jpg","1","162","green","0.5","0.5","0.5","l","",""
"","","","","63ed12d2c25b08ba24fe8a41","bdp_lott","Fri Mar 24 2023 21:03:32 GMT-0700 (Pacific Daylight Time)","352735","red","green","animation","131","145326","0.0-5.0-2.63","","","","","","162","","","","","","[{""stimulus"":""img/green_ll/1.jpg"",""time"":66},{""stimulus"":""img/green_ll/2.jpg"",""time"":110},{""stimulus"":""img/green_ll/3.jpg"",""time"":158},{""stimulus"":""img/green_ll/4.jpg"",""time"":224},{""stimulus"":""img/green_ll/5.jpg"",""time"":251},{""stimulus"":""img/green_ll/6.jpg"",""time"":301},{""stimulus"":""img/green_ll/7.jpg"",""time"":351},{""stimulus"":""img/green_ll/8.jpg"",""time"":401},{""stimulus"":""img/green_ll/9.jpg"",""time"":451},{""stimulus"":""img/green_ll/10.jpg"",""time"":500},{""stimulus"":""img/green_ll/11.jpg"",""time"":551}]","[]"
"","","","choice","63ed12d2c25b08ba24fe8a41","bdp_lott","Fri Mar 24 2023 21:03:32 GMT-0700 (Pacific Daylight Time)","352735","red","green","image-keyboard-response","132","145989","0.0-5.0-1.64","","662","","img/green_ll/choose11.jpg","2","161","red","0.5","0.5","0.5","w","",""
"","","","","63ed12d2c25b08ba24fe8a41","bdp_lott","Fri Mar 24 2023 21:03:32 GMT-0700 (Pacific Daylight Time)","352735","red","green","animation","133","146592","0.0-5.0-2.64","","","","","","161","","","","","","[{""stimulus"":""img/red_lw/1.jpg"",""time"":59},{""stimulus"":""img/red_lw/2.jpg"",""time"":102},{""stimulus"":""img/red_lw/3.jpg"",""time"":150},{""stimulus"":""img/red_lw/4.jpg"",""time"":202},{""stimulus"":""img/red_lw/5.jpg"",""time"":259},{""stimulus"":""img/red_lw/6.jpg"",""time"":302},{""stimulus"":""img/red_lw/7.jpg"",""time"":352},{""stimulus"":""img/red_lw/8.jpg"",""time"":402},{""stimulus"":""img/red_lw/9.jpg"",""time"":451},{""stimulus"":""img/red_lw/10.jpg"",""time"":524},{""stimulus"":""img/red_lw/11.jpg"",""time"":552}]","[]"
"","","","choice","63ed12d2c25b08ba24fe8a41","bdp_lott","Fri Mar 24 2023 21:03:32 GMT-0700 (Pacific Daylight Time)","352735","red","green","image-keyboard-response","134","147728","0.0-5.0-1.65","","1136","","img/red_lw/choose11.jpg","1","160","green","0.5","0.5","0.5","w","",""
"","","","","63ed12d2c25b08ba24fe8a41","bdp_lott","Fri Mar 24 2023 21:03:32 GMT-0700 (Pacific Daylight Time)","352735","red","green","animation","135","148335","0.0-5.0-2.65","","","","","","160","","","","","","[{""stimulus"":""img/green_ww/1.jpg"",""time"":57},{""stimulus"":""img/green_ww/2.jpg"",""time"":106},{""stimulus"":""img/green_ww/3.jpg"",""time"":161},{""stimulus"":""img/green_ww/4.jpg"",""time"":212},{""stimulus"":""img/green_ww/5.jpg"",""time"":252},{""stimulus"":""img/green_ww/6.jpg"",""time"":303},{""stimulus"":""img/green_ww/7.jpg"",""time"":361},{""stimulus"":""img/green_ww/8.jpg"",""time"":409},{""stimulus"":""img/green_ww/9.jpg"",""time"":453},{""stimulus"":""img/green_ww/10.jpg"",""time"":510},{""stimulus"":""img/green_ww/11.jpg"",""time"":558}]","[]"
"","","","choice","63ed12d2c25b08ba24fe8a41","bdp_lott","Fri Mar 24 2023 21:03:32 GMT-0700 (Pacific Daylight Time)","352735","red","green","image-keyboard-response","136","149597","0.0-5.0-1.66","","1260","","img/green_ww/choose11.jpg","2","159","red","0.5","0.5","0.5","w","",""
"","","","","63ed12d2c25b08ba24fe8a41","bdp_lott","Fri Mar 24 2023 21:03:32 GMT-0700 (Pacific Daylight Time)","352735","red","green","animation","137","150204","0.0-5.0-2.66","","","","","","159","","","","","","[{""stimulus"":""img/red_ww/1.jpg"",""time"":57},{""stimulus"":""img/red_ww/2.jpg"",""time"":103},{""stimulus"":""img/red_ww/3.jpg"",""time"":158},{""stimulus"":""img/red_ww/4.jpg"",""time"":208},{""stimulus"":""img/red_ww/5.jpg"",""time"":250},{""stimulus"":""img/red_ww/6.jpg"",""time"":309},{""stimulus"":""img/red_ww/7.jpg"",""time"":351},{""stimulus"":""img/red_ww/8.jpg"",""time"":408},{""stimulus"":""img/red_ww/9.jpg"",""time"":458},{""stimulus"":""img/red_ww/10.jpg"",""time"":501},{""stimulus"":""img/red_ww/11.jpg"",""time"":558}]","[]"
"","","","choice","63ed12d2c25b08ba24fe8a41","bdp_lott","Fri Mar 24 2023 21:03:32 GMT-0700 (Pacific Daylight Time)","352735","red","green","image-keyboard-response","138","151209","0.0-5.0-1.67","","1004","","img/red_ww/choose11.jpg","2","158","red","0.5","0.5","0.5","w","",""
"","","","","63ed12d2c25b08ba24fe8a41","bdp_lott","Fri Mar 24 2023 21:03:32 GMT-0700 (Pacific Daylight Time)","352735","red","green","animation","139","151818","0.0-5.0-2.67","","","","","","158","","","","","","[{""stimulus"":""img/red_ww/1.jpg"",""time"":57},{""stimulus"":""img/red_ww/2.jpg"",""time"":110},{""stimulus"":""img/red_ww/3.jpg"",""time"":151},{""stimulus"":""img/red_ww/4.jpg"",""time"":204},{""stimulus"":""img/red_ww/5.jpg"",""time"":253},{""stimulus"":""img/red_ww/6.jpg"",""time"":303},{""stimulus"":""img/red_ww/7.jpg"",""time"":362},{""stimulus"":""img/red_ww/8.jpg"",""time"":403},{""stimulus"":""img/red_ww/9.jpg"",""time"":454},{""stimulus"":""img/red_ww/10.jpg"",""time"":503},{""stimulus"":""img/red_ww/11.jpg"",""time"":553}]","[]"
"","","","choice","63ed12d2c25b08ba24fe8a41","bdp_lott","Fri Mar 24 2023 21:03:32 GMT-0700 (Pacific Daylight Time)","352735","red","green","image-keyboard-response","140","152533","0.0-5.0-1.68","","714","","img/red_ww/choose11.jpg","1","157","green","0.5","0.5","0.5","w","",""
"","","","","63ed12d2c25b08ba24fe8a41","bdp_lott","Fri Mar 24 2023 21:03:32 GMT-0700 (Pacific Daylight Time)","352735","red","green","animation","141","153139","0.0-5.0-2.68","","","","","","157","","","","","","[{""stimulus"":""img/green_ww/1.jpg"",""time"":52},{""stimulus"":""img/green_ww/2.jpg"",""time"":104},{""stimulus"":""img/green_ww/3.jpg"",""time"":154},{""stimulus"":""img/green_ww/4.jpg"",""time"":202},{""stimulus"":""img/green_ww/5.jpg"",""time"":254},{""stimulus"":""img/green_ww/6.jpg"",""time"":303},{""stimulus"":""img/green_ww/7.jpg"",""time"":351},{""stimulus"":""img/green_ww/8.jpg"",""time"":409},{""stimulus"":""img/green_ww/9.jpg"",""time"":452},{""stimulus"":""img/green_ww/10.jpg"",""time"":509},{""stimulus"":""img/green_ww/11.jpg"",""time"":552}]","[]"
"","","","choice","63ed12d2c25b08ba24fe8a41","bdp_lott","Fri Mar 24 2023 21:03:32 GMT-0700 (Pacific Daylight Time)","352735","red","green","image-keyboard-response","142","154314","0.0-5.0-1.69","","1175","","img/green_ww/choose11.jpg","2","156","red","0.5","0.5","0.5","l","",""
"","","","","63ed12d2c25b08ba24fe8a41","bdp_lott","Fri Mar 24 2023 21:03:32 GMT-0700 (Pacific Daylight Time)","352735","red","green","animation","143","154918","0.0-5.0-2.69","","","","","","156","","","","","","[{""stimulus"":""img/red_wl/1.jpg"",""time"":66},{""stimulus"":""img/red_wl/2.jpg"",""time"":104},{""stimulus"":""img/red_wl/3.jpg"",""time"":153},{""stimulus"":""img/red_wl/4.jpg"",""time"":220},{""stimulus"":""img/red_wl/5.jpg"",""time"":254},{""stimulus"":""img/red_wl/6.jpg"",""time"":303},{""stimulus"":""img/red_wl/7.jpg"",""time"":354},{""stimulus"":""img/red_wl/8.jpg"",""time"":403},{""stimulus"":""img/red_wl/9.jpg"",""time"":454},{""stimulus"":""img/red_wl/10.jpg"",""time"":525},{""stimulus"":""img/red_wl/11.jpg"",""time"":554}]","[]"
"","","","choice","63ed12d2c25b08ba24fe8a41","bdp_lott","Fri Mar 24 2023 21:03:32 GMT-0700 (Pacific Daylight Time)","352735","red","green","image-keyboard-response","144","155672","0.0-5.0-1.70","","753","","img/red_wl/choose11.jpg","2","155","red","0.5","0.5","0.5","w","",""
"","","","","63ed12d2c25b08ba24fe8a41","bdp_lott","Fri Mar 24 2023 21:03:32 GMT-0700 (Pacific Daylight Time)","352735","red","green","animation","145","156274","0.0-5.0-2.70","","","","","","155","","","","","","[{""stimulus"":""img/red_ww/1.jpg"",""time"":56},{""stimulus"":""img/red_ww/2.jpg"",""time"":104},{""stimulus"":""img/red_ww/3.jpg"",""time"":161},{""stimulus"":""img/red_ww/4.jpg"",""time"":211},{""stimulus"":""img/red_ww/5.jpg"",""time"":253},{""stimulus"":""img/red_ww/6.jpg"",""time"":306},{""stimulus"":""img/red_ww/7.jpg"",""time"":353},{""stimulus"":""img/red_ww/8.jpg"",""time"":410},{""stimulus"":""img/red_ww/9.jpg"",""time"":453},{""stimulus"":""img/red_ww/10.jpg"",""time"":503},{""stimulus"":""img/red_ww/11.jpg"",""time"":553}]","[]"
"","","","choice","63ed12d2c25b08ba24fe8a41","bdp_lott","Fri Mar 24 2023 21:03:32 GMT-0700 (Pacific Daylight Time)","352735","red","green","image-keyboard-response","146","156765","0.0-5.0-1.71","","490","","img/red_ww/choose11.jpg","1","154","green","0.5","0.5","0.5","w","",""
"","","","","63ed12d2c25b08ba24fe8a41","bdp_lott","Fri Mar 24 2023 21:03:32 GMT-0700 (Pacific Daylight Time)","352735","red","green","animation","147","157366","0.0-5.0-2.71","","","","","","154","","","","","","[{""stimulus"":""img/green_ww/1.jpg"",""time"":67},{""stimulus"":""img/green_ww/2.jpg"",""time"":114},{""stimulus"":""img/green_ww/3.jpg"",""time"":151},{""stimulus"":""img/green_ww/4.jpg"",""time"":201},{""stimulus"":""img/green_ww/5.jpg"",""time"":274},{""stimulus"":""img/green_ww/6.jpg"",""time"":301},{""stimulus"":""img/green_ww/7.jpg"",""time"":351},{""stimulus"":""img/green_ww/8.jpg"",""time"":401},{""stimulus"":""img/green_ww/9.jpg"",""time"":451},{""stimulus"":""img/green_ww/10.jpg"",""time"":501},{""stimulus"":""img/green_ww/11.jpg"",""time"":551}]","[]"
"","","","choice","63ed12d2c25b08ba24fe8a41","bdp_lott","Fri Mar 24 2023 21:03:32 GMT-0700 (Pacific Daylight Time)","352735","red","green","image-keyboard-response","148","158142","0.0-5.0-1.72","","775","","img/green_ww/choose11.jpg","1","153","green","0.5","0.5","0.5","l","",""
"","","","","63ed12d2c25b08ba24fe8a41","bdp_lott","Fri Mar 24 2023 21:03:32 GMT-0700 (Pacific Daylight Time)","352735","red","green","animation","149","158747","0.0-5.0-2.72","","","","","","153","","","","","","[{""stimulus"":""img/green_lw/1.jpg"",""time"":55},{""stimulus"":""img/green_lw/2.jpg"",""time"":123},{""stimulus"":""img/green_lw/3.jpg"",""time"":155},{""stimulus"":""img/green_lw/4.jpg"",""time"":207},{""stimulus"":""img/green_lw/5.jpg"",""time"":255},{""stimulus"":""img/green_lw/6.jpg"",""time"":306},{""stimulus"":""img/green_lw/7.jpg"",""time"":354},{""stimulus"":""img/green_lw/8.jpg"",""time"":402},{""stimulus"":""img/green_lw/9.jpg"",""time"":456},{""stimulus"":""img/green_lw/10.jpg"",""time"":501},{""stimulus"":""img/green_lw/11.jpg"",""time"":559}]","[]"
"","","","choice","63ed12d2c25b08ba24fe8a41","bdp_lott","Fri Mar 24 2023 21:03:32 GMT-0700 (Pacific Daylight Time)","352735","red","green","image-keyboard-response","150","159297","0.0-5.0-1.73","","549","","img/green_lw/choose11.jpg","2","152","red","0.5","0.5","0.5","w","",""
"","","","","63ed12d2c25b08ba24fe8a41","bdp_lott","Fri Mar 24 2023 21:03:32 GMT-0700 (Pacific Daylight Time)","352735","red","green","animation","151","159905","0.0-5.0-2.73","","","","","","152","","","","","","[{""stimulus"":""img/red_lw/1.jpg"",""time"":66},{""stimulus"":""img/red_lw/2.jpg"",""time"":106},{""stimulus"":""img/red_lw/3.jpg"",""time"":167},{""stimulus"":""img/red_lw/4.jpg"",""time"":208},{""stimulus"":""img/red_lw/5.jpg"",""time"":256},{""stimulus"":""img/red_lw/6.jpg"",""time"":308},{""stimulus"":""img/red_lw/7.jpg"",""time"":351},{""stimulus"":""img/red_lw/8.jpg"",""time"":401},{""stimulus"":""img/red_lw/9.jpg"",""time"":451},{""stimulus"":""img/red_lw/10.jpg"",""time"":508},{""stimulus"":""img/red_lw/11.jpg"",""time"":566}]","[]"
"","","","choice","63ed12d2c25b08ba24fe8a41","bdp_lott","Fri Mar 24 2023 21:03:32 GMT-0700 (Pacific Daylight Time)","352735","red","green","image-keyboard-response","152","160704","0.0-5.0-1.74","","799","","img/red_lw/choose11.jpg","1","151","green","0.5","0.5","0.5","w","",""
"","","","","63ed12d2c25b08ba24fe8a41","bdp_lott","Fri Mar 24 2023 21:03:32 GMT-0700 (Pacific Daylight Time)","352735","red","green","animation","153","161320","0.0-5.0-2.74","","","","","","151","","","","","","[{""stimulus"":""img/green_ww/1.jpg"",""time"":57},{""stimulus"":""img/green_ww/2.jpg"",""time"":108},{""stimulus"":""img/green_ww/3.jpg"",""time"":151},{""stimulus"":""img/green_ww/4.jpg"",""time"":201},{""stimulus"":""img/green_ww/5.jpg"",""time"":258},{""stimulus"":""img/green_ww/6.jpg"",""time"":306},{""stimulus"":""img/green_ww/7.jpg"",""time"":358},{""stimulus"":""img/green_ww/8.jpg"",""time"":407},{""stimulus"":""img/green_ww/9.jpg"",""time"":455},{""stimulus"":""img/green_ww/10.jpg"",""time"":508},{""stimulus"":""img/green_ww/11.jpg"",""time"":558}]","[]"
"","","","choice","63ed12d2c25b08ba24fe8a41","bdp_lott","Fri Mar 24 2023 21:03:32 GMT-0700 (Pacific Daylight Time)","352735","red","green","image-keyboard-response","154","162049","0.0-5.0-1.75","","728","","img/green_ww/choose11.jpg","2","150","red","0.5","0.5","0.5","l","",""
"","","","","63ed12d2c25b08ba24fe8a41","bdp_lott","Fri Mar 24 2023 21:03:32 GMT-0700 (Pacific Daylight Time)","352735","red","green","animation","155","162652","0.0-5.0-2.75","","","","","","150","","","","","","[{""stimulus"":""img/red_wl/1.jpg"",""time"":57},{""stimulus"":""img/red_wl/2.jpg"",""time"":110},{""stimulus"":""img/red_wl/3.jpg"",""time"":153},{""stimulus"":""img/red_wl/4.jpg"",""time"":203},{""stimulus"":""img/red_wl/5.jpg"",""time"":253},{""stimulus"":""img/red_wl/6.jpg"",""time"":303},{""stimulus"":""img/red_wl/7.jpg"",""time"":360},{""stimulus"":""img/red_wl/8.jpg"",""time"":403},{""stimulus"":""img/red_wl/9.jpg"",""time"":455},{""stimulus"":""img/red_wl/10.jpg"",""time"":504},{""stimulus"":""img/red_wl/11.jpg"",""time"":553}]","[]"
"","","","choice","63ed12d2c25b08ba24fe8a41","bdp_lott","Fri Mar 24 2023 21:03:32 GMT-0700 (Pacific Daylight Time)","352735","red","green","image-keyboard-response","156","164437","0.0-5.0-1.76","","1784","","img/red_wl/choose11.jpg","1","149","green","0.5","0.1","0.1","l","",""
"","","","","63ed12d2c25b08ba24fe8a41","bdp_lott","Fri Mar 24 2023 21:03:32 GMT-0700 (Pacific Daylight Time)","352735","red","green","animation","157","165041","0.0-5.0-2.76","","","","","","149","","","","","","[{""stimulus"":""img/green_ll/1.jpg"",""time"":65},{""stimulus"":""img/green_ll/2.jpg"",""time"":105},{""stimulus"":""img/green_ll/3.jpg"",""time"":154},{""stimulus"":""img/green_ll/4.jpg"",""time"":224},{""stimulus"":""img/green_ll/5.jpg"",""time"":256},{""stimulus"":""img/green_ll/6.jpg"",""time"":306},{""stimulus"":""img/green_ll/7.jpg"",""time"":356},{""stimulus"":""img/green_ll/8.jpg"",""time"":405},{""stimulus"":""img/green_ll/9.jpg"",""time"":453},{""stimulus"":""img/green_ll/10.jpg"",""time"":505},{""stimulus"":""img/green_ll/11.jpg"",""time"":558}]","[]"
"","","","choice","63ed12d2c25b08ba24fe8a41","bdp_lott","Fri Mar 24 2023 21:03:32 GMT-0700 (Pacific Daylight Time)","352735","red","green","image-keyboard-response","158","165644","0.0-5.0-1.77","","602","","img/green_ll/choose11.jpg","2","148","red","0.5","0.1","0.5","w","",""
"","","","","63ed12d2c25b08ba24fe8a41","bdp_lott","Fri Mar 24 2023 21:03:32 GMT-0700 (Pacific Daylight Time)","352735","red","green","animation","159","166255","0.0-5.0-2.77","","","","","","148","","","","","","[{""stimulus"":""img/red_lw/1.jpg"",""time"":58},{""stimulus"":""img/red_lw/2.jpg"",""time"":112},{""stimulus"":""img/red_lw/3.jpg"",""time"":155},{""stimulus"":""img/red_lw/4.jpg"",""time"":211},{""stimulus"":""img/red_lw/5.jpg"",""time"":255},{""stimulus"":""img/red_lw/6.jpg"",""time"":311},{""stimulus"":""img/red_lw/7.jpg"",""time"":355},{""stimulus"":""img/red_lw/8.jpg"",""time"":410},{""stimulus"":""img/red_lw/9.jpg"",""time"":455},{""stimulus"":""img/red_lw/10.jpg"",""time"":511},{""stimulus"":""img/red_lw/11.jpg"",""time"":555}]","[]"
"","","","choice","63ed12d2c25b08ba24fe8a41","bdp_lott","Fri Mar 24 2023 21:03:32 GMT-0700 (Pacific Daylight Time)","352735","red","green","image-keyboard-response","160","166684","0.0-5.0-1.78","","428","","img/red_lw/choose11.jpg","1","147","green","0.5","0.1","0.1","l","",""
"","","","","63ed12d2c25b08ba24fe8a41","bdp_lott","Fri Mar 24 2023 21:03:32 GMT-0700 (Pacific Daylight Time)","352735","red","green","animation","161","167307","0.0-5.0-2.78","","","","","","147","","","","","","[{""stimulus"":""img/green_lw/1.jpg"",""time"":65},{""stimulus"":""img/green_lw/2.jpg"",""time"":108},{""stimulus"":""img/green_lw/3.jpg"",""time"":156},{""stimulus"":""img/green_lw/4.jpg"",""time"":204},{""stimulus"":""img/green_lw/5.jpg"",""time"":252},{""stimulus"":""img/green_lw/6.jpg"",""time"":324},{""stimulus"":""img/green_lw/7.jpg"",""time"":356},{""stimulus"":""img/green_lw/8.jpg"",""time"":406},{""stimulus"":""img/green_lw/9.jpg"",""time"":456},{""stimulus"":""img/green_lw/10.jpg"",""time"":503},{""stimulus"":""img/green_lw/11.jpg"",""time"":551}]","[]"
"","","","choice","63ed12d2c25b08ba24fe8a41","bdp_lott","Fri Mar 24 2023 21:03:32 GMT-0700 (Pacific Daylight Time)","352735","red","green","image-keyboard-response","162","168278","0.0-5.0-1.79","","971","","img/green_lw/choose11.jpg","2","146","red","0.5","0.1","0.5","l","",""
"","","","","63ed12d2c25b08ba24fe8a41","bdp_lott","Fri Mar 24 2023 21:03:32 GMT-0700 (Pacific Daylight Time)","352735","red","green","animation","163","168880","0.0-5.0-2.79","","","","","","146","","","","","","[{""stimulus"":""img/red_ll/1.jpg"",""time"":58},{""stimulus"":""img/red_ll/2.jpg"",""time"":107},{""stimulus"":""img/red_ll/3.jpg"",""time"":155},{""stimulus"":""img/red_ll/4.jpg"",""time"":203},{""stimulus"":""img/red_ll/5.jpg"",""time"":259},{""stimulus"":""img/red_ll/6.jpg"",""time"":308},{""stimulus"":""img/red_ll/7.jpg"",""time"":356},{""stimulus"":""img/red_ll/8.jpg"",""time"":414},{""stimulus"":""img/red_ll/9.jpg"",""time"":452},{""stimulus"":""img/red_ll/10.jpg"",""time"":502},{""stimulus"":""img/red_ll/11.jpg"",""time"":559}]","[]"
"","","","choice","63ed12d2c25b08ba24fe8a41","bdp_lott","Fri Mar 24 2023 21:03:32 GMT-0700 (Pacific Daylight Time)","352735","red","green","image-keyboard-response","164","169303","0.0-5.0-1.80","","423","","img/red_ll/choose11.jpg","1","145","green","0.5","0.1","0.1","l","",""
"","","","","63ed12d2c25b08ba24fe8a41","bdp_lott","Fri Mar 24 2023 21:03:32 GMT-0700 (Pacific Daylight Time)","352735","red","green","animation","165","169905","0.0-5.0-2.80","","","","","","145","","","","","","[{""stimulus"":""img/green_ll/1.jpg"",""time"":58},{""stimulus"":""img/green_ll/2.jpg"",""time"":106},{""stimulus"":""img/green_ll/3.jpg"",""time"":150},{""stimulus"":""img/green_ll/4.jpg"",""time"":201},{""stimulus"":""img/green_ll/5.jpg"",""time"":251},{""stimulus"":""img/green_ll/6.jpg"",""time"":301},{""stimulus"":""img/green_ll/7.jpg"",""time"":351},{""stimulus"":""img/green_ll/8.jpg"",""time"":407},{""stimulus"":""img/green_ll/9.jpg"",""time"":474},{""stimulus"":""img/green_ll/10.jpg"",""time"":501},{""stimulus"":""img/green_ll/11.jpg"",""time"":551}]","[]"
"","","","choice","63ed12d2c25b08ba24fe8a41","bdp_lott","Fri Mar 24 2023 21:03:32 GMT-0700 (Pacific Daylight Time)","352735","red","green","image-keyboard-response","166","170337","0.0-5.0-1.81","","430","","img/green_ll/choose11.jpg","1","144","green","0.5","0.1","0.1","l","",""
"","","","","63ed12d2c25b08ba24fe8a41","bdp_lott","Fri Mar 24 2023 21:03:32 GMT-0700 (Pacific Daylight Time)","352735","red","green","animation","167","170937","0.0-5.0-2.81","","","","","","144","","","","","","[{""stimulus"":""img/green_ll/1.jpg"",""time"":66},{""stimulus"":""img/green_ll/2.jpg"",""time"":110},{""stimulus"":""img/green_ll/3.jpg"",""time"":158},{""stimulus"":""img/green_ll/4.jpg"",""time"":208},{""stimulus"":""img/green_ll/5.jpg"",""time"":267},{""stimulus"":""img/green_ll/6.jpg"",""time"":307},{""stimulus"":""img/green_ll/7.jpg"",""time"":353},{""stimulus"":""img/green_ll/8.jpg"",""time"":408},{""stimulus"":""img/green_ll/9.jpg"",""time"":458},{""stimulus"":""img/green_ll/10.jpg"",""time"":522},{""stimulus"":""img/green_ll/11.jpg"",""time"":550}]","[]"
"","","","choice","63ed12d2c25b08ba24fe8a41","bdp_lott","Fri Mar 24 2023 21:03:32 GMT-0700 (Pacific Daylight Time)","352735","red","green","image-keyboard-response","168","171353","0.0-5.0-1.82","","415","","img/green_ll/choose11.jpg","2","143","red","0.5","0.1","0.5","w","",""
"","","","","63ed12d2c25b08ba24fe8a41","bdp_lott","Fri Mar 24 2023 21:03:32 GMT-0700 (Pacific Daylight Time)","352735","red","green","animation","169","171960","0.0-5.0-2.82","","","","","","143","","","","","","[{""stimulus"":""img/red_lw/1.jpg"",""time"":66},{""stimulus"":""img/red_lw/2.jpg"",""time"":109},{""stimulus"":""img/red_lw/3.jpg"",""time"":151},{""stimulus"":""img/red_lw/4.jpg"",""time"":201},{""stimulus"":""img/red_lw/5.jpg"",""time"":265},{""stimulus"":""img/red_lw/6.jpg"",""time"":305},{""stimulus"":""img/red_lw/7.jpg"",""time"":369},{""stimulus"":""img/red_lw/8.jpg"",""time"":402},{""stimulus"":""img/red_lw/9.jpg"",""time"":458},{""stimulus"":""img/red_lw/10.jpg"",""time"":515},{""stimulus"":""img/red_lw/11.jpg"",""time"":558}]","[]"
"","","","choice","63ed12d2c25b08ba24fe8a41","bdp_lott","Fri Mar 24 2023 21:03:32 GMT-0700 (Pacific Daylight Time)","352735","red","green","image-keyboard-response","170","172602","0.0-5.0-1.83","","641","","img/red_lw/choose11.jpg","1","142","green","0.5","0.1","0.1","l","",""
"","","","","63ed12d2c25b08ba24fe8a41","bdp_lott","Fri Mar 24 2023 21:03:32 GMT-0700 (Pacific Daylight Time)","352735","red","green","animation","171","173209","0.0-5.0-2.83","","","","","","142","","","","","","[{""stimulus"":""img/green_lw/1.jpg"",""time"":58},{""stimulus"":""img/green_lw/2.jpg"",""time"":109},{""stimulus"":""img/green_lw/3.jpg"",""time"":157},{""stimulus"":""img/green_lw/4.jpg"",""time"":207},{""stimulus"":""img/green_lw/5.jpg"",""time"":266},{""stimulus"":""img/green_lw/6.jpg"",""time"":316},{""stimulus"":""img/green_lw/7.jpg"",""time"":358},{""stimulus"":""img/green_lw/8.jpg"",""time"":414},{""stimulus"":""img/green_lw/9.jpg"",""time"":458},{""stimulus"":""img/green_lw/10.jpg"",""time"":514},{""stimulus"":""img/green_lw/11.jpg"",""time"":557}]","[]"
"","","","choice","63ed12d2c25b08ba24fe8a41","bdp_lott","Fri Mar 24 2023 21:03:32 GMT-0700 (Pacific Daylight Time)","352735","red","green","image-keyboard-response","172","173633","0.0-5.0-1.84","","423","","img/green_lw/choose11.jpg","1","141","green","0.5","0.1","0.1","l","",""
"","","","","63ed12d2c25b08ba24fe8a41","bdp_lott","Fri Mar 24 2023 21:03:32 GMT-0700 (Pacific Daylight Time)","352735","red","green","animation","173","174242","0.0-5.0-2.84","","","","","","141","","","","","","[{""stimulus"":""img/green_lw/1.jpg"",""time"":66},{""stimulus"":""img/green_lw/2.jpg"",""time"":109},{""stimulus"":""img/green_lw/3.jpg"",""time"":151},{""stimulus"":""img/green_lw/4.jpg"",""time"":200},{""stimulus"":""img/green_lw/5.jpg"",""time"":254},{""stimulus"":""img/green_lw/6.jpg"",""time"":308},{""stimulus"":""img/green_lw/7.jpg"",""time"":358},{""stimulus"":""img/green_lw/8.jpg"",""time"":408},{""stimulus"":""img/green_lw/9.jpg"",""time"":458},{""stimulus"":""img/green_lw/10.jpg"",""time"":507},{""stimulus"":""img/green_lw/11.jpg"",""time"":566}]","[]"
"","","","choice","63ed12d2c25b08ba24fe8a41","bdp_lott","Fri Mar 24 2023 21:03:32 GMT-0700 (Pacific Daylight Time)","352735","red","green","image-keyboard-response","174","174610","0.0-5.0-1.85","","367","","img/green_lw/choose11.jpg","2","140","red","0.5","0.1","0.5","w","",""
"","","","","63ed12d2c25b08ba24fe8a41","bdp_lott","Fri Mar 24 2023 21:03:32 GMT-0700 (Pacific Daylight Time)","352735","red","green","animation","175","175216","0.0-5.0-2.85","","","","","","140","","","","","","[{""stimulus"":""img/red_lw/1.jpg"",""time"":55},{""stimulus"":""img/red_lw/2.jpg"",""time"":103},{""stimulus"":""img/red_lw/3.jpg"",""time"":156},{""stimulus"":""img/red_lw/4.jpg"",""time"":207},{""stimulus"":""img/red_lw/5.jpg"",""time"":257},{""stimulus"":""img/red_lw/6.jpg"",""time"":307},{""stimulus"":""img/red_lw/7.jpg"",""time"":352},{""stimulus"":""img/red_lw/8.jpg"",""time"":415},{""stimulus"":""img/red_lw/9.jpg"",""time"":464},{""stimulus"":""img/red_lw/10.jpg"",""time"":506},{""stimulus"":""img/red_lw/11.jpg"",""time"":556}]","[]"
"","","","choice","63ed12d2c25b08ba24fe8a41","bdp_lott","Fri Mar 24 2023 21:03:32 GMT-0700 (Pacific Daylight Time)","352735","red","green","image-keyboard-response","176","176752","0.0-5.0-1.86","","1536","","img/red_lw/choose11.jpg","2","139","red","0.5","0.1","0.5","l","",""
"","","","","63ed12d2c25b08ba24fe8a41","bdp_lott","Fri Mar 24 2023 21:03:32 GMT-0700 (Pacific Daylight Time)","352735","red","green","animation","177","177363","0.0-5.0-2.86","","","","","","139","","","","","","[{""stimulus"":""img/red_ll/1.jpg"",""time"":61},{""stimulus"":""img/red_ll/2.jpg"",""time"":104},{""stimulus"":""img/red_ll/3.jpg"",""time"":161},{""stimulus"":""img/red_ll/4.jpg"",""time"":203},{""stimulus"":""img/red_ll/5.jpg"",""time"":253},{""stimulus"":""img/red_ll/6.jpg"",""time"":311},{""stimulus"":""img/red_ll/7.jpg"",""time"":354},{""stimulus"":""img/red_ll/8.jpg"",""time"":402},{""stimulus"":""img/red_ll/9.jpg"",""time"":462},{""stimulus"":""img/red_ll/10.jpg"",""time"":510},{""stimulus"":""img/red_ll/11.jpg"",""time"":553}]","[]"
"","","","choice","63ed12d2c25b08ba24fe8a41","bdp_lott","Fri Mar 24 2023 21:03:32 GMT-0700 (Pacific Daylight Time)","352735","red","green","image-keyboard-response","178","177682","0.0-5.0-1.87","","318","","img/red_ll/choose11.jpg","1","138","green","0.5","0.1","0.1","l","",""
"","","","","63ed12d2c25b08ba24fe8a41","bdp_lott","Fri Mar 24 2023 21:03:32 GMT-0700 (Pacific Daylight Time)","352735","red","green","animation","179","178295","0.0-5.0-2.87","","","","","","138","","","","","","[{""stimulus"":""img/green_ll/1.jpg"",""time"":57},{""stimulus"":""img/green_ll/2.jpg"",""time"":114},{""stimulus"":""img/green_ll/3.jpg"",""time"":164},{""stimulus"":""img/green_ll/4.jpg"",""time"":205},{""stimulus"":""img/green_ll/5.jpg"",""time"":262},{""stimulus"":""img/green_ll/6.jpg"",""time"":303},{""stimulus"":""img/green_ll/7.jpg"",""time"":356},{""stimulus"":""img/green_ll/8.jpg"",""time"":406},{""stimulus"":""img/green_ll/9.jpg"",""time"":455},{""stimulus"":""img/green_ll/10.jpg"",""time"":504},{""stimulus"":""img/green_ll/11.jpg"",""time"":556}]","[]"
"","","","choice","63ed12d2c25b08ba24fe8a41","bdp_lott","Fri Mar 24 2023 21:03:32 GMT-0700 (Pacific Daylight Time)","352735","red","green","image-keyboard-response","180","178757","0.0-5.0-1.88","","461","","img/green_ll/choose11.jpg","1","137","green","0.5","0.1","0.1","l","",""
"","","","","63ed12d2c25b08ba24fe8a41","bdp_lott","Fri Mar 24 2023 21:03:32 GMT-0700 (Pacific Daylight Time)","352735","red","green","animation","181","179358","0.0-5.0-2.88","","","","","","137","","","","","","[{""stimulus"":""img/green_ll/1.jpg"",""time"":65},{""stimulus"":""img/green_ll/2.jpg"",""time"":106},{""stimulus"":""img/green_ll/3.jpg"",""time"":156},{""stimulus"":""img/green_ll/4.jpg"",""time"":213},{""stimulus"":""img/green_ll/5.jpg"",""time"":256},{""stimulus"":""img/green_ll/6.jpg"",""time"":314},{""stimulus"":""img/green_ll/7.jpg"",""time"":355},{""stimulus"":""img/green_ll/8.jpg"",""time"":406},{""stimulus"":""img/green_ll/9.jpg"",""time"":451},{""stimulus"":""img/green_ll/10.jpg"",""time"":505},{""stimulus"":""img/green_ll/11.jpg"",""time"":556}]","[]"
"","","","choice","63ed12d2c25b08ba24fe8a41","bdp_lott","Fri Mar 24 2023 21:03:32 GMT-0700 (Pacific Daylight Time)","352735","red","green","image-keyboard-response","182","179970","0.0-5.0-1.89","","611","","img/green_ll/choose11.jpg","1","136","green","0.5","0.1","0.1","l","",""
"","","","","63ed12d2c25b08ba24fe8a41","bdp_lott","Fri Mar 24 2023 21:03:32 GMT-0700 (Pacific Daylight Time)","352735","red","green","animation","183","180578","0.0-5.0-2.89","","","","","","136","","","","","","[{""stimulus"":""img/green_ll/1.jpg"",""time"":57},{""stimulus"":""img/green_ll/2.jpg"",""time"":109},{""stimulus"":""img/green_ll/3.jpg"",""time"":158},{""stimulus"":""img/green_ll/4.jpg"",""time"":207},{""stimulus"":""img/green_ll/5.jpg"",""time"":256},{""stimulus"":""img/green_ll/6.jpg"",""time"":309},{""stimulus"":""img/green_ll/7.jpg"",""time"":357},{""stimulus"":""img/green_ll/8.jpg"",""time"":401},{""stimulus"":""img/green_ll/9.jpg"",""time"":458},{""stimulus"":""img/green_ll/10.jpg"",""time"":502},{""stimulus"":""img/green_ll/11.jpg"",""time"":558}]","[]"
"","","","choice","63ed12d2c25b08ba24fe8a41","bdp_lott","Fri Mar 24 2023 21:03:32 GMT-0700 (Pacific Daylight Time)","352735","red","green","image-keyboard-response","184","181041","0.0-5.0-1.90","","462","","img/green_ll/choose11.jpg","2","135","red","0.5","0.1","0.5","w","",""
"","","","","63ed12d2c25b08ba24fe8a41","bdp_lott","Fri Mar 24 2023 21:03:32 GMT-0700 (Pacific Daylight Time)","352735","red","green","animation","185","181643","0.0-5.0-2.90","","","","","","135","","","","","","[{""stimulus"":""img/red_lw/1.jpg"",""time"":65},{""stimulus"":""img/red_lw/2.jpg"",""time"":104},{""stimulus"":""img/red_lw/3.jpg"",""time"":152},{""stimulus"":""img/red_lw/4.jpg"",""time"":203},{""stimulus"":""img/red_lw/5.jpg"",""time"":253},{""stimulus"":""img/red_lw/6.jpg"",""time"":302},{""stimulus"":""img/red_lw/7.jpg"",""time"":353},{""stimulus"":""img/red_lw/8.jpg"",""time"":402},{""stimulus"":""img/red_lw/9.jpg"",""time"":453},{""stimulus"":""img/red_lw/10.jpg"",""time"":503},{""stimulus"":""img/red_lw/11.jpg"",""time"":558}]","[]"
"","","","choice","63ed12d2c25b08ba24fe8a41","bdp_lott","Fri Mar 24 2023 21:03:32 GMT-0700 (Pacific Daylight Time)","352735","red","green","image-keyboard-response","186","182257","0.0-5.0-1.91","","613","","img/red_lw/choose11.jpg","2","134","red","0.5","0.1","0.5","w","",""
"","","","","63ed12d2c25b08ba24fe8a41","bdp_lott","Fri Mar 24 2023 21:03:32 GMT-0700 (Pacific Daylight Time)","352735","red","green","animation","187","182865","0.0-5.0-2.91","","","","","","134","","","","","","[{""stimulus"":""img/red_lw/1.jpg"",""time"":52},{""stimulus"":""img/red_lw/2.jpg"",""time"":104},{""stimulus"":""img/red_lw/3.jpg"",""time"":153},{""stimulus"":""img/red_lw/4.jpg"",""time"":201},{""stimulus"":""img/red_lw/5.jpg"",""time"":253},{""stimulus"":""img/red_lw/6.jpg"",""time"":303},{""stimulus"":""img/red_lw/7.jpg"",""time"":353},{""stimulus"":""img/red_lw/8.jpg"",""time"":401},{""stimulus"":""img/red_lw/9.jpg"",""time"":452},{""stimulus"":""img/red_lw/10.jpg"",""time"":503},{""stimulus"":""img/red_lw/11.jpg"",""time"":551}]","[]"
"","","","choice","63ed12d2c25b08ba24fe8a41","bdp_lott","Fri Mar 24 2023 21:03:32 GMT-0700 (Pacific Daylight Time)","352735","red","green","image-keyboard-response","188","183569","0.0-5.0-1.92","","703","","img/red_lw/choose11.jpg","1","133","green","0.5","0.1","0.1","l","",""
"","","","","63ed12d2c25b08ba24fe8a41","bdp_lott","Fri Mar 24 2023 21:03:32 GMT-0700 (Pacific Daylight Time)","352735","red","green","animation","189","184175","0.0-5.0-2.92","","","","","","133","","","","","","[{""stimulus"":""img/green_lw/1.jpg"",""time"":65},{""stimulus"":""img/green_lw/2.jpg"",""time"":107},{""stimulus"":""img/green_lw/3.jpg"",""time"":151},{""stimulus"":""img/green_lw/4.jpg"",""time"":207},{""stimulus"":""img/green_lw/5.jpg"",""time"":256},{""stimulus"":""img/green_lw/6.jpg"",""time"":305},{""stimulus"":""img/green_lw/7.jpg"",""time"":353},{""stimulus"":""img/green_lw/8.jpg"",""time"":423},{""stimulus"":""img/green_lw/9.jpg"",""time"":455},{""stimulus"":""img/green_lw/10.jpg"",""time"":506},{""stimulus"":""img/green_lw/11.jpg"",""time"":556}]","[]"
"","","","choice","63ed12d2c25b08ba24fe8a41","bdp_lott","Fri Mar 24 2023 21:03:32 GMT-0700 (Pacific Daylight Time)","352735","red","green","image-keyboard-response","190","185150","0.0-5.0-1.93","","974","","img/green_lw/choose11.jpg","2","132","red","0.5","0.1","0.5","w","",""
