"trial_type","trial_index","time_elapsed","internal_node_id","subject_id","task","startTime","totalTime","fairMachine","unfairMachine","view_history","rt","event","trial","time","trialtype","success","stimulus","key_press","roundsLeft","chosen","pFairMachWin","pUnfairMachWin","pTrialWin","outcome","animation_sequence","responses"
"pavlovia","0","4","0.0-0.0","63d420b1d5b7dc6a3a4c50aa","bdp_lott","Mon Mar 27 2023 16:01:17 GMT-0400 (Eastern Daylight Time)","348613","red","green","","","","","","","","","","","","","","","","",""
"instructions","1","4002","0.0-1.0","63d420b1d5b7dc6a3a4c50aa","bdp_lott","Mon Mar 27 2023 16:01:17 GMT-0400 (Eastern Daylight Time)","348613","red","green","[{""page_index"":0,""viewing_time"":3997}]","3997","","","","","","","","","","","","","","",""
"","","","","63d420b1d5b7dc6a3a4c50aa","bdp_lott","Mon Mar 27 2023 16:01:17 GMT-0400 (Eastern Daylight Time)","348613","red","green","","","fullscreenenter","2","6680","fullscreenenter","","","","","","","","","","",""
"fullscreen","2","7660","0.0-2.0","63d420b1d5b7dc6a3a4c50aa","bdp_lott","Mon Mar 27 2023 16:01:17 GMT-0400 (Eastern Daylight Time)","348613","red","green","","","","","","","true","","","","","","","","","",""
"instructions","3","44014","0.0-4.0","63d420b1d5b7dc6a3a4c50aa","bdp_lott","Mon Mar 27 2023 16:01:17 GMT-0400 (Eastern Daylight Time)","348613","red","green","[{""page_index"":0,""viewing_time"":36352}]","36353","","","","","","","","","","","","","","",""
"image-keyboard-response","4","46127","0.0-5.0-1.0","63d420b1d5b7dc6a3a4c50aa","bdp_lott","Mon Mar 27 2023 16:01:17 GMT-0400 (Eastern Daylight Time)","348613","red","green","","2111","","","","choice","","img/red_ll/initchoose11.jpg","1","225","green","0.5","0.5","0.5","w","",""
"animation","5","46728","0.0-5.0-2.0","63d420b1d5b7dc6a3a4c50aa","bdp_lott","Mon Mar 27 2023 16:01:17 GMT-0400 (Eastern Daylight Time)","348613","red","green","","","","","","","","","","225","","","","","","[{""stimulus"":""img/green_wl/1.jpg"",""time"":66},{""stimulus"":""img/green_wl/2.jpg"",""time"":101},{""stimulus"":""img/green_wl/3.jpg"",""time"":151},{""stimulus"":""img/green_wl/4.jpg"",""time"":214},{""stimulus"":""img/green_wl/5.jpg"",""time"":265},{""stimulus"":""img/green_wl/6.jpg"",""time"":301},{""stimulus"":""img/green_wl/7.jpg"",""time"":351},{""stimulus"":""img/green_wl/8.jpg"",""time"":415},{""stimulus"":""img/green_wl/9.jpg"",""time"":451},{""stimulus"":""img/green_wl/10.jpg"",""time"":501},{""stimulus"":""img/green_wl/11.jpg"",""time"":551}]","[]"
"image-keyboard-response","6","49602","0.0-5.0-1.1","63d420b1d5b7dc6a3a4c50aa","bdp_lott","Mon Mar 27 2023 16:01:17 GMT-0400 (Eastern Daylight Time)","348613","red","green","","2873","","","","choice","","img/green_wl/choose11.jpg","1","224","green","0.5","0.5","0.5","l","",""
"animation","7","50203","0.0-5.0-2.1","63d420b1d5b7dc6a3a4c50aa","bdp_lott","Mon Mar 27 2023 16:01:17 GMT-0400 (Eastern Daylight Time)","348613","red","green","","","","","","","","","","224","","","","","","[{""stimulus"":""img/green_ll/1.jpg"",""time"":58},{""stimulus"":""img/green_ll/2.jpg"",""time"":108},{""stimulus"":""img/green_ll/3.jpg"",""time"":158},{""stimulus"":""img/green_ll/4.jpg"",""time"":201},{""stimulus"":""img/green_ll/5.jpg"",""time"":256},{""stimulus"":""img/green_ll/6.jpg"",""time"":305},{""stimulus"":""img/green_ll/7.jpg"",""time"":356},{""stimulus"":""img/green_ll/8.jpg"",""time"":424},{""stimulus"":""img/green_ll/9.jpg"",""time"":451},{""stimulus"":""img/green_ll/10.jpg"",""time"":507},{""stimulus"":""img/green_ll/11.jpg"",""time"":555}]","[]"
"image-keyboard-response","8","52044","0.0-5.0-1.2","63d420b1d5b7dc6a3a4c50aa","bdp_lott","Mon Mar 27 2023 16:01:17 GMT-0400 (Eastern Daylight Time)","348613","red","green","","1841","","","","choice","","img/green_ll/choose11.jpg","2","223","red","0.5","0.5","0.5","w","",""
"animation","9","52658","0.0-5.0-2.2","63d420b1d5b7dc6a3a4c50aa","bdp_lott","Mon Mar 27 2023 16:01:17 GMT-0400 (Eastern Daylight Time)","348613","red","green","","","","","","","","","","223","","","","","","[{""stimulus"":""img/red_lw/1.jpg"",""time"":66},{""stimulus"":""img/red_lw/2.jpg"",""time"":116},{""stimulus"":""img/red_lw/3.jpg"",""time"":165},{""stimulus"":""img/red_lw/4.jpg"",""time"":213},{""stimulus"":""img/red_lw/5.jpg"",""time"":263},{""stimulus"":""img/red_lw/6.jpg"",""time"":313},{""stimulus"":""img/red_lw/7.jpg"",""time"":363},{""stimulus"":""img/red_lw/8.jpg"",""time"":401},{""stimulus"":""img/red_lw/9.jpg"",""time"":452},{""stimulus"":""img/red_lw/10.jpg"",""time"":514},{""stimulus"":""img/red_lw/11.jpg"",""time"":564}]","[]"
"image-keyboard-response","10","53987","0.0-5.0-1.3","63d420b1d5b7dc6a3a4c50aa","bdp_lott","Mon Mar 27 2023 16:01:17 GMT-0400 (Eastern Daylight Time)","348613","red","green","","1329","","","","choice","","img/red_lw/choose11.jpg","2","222","red","0.5","0.5","0.5","l","",""
"animation","11","54592","0.0-5.0-2.3","63d420b1d5b7dc6a3a4c50aa","bdp_lott","Mon Mar 27 2023 16:01:17 GMT-0400 (Eastern Daylight Time)","348613","red","green","","","","","","","","","","222","","","","","","[{""stimulus"":""img/red_ll/1.jpg"",""time"":54},{""stimulus"":""img/red_ll/2.jpg"",""time"":103},{""stimulus"":""img/red_ll/3.jpg"",""time"":151},{""stimulus"":""img/red_ll/4.jpg"",""time"":201},{""stimulus"":""img/red_ll/5.jpg"",""time"":253},{""stimulus"":""img/red_ll/6.jpg"",""time"":301},{""stimulus"":""img/red_ll/7.jpg"",""time"":354},{""stimulus"":""img/red_ll/8.jpg"",""time"":403},{""stimulus"":""img/red_ll/9.jpg"",""time"":454},{""stimulus"":""img/red_ll/10.jpg"",""time"":504},{""stimulus"":""img/red_ll/11.jpg"",""time"":554}]","[]"
"image-keyboard-response","12","56090","0.0-5.0-1.4","63d420b1d5b7dc6a3a4c50aa","bdp_lott","Mon Mar 27 2023 16:01:17 GMT-0400 (Eastern Daylight Time)","348613","red","green","","1498","","","","choice","","img/red_ll/choose11.jpg","1","221","green","0.5","0.5","0.5","w","",""
"animation","13","56692","0.0-5.0-2.4","63d420b1d5b7dc6a3a4c50aa","bdp_lott","Mon Mar 27 2023 16:01:17 GMT-0400 (Eastern Daylight Time)","348613","red","green","","","","","","","","","","221","","","","","","[{""stimulus"":""img/green_wl/1.jpg"",""time"":51},{""stimulus"":""img/green_wl/2.jpg"",""time"":116},{""stimulus"":""img/green_wl/3.jpg"",""time"":152},{""stimulus"":""img/green_wl/4.jpg"",""time"":202},{""stimulus"":""img/green_wl/5.jpg"",""time"":251},{""stimulus"":""img/green_wl/6.jpg"",""time"":301},{""stimulus"":""img/green_wl/7.jpg"",""time"":368},{""stimulus"":""img/green_wl/8.jpg"",""time"":401},{""stimulus"":""img/green_wl/9.jpg"",""time"":452},{""stimulus"":""img/green_wl/10.jpg"",""time"":500},{""stimulus"":""img/green_wl/11.jpg"",""time"":568}]","[]"
"image-keyboard-response","14","57823","0.0-5.0-1.5","63d420b1d5b7dc6a3a4c50aa","bdp_lott","Mon Mar 27 2023 16:01:17 GMT-0400 (Eastern Daylight Time)","348613","red","green","","1129","","","","choice","","img/green_wl/choose11.jpg","2","220","red","0.5","0.5","0.5","w","",""
"animation","15","58424","0.0-5.0-2.5","63d420b1d5b7dc6a3a4c50aa","bdp_lott","Mon Mar 27 2023 16:01:17 GMT-0400 (Eastern Daylight Time)","348613","red","green","","","","","","","","","","220","","","","","","[{""stimulus"":""img/red_ww/1.jpg"",""time"":61},{""stimulus"":""img/red_ww/2.jpg"",""time"":113},{""stimulus"":""img/red_ww/3.jpg"",""time"":162},{""stimulus"":""img/red_ww/4.jpg"",""time"":205},{""stimulus"":""img/red_ww/5.jpg"",""time"":261},{""stimulus"":""img/red_ww/6.jpg"",""time"":301},{""stimulus"":""img/red_ww/7.jpg"",""time"":351},{""stimulus"":""img/red_ww/8.jpg"",""time"":401},{""stimulus"":""img/red_ww/9.jpg"",""time"":460},{""stimulus"":""img/red_ww/10.jpg"",""time"":511},{""stimulus"":""img/red_ww/11.jpg"",""time"":561}]","[]"
"image-keyboard-response","16","60051","0.0-5.0-1.6","63d420b1d5b7dc6a3a4c50aa","bdp_lott","Mon Mar 27 2023 16:01:17 GMT-0400 (Eastern Daylight Time)","348613","red","green","","1627","","","","choice","","img/red_ww/choose11.jpg","1","219","green","0.5","0.5","0.5","l","",""
"animation","17","60653","0.0-5.0-2.6","63d420b1d5b7dc6a3a4c50aa","bdp_lott","Mon Mar 27 2023 16:01:17 GMT-0400 (Eastern Daylight Time)","348613","red","green","","","","","","","","","","219","","","","","","[{""stimulus"":""img/green_lw/1.jpg"",""time"":66},{""stimulus"":""img/green_lw/2.jpg"",""time"":112},{""stimulus"":""img/green_lw/3.jpg"",""time"":166},{""stimulus"":""img/green_lw/4.jpg"",""time"":202},{""stimulus"":""img/green_lw/5.jpg"",""time"":265},{""stimulus"":""img/green_lw/6.jpg"",""time"":302},{""stimulus"":""img/green_lw/7.jpg"",""time"":351},{""stimulus"":""img/green_lw/8.jpg"",""time"":401},{""stimulus"":""img/green_lw/9.jpg"",""time"":452},{""stimulus"":""img/green_lw/10.jpg"",""time"":502},{""stimulus"":""img/green_lw/11.jpg"",""time"":551}]","[]"
"image-keyboard-response","18","61745","0.0-5.0-1.7","63d420b1d5b7dc6a3a4c50aa","bdp_lott","Mon Mar 27 2023 16:01:17 GMT-0400 (Eastern Daylight Time)","348613","red","green","","1092","","","","choice","","img/green_lw/choose11.jpg","1","218","green","0.5","0.5","0.5","l","",""
"animation","19","62348","0.0-5.0-2.7","63d420b1d5b7dc6a3a4c50aa","bdp_lott","Mon Mar 27 2023 16:01:17 GMT-0400 (Eastern Daylight Time)","348613","red","green","","","","","","","","","","218","","","","","","[{""stimulus"":""img/green_lw/1.jpg"",""time"":56},{""stimulus"":""img/green_lw/2.jpg"",""time"":102},{""stimulus"":""img/green_lw/3.jpg"",""time"":153},{""stimulus"":""img/green_lw/4.jpg"",""time"":203},{""stimulus"":""img/green_lw/5.jpg"",""time"":253},{""stimulus"":""img/green_lw/6.jpg"",""time"":302},{""stimulus"":""img/green_lw/7.jpg"",""time"":355},{""stimulus"":""img/green_lw/8.jpg"",""time"":402},{""stimulus"":""img/green_lw/9.jpg"",""time"":452},{""stimulus"":""img/green_lw/10.jpg"",""time"":501},{""stimulus"":""img/green_lw/11.jpg"",""time"":552}]","[]"
"image-keyboard-response","20","63393","0.0-5.0-1.8","63d420b1d5b7dc6a3a4c50aa","bdp_lott","Mon Mar 27 2023 16:01:17 GMT-0400 (Eastern Daylight Time)","348613","red","green","","1044","","","","choice","","img/green_lw/choose11.jpg","2","217","red","0.5","0.5","0.5","l","",""
"animation","21","64000","0.0-5.0-2.8","63d420b1d5b7dc6a3a4c50aa","bdp_lott","Mon Mar 27 2023 16:01:17 GMT-0400 (Eastern Daylight Time)","348613","red","green","","","","","","","","","","217","","","","","","[{""stimulus"":""img/red_ll/1.jpg"",""time"":56},{""stimulus"":""img/red_ll/2.jpg"",""time"":100},{""stimulus"":""img/red_ll/3.jpg"",""time"":159},{""stimulus"":""img/red_ll/4.jpg"",""time"":206},{""stimulus"":""img/red_ll/5.jpg"",""time"":251},{""stimulus"":""img/red_ll/6.jpg"",""time"":301},{""stimulus"":""img/red_ll/7.jpg"",""time"":351},{""stimulus"":""img/red_ll/8.jpg"",""time"":405},{""stimulus"":""img/red_ll/9.jpg"",""time"":457},{""stimulus"":""img/red_ll/10.jpg"",""time"":505},{""stimulus"":""img/red_ll/11.jpg"",""time"":555}]","[]"
"image-keyboard-response","22","65090","0.0-5.0-1.9","63d420b1d5b7dc6a3a4c50aa","bdp_lott","Mon Mar 27 2023 16:01:17 GMT-0400 (Eastern Daylight Time)","348613","red","green","","1089","","","","choice","","img/red_ll/choose11.jpg","1","216","green","0.5","0.5","0.5","l","",""
"animation","23","65691","0.0-5.0-2.9","63d420b1d5b7dc6a3a4c50aa","bdp_lott","Mon Mar 27 2023 16:01:17 GMT-0400 (Eastern Daylight Time)","348613","red","green","","","","","","","","","","216","","","","","","[{""stimulus"":""img/green_ll/1.jpg"",""time"":61},{""stimulus"":""img/green_ll/2.jpg"",""time"":101},{""stimulus"":""img/green_ll/3.jpg"",""time"":159},{""stimulus"":""img/green_ll/4.jpg"",""time"":201},{""stimulus"":""img/green_ll/5.jpg"",""time"":259},{""stimulus"":""img/green_ll/6.jpg"",""time"":302},{""stimulus"":""img/green_ll/7.jpg"",""time"":360},{""stimulus"":""img/green_ll/8.jpg"",""time"":402},{""stimulus"":""img/green_ll/9.jpg"",""time"":459},{""stimulus"":""img/green_ll/10.jpg"",""time"":507},{""stimulus"":""img/green_ll/11.jpg"",""time"":552}]","[]"
"image-keyboard-response","24","68909","0.0-5.0-1.10","63d420b1d5b7dc6a3a4c50aa","bdp_lott","Mon Mar 27 2023 16:01:17 GMT-0400 (Eastern Daylight Time)","348613","red","green","","3217","","","","choice","","img/green_ll/choose11.jpg","2","215","red","0.5","0.5","0.5","l","",""
"animation","25","69511","0.0-5.0-2.10","63d420b1d5b7dc6a3a4c50aa","bdp_lott","Mon Mar 27 2023 16:01:17 GMT-0400 (Eastern Daylight Time)","348613","red","green","","","","","","","","","","215","","","","","","[{""stimulus"":""img/red_ll/1.jpg"",""time"":56},{""stimulus"":""img/red_ll/2.jpg"",""time"":105},{""stimulus"":""img/red_ll/3.jpg"",""time"":151},{""stimulus"":""img/red_ll/4.jpg"",""time"":202},{""stimulus"":""img/red_ll/5.jpg"",""time"":254},{""stimulus"":""img/red_ll/6.jpg"",""time"":301},{""stimulus"":""img/red_ll/7.jpg"",""time"":351},{""stimulus"":""img/red_ll/8.jpg"",""time"":402},{""stimulus"":""img/red_ll/9.jpg"",""time"":451},{""stimulus"":""img/red_ll/10.jpg"",""time"":505},{""stimulus"":""img/red_ll/11.jpg"",""time"":551}]","[]"
"image-keyboard-response","26","71229","0.0-5.0-1.11","63d420b1d5b7dc6a3a4c50aa","bdp_lott","Mon Mar 27 2023 16:01:17 GMT-0400 (Eastern Daylight Time)","348613","red","green","","1717","","","","choice","","img/red_ll/choose11.jpg","1","214","green","0.5","0.5","0.5","w","",""
"animation","27","71829","0.0-5.0-2.11","63d420b1d5b7dc6a3a4c50aa","bdp_lott","Mon Mar 27 2023 16:01:17 GMT-0400 (Eastern Daylight Time)","348613","red","green","","","","","","","","","","214","","","","","","[{""stimulus"":""img/green_wl/1.jpg"",""time"":55},{""stimulus"":""img/green_wl/2.jpg"",""time"":107},{""stimulus"":""img/green_wl/3.jpg"",""time"":154},{""stimulus"":""img/green_wl/4.jpg"",""time"":204},{""stimulus"":""img/green_wl/5.jpg"",""time"":252},{""stimulus"":""img/green_wl/6.jpg"",""time"":302},{""stimulus"":""img/green_wl/7.jpg"",""time"":353},{""stimulus"":""img/green_wl/8.jpg"",""time"":401},{""stimulus"":""img/green_wl/9.jpg"",""time"":451},{""stimulus"":""img/green_wl/10.jpg"",""time"":501},{""stimulus"":""img/green_wl/11.jpg"",""time"":554}]","[]"
"image-keyboard-response","28","72917","0.0-5.0-1.12","63d420b1d5b7dc6a3a4c50aa","bdp_lott","Mon Mar 27 2023 16:01:17 GMT-0400 (Eastern Daylight Time)","348613","red","green","","1087","","","","choice","","img/green_wl/choose11.jpg","1","213","green","0.5","0.5","0.5","w","",""
"animation","29","73518","0.0-5.0-2.12","63d420b1d5b7dc6a3a4c50aa","bdp_lott","Mon Mar 27 2023 16:01:17 GMT-0400 (Eastern Daylight Time)","348613","red","green","","","","","","","","","","213","","","","","","[{""stimulus"":""img/green_wl/1.jpg"",""time"":51},{""stimulus"":""img/green_wl/2.jpg"",""time"":117},{""stimulus"":""img/green_wl/3.jpg"",""time"":151},{""stimulus"":""img/green_wl/4.jpg"",""time"":201},{""stimulus"":""img/green_wl/5.jpg"",""time"":251},{""stimulus"":""img/green_wl/6.jpg"",""time"":301},{""stimulus"":""img/green_wl/7.jpg"",""time"":350},{""stimulus"":""img/green_wl/8.jpg"",""time"":400},{""stimulus"":""img/green_wl/9.jpg"",""time"":451},{""stimulus"":""img/green_wl/10.jpg"",""time"":501},{""stimulus"":""img/green_wl/11.jpg"",""time"":551}]","[]"
"image-keyboard-response","30","74721","0.0-5.0-1.13","63d420b1d5b7dc6a3a4c50aa","bdp_lott","Mon Mar 27 2023 16:01:17 GMT-0400 (Eastern Daylight Time)","348613","red","green","","1203","","","","choice","","img/green_wl/choose11.jpg","1","212","green","0.5","0.5","0.5","w","",""
"animation","31","75321","0.0-5.0-2.13","63d420b1d5b7dc6a3a4c50aa","bdp_lott","Mon Mar 27 2023 16:01:17 GMT-0400 (Eastern Daylight Time)","348613","red","green","","","","","","","","","","212","","","","","","[{""stimulus"":""img/green_wl/1.jpg"",""time"":63},{""stimulus"":""img/green_wl/2.jpg"",""time"":113},{""stimulus"":""img/green_wl/3.jpg"",""time"":162},{""stimulus"":""img/green_wl/4.jpg"",""time"":201},{""stimulus"":""img/green_wl/5.jpg"",""time"":251},{""stimulus"":""img/green_wl/6.jpg"",""time"":301},{""stimulus"":""img/green_wl/7.jpg"",""time"":351},{""stimulus"":""img/green_wl/8.jpg"",""time"":401},{""stimulus"":""img/green_wl/9.jpg"",""time"":451},{""stimulus"":""img/green_wl/10.jpg"",""time"":512},{""stimulus"":""img/green_wl/11.jpg"",""time"":562}]","[]"
"image-keyboard-response","32","76383","0.0-5.0-1.14","63d420b1d5b7dc6a3a4c50aa","bdp_lott","Mon Mar 27 2023 16:01:17 GMT-0400 (Eastern Daylight Time)","348613","red","green","","1061","","","","choice","","img/green_wl/choose11.jpg","1","211","green","0.5","0.5","0.5","l","",""
"animation","33","76984","0.0-5.0-2.14","63d420b1d5b7dc6a3a4c50aa","bdp_lott","Mon Mar 27 2023 16:01:17 GMT-0400 (Eastern Daylight Time)","348613","red","green","","","","","","","","","","211","","","","","","[{""stimulus"":""img/green_ll/1.jpg"",""time"":65},{""stimulus"":""img/green_ll/2.jpg"",""time"":101},{""stimulus"":""img/green_ll/3.jpg"",""time"":165},{""stimulus"":""img/green_ll/4.jpg"",""time"":201},{""stimulus"":""img/green_ll/5.jpg"",""time"":264},{""stimulus"":""img/green_ll/6.jpg"",""time"":301},{""stimulus"":""img/green_ll/7.jpg"",""time"":351},{""stimulus"":""img/green_ll/8.jpg"",""time"":401},{""stimulus"":""img/green_ll/9.jpg"",""time"":451},{""stimulus"":""img/green_ll/10.jpg"",""time"":514},{""stimulus"":""img/green_ll/11.jpg"",""time"":550}]","[]"
"image-keyboard-response","34","77852","0.0-5.0-1.15","63d420b1d5b7dc6a3a4c50aa","bdp_lott","Mon Mar 27 2023 16:01:17 GMT-0400 (Eastern Daylight Time)","348613","red","green","","868","","","","choice","","img/green_ll/choose11.jpg","2","210","red","0.5","0.5","0.5","w","",""
"animation","35","78465","0.0-5.0-2.15","63d420b1d5b7dc6a3a4c50aa","bdp_lott","Mon Mar 27 2023 16:01:17 GMT-0400 (Eastern Daylight Time)","348613","red","green","","","","","","","","","","210","","","","","","[{""stimulus"":""img/red_lw/1.jpg"",""time"":64},{""stimulus"":""img/red_lw/2.jpg"",""time"":113},{""stimulus"":""img/red_lw/3.jpg"",""time"":164},{""stimulus"":""img/red_lw/4.jpg"",""time"":201},{""stimulus"":""img/red_lw/5.jpg"",""time"":257},{""stimulus"":""img/red_lw/6.jpg"",""time"":314},{""stimulus"":""img/red_lw/7.jpg"",""time"":351},{""stimulus"":""img/red_lw/8.jpg"",""time"":401},{""stimulus"":""img/red_lw/9.jpg"",""time"":451},{""stimulus"":""img/red_lw/10.jpg"",""time"":513},{""stimulus"":""img/red_lw/11.jpg"",""time"":551}]","[]"
"image-keyboard-response","36","79489","0.0-5.0-1.16","63d420b1d5b7dc6a3a4c50aa","bdp_lott","Mon Mar 27 2023 16:01:17 GMT-0400 (Eastern Daylight Time)","348613","red","green","","1022","","","","choice","","img/red_lw/choose11.jpg","2","209","red","0.5","0.5","0.5","w","",""
"animation","37","80089","0.0-5.0-2.16","63d420b1d5b7dc6a3a4c50aa","bdp_lott","Mon Mar 27 2023 16:01:17 GMT-0400 (Eastern Daylight Time)","348613","red","green","","","","","","","","","","209","","","","","","[{""stimulus"":""img/red_lw/1.jpg"",""time"":61},{""stimulus"":""img/red_lw/2.jpg"",""time"":110},{""stimulus"":""img/red_lw/3.jpg"",""time"":156},{""stimulus"":""img/red_lw/4.jpg"",""time"":208},{""stimulus"":""img/red_lw/5.jpg"",""time"":259},{""stimulus"":""img/red_lw/6.jpg"",""time"":301},{""stimulus"":""img/red_lw/7.jpg"",""time"":362},{""stimulus"":""img/red_lw/8.jpg"",""time"":401},{""stimulus"":""img/red_lw/9.jpg"",""time"":459},{""stimulus"":""img/red_lw/10.jpg"",""time"":509},{""stimulus"":""img/red_lw/11.jpg"",""time"":551}]","[]"
"image-keyboard-response","38","81076","0.0-5.0-1.17","63d420b1d5b7dc6a3a4c50aa","bdp_lott","Mon Mar 27 2023 16:01:17 GMT-0400 (Eastern Daylight Time)","348613","red","green","","986","","","","choice","","img/red_lw/choose11.jpg","2","208","red","0.5","0.5","0.5","l","",""
"animation","39","81677","0.0-5.0-2.17","63d420b1d5b7dc6a3a4c50aa","bdp_lott","Mon Mar 27 2023 16:01:17 GMT-0400 (Eastern Daylight Time)","348613","red","green","","","","","","","","","","208","","","","","","[{""stimulus"":""img/red_ll/1.jpg"",""time"":55},{""stimulus"":""img/red_ll/2.jpg"",""time"":104},{""stimulus"":""img/red_ll/3.jpg"",""time"":157},{""stimulus"":""img/red_ll/4.jpg"",""time"":202},{""stimulus"":""img/red_ll/5.jpg"",""time"":256},{""stimulus"":""img/red_ll/6.jpg"",""time"":303},{""stimulus"":""img/red_ll/7.jpg"",""time"":354},{""stimulus"":""img/red_ll/8.jpg"",""time"":401},{""stimulus"":""img/red_ll/9.jpg"",""time"":454},{""stimulus"":""img/red_ll/10.jpg"",""time"":503},{""stimulus"":""img/red_ll/11.jpg"",""time"":552}]","[]"
"image-keyboard-response","40","82686","0.0-5.0-1.18","63d420b1d5b7dc6a3a4c50aa","bdp_lott","Mon Mar 27 2023 16:01:17 GMT-0400 (Eastern Daylight Time)","348613","red","green","","1007","","","","choice","","img/red_ll/choose11.jpg","1","207","green","0.5","0.5","0.5","w","",""
"animation","41","83297","0.0-5.0-2.18","63d420b1d5b7dc6a3a4c50aa","bdp_lott","Mon Mar 27 2023 16:01:17 GMT-0400 (Eastern Daylight Time)","348613","red","green","","","","","","","","","","207","","","","","","[{""stimulus"":""img/green_wl/1.jpg"",""time"":63},{""stimulus"":""img/green_wl/2.jpg"",""time"":112},{""stimulus"":""img/green_wl/3.jpg"",""time"":164},{""stimulus"":""img/green_wl/4.jpg"",""time"":202},{""stimulus"":""img/green_wl/5.jpg"",""time"":263},{""stimulus"":""img/green_wl/6.jpg"",""time"":311},{""stimulus"":""img/green_wl/7.jpg"",""time"":360},{""stimulus"":""img/green_wl/8.jpg"",""time"":411},{""stimulus"":""img/green_wl/9.jpg"",""time"":462},{""stimulus"":""img/green_wl/10.jpg"",""time"":510},{""stimulus"":""img/green_wl/11.jpg"",""time"":562}]","[]"
"image-keyboard-response","42","84077","0.0-5.0-1.19","63d420b1d5b7dc6a3a4c50aa","bdp_lott","Mon Mar 27 2023 16:01:17 GMT-0400 (Eastern Daylight Time)","348613","red","green","","780","","","","choice","","img/green_wl/choose11.jpg","1","206","green","0.5","0.5","0.5","w","",""
"animation","43","84678","0.0-5.0-2.19","63d420b1d5b7dc6a3a4c50aa","bdp_lott","Mon Mar 27 2023 16:01:17 GMT-0400 (Eastern Daylight Time)","348613","red","green","","","","","","","","","","206","","","","","","[{""stimulus"":""img/green_wl/1.jpg"",""time"":55},{""stimulus"":""img/green_wl/2.jpg"",""time"":104},{""stimulus"":""img/green_wl/3.jpg"",""time"":156},{""stimulus"":""img/green_wl/4.jpg"",""time"":201},{""stimulus"":""img/green_wl/5.jpg"",""time"":253},{""stimulus"":""img/green_wl/6.jpg"",""time"":305},{""stimulus"":""img/green_wl/7.jpg"",""time"":351},{""stimulus"":""img/green_wl/8.jpg"",""time"":401},{""stimulus"":""img/green_wl/9.jpg"",""time"":451},{""stimulus"":""img/green_wl/10.jpg"",""time"":501},{""stimulus"":""img/green_wl/11.jpg"",""time"":551}]","[]"
"image-keyboard-response","44","85529","0.0-5.0-1.20","63d420b1d5b7dc6a3a4c50aa","bdp_lott","Mon Mar 27 2023 16:01:17 GMT-0400 (Eastern Daylight Time)","348613","red","green","","850","","","","choice","","img/green_wl/choose11.jpg","1","205","green","0.5","0.5","0.5","l","",""
"animation","45","86130","0.0-5.0-2.20","63d420b1d5b7dc6a3a4c50aa","bdp_lott","Mon Mar 27 2023 16:01:17 GMT-0400 (Eastern Daylight Time)","348613","red","green","","","","","","","","","","205","","","","","","[{""stimulus"":""img/green_ll/1.jpg"",""time"":54},{""stimulus"":""img/green_ll/2.jpg"",""time"":103},{""stimulus"":""img/green_ll/3.jpg"",""time"":153},{""stimulus"":""img/green_ll/4.jpg"",""time"":202},{""stimulus"":""img/green_ll/5.jpg"",""time"":252},{""stimulus"":""img/green_ll/6.jpg"",""time"":302},{""stimulus"":""img/green_ll/7.jpg"",""time"":352},{""stimulus"":""img/green_ll/8.jpg"",""time"":402},{""stimulus"":""img/green_ll/9.jpg"",""time"":452},{""stimulus"":""img/green_ll/10.jpg"",""time"":502},{""stimulus"":""img/green_ll/11.jpg"",""time"":552}]","[]"
"image-keyboard-response","46","86988","0.0-5.0-1.21","63d420b1d5b7dc6a3a4c50aa","bdp_lott","Mon Mar 27 2023 16:01:17 GMT-0400 (Eastern Daylight Time)","348613","red","green","","857","","","","choice","","img/green_ll/choose11.jpg","2","204","red","0.5","0.5","0.5","w","",""
"animation","47","87589","0.0-5.0-2.21","63d420b1d5b7dc6a3a4c50aa","bdp_lott","Mon Mar 27 2023 16:01:17 GMT-0400 (Eastern Daylight Time)","348613","red","green","","","","","","","","","","204","","","","","","[{""stimulus"":""img/red_lw/1.jpg"",""time"":62},{""stimulus"":""img/red_lw/2.jpg"",""time"":113},{""stimulus"":""img/red_lw/3.jpg"",""time"":160},{""stimulus"":""img/red_lw/4.jpg"",""time"":201},{""stimulus"":""img/red_lw/5.jpg"",""time"":251},{""stimulus"":""img/red_lw/6.jpg"",""time"":301},{""stimulus"":""img/red_lw/7.jpg"",""time"":360},{""stimulus"":""img/red_lw/8.jpg"",""time"":401},{""stimulus"":""img/red_lw/9.jpg"",""time"":458},{""stimulus"":""img/red_lw/10.jpg"",""time"":511},{""stimulus"":""img/red_lw/11.jpg"",""time"":560}]","[]"
"image-keyboard-response","48","88736","0.0-5.0-1.22","63d420b1d5b7dc6a3a4c50aa","bdp_lott","Mon Mar 27 2023 16:01:17 GMT-0400 (Eastern Daylight Time)","348613","red","green","","1146","","","","choice","","img/red_lw/choose11.jpg","2","203","red","0.5","0.5","0.5","w","",""
"animation","49","89349","0.0-5.0-2.22","63d420b1d5b7dc6a3a4c50aa","bdp_lott","Mon Mar 27 2023 16:01:17 GMT-0400 (Eastern Daylight Time)","348613","red","green","","","","","","","","","","203","","","","","","[{""stimulus"":""img/red_lw/1.jpg"",""time"":63},{""stimulus"":""img/red_lw/2.jpg"",""time"":113},{""stimulus"":""img/red_lw/3.jpg"",""time"":151},{""stimulus"":""img/red_lw/4.jpg"",""time"":211},{""stimulus"":""img/red_lw/5.jpg"",""time"":251},{""stimulus"":""img/red_lw/6.jpg"",""time"":301},{""stimulus"":""img/red_lw/7.jpg"",""time"":351},{""stimulus"":""img/red_lw/8.jpg"",""time"":401},{""stimulus"":""img/red_lw/9.jpg"",""time"":461},{""stimulus"":""img/red_lw/10.jpg"",""time"":510},{""stimulus"":""img/red_lw/11.jpg"",""time"":562}]","[]"
"image-keyboard-response","50","90089","0.0-5.0-1.23","63d420b1d5b7dc6a3a4c50aa","bdp_lott","Mon Mar 27 2023 16:01:17 GMT-0400 (Eastern Daylight Time)","348613","red","green","","740","","","","choice","","img/red_lw/choose11.jpg","2","202","red","0.5","0.5","0.5","l","",""
"animation","51","90690","0.0-5.0-2.23","63d420b1d5b7dc6a3a4c50aa","bdp_lott","Mon Mar 27 2023 16:01:17 GMT-0400 (Eastern Daylight Time)","348613","red","green","","","","","","","","","","202","","","","","","[{""stimulus"":""img/red_ll/1.jpg"",""time"":59},{""stimulus"":""img/red_ll/2.jpg"",""time"":109},{""stimulus"":""img/red_ll/3.jpg"",""time"":161},{""stimulus"":""img/red_ll/4.jpg"",""time"":209},{""stimulus"":""img/red_ll/5.jpg"",""time"":251},{""stimulus"":""img/red_ll/6.jpg"",""time"":301},{""stimulus"":""img/red_ll/7.jpg"",""time"":357},{""stimulus"":""img/red_ll/8.jpg"",""time"":401},{""stimulus"":""img/red_ll/9.jpg"",""time"":451},{""stimulus"":""img/red_ll/10.jpg"",""time"":509},{""stimulus"":""img/red_ll/11.jpg"",""time"":551}]","[]"
"image-keyboard-response","52","91423","0.0-5.0-1.24","63d420b1d5b7dc6a3a4c50aa","bdp_lott","Mon Mar 27 2023 16:01:17 GMT-0400 (Eastern Daylight Time)","348613","red","green","","733","","","","choice","","img/red_ll/choose11.jpg","1","201","green","0.5","0.5","0.5","w","",""
"animation","53","92024","0.0-5.0-2.24","63d420b1d5b7dc6a3a4c50aa","bdp_lott","Mon Mar 27 2023 16:01:17 GMT-0400 (Eastern Daylight Time)","348613","red","green","","","","","","","","","","201","","","","","","[{""stimulus"":""img/green_wl/1.jpg"",""time"":59},{""stimulus"":""img/green_wl/2.jpg"",""time"":108},{""stimulus"":""img/green_wl/3.jpg"",""time"":154},{""stimulus"":""img/green_wl/4.jpg"",""time"":206},{""stimulus"":""img/green_wl/5.jpg"",""time"":250},{""stimulus"":""img/green_wl/6.jpg"",""time"":300},{""stimulus"":""img/green_wl/7.jpg"",""time"":350},{""stimulus"":""img/green_wl/8.jpg"",""time"":400},{""stimulus"":""img/green_wl/9.jpg"",""time"":450},{""stimulus"":""img/green_wl/10.jpg"",""time"":500},{""stimulus"":""img/green_wl/11.jpg"",""time"":550}]","[]"
"image-keyboard-response","54","92902","0.0-5.0-1.25","63d420b1d5b7dc6a3a4c50aa","bdp_lott","Mon Mar 27 2023 16:01:17 GMT-0400 (Eastern Daylight Time)","348613","red","green","","878","","","","choice","","img/green_wl/choose11.jpg","1","200","green","0.5","0.5","0.5","l","",""
"animation","55","93503","0.0-5.0-2.25","63d420b1d5b7dc6a3a4c50aa","bdp_lott","Mon Mar 27 2023 16:01:17 GMT-0400 (Eastern Daylight Time)","348613","red","green","","","","","","","","","","200","","","","","","[{""stimulus"":""img/green_ll/1.jpg"",""time"":63},{""stimulus"":""img/green_ll/2.jpg"",""time"":111},{""stimulus"":""img/green_ll/3.jpg"",""time"":151},{""stimulus"":""img/green_ll/4.jpg"",""time"":201},{""stimulus"":""img/green_ll/5.jpg"",""time"":251},{""stimulus"":""img/green_ll/6.jpg"",""time"":300},{""stimulus"":""img/green_ll/7.jpg"",""time"":351},{""stimulus"":""img/green_ll/8.jpg"",""time"":401},{""stimulus"":""img/green_ll/9.jpg"",""time"":461},{""stimulus"":""img/green_ll/10.jpg"",""time"":511},{""stimulus"":""img/green_ll/11.jpg"",""time"":551}]","[]"
"image-keyboard-response","56","94287","0.0-5.0-1.26","63d420b1d5b7dc6a3a4c50aa","bdp_lott","Mon Mar 27 2023 16:01:17 GMT-0400 (Eastern Daylight Time)","348613","red","green","","783","","","","choice","","img/green_ll/choose11.jpg","2","199","red","0.5","0.5","0.5","l","",""
"animation","57","94888","0.0-5.0-2.26","63d420b1d5b7dc6a3a4c50aa","bdp_lott","Mon Mar 27 2023 16:01:17 GMT-0400 (Eastern Daylight Time)","348613","red","green","","","","","","","","","","199","","","","","","[{""stimulus"":""img/red_ll/1.jpg"",""time"":61},{""stimulus"":""img/red_ll/2.jpg"",""time"":109},{""stimulus"":""img/red_ll/3.jpg"",""time"":159},{""stimulus"":""img/red_ll/4.jpg"",""time"":201},{""stimulus"":""img/red_ll/5.jpg"",""time"":250},{""stimulus"":""img/red_ll/6.jpg"",""time"":309},{""stimulus"":""img/red_ll/7.jpg"",""time"":351},{""stimulus"":""img/red_ll/8.jpg"",""time"":401},{""stimulus"":""img/red_ll/9.jpg"",""time"":451},{""stimulus"":""img/red_ll/10.jpg"",""time"":509},{""stimulus"":""img/red_ll/11.jpg"",""time"":551}]","[]"
"image-keyboard-response","58","96076","0.0-5.0-1.27","63d420b1d5b7dc6a3a4c50aa","bdp_lott","Mon Mar 27 2023 16:01:17 GMT-0400 (Eastern Daylight Time)","348613","red","green","","1187","","","","choice","","img/red_ll/choose11.jpg","1","198","green","0.5","0.5","0.5","l","",""
"animation","59","96682","0.0-5.0-2.27","63d420b1d5b7dc6a3a4c50aa","bdp_lott","Mon Mar 27 2023 16:01:17 GMT-0400 (Eastern Daylight Time)","348613","red","green","","","","","","","","","","198","","","","","","[{""stimulus"":""img/green_ll/1.jpg"",""time"":56},{""stimulus"":""img/green_ll/2.jpg"",""time"":105},{""stimulus"":""img/green_ll/3.jpg"",""time"":156},{""stimulus"":""img/green_ll/4.jpg"",""time"":201},{""stimulus"":""img/green_ll/5.jpg"",""time"":251},{""stimulus"":""img/green_ll/6.jpg"",""time"":305},{""stimulus"":""img/green_ll/7.jpg"",""time"":351},{""stimulus"":""img/green_ll/8.jpg"",""time"":401},{""stimulus"":""img/green_ll/9.jpg"",""time"":451},{""stimulus"":""img/green_ll/10.jpg"",""time"":501},{""stimulus"":""img/green_ll/11.jpg"",""time"":553}]","[]"
"image-keyboard-response","60","98620","0.0-5.0-1.28","63d420b1d5b7dc6a3a4c50aa","bdp_lott","Mon Mar 27 2023 16:01:17 GMT-0400 (Eastern Daylight Time)","348613","red","green","","1938","","","","choice","","img/green_ll/choose11.jpg","1","197","green","0.5","0.5","0.5","w","",""
"animation","61","99221","0.0-5.0-2.28","63d420b1d5b7dc6a3a4c50aa","bdp_lott","Mon Mar 27 2023 16:01:17 GMT-0400 (Eastern Daylight Time)","348613","red","green","","","","","","","","","","197","","","","","","[{""stimulus"":""img/green_wl/1.jpg"",""time"":60},{""stimulus"":""img/green_wl/2.jpg"",""time"":109},{""stimulus"":""img/green_wl/3.jpg"",""time"":161},{""stimulus"":""img/green_wl/4.jpg"",""time"":201},{""stimulus"":""img/green_wl/5.jpg"",""time"":251},{""stimulus"":""img/green_wl/6.jpg"",""time"":301},{""stimulus"":""img/green_wl/7.jpg"",""time"":351},{""stimulus"":""img/green_wl/8.jpg"",""time"":401},{""stimulus"":""img/green_wl/9.jpg"",""time"":451},{""stimulus"":""img/green_wl/10.jpg"",""time"":508},{""stimulus"":""img/green_wl/11.jpg"",""time"":551}]","[]"
"image-keyboard-response","62","99957","0.0-5.0-1.29","63d420b1d5b7dc6a3a4c50aa","bdp_lott","Mon Mar 27 2023 16:01:17 GMT-0400 (Eastern Daylight Time)","348613","red","green","","735","","","","choice","","img/green_wl/choose11.jpg","1","196","green","0.5","0.5","0.5","l","",""
"animation","63","100559","0.0-5.0-2.29","63d420b1d5b7dc6a3a4c50aa","bdp_lott","Mon Mar 27 2023 16:01:17 GMT-0400 (Eastern Daylight Time)","348613","red","green","","","","","","","","","","196","","","","","","[{""stimulus"":""img/green_ll/1.jpg"",""time"":57},{""stimulus"":""img/green_ll/2.jpg"",""time"":108},{""stimulus"":""img/green_ll/3.jpg"",""time"":150},{""stimulus"":""img/green_ll/4.jpg"",""time"":208},{""stimulus"":""img/green_ll/5.jpg"",""time"":255},{""stimulus"":""img/green_ll/6.jpg"",""time"":305},{""stimulus"":""img/green_ll/7.jpg"",""time"":356},{""stimulus"":""img/green_ll/8.jpg"",""time"":401},{""stimulus"":""img/green_ll/9.jpg"",""time"":456},{""stimulus"":""img/green_ll/10.jpg"",""time"":505},{""stimulus"":""img/green_ll/11.jpg"",""time"":554}]","[]"
"image-keyboard-response","64","101327","0.0-5.0-1.30","63d420b1d5b7dc6a3a4c50aa","bdp_lott","Mon Mar 27 2023 16:01:17 GMT-0400 (Eastern Daylight Time)","348613","red","green","","768","","","","choice","","img/green_ll/choose11.jpg","2","195","red","0.5","0.5","0.5","w","",""
"animation","65","101931","0.0-5.0-2.30","63d420b1d5b7dc6a3a4c50aa","bdp_lott","Mon Mar 27 2023 16:01:17 GMT-0400 (Eastern Daylight Time)","348613","red","green","","","","","","","","","","195","","","","","","[{""stimulus"":""img/red_lw/1.jpg"",""time"":54},{""stimulus"":""img/red_lw/2.jpg"",""time"":101},{""stimulus"":""img/red_lw/3.jpg"",""time"":155},{""stimulus"":""img/red_lw/4.jpg"",""time"":204},{""stimulus"":""img/red_lw/5.jpg"",""time"":253},{""stimulus"":""img/red_lw/6.jpg"",""time"":302},{""stimulus"":""img/red_lw/7.jpg"",""time"":352},{""stimulus"":""img/red_lw/8.jpg"",""time"":403},{""stimulus"":""img/red_lw/9.jpg"",""time"":453},{""stimulus"":""img/red_lw/10.jpg"",""time"":501},{""stimulus"":""img/red_lw/11.jpg"",""time"":551}]","[]"
"image-keyboard-response","66","103005","0.0-5.0-1.31","63d420b1d5b7dc6a3a4c50aa","bdp_lott","Mon Mar 27 2023 16:01:17 GMT-0400 (Eastern Daylight Time)","348613","red","green","","1073","","","","choice","","img/red_lw/choose11.jpg","2","194","red","0.5","0.5","0.5","l","",""
"animation","67","103606","0.0-5.0-2.31","63d420b1d5b7dc6a3a4c50aa","bdp_lott","Mon Mar 27 2023 16:01:17 GMT-0400 (Eastern Daylight Time)","348613","red","green","","","","","","","","","","194","","","","","","[{""stimulus"":""img/red_ll/1.jpg"",""time"":60},{""stimulus"":""img/red_ll/2.jpg"",""time"":108},{""stimulus"":""img/red_ll/3.jpg"",""time"":157},{""stimulus"":""img/red_ll/4.jpg"",""time"":201},{""stimulus"":""img/red_ll/5.jpg"",""time"":257},{""stimulus"":""img/red_ll/6.jpg"",""time"":301},{""stimulus"":""img/red_ll/7.jpg"",""time"":357},{""stimulus"":""img/red_ll/8.jpg"",""time"":408},{""stimulus"":""img/red_ll/9.jpg"",""time"":451},{""stimulus"":""img/red_ll/10.jpg"",""time"":507},{""stimulus"":""img/red_ll/11.jpg"",""time"":550}]","[]"
"image-keyboard-response","68","104256","0.0-5.0-1.32","63d420b1d5b7dc6a3a4c50aa","bdp_lott","Mon Mar 27 2023 16:01:17 GMT-0400 (Eastern Daylight Time)","348613","red","green","","649","","","","choice","","img/red_ll/choose11.jpg","1","193","green","0.5","0.5","0.5","l","",""
"animation","69","104858","0.0-5.0-2.32","63d420b1d5b7dc6a3a4c50aa","bdp_lott","Mon Mar 27 2023 16:01:17 GMT-0400 (Eastern Daylight Time)","348613","red","green","","","","","","","","","","193","","","","","","[{""stimulus"":""img/green_ll/1.jpg"",""time"":58},{""stimulus"":""img/green_ll/2.jpg"",""time"":107},{""stimulus"":""img/green_ll/3.jpg"",""time"":160},{""stimulus"":""img/green_ll/4.jpg"",""time"":207},{""stimulus"":""img/green_ll/5.jpg"",""time"":256},{""stimulus"":""img/green_ll/6.jpg"",""time"":308},{""stimulus"":""img/green_ll/7.jpg"",""time"":356},{""stimulus"":""img/green_ll/8.jpg"",""time"":407},{""stimulus"":""img/green_ll/9.jpg"",""time"":460},{""stimulus"":""img/green_ll/10.jpg"",""time"":506},{""stimulus"":""img/green_ll/11.jpg"",""time"":552}]","[]"
"image-keyboard-response","70","106095","0.0-5.0-1.33","63d420b1d5b7dc6a3a4c50aa","bdp_lott","Mon Mar 27 2023 16:01:17 GMT-0400 (Eastern Daylight Time)","348613","red","green","","1235","","","","choice","","img/green_ll/choose11.jpg","1","192","green","0.5","0.5","0.5","w","",""
"animation","71","106696","0.0-5.0-2.33","63d420b1d5b7dc6a3a4c50aa","bdp_lott","Mon Mar 27 2023 16:01:17 GMT-0400 (Eastern Daylight Time)","348613","red","green","","","","","","","","","","192","","","","","","[{""stimulus"":""img/green_wl/1.jpg"",""time"":53},{""stimulus"":""img/green_wl/2.jpg"",""time"":104},{""stimulus"":""img/green_wl/3.jpg"",""time"":153},{""stimulus"":""img/green_wl/4.jpg"",""time"":202},{""stimulus"":""img/green_wl/5.jpg"",""time"":251},{""stimulus"":""img/green_wl/6.jpg"",""time"":301},{""stimulus"":""img/green_wl/7.jpg"",""time"":369},{""stimulus"":""img/green_wl/8.jpg"",""time"":401},{""stimulus"":""img/green_wl/9.jpg"",""time"":451},{""stimulus"":""img/green_wl/10.jpg"",""time"":501},{""stimulus"":""img/green_wl/11.jpg"",""time"":551}]","[]"
"image-keyboard-response","72","107557","0.0-5.0-1.34","63d420b1d5b7dc6a3a4c50aa","bdp_lott","Mon Mar 27 2023 16:01:17 GMT-0400 (Eastern Daylight Time)","348613","red","green","","861","","","","choice","","img/green_wl/choose11.jpg","1","191","green","0.5","0.5","0.5","l","",""
"animation","73","108161","0.0-5.0-2.34","63d420b1d5b7dc6a3a4c50aa","bdp_lott","Mon Mar 27 2023 16:01:17 GMT-0400 (Eastern Daylight Time)","348613","red","green","","","","","","","","","","191","","","","","","[{""stimulus"":""img/green_ll/1.jpg"",""time"":56},{""stimulus"":""img/green_ll/2.jpg"",""time"":105},{""stimulus"":""img/green_ll/3.jpg"",""time"":153},{""stimulus"":""img/green_ll/4.jpg"",""time"":201},{""stimulus"":""img/green_ll/5.jpg"",""time"":254},{""stimulus"":""img/green_ll/6.jpg"",""time"":300},{""stimulus"":""img/green_ll/7.jpg"",""time"":356},{""stimulus"":""img/green_ll/8.jpg"",""time"":401},{""stimulus"":""img/green_ll/9.jpg"",""time"":451},{""stimulus"":""img/green_ll/10.jpg"",""time"":504},{""stimulus"":""img/green_ll/11.jpg"",""time"":551}]","[]"
"image-keyboard-response","74","108830","0.0-5.0-1.35","63d420b1d5b7dc6a3a4c50aa","bdp_lott","Mon Mar 27 2023 16:01:17 GMT-0400 (Eastern Daylight Time)","348613","red","green","","668","","","","choice","","img/green_ll/choose11.jpg","2","190","red","0.5","0.5","0.5","l","",""
"animation","75","109431","0.0-5.0-2.35","63d420b1d5b7dc6a3a4c50aa","bdp_lott","Mon Mar 27 2023 16:01:17 GMT-0400 (Eastern Daylight Time)","348613","red","green","","","","","","","","","","190","","","","","","[{""stimulus"":""img/red_ll/1.jpg"",""time"":52},{""stimulus"":""img/red_ll/2.jpg"",""time"":101},{""stimulus"":""img/red_ll/3.jpg"",""time"":151},{""stimulus"":""img/red_ll/4.jpg"",""time"":218},{""stimulus"":""img/red_ll/5.jpg"",""time"":251},{""stimulus"":""img/red_ll/6.jpg"",""time"":302},{""stimulus"":""img/red_ll/7.jpg"",""time"":351},{""stimulus"":""img/red_ll/8.jpg"",""time"":401},{""stimulus"":""img/red_ll/9.jpg"",""time"":469},{""stimulus"":""img/red_ll/10.jpg"",""time"":501},{""stimulus"":""img/red_ll/11.jpg"",""time"":551}]","[]"
"image-keyboard-response","76","110435","0.0-5.0-1.36","63d420b1d5b7dc6a3a4c50aa","bdp_lott","Mon Mar 27 2023 16:01:17 GMT-0400 (Eastern Daylight Time)","348613","red","green","","1003","","","","choice","","img/red_ll/choose11.jpg","2","189","red","0.5","0.5","0.5","w","",""
"animation","77","111035","0.0-5.0-2.36","63d420b1d5b7dc6a3a4c50aa","bdp_lott","Mon Mar 27 2023 16:01:17 GMT-0400 (Eastern Daylight Time)","348613","red","green","","","","","","","","","","189","","","","","","[{""stimulus"":""img/red_lw/1.jpg"",""time"":62},{""stimulus"":""img/red_lw/2.jpg"",""time"":112},{""stimulus"":""img/red_lw/3.jpg"",""time"":158},{""stimulus"":""img/red_lw/4.jpg"",""time"":213},{""stimulus"":""img/red_lw/5.jpg"",""time"":261},{""stimulus"":""img/red_lw/6.jpg"",""time"":310},{""stimulus"":""img/red_lw/7.jpg"",""time"":362},{""stimulus"":""img/red_lw/8.jpg"",""time"":411},{""stimulus"":""img/red_lw/9.jpg"",""time"":451},{""stimulus"":""img/red_lw/10.jpg"",""time"":511},{""stimulus"":""img/red_lw/11.jpg"",""time"":551}]","[]"
"image-keyboard-response","78","111869","0.0-5.0-1.37","63d420b1d5b7dc6a3a4c50aa","bdp_lott","Mon Mar 27 2023 16:01:17 GMT-0400 (Eastern Daylight Time)","348613","red","green","","832","","","","choice","","img/red_lw/choose11.jpg","2","188","red","0.5","0.5","0.5","w","",""
"animation","79","112469","0.0-5.0-2.37","63d420b1d5b7dc6a3a4c50aa","bdp_lott","Mon Mar 27 2023 16:01:17 GMT-0400 (Eastern Daylight Time)","348613","red","green","","","","","","","","","","188","","","","","","[{""stimulus"":""img/red_lw/1.jpg"",""time"":62},{""stimulus"":""img/red_lw/2.jpg"",""time"":109},{""stimulus"":""img/red_lw/3.jpg"",""time"":162},{""stimulus"":""img/red_lw/4.jpg"",""time"":201},{""stimulus"":""img/red_lw/5.jpg"",""time"":251},{""stimulus"":""img/red_lw/6.jpg"",""time"":301},{""stimulus"":""img/red_lw/7.jpg"",""time"":351},{""stimulus"":""img/red_lw/8.jpg"",""time"":401},{""stimulus"":""img/red_lw/9.jpg"",""time"":451},{""stimulus"":""img/red_lw/10.jpg"",""time"":510},{""stimulus"":""img/red_lw/11.jpg"",""time"":551}]","[]"
"image-keyboard-response","80","113213","0.0-5.0-1.38","63d420b1d5b7dc6a3a4c50aa","bdp_lott","Mon Mar 27 2023 16:01:17 GMT-0400 (Eastern Daylight Time)","348613","red","green","","743","","","","choice","","img/red_lw/choose11.jpg","2","187","red","0.5","0.5","0.5","w","",""
"animation","81","113814","0.0-5.0-2.38","63d420b1d5b7dc6a3a4c50aa","bdp_lott","Mon Mar 27 2023 16:01:17 GMT-0400 (Eastern Daylight Time)","348613","red","green","","","","","","","","","","187","","","","","","[{""stimulus"":""img/red_lw/1.jpg"",""time"":51},{""stimulus"":""img/red_lw/2.jpg"",""time"":101},{""stimulus"":""img/red_lw/3.jpg"",""time"":165},{""stimulus"":""img/red_lw/4.jpg"",""time"":202},{""stimulus"":""img/red_lw/5.jpg"",""time"":251},{""stimulus"":""img/red_lw/6.jpg"",""time"":318},{""stimulus"":""img/red_lw/7.jpg"",""time"":365},{""stimulus"":""img/red_lw/8.jpg"",""time"":401},{""stimulus"":""img/red_lw/9.jpg"",""time"":451},{""stimulus"":""img/red_lw/10.jpg"",""time"":518},{""stimulus"":""img/red_lw/11.jpg"",""time"":564}]","[]"
"image-keyboard-response","82","114631","0.0-5.0-1.39","63d420b1d5b7dc6a3a4c50aa","bdp_lott","Mon Mar 27 2023 16:01:17 GMT-0400 (Eastern Daylight Time)","348613","red","green","","817","","","","choice","","img/red_lw/choose11.jpg","2","186","red","0.5","0.5","0.5","l","",""
"animation","83","115233","0.0-5.0-2.39","63d420b1d5b7dc6a3a4c50aa","bdp_lott","Mon Mar 27 2023 16:01:17 GMT-0400 (Eastern Daylight Time)","348613","red","green","","","","","","","","","","186","","","","","","[{""stimulus"":""img/red_ll/1.jpg"",""time"":66},{""stimulus"":""img/red_ll/2.jpg"",""time"":113},{""stimulus"":""img/red_ll/3.jpg"",""time"":157},{""stimulus"":""img/red_ll/4.jpg"",""time"":201},{""stimulus"":""img/red_ll/5.jpg"",""time"":251},{""stimulus"":""img/red_ll/6.jpg"",""time"":313},{""stimulus"":""img/red_ll/7.jpg"",""time"":351},{""stimulus"":""img/red_ll/8.jpg"",""time"":401},{""stimulus"":""img/red_ll/9.jpg"",""time"":451},{""stimulus"":""img/red_ll/10.jpg"",""time"":501},{""stimulus"":""img/red_ll/11.jpg"",""time"":551}]","[]"
"image-keyboard-response","84","115997","0.0-5.0-1.40","63d420b1d5b7dc6a3a4c50aa","bdp_lott","Mon Mar 27 2023 16:01:17 GMT-0400 (Eastern Daylight Time)","348613","red","green","","763","","","","choice","","img/red_ll/choose11.jpg","1","185","green","0.5","0.5","0.5","w","",""
"animation","85","116598","0.0-5.0-2.40","63d420b1d5b7dc6a3a4c50aa","bdp_lott","Mon Mar 27 2023 16:01:17 GMT-0400 (Eastern Daylight Time)","348613","red","green","","","","","","","","","","185","","","","","","[{""stimulus"":""img/green_wl/1.jpg"",""time"":52},{""stimulus"":""img/green_wl/2.jpg"",""time"":118},{""stimulus"":""img/green_wl/3.jpg"",""time"":151},{""stimulus"":""img/green_wl/4.jpg"",""time"":201},{""stimulus"":""img/green_wl/5.jpg"",""time"":251},{""stimulus"":""img/green_wl/6.jpg"",""time"":301},{""stimulus"":""img/green_wl/7.jpg"",""time"":368},{""stimulus"":""img/green_wl/8.jpg"",""time"":401},{""stimulus"":""img/green_wl/9.jpg"",""time"":468},{""stimulus"":""img/green_wl/10.jpg"",""time"":501},{""stimulus"":""img/green_wl/11.jpg"",""time"":551}]","[]"
"image-keyboard-response","86","117375","0.0-5.0-1.41","63d420b1d5b7dc6a3a4c50aa","bdp_lott","Mon Mar 27 2023 16:01:17 GMT-0400 (Eastern Daylight Time)","348613","red","green","","777","","","","choice","","img/green_wl/choose11.jpg","1","184","green","0.5","0.5","0.5","l","",""
"animation","87","117984","0.0-5.0-2.41","63d420b1d5b7dc6a3a4c50aa","bdp_lott","Mon Mar 27 2023 16:01:17 GMT-0400 (Eastern Daylight Time)","348613","red","green","","","","","","","","","","184","","","","","","[{""stimulus"":""img/green_ll/1.jpg"",""time"":54},{""stimulus"":""img/green_ll/2.jpg"",""time"":117},{""stimulus"":""img/green_ll/3.jpg"",""time"":150},{""stimulus"":""img/green_ll/4.jpg"",""time"":200},{""stimulus"":""img/green_ll/5.jpg"",""time"":251},{""stimulus"":""img/green_ll/6.jpg"",""time"":301},{""stimulus"":""img/green_ll/7.jpg"",""time"":351},{""stimulus"":""img/green_ll/8.jpg"",""time"":403},{""stimulus"":""img/green_ll/9.jpg"",""time"":458},{""stimulus"":""img/green_ll/10.jpg"",""time"":510},{""stimulus"":""img/green_ll/11.jpg"",""time"":561}]","[]"
"image-keyboard-response","88","119494","0.0-5.0-1.42","63d420b1d5b7dc6a3a4c50aa","bdp_lott","Mon Mar 27 2023 16:01:17 GMT-0400 (Eastern Daylight Time)","348613","red","green","","1510","","","","choice","","img/green_ll/choose11.jpg","2","183","red","0.5","0.5","0.5","w","",""
"animation","89","120095","0.0-5.0-2.42","63d420b1d5b7dc6a3a4c50aa","bdp_lott","Mon Mar 27 2023 16:01:17 GMT-0400 (Eastern Daylight Time)","348613","red","green","","","","","","","","","","183","","","","","","[{""stimulus"":""img/red_lw/1.jpg"",""time"":61},{""stimulus"":""img/red_lw/2.jpg"",""time"":101},{""stimulus"":""img/red_lw/3.jpg"",""time"":160},{""stimulus"":""img/red_lw/4.jpg"",""time"":209},{""stimulus"":""img/red_lw/5.jpg"",""time"":260},{""stimulus"":""img/red_lw/6.jpg"",""time"":302},{""stimulus"":""img/red_lw/7.jpg"",""time"":359},{""stimulus"":""img/red_lw/8.jpg"",""time"":408},{""stimulus"":""img/red_lw/9.jpg"",""time"":459},{""stimulus"":""img/red_lw/10.jpg"",""time"":509},{""stimulus"":""img/red_lw/11.jpg"",""time"":552}]","[]"
"image-keyboard-response","90","120849","0.0-5.0-1.43","63d420b1d5b7dc6a3a4c50aa","bdp_lott","Mon Mar 27 2023 16:01:17 GMT-0400 (Eastern Daylight Time)","348613","red","green","","753","","","","choice","","img/red_lw/choose11.jpg","2","182","red","0.5","0.5","0.5","w","",""
"animation","91","121450","0.0-5.0-2.43","63d420b1d5b7dc6a3a4c50aa","bdp_lott","Mon Mar 27 2023 16:01:17 GMT-0400 (Eastern Daylight Time)","348613","red","green","","","","","","","","","","182","","","","","","[{""stimulus"":""img/red_lw/1.jpg"",""time"":55},{""stimulus"":""img/red_lw/2.jpg"",""time"":103},{""stimulus"":""img/red_lw/3.jpg"",""time"":155},{""stimulus"":""img/red_lw/4.jpg"",""time"":202},{""stimulus"":""img/red_lw/5.jpg"",""time"":253},{""stimulus"":""img/red_lw/6.jpg"",""time"":301},{""stimulus"":""img/red_lw/7.jpg"",""time"":351},{""stimulus"":""img/red_lw/8.jpg"",""time"":401},{""stimulus"":""img/red_lw/9.jpg"",""time"":451},{""stimulus"":""img/red_lw/10.jpg"",""time"":503},{""stimulus"":""img/red_lw/11.jpg"",""time"":552}]","[]"
"image-keyboard-response","92","122160","0.0-5.0-1.44","63d420b1d5b7dc6a3a4c50aa","bdp_lott","Mon Mar 27 2023 16:01:17 GMT-0400 (Eastern Daylight Time)","348613","red","green","","709","","","","choice","","img/red_lw/choose11.jpg","2","181","red","0.5","0.5","0.5","l","",""
"animation","93","122769","0.0-5.0-2.44","63d420b1d5b7dc6a3a4c50aa","bdp_lott","Mon Mar 27 2023 16:01:17 GMT-0400 (Eastern Daylight Time)","348613","red","green","","","","","","","","","","181","","","","","","[{""stimulus"":""img/red_ll/1.jpg"",""time"":60},{""stimulus"":""img/red_ll/2.jpg"",""time"":111},{""stimulus"":""img/red_ll/3.jpg"",""time"":158},{""stimulus"":""img/red_ll/4.jpg"",""time"":208},{""stimulus"":""img/red_ll/5.jpg"",""time"":258},{""stimulus"":""img/red_ll/6.jpg"",""time"":307},{""stimulus"":""img/red_ll/7.jpg"",""time"":358},{""stimulus"":""img/red_ll/8.jpg"",""time"":401},{""stimulus"":""img/red_ll/9.jpg"",""time"":459},{""stimulus"":""img/red_ll/10.jpg"",""time"":508},{""stimulus"":""img/red_ll/11.jpg"",""time"":560}]","[]"
"image-keyboard-response","94","123561","0.0-5.0-1.45","63d420b1d5b7dc6a3a4c50aa","bdp_lott","Mon Mar 27 2023 16:01:17 GMT-0400 (Eastern Daylight Time)","348613","red","green","","791","","","","choice","","img/red_ll/choose11.jpg","1","180","green","0.5","0.5","0.5","l","",""
"animation","95","124161","0.0-5.0-2.45","63d420b1d5b7dc6a3a4c50aa","bdp_lott","Mon Mar 27 2023 16:01:17 GMT-0400 (Eastern Daylight Time)","348613","red","green","","","","","","","","","","180","","","","","","[{""stimulus"":""img/green_ll/1.jpg"",""time"":60},{""stimulus"":""img/green_ll/2.jpg"",""time"":110},{""stimulus"":""img/green_ll/3.jpg"",""time"":151},{""stimulus"":""img/green_ll/4.jpg"",""time"":201},{""stimulus"":""img/green_ll/5.jpg"",""time"":251},{""stimulus"":""img/green_ll/6.jpg"",""time"":301},{""stimulus"":""img/green_ll/7.jpg"",""time"":351},{""stimulus"":""img/green_ll/8.jpg"",""time"":407},{""stimulus"":""img/green_ll/9.jpg"",""time"":451},{""stimulus"":""img/green_ll/10.jpg"",""time"":507},{""stimulus"":""img/green_ll/11.jpg"",""time"":551}]","[]"
"image-keyboard-response","96","125144","0.0-5.0-1.46","63d420b1d5b7dc6a3a4c50aa","bdp_lott","Mon Mar 27 2023 16:01:17 GMT-0400 (Eastern Daylight Time)","348613","red","green","","982","","","","choice","","img/green_ll/choose11.jpg","1","179","green","0.5","0.5","0.5","l","",""
"animation","97","125745","0.0-5.0-2.46","63d420b1d5b7dc6a3a4c50aa","bdp_lott","Mon Mar 27 2023 16:01:17 GMT-0400 (Eastern Daylight Time)","348613","red","green","","","","","","","","","","179","","","","","","[{""stimulus"":""img/green_ll/1.jpg"",""time"":60},{""stimulus"":""img/green_ll/2.jpg"",""time"":111},{""stimulus"":""img/green_ll/3.jpg"",""time"":161},{""stimulus"":""img/green_ll/4.jpg"",""time"":201},{""stimulus"":""img/green_ll/5.jpg"",""time"":251},{""stimulus"":""img/green_ll/6.jpg"",""time"":301},{""stimulus"":""img/green_ll/7.jpg"",""time"":351},{""stimulus"":""img/green_ll/8.jpg"",""time"":401},{""stimulus"":""img/green_ll/9.jpg"",""time"":451},{""stimulus"":""img/green_ll/10.jpg"",""time"":508},{""stimulus"":""img/green_ll/11.jpg"",""time"":551}]","[]"
"image-keyboard-response","98","126710","0.0-5.0-1.47","63d420b1d5b7dc6a3a4c50aa","bdp_lott","Mon Mar 27 2023 16:01:17 GMT-0400 (Eastern Daylight Time)","348613","red","green","","965","","","","choice","","img/green_ll/choose11.jpg","2","178","red","0.5","0.5","0.5","w","",""
"animation","99","127319","0.0-5.0-2.47","63d420b1d5b7dc6a3a4c50aa","bdp_lott","Mon Mar 27 2023 16:01:17 GMT-0400 (Eastern Daylight Time)","348613","red","green","","","","","","","","","","178","","","","","","[{""stimulus"":""img/red_lw/1.jpg"",""time"":61},{""stimulus"":""img/red_lw/2.jpg"",""time"":110},{""stimulus"":""img/red_lw/3.jpg"",""time"":161},{""stimulus"":""img/red_lw/4.jpg"",""time"":211},{""stimulus"":""img/red_lw/5.jpg"",""time"":259},{""stimulus"":""img/red_lw/6.jpg"",""time"":308},{""stimulus"":""img/red_lw/7.jpg"",""time"":358},{""stimulus"":""img/red_lw/8.jpg"",""time"":408},{""stimulus"":""img/red_lw/9.jpg"",""time"":458},{""stimulus"":""img/red_lw/10.jpg"",""time"":501},{""stimulus"":""img/red_lw/11.jpg"",""time"":559}]","[]"
"image-keyboard-response","100","128018","0.0-5.0-1.48","63d420b1d5b7dc6a3a4c50aa","bdp_lott","Mon Mar 27 2023 16:01:17 GMT-0400 (Eastern Daylight Time)","348613","red","green","","699","","","","choice","","img/red_lw/choose11.jpg","2","177","red","0.5","0.5","0.5","l","",""
"animation","101","128620","0.0-5.0-2.48","63d420b1d5b7dc6a3a4c50aa","bdp_lott","Mon Mar 27 2023 16:01:17 GMT-0400 (Eastern Daylight Time)","348613","red","green","","","","","","","","","","177","","","","","","[{""stimulus"":""img/red_ll/1.jpg"",""time"":52},{""stimulus"":""img/red_ll/2.jpg"",""time"":101},{""stimulus"":""img/red_ll/3.jpg"",""time"":155},{""stimulus"":""img/red_ll/4.jpg"",""time"":201},{""stimulus"":""img/red_ll/5.jpg"",""time"":269},{""stimulus"":""img/red_ll/6.jpg"",""time"":301},{""stimulus"":""img/red_ll/7.jpg"",""time"":369},{""stimulus"":""img/red_ll/8.jpg"",""time"":401},{""stimulus"":""img/red_ll/9.jpg"",""time"":469},{""stimulus"":""img/red_ll/10.jpg"",""time"":500},{""stimulus"":""img/red_ll/11.jpg"",""time"":552}]","[]"
"image-keyboard-response","102","129185","0.0-5.0-1.49","63d420b1d5b7dc6a3a4c50aa","bdp_lott","Mon Mar 27 2023 16:01:17 GMT-0400 (Eastern Daylight Time)","348613","red","green","","564","","","","choice","","img/red_ll/choose11.jpg","1","176","green","0.5","0.5","0.5","w","",""
"animation","103","129786","0.0-5.0-2.49","63d420b1d5b7dc6a3a4c50aa","bdp_lott","Mon Mar 27 2023 16:01:17 GMT-0400 (Eastern Daylight Time)","348613","red","green","","","","","","","","","","176","","","","","","[{""stimulus"":""img/green_wl/1.jpg"",""time"":52},{""stimulus"":""img/green_wl/2.jpg"",""time"":116},{""stimulus"":""img/green_wl/3.jpg"",""time"":152},{""stimulus"":""img/green_wl/4.jpg"",""time"":202},{""stimulus"":""img/green_wl/5.jpg"",""time"":251},{""stimulus"":""img/green_wl/6.jpg"",""time"":302},{""stimulus"":""img/green_wl/7.jpg"",""time"":351},{""stimulus"":""img/green_wl/8.jpg"",""time"":420},{""stimulus"":""img/green_wl/9.jpg"",""time"":452},{""stimulus"":""img/green_wl/10.jpg"",""time"":503},{""stimulus"":""img/green_wl/11.jpg"",""time"":570}]","[]"
"image-keyboard-response","104","130554","0.0-5.0-1.50","63d420b1d5b7dc6a3a4c50aa","bdp_lott","Mon Mar 27 2023 16:01:17 GMT-0400 (Eastern Daylight Time)","348613","red","green","","767","","","","choice","","img/green_wl/choose11.jpg","1","175","green","0.5","0.5","0.5","l","",""
"animation","105","131156","0.0-5.0-2.50","63d420b1d5b7dc6a3a4c50aa","bdp_lott","Mon Mar 27 2023 16:01:17 GMT-0400 (Eastern Daylight Time)","348613","red","green","","","","","","","","","","175","","","","","","[{""stimulus"":""img/green_ll/1.jpg"",""time"":66},{""stimulus"":""img/green_ll/2.jpg"",""time"":115},{""stimulus"":""img/green_ll/3.jpg"",""time"":151},{""stimulus"":""img/green_ll/4.jpg"",""time"":216},{""stimulus"":""img/green_ll/5.jpg"",""time"":250},{""stimulus"":""img/green_ll/6.jpg"",""time"":301},{""stimulus"":""img/green_ll/7.jpg"",""time"":351},{""stimulus"":""img/green_ll/8.jpg"",""time"":401},{""stimulus"":""img/green_ll/9.jpg"",""time"":451},{""stimulus"":""img/green_ll/10.jpg"",""time"":501},{""stimulus"":""img/green_ll/11.jpg"",""time"":551}]","[]"
"image-keyboard-response","106","132349","0.0-5.0-1.51","63d420b1d5b7dc6a3a4c50aa","bdp_lott","Mon Mar 27 2023 16:01:17 GMT-0400 (Eastern Daylight Time)","348613","red","green","","1192","","","","choice","","img/green_ll/choose11.jpg","2","174","red","0.5","0.5","0.5","w","",""
"animation","107","132951","0.0-5.0-2.51","63d420b1d5b7dc6a3a4c50aa","bdp_lott","Mon Mar 27 2023 16:01:17 GMT-0400 (Eastern Daylight Time)","348613","red","green","","","","","","","","","","174","","","","","","[{""stimulus"":""img/red_lw/1.jpg"",""time"":55},{""stimulus"":""img/red_lw/2.jpg"",""time"":104},{""stimulus"":""img/red_lw/3.jpg"",""time"":155},{""stimulus"":""img/red_lw/4.jpg"",""time"":201},{""stimulus"":""img/red_lw/5.jpg"",""time"":253},{""stimulus"":""img/red_lw/6.jpg"",""time"":301},{""stimulus"":""img/red_lw/7.jpg"",""time"":351},{""stimulus"":""img/red_lw/8.jpg"",""time"":403},{""stimulus"":""img/red_lw/9.jpg"",""time"":451},{""stimulus"":""img/red_lw/10.jpg"",""time"":503},{""stimulus"":""img/red_lw/11.jpg"",""time"":551}]","[]"
"image-keyboard-response","108","133611","0.0-5.0-1.52","63d420b1d5b7dc6a3a4c50aa","bdp_lott","Mon Mar 27 2023 16:01:17 GMT-0400 (Eastern Daylight Time)","348613","red","green","","660","","","","choice","","img/red_lw/choose11.jpg","2","173","red","0.5","0.5","0.5","w","",""
"animation","109","134212","0.0-5.0-2.52","63d420b1d5b7dc6a3a4c50aa","bdp_lott","Mon Mar 27 2023 16:01:17 GMT-0400 (Eastern Daylight Time)","348613","red","green","","","","","","","","","","173","","","","","","[{""stimulus"":""img/red_lw/1.jpg"",""time"":57},{""stimulus"":""img/red_lw/2.jpg"",""time"":100},{""stimulus"":""img/red_lw/3.jpg"",""time"":157},{""stimulus"":""img/red_lw/4.jpg"",""time"":209},{""stimulus"":""img/red_lw/5.jpg"",""time"":255},{""stimulus"":""img/red_lw/6.jpg"",""time"":300},{""stimulus"":""img/red_lw/7.jpg"",""time"":350},{""stimulus"":""img/red_lw/8.jpg"",""time"":400},{""stimulus"":""img/red_lw/9.jpg"",""time"":450},{""stimulus"":""img/red_lw/10.jpg"",""time"":507},{""stimulus"":""img/red_lw/11.jpg"",""time"":550}]","[]"
"image-keyboard-response","110","134929","0.0-5.0-1.53","63d420b1d5b7dc6a3a4c50aa","bdp_lott","Mon Mar 27 2023 16:01:17 GMT-0400 (Eastern Daylight Time)","348613","red","green","","716","","","","choice","","img/red_lw/choose11.jpg","2","172","red","0.5","0.5","0.5","l","",""
"animation","111","135529","0.0-5.0-2.53","63d420b1d5b7dc6a3a4c50aa","bdp_lott","Mon Mar 27 2023 16:01:17 GMT-0400 (Eastern Daylight Time)","348613","red","green","","","","","","","","","","172","","","","","","[{""stimulus"":""img/red_ll/1.jpg"",""time"":59},{""stimulus"":""img/red_ll/2.jpg"",""time"":109},{""stimulus"":""img/red_ll/3.jpg"",""time"":151},{""stimulus"":""img/red_ll/4.jpg"",""time"":201},{""stimulus"":""img/red_ll/5.jpg"",""time"":251},{""stimulus"":""img/red_ll/6.jpg"",""time"":301},{""stimulus"":""img/red_ll/7.jpg"",""time"":351},{""stimulus"":""img/red_ll/8.jpg"",""time"":401},{""stimulus"":""img/red_ll/9.jpg"",""time"":455},{""stimulus"":""img/red_ll/10.jpg"",""time"":506},{""stimulus"":""img/red_ll/11.jpg"",""time"":551}]","[]"
"image-keyboard-response","112","136088","0.0-5.0-1.54","63d420b1d5b7dc6a3a4c50aa","bdp_lott","Mon Mar 27 2023 16:01:17 GMT-0400 (Eastern Daylight Time)","348613","red","green","","558","","","","choice","","img/red_ll/choose11.jpg","1","171","green","0.5","0.5","0.5","l","",""
"animation","113","136689","0.0-5.0-2.54","63d420b1d5b7dc6a3a4c50aa","bdp_lott","Mon Mar 27 2023 16:01:17 GMT-0400 (Eastern Daylight Time)","348613","red","green","","","","","","","","","","171","","","","","","[{""stimulus"":""img/green_ll/1.jpg"",""time"":65},{""stimulus"":""img/green_ll/2.jpg"",""time"":114},{""stimulus"":""img/green_ll/3.jpg"",""time"":167},{""stimulus"":""img/green_ll/4.jpg"",""time"":214},{""stimulus"":""img/green_ll/5.jpg"",""time"":265},{""stimulus"":""img/green_ll/6.jpg"",""time"":301},{""stimulus"":""img/green_ll/7.jpg"",""time"":351},{""stimulus"":""img/green_ll/8.jpg"",""time"":401},{""stimulus"":""img/green_ll/9.jpg"",""time"":451},{""stimulus"":""img/green_ll/10.jpg"",""time"":513},{""stimulus"":""img/green_ll/11.jpg"",""time"":566}]","[]"
"image-keyboard-response","114","137836","0.0-5.0-1.55","63d420b1d5b7dc6a3a4c50aa","bdp_lott","Mon Mar 27 2023 16:01:17 GMT-0400 (Eastern Daylight Time)","348613","red","green","","1147","","","","choice","","img/green_ll/choose11.jpg","1","170","green","0.5","0.5","0.5","w","",""
"animation","115","138437","0.0-5.0-2.55","63d420b1d5b7dc6a3a4c50aa","bdp_lott","Mon Mar 27 2023 16:01:17 GMT-0400 (Eastern Daylight Time)","348613","red","green","","","","","","","","","","170","","","","","","[{""stimulus"":""img/green_wl/1.jpg"",""time"":52},{""stimulus"":""img/green_wl/2.jpg"",""time"":102},{""stimulus"":""img/green_wl/3.jpg"",""time"":151},{""stimulus"":""img/green_wl/4.jpg"",""time"":201},{""stimulus"":""img/green_wl/5.jpg"",""time"":268},{""stimulus"":""img/green_wl/6.jpg"",""time"":302},{""stimulus"":""img/green_wl/7.jpg"",""time"":352},{""stimulus"":""img/green_wl/8.jpg"",""time"":401},{""stimulus"":""img/green_wl/9.jpg"",""time"":468},{""stimulus"":""img/green_wl/10.jpg"",""time"":502},{""stimulus"":""img/green_wl/11.jpg"",""time"":552}]","[]"
"image-keyboard-response","116","139215","0.0-5.0-1.56","63d420b1d5b7dc6a3a4c50aa","bdp_lott","Mon Mar 27 2023 16:01:17 GMT-0400 (Eastern Daylight Time)","348613","red","green","","777","","","","choice","","img/green_wl/choose11.jpg","1","169","green","0.5","0.5","0.5","l","",""
"animation","117","139818","0.0-5.0-2.56","63d420b1d5b7dc6a3a4c50aa","bdp_lott","Mon Mar 27 2023 16:01:17 GMT-0400 (Eastern Daylight Time)","348613","red","green","","","","","","","","","","169","","","","","","[{""stimulus"":""img/green_ll/1.jpg"",""time"":55},{""stimulus"":""img/green_ll/2.jpg"",""time"":107},{""stimulus"":""img/green_ll/3.jpg"",""time"":153},{""stimulus"":""img/green_ll/4.jpg"",""time"":205},{""stimulus"":""img/green_ll/5.jpg"",""time"":254},{""stimulus"":""img/green_ll/6.jpg"",""time"":301},{""stimulus"":""img/green_ll/7.jpg"",""time"":354},{""stimulus"":""img/green_ll/8.jpg"",""time"":403},{""stimulus"":""img/green_ll/9.jpg"",""time"":452},{""stimulus"":""img/green_ll/10.jpg"",""time"":501},{""stimulus"":""img/green_ll/11.jpg"",""time"":551}]","[]"
"image-keyboard-response","118","140553","0.0-5.0-1.57","63d420b1d5b7dc6a3a4c50aa","bdp_lott","Mon Mar 27 2023 16:01:17 GMT-0400 (Eastern Daylight Time)","348613","red","green","","734","","","","choice","","img/green_ll/choose11.jpg","2","168","red","0.5","0.5","0.5","w","",""
"animation","119","141154","0.0-5.0-2.57","63d420b1d5b7dc6a3a4c50aa","bdp_lott","Mon Mar 27 2023 16:01:17 GMT-0400 (Eastern Daylight Time)","348613","red","green","","","","","","","","","","168","","","","","","[{""stimulus"":""img/red_lw/1.jpg"",""time"":67},{""stimulus"":""img/red_lw/2.jpg"",""time"":101},{""stimulus"":""img/red_lw/3.jpg"",""time"":151},{""stimulus"":""img/red_lw/4.jpg"",""time"":201},{""stimulus"":""img/red_lw/5.jpg"",""time"":251},{""stimulus"":""img/red_lw/6.jpg"",""time"":301},{""stimulus"":""img/red_lw/7.jpg"",""time"":351},{""stimulus"":""img/red_lw/8.jpg"",""time"":401},{""stimulus"":""img/red_lw/9.jpg"",""time"":451},{""stimulus"":""img/red_lw/10.jpg"",""time"":501},{""stimulus"":""img/red_lw/11.jpg"",""time"":551}]","[]"
"image-keyboard-response","120","141768","0.0-5.0-1.58","63d420b1d5b7dc6a3a4c50aa","bdp_lott","Mon Mar 27 2023 16:01:17 GMT-0400 (Eastern Daylight Time)","348613","red","green","","614","","","","choice","","img/red_lw/choose11.jpg","2","167","red","0.5","0.5","0.5","w","",""
"animation","121","142369","0.0-5.0-2.58","63d420b1d5b7dc6a3a4c50aa","bdp_lott","Mon Mar 27 2023 16:01:17 GMT-0400 (Eastern Daylight Time)","348613","red","green","","","","","","","","","","167","","","","","","[{""stimulus"":""img/red_lw/1.jpg"",""time"":52},{""stimulus"":""img/red_lw/2.jpg"",""time"":103},{""stimulus"":""img/red_lw/3.jpg"",""time"":152},{""stimulus"":""img/red_lw/4.jpg"",""time"":201},{""stimulus"":""img/red_lw/5.jpg"",""time"":269},{""stimulus"":""img/red_lw/6.jpg"",""time"":315},{""stimulus"":""img/red_lw/7.jpg"",""time"":351},{""stimulus"":""img/red_lw/8.jpg"",""time"":420},{""stimulus"":""img/red_lw/9.jpg"",""time"":452},{""stimulus"":""img/red_lw/10.jpg"",""time"":519},{""stimulus"":""img/red_lw/11.jpg"",""time"":551}]","[]"
"image-keyboard-response","122","143158","0.0-5.0-1.59","63d420b1d5b7dc6a3a4c50aa","bdp_lott","Mon Mar 27 2023 16:01:17 GMT-0400 (Eastern Daylight Time)","348613","red","green","","788","","","","choice","","img/red_lw/choose11.jpg","2","166","red","0.5","0.5","0.5","l","",""
"animation","123","143760","0.0-5.0-2.59","63d420b1d5b7dc6a3a4c50aa","bdp_lott","Mon Mar 27 2023 16:01:17 GMT-0400 (Eastern Daylight Time)","348613","red","green","","","","","","","","","","166","","","","","","[{""stimulus"":""img/red_ll/1.jpg"",""time"":60},{""stimulus"":""img/red_ll/2.jpg"",""time"":108},{""stimulus"":""img/red_ll/3.jpg"",""time"":161},{""stimulus"":""img/red_ll/4.jpg"",""time"":200},{""stimulus"":""img/red_ll/5.jpg"",""time"":251},{""stimulus"":""img/red_ll/6.jpg"",""time"":301},{""stimulus"":""img/red_ll/7.jpg"",""time"":351},{""stimulus"":""img/red_ll/8.jpg"",""time"":400},{""stimulus"":""img/red_ll/9.jpg"",""time"":451},{""stimulus"":""img/red_ll/10.jpg"",""time"":508},{""stimulus"":""img/red_ll/11.jpg"",""time"":550}]","[]"
"image-keyboard-response","124","144361","0.0-5.0-1.60","63d420b1d5b7dc6a3a4c50aa","bdp_lott","Mon Mar 27 2023 16:01:17 GMT-0400 (Eastern Daylight Time)","348613","red","green","","601","","","","choice","","img/red_ll/choose11.jpg","1","165","green","0.5","0.5","0.5","w","",""
"animation","125","144962","0.0-5.0-2.60","63d420b1d5b7dc6a3a4c50aa","bdp_lott","Mon Mar 27 2023 16:01:17 GMT-0400 (Eastern Daylight Time)","348613","red","green","","","","","","","","","","165","","","","","","[{""stimulus"":""img/green_wl/1.jpg"",""time"":58},{""stimulus"":""img/green_wl/2.jpg"",""time"":108},{""stimulus"":""img/green_wl/3.jpg"",""time"":159},{""stimulus"":""img/green_wl/4.jpg"",""time"":206},{""stimulus"":""img/green_wl/5.jpg"",""time"":257},{""stimulus"":""img/green_wl/6.jpg"",""time"":302},{""stimulus"":""img/green_wl/7.jpg"",""time"":352},{""stimulus"":""img/green_wl/8.jpg"",""time"":401},{""stimulus"":""img/green_wl/9.jpg"",""time"":451},{""stimulus"":""img/green_wl/10.jpg"",""time"":506},{""stimulus"":""img/green_wl/11.jpg"",""time"":552}]","[]"
"image-keyboard-response","126","145672","0.0-5.0-1.61","63d420b1d5b7dc6a3a4c50aa","bdp_lott","Mon Mar 27 2023 16:01:17 GMT-0400 (Eastern Daylight Time)","348613","red","green","","710","","","","choice","","img/green_wl/choose11.jpg","1","164","green","0.5","0.5","0.5","w","",""
"animation","127","146283","0.0-5.0-2.61","63d420b1d5b7dc6a3a4c50aa","bdp_lott","Mon Mar 27 2023 16:01:17 GMT-0400 (Eastern Daylight Time)","348613","red","green","","","","","","","","","","164","","","","","","[{""stimulus"":""img/green_wl/1.jpg"",""time"":64},{""stimulus"":""img/green_wl/2.jpg"",""time"":115},{""stimulus"":""img/green_wl/3.jpg"",""time"":151},{""stimulus"":""img/green_wl/4.jpg"",""time"":201},{""stimulus"":""img/green_wl/5.jpg"",""time"":251},{""stimulus"":""img/green_wl/6.jpg"",""time"":312},{""stimulus"":""img/green_wl/7.jpg"",""time"":361},{""stimulus"":""img/green_wl/8.jpg"",""time"":401},{""stimulus"":""img/green_wl/9.jpg"",""time"":463},{""stimulus"":""img/green_wl/10.jpg"",""time"":514},{""stimulus"":""img/green_wl/11.jpg"",""time"":551}]","[]"
"image-keyboard-response","128","146984","0.0-5.0-1.62","63d420b1d5b7dc6a3a4c50aa","bdp_lott","Mon Mar 27 2023 16:01:17 GMT-0400 (Eastern Daylight Time)","348613","red","green","","701","","","","choice","","img/green_wl/choose11.jpg","1","163","green","0.5","0.5","0.5","w","",""
"animation","129","147603","0.0-5.0-2.62","63d420b1d5b7dc6a3a4c50aa","bdp_lott","Mon Mar 27 2023 16:01:17 GMT-0400 (Eastern Daylight Time)","348613","red","green","","","","","","","","","","163","","","","","","[{""stimulus"":""img/green_wl/1.jpg"",""time"":66},{""stimulus"":""img/green_wl/2.jpg"",""time"":100},{""stimulus"":""img/green_wl/3.jpg"",""time"":151},{""stimulus"":""img/green_wl/4.jpg"",""time"":218},{""stimulus"":""img/green_wl/5.jpg"",""time"":251},{""stimulus"":""img/green_wl/6.jpg"",""time"":301},{""stimulus"":""img/green_wl/7.jpg"",""time"":368},{""stimulus"":""img/green_wl/8.jpg"",""time"":400},{""stimulus"":""img/green_wl/9.jpg"",""time"":452},{""stimulus"":""img/green_wl/10.jpg"",""time"":500},{""stimulus"":""img/green_wl/11.jpg"",""time"":552}]","[]"
"image-keyboard-response","130","148324","0.0-5.0-1.63","63d420b1d5b7dc6a3a4c50aa","bdp_lott","Mon Mar 27 2023 16:01:17 GMT-0400 (Eastern Daylight Time)","348613","red","green","","721","","","","choice","","img/green_wl/choose11.jpg","1","162","green","0.5","0.5","0.5","l","",""
"animation","131","148929","0.0-5.0-2.63","63d420b1d5b7dc6a3a4c50aa","bdp_lott","Mon Mar 27 2023 16:01:17 GMT-0400 (Eastern Daylight Time)","348613","red","green","","","","","","","","","","162","","","","","","[{""stimulus"":""img/green_ll/1.jpg"",""time"":60},{""stimulus"":""img/green_ll/2.jpg"",""time"":109},{""stimulus"":""img/green_ll/3.jpg"",""time"":161},{""stimulus"":""img/green_ll/4.jpg"",""time"":201},{""stimulus"":""img/green_ll/5.jpg"",""time"":250},{""stimulus"":""img/green_ll/6.jpg"",""time"":310},{""stimulus"":""img/green_ll/7.jpg"",""time"":351},{""stimulus"":""img/green_ll/8.jpg"",""time"":410},{""stimulus"":""img/green_ll/9.jpg"",""time"":463},{""stimulus"":""img/green_ll/10.jpg"",""time"":513},{""stimulus"":""img/green_ll/11.jpg"",""time"":552}]","[]"
"image-keyboard-response","132","149590","0.0-5.0-1.64","63d420b1d5b7dc6a3a4c50aa","bdp_lott","Mon Mar 27 2023 16:01:17 GMT-0400 (Eastern Daylight Time)","348613","red","green","","660","","","","choice","","img/green_ll/choose11.jpg","2","161","red","0.5","0.5","0.5","l","",""
"animation","133","150191","0.0-5.0-2.64","63d420b1d5b7dc6a3a4c50aa","bdp_lott","Mon Mar 27 2023 16:01:17 GMT-0400 (Eastern Daylight Time)","348613","red","green","","","","","","","","","","161","","","","","","[{""stimulus"":""img/red_ll/1.jpg"",""time"":64},{""stimulus"":""img/red_ll/2.jpg"",""time"":113},{""stimulus"":""img/red_ll/3.jpg"",""time"":151},{""stimulus"":""img/red_ll/4.jpg"",""time"":207},{""stimulus"":""img/red_ll/5.jpg"",""time"":253},{""stimulus"":""img/red_ll/6.jpg"",""time"":301},{""stimulus"":""img/red_ll/7.jpg"",""time"":364},{""stimulus"":""img/red_ll/8.jpg"",""time"":401},{""stimulus"":""img/red_ll/9.jpg"",""time"":461},{""stimulus"":""img/red_ll/10.jpg"",""time"":513},{""stimulus"":""img/red_ll/11.jpg"",""time"":559}]","[]"
"image-keyboard-response","134","151543","0.0-5.0-1.65","63d420b1d5b7dc6a3a4c50aa","bdp_lott","Mon Mar 27 2023 16:01:17 GMT-0400 (Eastern Daylight Time)","348613","red","green","","1352","","","","choice","","img/red_ll/choose11.jpg","1","160","green","0.5","0.5","0.5","w","",""
"animation","135","152144","0.0-5.0-2.65","63d420b1d5b7dc6a3a4c50aa","bdp_lott","Mon Mar 27 2023 16:01:17 GMT-0400 (Eastern Daylight Time)","348613","red","green","","","","","","","","","","160","","","","","","[{""stimulus"":""img/green_wl/1.jpg"",""time"":60},{""stimulus"":""img/green_wl/2.jpg"",""time"":108},{""stimulus"":""img/green_wl/3.jpg"",""time"":156},{""stimulus"":""img/green_wl/4.jpg"",""time"":211},{""stimulus"":""img/green_wl/5.jpg"",""time"":259},{""stimulus"":""img/green_wl/6.jpg"",""time"":310},{""stimulus"":""img/green_wl/7.jpg"",""time"":351},{""stimulus"":""img/green_wl/8.jpg"",""time"":402},{""stimulus"":""img/green_wl/9.jpg"",""time"":451},{""stimulus"":""img/green_wl/10.jpg"",""time"":506},{""stimulus"":""img/green_wl/11.jpg"",""time"":551}]","[]"
"image-keyboard-response","136","152729","0.0-5.0-1.66","63d420b1d5b7dc6a3a4c50aa","bdp_lott","Mon Mar 27 2023 16:01:17 GMT-0400 (Eastern Daylight Time)","348613","red","green","","584","","","","choice","","img/green_wl/choose11.jpg","1","159","green","0.5","0.5","0.5","w","",""
"animation","137","153330","0.0-5.0-2.66","63d420b1d5b7dc6a3a4c50aa","bdp_lott","Mon Mar 27 2023 16:01:17 GMT-0400 (Eastern Daylight Time)","348613","red","green","","","","","","","","","","159","","","","","","[{""stimulus"":""img/green_wl/1.jpg"",""time"":56},{""stimulus"":""img/green_wl/2.jpg"",""time"":106},{""stimulus"":""img/green_wl/3.jpg"",""time"":155},{""stimulus"":""img/green_wl/4.jpg"",""time"":207},{""stimulus"":""img/green_wl/5.jpg"",""time"":255},{""stimulus"":""img/green_wl/6.jpg"",""time"":304},{""stimulus"":""img/green_wl/7.jpg"",""time"":354},{""stimulus"":""img/green_wl/8.jpg"",""time"":405},{""stimulus"":""img/green_wl/9.jpg"",""time"":458},{""stimulus"":""img/green_wl/10.jpg"",""time"":505},{""stimulus"":""img/green_wl/11.jpg"",""time"":551}]","[]"
"image-keyboard-response","138","153998","0.0-5.0-1.67","63d420b1d5b7dc6a3a4c50aa","bdp_lott","Mon Mar 27 2023 16:01:17 GMT-0400 (Eastern Daylight Time)","348613","red","green","","666","","","","choice","","img/green_wl/choose11.jpg","1","158","green","0.5","0.5","0.5","w","",""
"animation","139","154598","0.0-5.0-2.67","63d420b1d5b7dc6a3a4c50aa","bdp_lott","Mon Mar 27 2023 16:01:17 GMT-0400 (Eastern Daylight Time)","348613","red","green","","","","","","","","","","158","","","","","","[{""stimulus"":""img/green_wl/1.jpg"",""time"":53},{""stimulus"":""img/green_wl/2.jpg"",""time"":102},{""stimulus"":""img/green_wl/3.jpg"",""time"":150},{""stimulus"":""img/green_wl/4.jpg"",""time"":200},{""stimulus"":""img/green_wl/5.jpg"",""time"":250},{""stimulus"":""img/green_wl/6.jpg"",""time"":300},{""stimulus"":""img/green_wl/7.jpg"",""time"":350},{""stimulus"":""img/green_wl/8.jpg"",""time"":403},{""stimulus"":""img/green_wl/9.jpg"",""time"":453},{""stimulus"":""img/green_wl/10.jpg"",""time"":503},{""stimulus"":""img/green_wl/11.jpg"",""time"":551}]","[]"
"image-keyboard-response","140","155272","0.0-5.0-1.68","63d420b1d5b7dc6a3a4c50aa","bdp_lott","Mon Mar 27 2023 16:01:17 GMT-0400 (Eastern Daylight Time)","348613","red","green","","672","","","","choice","","img/green_wl/choose11.jpg","1","157","green","0.5","0.5","0.5","l","",""
"animation","141","155872","0.0-5.0-2.68","63d420b1d5b7dc6a3a4c50aa","bdp_lott","Mon Mar 27 2023 16:01:17 GMT-0400 (Eastern Daylight Time)","348613","red","green","","","","","","","","","","157","","","","","","[{""stimulus"":""img/green_ll/1.jpg"",""time"":65},{""stimulus"":""img/green_ll/2.jpg"",""time"":115},{""stimulus"":""img/green_ll/3.jpg"",""time"":162},{""stimulus"":""img/green_ll/4.jpg"",""time"":200},{""stimulus"":""img/green_ll/5.jpg"",""time"":261},{""stimulus"":""img/green_ll/6.jpg"",""time"":301},{""stimulus"":""img/green_ll/7.jpg"",""time"":361},{""stimulus"":""img/green_ll/8.jpg"",""time"":401},{""stimulus"":""img/green_ll/9.jpg"",""time"":461},{""stimulus"":""img/green_ll/10.jpg"",""time"":500},{""stimulus"":""img/green_ll/11.jpg"",""time"":550}]","[]"
"image-keyboard-response","142","157130","0.0-5.0-1.69","63d420b1d5b7dc6a3a4c50aa","bdp_lott","Mon Mar 27 2023 16:01:17 GMT-0400 (Eastern Daylight Time)","348613","red","green","","1256","","","","choice","","img/green_ll/choose11.jpg","2","156","red","0.5","0.5","0.5","l","",""
"animation","143","157730","0.0-5.0-2.69","63d420b1d5b7dc6a3a4c50aa","bdp_lott","Mon Mar 27 2023 16:01:17 GMT-0400 (Eastern Daylight Time)","348613","red","green","","","","","","","","","","156","","","","","","[{""stimulus"":""img/red_ll/1.jpg"",""time"":56},{""stimulus"":""img/red_ll/2.jpg"",""time"":105},{""stimulus"":""img/red_ll/3.jpg"",""time"":153},{""stimulus"":""img/red_ll/4.jpg"",""time"":201},{""stimulus"":""img/red_ll/5.jpg"",""time"":251},{""stimulus"":""img/red_ll/6.jpg"",""time"":301},{""stimulus"":""img/red_ll/7.jpg"",""time"":355},{""stimulus"":""img/red_ll/8.jpg"",""time"":401},{""stimulus"":""img/red_ll/9.jpg"",""time"":457},{""stimulus"":""img/red_ll/10.jpg"",""time"":505},{""stimulus"":""img/red_ll/11.jpg"",""time"":551}]","[]"
"image-keyboard-response","144","158321","0.0-5.0-1.70","63d420b1d5b7dc6a3a4c50aa","bdp_lott","Mon Mar 27 2023 16:01:17 GMT-0400 (Eastern Daylight Time)","348613","red","green","","590","","","","choice","","img/red_ll/choose11.jpg","1","155","green","0.5","0.5","0.5","w","",""
"animation","145","158922","0.0-5.0-2.70","63d420b1d5b7dc6a3a4c50aa","bdp_lott","Mon Mar 27 2023 16:01:17 GMT-0400 (Eastern Daylight Time)","348613","red","green","","","","","","","","","","155","","","","","","[{""stimulus"":""img/green_wl/1.jpg"",""time"":66},{""stimulus"":""img/green_wl/2.jpg"",""time"":114},{""stimulus"":""img/green_wl/3.jpg"",""time"":151},{""stimulus"":""img/green_wl/4.jpg"",""time"":201},{""stimulus"":""img/green_wl/5.jpg"",""time"":251},{""stimulus"":""img/green_wl/6.jpg"",""time"":301},{""stimulus"":""img/green_wl/7.jpg"",""time"":352},{""stimulus"":""img/green_wl/8.jpg"",""time"":409},{""stimulus"":""img/green_wl/9.jpg"",""time"":451},{""stimulus"":""img/green_wl/10.jpg"",""time"":501},{""stimulus"":""img/green_wl/11.jpg"",""time"":551}]","[]"
"image-keyboard-response","146","159549","0.0-5.0-1.71","63d420b1d5b7dc6a3a4c50aa","bdp_lott","Mon Mar 27 2023 16:01:17 GMT-0400 (Eastern Daylight Time)","348613","red","green","","625","","","","choice","","img/green_wl/choose11.jpg","1","154","green","0.5","0.5","0.5","w","",""
"animation","147","160150","0.0-5.0-2.71","63d420b1d5b7dc6a3a4c50aa","bdp_lott","Mon Mar 27 2023 16:01:17 GMT-0400 (Eastern Daylight Time)","348613","red","green","","","","","","","","","","154","","","","","","[{""stimulus"":""img/green_wl/1.jpg"",""time"":53},{""stimulus"":""img/green_wl/2.jpg"",""time"":101},{""stimulus"":""img/green_wl/3.jpg"",""time"":151},{""stimulus"":""img/green_wl/4.jpg"",""time"":202},{""stimulus"":""img/green_wl/5.jpg"",""time"":251},{""stimulus"":""img/green_wl/6.jpg"",""time"":301},{""stimulus"":""img/green_wl/7.jpg"",""time"":352},{""stimulus"":""img/green_wl/8.jpg"",""time"":400},{""stimulus"":""img/green_wl/9.jpg"",""time"":452},{""stimulus"":""img/green_wl/10.jpg"",""time"":501},{""stimulus"":""img/green_wl/11.jpg"",""time"":551}]","[]"
"image-keyboard-response","148","160874","0.0-5.0-1.72","63d420b1d5b7dc6a3a4c50aa","bdp_lott","Mon Mar 27 2023 16:01:17 GMT-0400 (Eastern Daylight Time)","348613","red","green","","724","","","","choice","","img/green_wl/choose11.jpg","1","153","green","0.5","0.5","0.5","l","",""
"animation","149","161483","0.0-5.0-2.72","63d420b1d5b7dc6a3a4c50aa","bdp_lott","Mon Mar 27 2023 16:01:17 GMT-0400 (Eastern Daylight Time)","348613","red","green","","","","","","","","","","153","","","","","","[{""stimulus"":""img/green_ll/1.jpg"",""time"":60},{""stimulus"":""img/green_ll/2.jpg"",""time"":108},{""stimulus"":""img/green_ll/3.jpg"",""time"":160},{""stimulus"":""img/green_ll/4.jpg"",""time"":200},{""stimulus"":""img/green_ll/5.jpg"",""time"":250},{""stimulus"":""img/green_ll/6.jpg"",""time"":301},{""stimulus"":""img/green_ll/7.jpg"",""time"":350},{""stimulus"":""img/green_ll/8.jpg"",""time"":401},{""stimulus"":""img/green_ll/9.jpg"",""time"":461},{""stimulus"":""img/green_ll/10.jpg"",""time"":508},{""stimulus"":""img/green_ll/11.jpg"",""time"":560}]","[]"
"image-keyboard-response","150","162069","0.0-5.0-1.73","63d420b1d5b7dc6a3a4c50aa","bdp_lott","Mon Mar 27 2023 16:01:17 GMT-0400 (Eastern Daylight Time)","348613","red","green","","586","","","","choice","","img/green_ll/choose11.jpg","2","152","red","0.5","0.5","0.5","w","",""
"animation","151","162670","0.0-5.0-2.73","63d420b1d5b7dc6a3a4c50aa","bdp_lott","Mon Mar 27 2023 16:01:17 GMT-0400 (Eastern Daylight Time)","348613","red","green","","","","","","","","","","152","","","","","","[{""stimulus"":""img/red_lw/1.jpg"",""time"":63},{""stimulus"":""img/red_lw/2.jpg"",""time"":115},{""stimulus"":""img/red_lw/3.jpg"",""time"":151},{""stimulus"":""img/red_lw/4.jpg"",""time"":201},{""stimulus"":""img/red_lw/5.jpg"",""time"":265},{""stimulus"":""img/red_lw/6.jpg"",""time"":301},{""stimulus"":""img/red_lw/7.jpg"",""time"":351},{""stimulus"":""img/red_lw/8.jpg"",""time"":412},{""stimulus"":""img/red_lw/9.jpg"",""time"":450},{""stimulus"":""img/red_lw/10.jpg"",""time"":513},{""stimulus"":""img/red_lw/11.jpg"",""time"":563}]","[]"
"image-keyboard-response","152","163327","0.0-5.0-1.74","63d420b1d5b7dc6a3a4c50aa","bdp_lott","Mon Mar 27 2023 16:01:17 GMT-0400 (Eastern Daylight Time)","348613","red","green","","655","","","","choice","","img/red_lw/choose11.jpg","2","151","red","0.5","0.5","0.5","l","",""
"animation","153","163933","0.0-5.0-2.74","63d420b1d5b7dc6a3a4c50aa","bdp_lott","Mon Mar 27 2023 16:01:17 GMT-0400 (Eastern Daylight Time)","348613","red","green","","","","","","","","","","151","","","","","","[{""stimulus"":""img/red_ll/1.jpg"",""time"":57},{""stimulus"":""img/red_ll/2.jpg"",""time"":106},{""stimulus"":""img/red_ll/3.jpg"",""time"":152},{""stimulus"":""img/red_ll/4.jpg"",""time"":206},{""stimulus"":""img/red_ll/5.jpg"",""time"":252},{""stimulus"":""img/red_ll/6.jpg"",""time"":306},{""stimulus"":""img/red_ll/7.jpg"",""time"":352},{""stimulus"":""img/red_ll/8.jpg"",""time"":401},{""stimulus"":""img/red_ll/9.jpg"",""time"":452},{""stimulus"":""img/red_ll/10.jpg"",""time"":506},{""stimulus"":""img/red_ll/11.jpg"",""time"":551}]","[]"
"image-keyboard-response","154","164897","0.0-5.0-1.75","63d420b1d5b7dc6a3a4c50aa","bdp_lott","Mon Mar 27 2023 16:01:17 GMT-0400 (Eastern Daylight Time)","348613","red","green","","964","","","","choice","","img/red_ll/choose11.jpg","1","150","green","0.5","0.5","0.5","w","",""
"animation","155","165499","0.0-5.0-2.75","63d420b1d5b7dc6a3a4c50aa","bdp_lott","Mon Mar 27 2023 16:01:17 GMT-0400 (Eastern Daylight Time)","348613","red","green","","","","","","","","","","150","","","","","","[{""stimulus"":""img/green_wl/1.jpg"",""time"":52},{""stimulus"":""img/green_wl/2.jpg"",""time"":104},{""stimulus"":""img/green_wl/3.jpg"",""time"":151},{""stimulus"":""img/green_wl/4.jpg"",""time"":201},{""stimulus"":""img/green_wl/5.jpg"",""time"":250},{""stimulus"":""img/green_wl/6.jpg"",""time"":300},{""stimulus"":""img/green_wl/7.jpg"",""time"":352},{""stimulus"":""img/green_wl/8.jpg"",""time"":418},{""stimulus"":""img/green_wl/9.jpg"",""time"":451},{""stimulus"":""img/green_wl/10.jpg"",""time"":502},{""stimulus"":""img/green_wl/11.jpg"",""time"":571}]","[]"
"image-keyboard-response","156","166136","0.0-5.0-1.76","63d420b1d5b7dc6a3a4c50aa","bdp_lott","Mon Mar 27 2023 16:01:17 GMT-0400 (Eastern Daylight Time)","348613","red","green","","636","","","","choice","","img/green_wl/choose11.jpg","1","149","green","0.5","0.1","0.1","l","",""
"animation","157","166748","0.0-5.0-2.76","63d420b1d5b7dc6a3a4c50aa","bdp_lott","Mon Mar 27 2023 16:01:17 GMT-0400 (Eastern Daylight Time)","348613","red","green","","","","","","","","","","149","","","","","","[{""stimulus"":""img/green_ll/1.jpg"",""time"":64},{""stimulus"":""img/green_ll/2.jpg"",""time"":115},{""stimulus"":""img/green_ll/3.jpg"",""time"":161},{""stimulus"":""img/green_ll/4.jpg"",""time"":214},{""stimulus"":""img/green_ll/5.jpg"",""time"":251},{""stimulus"":""img/green_ll/6.jpg"",""time"":312},{""stimulus"":""img/green_ll/7.jpg"",""time"":364},{""stimulus"":""img/green_ll/8.jpg"",""time"":401},{""stimulus"":""img/green_ll/9.jpg"",""time"":463},{""stimulus"":""img/green_ll/10.jpg"",""time"":513},{""stimulus"":""img/green_ll/11.jpg"",""time"":564}]","[]"
"image-keyboard-response","158","167389","0.0-5.0-1.77","63d420b1d5b7dc6a3a4c50aa","bdp_lott","Mon Mar 27 2023 16:01:17 GMT-0400 (Eastern Daylight Time)","348613","red","green","","641","","","","choice","","img/green_ll/choose11.jpg","2","148","red","0.5","0.1","0.5","w","",""
"animation","159","167998","0.0-5.0-2.77","63d420b1d5b7dc6a3a4c50aa","bdp_lott","Mon Mar 27 2023 16:01:17 GMT-0400 (Eastern Daylight Time)","348613","red","green","","","","","","","","","","148","","","","","","[{""stimulus"":""img/red_lw/1.jpg"",""time"":61},{""stimulus"":""img/red_lw/2.jpg"",""time"":106},{""stimulus"":""img/red_lw/3.jpg"",""time"":151},{""stimulus"":""img/red_lw/4.jpg"",""time"":210},{""stimulus"":""img/red_lw/5.jpg"",""time"":251},{""stimulus"":""img/red_lw/6.jpg"",""time"":309},{""stimulus"":""img/red_lw/7.jpg"",""time"":361},{""stimulus"":""img/red_lw/8.jpg"",""time"":409},{""stimulus"":""img/red_lw/9.jpg"",""time"":461},{""stimulus"":""img/red_lw/10.jpg"",""time"":511},{""stimulus"":""img/red_lw/11.jpg"",""time"":561}]","[]"
"image-keyboard-response","160","168644","0.0-5.0-1.78","63d420b1d5b7dc6a3a4c50aa","bdp_lott","Mon Mar 27 2023 16:01:17 GMT-0400 (Eastern Daylight Time)","348613","red","green","","646","","","","choice","","img/red_lw/choose11.jpg","2","147","red","0.5","0.1","0.5","l","",""
"animation","161","169246","0.0-5.0-2.78","63d420b1d5b7dc6a3a4c50aa","bdp_lott","Mon Mar 27 2023 16:01:17 GMT-0400 (Eastern Daylight Time)","348613","red","green","","","","","","","","","","147","","","","","","[{""stimulus"":""img/red_ll/1.jpg"",""time"":55},{""stimulus"":""img/red_ll/2.jpg"",""time"":106},{""stimulus"":""img/red_ll/3.jpg"",""time"":151},{""stimulus"":""img/red_ll/4.jpg"",""time"":203},{""stimulus"":""img/red_ll/5.jpg"",""time"":251},{""stimulus"":""img/red_ll/6.jpg"",""time"":303},{""stimulus"":""img/red_ll/7.jpg"",""time"":354},{""stimulus"":""img/red_ll/8.jpg"",""time"":405},{""stimulus"":""img/red_ll/9.jpg"",""time"":451},{""stimulus"":""img/red_ll/10.jpg"",""time"":505},{""stimulus"":""img/red_ll/11.jpg"",""time"":551}]","[]"
"image-keyboard-response","162","169876","0.0-5.0-1.79","63d420b1d5b7dc6a3a4c50aa","bdp_lott","Mon Mar 27 2023 16:01:17 GMT-0400 (Eastern Daylight Time)","348613","red","green","","630","","","","choice","","img/red_ll/choose11.jpg","1","146","green","0.5","0.1","0.1","l","",""
"animation","163","170483","0.0-5.0-2.79","63d420b1d5b7dc6a3a4c50aa","bdp_lott","Mon Mar 27 2023 16:01:17 GMT-0400 (Eastern Daylight Time)","348613","red","green","","","","","","","","","","146","","","","","","[{""stimulus"":""img/green_ll/1.jpg"",""time"":59},{""stimulus"":""img/green_ll/2.jpg"",""time"":101},{""stimulus"":""img/green_ll/3.jpg"",""time"":157},{""stimulus"":""img/green_ll/4.jpg"",""time"":206},{""stimulus"":""img/green_ll/5.jpg"",""time"":257},{""stimulus"":""img/green_ll/6.jpg"",""time"":305},{""stimulus"":""img/green_ll/7.jpg"",""time"":351},{""stimulus"":""img/green_ll/8.jpg"",""time"":401},{""stimulus"":""img/green_ll/9.jpg"",""time"":451},{""stimulus"":""img/green_ll/10.jpg"",""time"":507},{""stimulus"":""img/green_ll/11.jpg"",""time"":551}]","[]"
"image-keyboard-response","164","170934","0.0-5.0-1.80","63d420b1d5b7dc6a3a4c50aa","bdp_lott","Mon Mar 27 2023 16:01:17 GMT-0400 (Eastern Daylight Time)","348613","red","green","","451","","","","choice","","img/green_ll/choose11.jpg","2","145","red","0.5","0.1","0.5","w","",""
"animation","165","171535","0.0-5.0-2.80","63d420b1d5b7dc6a3a4c50aa","bdp_lott","Mon Mar 27 2023 16:01:17 GMT-0400 (Eastern Daylight Time)","348613","red","green","","","","","","","","","","145","","","","","","[{""stimulus"":""img/red_lw/1.jpg"",""time"":66},{""stimulus"":""img/red_lw/2.jpg"",""time"":101},{""stimulus"":""img/red_lw/3.jpg"",""time"":151},{""stimulus"":""img/red_lw/4.jpg"",""time"":217},{""stimulus"":""img/red_lw/5.jpg"",""time"":264},{""stimulus"":""img/red_lw/6.jpg"",""time"":302},{""stimulus"":""img/red_lw/7.jpg"",""time"":351},{""stimulus"":""img/red_lw/8.jpg"",""time"":402},{""stimulus"":""img/red_lw/9.jpg"",""time"":452},{""stimulus"":""img/red_lw/10.jpg"",""time"":502},{""stimulus"":""img/red_lw/11.jpg"",""time"":551}]","[]"
"image-keyboard-response","166","172203","0.0-5.0-1.81","63d420b1d5b7dc6a3a4c50aa","bdp_lott","Mon Mar 27 2023 16:01:17 GMT-0400 (Eastern Daylight Time)","348613","red","green","","667","","","","choice","","img/red_lw/choose11.jpg","2","144","red","0.5","0.1","0.5","l","",""
"animation","167","172804","0.0-5.0-2.81","63d420b1d5b7dc6a3a4c50aa","bdp_lott","Mon Mar 27 2023 16:01:17 GMT-0400 (Eastern Daylight Time)","348613","red","green","","","","","","","","","","144","","","","","","[{""stimulus"":""img/red_ll/1.jpg"",""time"":63},{""stimulus"":""img/red_ll/2.jpg"",""time"":115},{""stimulus"":""img/red_ll/3.jpg"",""time"":163},{""stimulus"":""img/red_ll/4.jpg"",""time"":201},{""stimulus"":""img/red_ll/5.jpg"",""time"":263},{""stimulus"":""img/red_ll/6.jpg"",""time"":311},{""stimulus"":""img/red_ll/7.jpg"",""time"":351},{""stimulus"":""img/red_ll/8.jpg"",""time"":401},{""stimulus"":""img/red_ll/9.jpg"",""time"":462},{""stimulus"":""img/red_ll/10.jpg"",""time"":511},{""stimulus"":""img/red_ll/11.jpg"",""time"":563}]","[]"
"image-keyboard-response","168","173362","0.0-5.0-1.82","63d420b1d5b7dc6a3a4c50aa","bdp_lott","Mon Mar 27 2023 16:01:17 GMT-0400 (Eastern Daylight Time)","348613","red","green","","558","","","","choice","","img/red_ll/choose11.jpg","1","143","green","0.5","0.1","0.1","l","",""
"animation","169","173966","0.0-5.0-2.82","63d420b1d5b7dc6a3a4c50aa","bdp_lott","Mon Mar 27 2023 16:01:17 GMT-0400 (Eastern Daylight Time)","348613","red","green","","","","","","","","","","143","","","","","","[{""stimulus"":""img/green_ll/1.jpg"",""time"":53},{""stimulus"":""img/green_ll/2.jpg"",""time"":104},{""stimulus"":""img/green_ll/3.jpg"",""time"":153},{""stimulus"":""img/green_ll/4.jpg"",""time"":200},{""stimulus"":""img/green_ll/5.jpg"",""time"":251},{""stimulus"":""img/green_ll/6.jpg"",""time"":300},{""stimulus"":""img/green_ll/7.jpg"",""time"":350},{""stimulus"":""img/green_ll/8.jpg"",""time"":400},{""stimulus"":""img/green_ll/9.jpg"",""time"":453},{""stimulus"":""img/green_ll/10.jpg"",""time"":503},{""stimulus"":""img/green_ll/11.jpg"",""time"":550}]","[]"
"image-keyboard-response","170","175490","0.0-5.0-1.83","63d420b1d5b7dc6a3a4c50aa","bdp_lott","Mon Mar 27 2023 16:01:17 GMT-0400 (Eastern Daylight Time)","348613","red","green","","1524","","","","choice","","img/green_ll/choose11.jpg","1","142","green","0.5","0.1","0.1","l","",""
"animation","171","176090","0.0-5.0-2.83","63d420b1d5b7dc6a3a4c50aa","bdp_lott","Mon Mar 27 2023 16:01:17 GMT-0400 (Eastern Daylight Time)","348613","red","green","","","","","","","","","","142","","","","","","[{""stimulus"":""img/green_ll/1.jpg"",""time"":60},{""stimulus"":""img/green_ll/2.jpg"",""time"":109},{""stimulus"":""img/green_ll/3.jpg"",""time"":160},{""stimulus"":""img/green_ll/4.jpg"",""time"":210},{""stimulus"":""img/green_ll/5.jpg"",""time"":251},{""stimulus"":""img/green_ll/6.jpg"",""time"":302},{""stimulus"":""img/green_ll/7.jpg"",""time"":351},{""stimulus"":""img/green_ll/8.jpg"",""time"":411},{""stimulus"":""img/green_ll/9.jpg"",""time"":451},{""stimulus"":""img/green_ll/10.jpg"",""time"":507},{""stimulus"":""img/green_ll/11.jpg"",""time"":551}]","[]"
"image-keyboard-response","172","176630","0.0-5.0-1.84","63d420b1d5b7dc6a3a4c50aa","bdp_lott","Mon Mar 27 2023 16:01:17 GMT-0400 (Eastern Daylight Time)","348613","red","green","","539","","","","choice","","img/green_ll/choose11.jpg","2","141","red","0.5","0.1","0.5","w","",""
"animation","173","177231","0.0-5.0-2.84","63d420b1d5b7dc6a3a4c50aa","bdp_lott","Mon Mar 27 2023 16:01:17 GMT-0400 (Eastern Daylight Time)","348613","red","green","","","","","","","","","","141","","","","","","[{""stimulus"":""img/red_lw/1.jpg"",""time"":52},{""stimulus"":""img/red_lw/2.jpg"",""time"":103},{""stimulus"":""img/red_lw/3.jpg"",""time"":152},{""stimulus"":""img/red_lw/4.jpg"",""time"":200},{""stimulus"":""img/red_lw/5.jpg"",""time"":252},{""stimulus"":""img/red_lw/6.jpg"",""time"":300},{""stimulus"":""img/red_lw/7.jpg"",""time"":352},{""stimulus"":""img/red_lw/8.jpg"",""time"":400},{""stimulus"":""img/red_lw/9.jpg"",""time"":452},{""stimulus"":""img/red_lw/10.jpg"",""time"":500},{""stimulus"":""img/red_lw/11.jpg"",""time"":552}]","[]"
"image-keyboard-response","174","177746","0.0-5.0-1.85","63d420b1d5b7dc6a3a4c50aa","bdp_lott","Mon Mar 27 2023 16:01:17 GMT-0400 (Eastern Daylight Time)","348613","red","green","","515","","","","choice","","img/red_lw/choose11.jpg","2","140","red","0.5","0.1","0.5","l","",""
"animation","175","178347","0.0-5.0-2.85","63d420b1d5b7dc6a3a4c50aa","bdp_lott","Mon Mar 27 2023 16:01:17 GMT-0400 (Eastern Daylight Time)","348613","red","green","","","","","","","","","","140","","","","","","[{""stimulus"":""img/red_ll/1.jpg"",""time"":52},{""stimulus"":""img/red_ll/2.jpg"",""time"":103},{""stimulus"":""img/red_ll/3.jpg"",""time"":151},{""stimulus"":""img/red_ll/4.jpg"",""time"":202},{""stimulus"":""img/red_ll/5.jpg"",""time"":254},{""stimulus"":""img/red_ll/6.jpg"",""time"":301},{""stimulus"":""img/red_ll/7.jpg"",""time"":350},{""stimulus"":""img/red_ll/8.jpg"",""time"":401},{""stimulus"":""img/red_ll/9.jpg"",""time"":450},{""stimulus"":""img/red_ll/10.jpg"",""time"":502},{""stimulus"":""img/red_ll/11.jpg"",""time"":550}]","[]"
"image-keyboard-response","176","178993","0.0-5.0-1.86","63d420b1d5b7dc6a3a4c50aa","bdp_lott","Mon Mar 27 2023 16:01:17 GMT-0400 (Eastern Daylight Time)","348613","red","green","","645","","","","choice","","img/red_ll/choose11.jpg","1","139","green","0.5","0.1","0.1","l","",""
"animation","177","179599","0.0-5.0-2.86","63d420b1d5b7dc6a3a4c50aa","bdp_lott","Mon Mar 27 2023 16:01:17 GMT-0400 (Eastern Daylight Time)","348613","red","green","","","","","","","","","","139","","","","","","[{""stimulus"":""img/green_ll/1.jpg"",""time"":56},{""stimulus"":""img/green_ll/2.jpg"",""time"":107},{""stimulus"":""img/green_ll/3.jpg"",""time"":151},{""stimulus"":""img/green_ll/4.jpg"",""time"":200},{""stimulus"":""img/green_ll/5.jpg"",""time"":251},{""stimulus"":""img/green_ll/6.jpg"",""time"":305},{""stimulus"":""img/green_ll/7.jpg"",""time"":354},{""stimulus"":""img/green_ll/8.jpg"",""time"":403},{""stimulus"":""img/green_ll/9.jpg"",""time"":451},{""stimulus"":""img/green_ll/10.jpg"",""time"":500},{""stimulus"":""img/green_ll/11.jpg"",""time"":551}]","[]"
"image-keyboard-response","178","180412","0.0-5.0-1.87","63d420b1d5b7dc6a3a4c50aa","bdp_lott","Mon Mar 27 2023 16:01:17 GMT-0400 (Eastern Daylight Time)","348613","red","green","","813","","","","choice","","img/green_ll/choose11.jpg","2","138","red","0.5","0.1","0.5","l","",""
"animation","179","181016","0.0-5.0-2.87","63d420b1d5b7dc6a3a4c50aa","bdp_lott","Mon Mar 27 2023 16:01:17 GMT-0400 (Eastern Daylight Time)","348613","red","green","","","","","","","","","","138","","","","","","[{""stimulus"":""img/red_ll/1.jpg"",""time"":53},{""stimulus"":""img/red_ll/2.jpg"",""time"":104},{""stimulus"":""img/red_ll/3.jpg"",""time"":153},{""stimulus"":""img/red_ll/4.jpg"",""time"":201},{""stimulus"":""img/red_ll/5.jpg"",""time"":253},{""stimulus"":""img/red_ll/6.jpg"",""time"":302},{""stimulus"":""img/red_ll/7.jpg"",""time"":353},{""stimulus"":""img/red_ll/8.jpg"",""time"":400},{""stimulus"":""img/red_ll/9.jpg"",""time"":453},{""stimulus"":""img/red_ll/10.jpg"",""time"":503},{""stimulus"":""img/red_ll/11.jpg"",""time"":551}]","[]"
"image-keyboard-response","180","181630","0.0-5.0-1.88","63d420b1d5b7dc6a3a4c50aa","bdp_lott","Mon Mar 27 2023 16:01:17 GMT-0400 (Eastern Daylight Time)","348613","red","green","","614","","","","choice","","img/red_ll/choose11.jpg","1","137","green","0.5","0.1","0.1","l","",""
"animation","181","182232","0.0-5.0-2.88","63d420b1d5b7dc6a3a4c50aa","bdp_lott","Mon Mar 27 2023 16:01:17 GMT-0400 (Eastern Daylight Time)","348613","red","green","","","","","","","","","","137","","","","","","[{""stimulus"":""img/green_ll/1.jpg"",""time"":52},{""stimulus"":""img/green_ll/2.jpg"",""time"":104},{""stimulus"":""img/green_ll/3.jpg"",""time"":152},{""stimulus"":""img/green_ll/4.jpg"",""time"":202},{""stimulus"":""img/green_ll/5.jpg"",""time"":253},{""stimulus"":""img/green_ll/6.jpg"",""time"":302},{""stimulus"":""img/green_ll/7.jpg"",""time"":353},{""stimulus"":""img/green_ll/8.jpg"",""time"":402},{""stimulus"":""img/green_ll/9.jpg"",""time"":452},{""stimulus"":""img/green_ll/10.jpg"",""time"":503},{""stimulus"":""img/green_ll/11.jpg"",""time"":551}]","[]"
"image-keyboard-response","182","183323","0.0-5.0-1.89","63d420b1d5b7dc6a3a4c50aa","bdp_lott","Mon Mar 27 2023 16:01:17 GMT-0400 (Eastern Daylight Time)","348613","red","green","","1090","","","","choice","","img/green_ll/choose11.jpg","1","136","green","0.5","0.1","0.1","l","",""
"animation","183","183924","0.0-5.0-2.89","63d420b1d5b7dc6a3a4c50aa","bdp_lott","Mon Mar 27 2023 16:01:17 GMT-0400 (Eastern Daylight Time)","348613","red","green","","","","","","","","","","136","","","","","","[{""stimulus"":""img/green_ll/1.jpg"",""time"":60},{""stimulus"":""img/green_ll/2.jpg"",""time"":112},{""stimulus"":""img/green_ll/3.jpg"",""time"":151},{""stimulus"":""img/green_ll/4.jpg"",""time"":201},{""stimulus"":""img/green_ll/5.jpg"",""time"":259},{""stimulus"":""img/green_ll/6.jpg"",""time"":309},{""stimulus"":""img/green_ll/7.jpg"",""time"":357},{""stimulus"":""img/green_ll/8.jpg"",""time"":401},{""stimulus"":""img/green_ll/9.jpg"",""time"":451},{""stimulus"":""img/green_ll/10.jpg"",""time"":501},{""stimulus"":""img/green_ll/11.jpg"",""time"":551}]","[]"
"image-keyboard-response","184","184748","0.0-5.0-1.90","63d420b1d5b7dc6a3a4c50aa","bdp_lott","Mon Mar 27 2023 16:01:17 GMT-0400 (Eastern Daylight Time)","348613","red","green","","824","","","","choice","","img/green_ll/choose11.jpg","2","135","red","0.5","0.1","0.5","w","",""
"animation","185","185349","0.0-5.0-2.90","63d420b1d5b7dc6a3a4c50aa","bdp_lott","Mon Mar 27 2023 16:01:17 GMT-0400 (Eastern Daylight Time)","348613","red","green","","","","","","","","","","135","","","","","","[{""stimulus"":""img/red_lw/1.jpg"",""time"":50},{""stimulus"":""img/red_lw/2.jpg"",""time"":101},{""stimulus"":""img/red_lw/3.jpg"",""time"":169},{""stimulus"":""img/red_lw/4.jpg"",""time"":201},{""stimulus"":""img/red_lw/5.jpg"",""time"":250},{""stimulus"":""img/red_lw/6.jpg"",""time"":300},{""stimulus"":""img/red_lw/7.jpg"",""time"":370},{""stimulus"":""img/red_lw/8.jpg"",""time"":401},{""stimulus"":""img/red_lw/9.jpg"",""time"":451},{""stimulus"":""img/red_lw/10.jpg"",""time"":518},{""stimulus"":""img/red_lw/11.jpg"",""time"":550}]","[]"
"image-keyboard-response","186","185979","0.0-5.0-1.91","63d420b1d5b7dc6a3a4c50aa","bdp_lott","Mon Mar 27 2023 16:01:17 GMT-0400 (Eastern Daylight Time)","348613","red","green","","629","","","","choice","","img/red_lw/choose11.jpg","2","134","red","0.5","0.1","0.5","l","",""
"animation","187","186581","0.0-5.0-2.91","63d420b1d5b7dc6a3a4c50aa","bdp_lott","Mon Mar 27 2023 16:01:17 GMT-0400 (Eastern Daylight Time)","348613","red","green","","","","","","","","","","134","","","","","","[{""stimulus"":""img/red_ll/1.jpg"",""time"":52},{""stimulus"":""img/red_ll/2.jpg"",""time"":104},{""stimulus"":""img/red_ll/3.jpg"",""time"":151},{""stimulus"":""img/red_ll/4.jpg"",""time"":221},{""stimulus"":""img/red_ll/5.jpg"",""time"":250},{""stimulus"":""img/red_ll/6.jpg"",""time"":304},{""stimulus"":""img/red_ll/7.jpg"",""time"":351},{""stimulus"":""img/red_ll/8.jpg"",""time"":403},{""stimulus"":""img/red_ll/9.jpg"",""time"":451},{""stimulus"":""img/red_ll/10.jpg"",""time"":520},{""stimulus"":""img/red_ll/11.jpg"",""time"":551}]","[]"
"image-keyboard-response","188","187182","0.0-5.0-1.92","63d420b1d5b7dc6a3a4c50aa","bdp_lott","Mon Mar 27 2023 16:01:17 GMT-0400 (Eastern Daylight Time)","348613","red","green","","601","","","","choice","","img/red_ll/choose11.jpg","1","133","green","0.5","0.1","0.1","l","",""
"animation","189","187800","0.0-5.0-2.92","63d420b1d5b7dc6a3a4c50aa","bdp_lott","Mon Mar 27 2023 16:01:17 GMT-0400 (Eastern Daylight Time)","348613","red","green","","","","","","","","","","133","","","","","","[{""stimulus"":""img/green_ll/1.jpg"",""time"":66},{""stimulus"":""img/green_ll/2.jpg"",""time"":103},{""stimulus"":""img/green_ll/3.jpg"",""time"":153},{""stimulus"":""img/green_ll/4.jpg"",""time"":203},{""stimulus"":""img/green_ll/5.jpg"",""time"":252},{""stimulus"":""img/green_ll/6.jpg"",""time"":301},{""stimulus"":""img/green_ll/7.jpg"",""time"":370},{""stimulus"":""img/green_ll/8.jpg"",""time"":402},{""stimulus"":""img/green_ll/9.jpg"",""time"":469},{""stimulus"":""img/green_ll/10.jpg"",""time"":501},{""stimulus"":""img/green_ll/11.jpg"",""time"":552}]","[]"
"image-keyboard-response","190","188685","0.0-5.0-1.93","63d420b1d5b7dc6a3a4c50aa","bdp_lott","Mon Mar 27 2023 16:01:17 GMT-0400 (Eastern Daylight Time)","348613","red","green","","884","","","","choice","","img/green_ll/choose11.jpg","1","132","green","0.5","0.1","0.1","l","",""
