"trial_type","trial_index","time_elapsed","internal_node_id","subject_id","task","startTime","totalTime","fairMachine","unfairMachine","view_history","rt","event","trial","time","trialtype","success","stimulus","key_press","roundsLeft","chosen","pFairMachWin","pUnfairMachWin","pTrialWin","outcome","animation_sequence","responses","numBlurs"
"pavlovia","0","14","0.0-0.0","62d06d1b651d6922f62fab9b","bdp_lott","Sat Mar 25 2023 21:42:36 GMT-0600 (Mountain Daylight Time)","264300","red","green","","","","","","","","","","","","","","","","","",""
"instructions","1","6279","0.0-1.0","62d06d1b651d6922f62fab9b","bdp_lott","Sat Mar 25 2023 21:42:36 GMT-0600 (Mountain Daylight Time)","264300","red","green","[{""page_index"":0,""viewing_time"":6262}]","6263","","","","","","","","","","","","","","","",""
"","","","","62d06d1b651d6922f62fab9b","bdp_lott","Sat Mar 25 2023 21:42:36 GMT-0600 (Mountain Daylight Time)","264300","red","green","","","fullscreenenter","2","12985","fullscreenenter","","","","","","","","","","","",""
"fullscreen","2","13767","0.0-2.0","62d06d1b651d6922f62fab9b","bdp_lott","Sat Mar 25 2023 21:42:36 GMT-0600 (Mountain Daylight Time)","264300","red","green","","","","","","","true","","","","","","","","","","",""
"instructions","3","36082","0.0-4.0","62d06d1b651d6922f62fab9b","bdp_lott","Sat Mar 25 2023 21:42:36 GMT-0600 (Mountain Daylight Time)","264300","red","green","[{""page_index"":0,""viewing_time"":22312}]","22312","","","","","","","","","","","","","","","",""
"image-keyboard-response","4","38276","0.0-5.0-1.0","62d06d1b651d6922f62fab9b","bdp_lott","Sat Mar 25 2023 21:42:36 GMT-0600 (Mountain Daylight Time)","264300","red","green","","2192","","","","choice","","img/red_ll/initchoose11.jpg","1","225","green","0.5","0.5","0.5","l","","",""
"animation","5","38881","0.0-5.0-2.0","62d06d1b651d6922f62fab9b","bdp_lott","Sat Mar 25 2023 21:42:36 GMT-0600 (Mountain Daylight Time)","264300","red","green","","","","","","","","","","225","","","","","","[{""stimulus"":""img/green_ll/1.jpg"",""time"":65},{""stimulus"":""img/green_ll/2.jpg"",""time"":106},{""stimulus"":""img/green_ll/3.jpg"",""time"":158},{""stimulus"":""img/green_ll/4.jpg"",""time"":208},{""stimulus"":""img/green_ll/5.jpg"",""time"":255},{""stimulus"":""img/green_ll/6.jpg"",""time"":308},{""stimulus"":""img/green_ll/7.jpg"",""time"":357},{""stimulus"":""img/green_ll/8.jpg"",""time"":407},{""stimulus"":""img/green_ll/9.jpg"",""time"":454},{""stimulus"":""img/green_ll/10.jpg"",""time"":506},{""stimulus"":""img/green_ll/11.jpg"",""time"":557}]","[]",""
"image-keyboard-response","6","39230","0.0-5.0-1.1","62d06d1b651d6922f62fab9b","bdp_lott","Sat Mar 25 2023 21:42:36 GMT-0600 (Mountain Daylight Time)","264300","red","green","","347","","","","choice","","img/green_ll/choose11.jpg","1","224","green","0.5","0.5","0.5","w","","",""
"animation","7","39832","0.0-5.0-2.1","62d06d1b651d6922f62fab9b","bdp_lott","Sat Mar 25 2023 21:42:36 GMT-0600 (Mountain Daylight Time)","264300","red","green","","","","","","","","","","224","","","","","","[{""stimulus"":""img/green_wl/1.jpg"",""time"":62},{""stimulus"":""img/green_wl/2.jpg"",""time"":101},{""stimulus"":""img/green_wl/3.jpg"",""time"":154},{""stimulus"":""img/green_wl/4.jpg"",""time"":203},{""stimulus"":""img/green_wl/5.jpg"",""time"":259},{""stimulus"":""img/green_wl/6.jpg"",""time"":305},{""stimulus"":""img/green_wl/7.jpg"",""time"":351},{""stimulus"":""img/green_wl/8.jpg"",""time"":403},{""stimulus"":""img/green_wl/9.jpg"",""time"":453},{""stimulus"":""img/green_wl/10.jpg"",""time"":516},{""stimulus"":""img/green_wl/11.jpg"",""time"":553}]","[]",""
"image-keyboard-response","8","44040","0.0-5.0-1.2","62d06d1b651d6922f62fab9b","bdp_lott","Sat Mar 25 2023 21:42:36 GMT-0600 (Mountain Daylight Time)","264300","red","green","","4207","","","","choice","","img/green_wl/choose11.jpg","2","223","red","0.5","0.5","0.5","l","","",""
"animation","9","44642","0.0-5.0-2.2","62d06d1b651d6922f62fab9b","bdp_lott","Sat Mar 25 2023 21:42:36 GMT-0600 (Mountain Daylight Time)","264300","red","green","","","","","","","","","","223","","","","","","[{""stimulus"":""img/red_wl/1.jpg"",""time"":54},{""stimulus"":""img/red_wl/2.jpg"",""time"":101},{""stimulus"":""img/red_wl/3.jpg"",""time"":154},{""stimulus"":""img/red_wl/4.jpg"",""time"":201},{""stimulus"":""img/red_wl/5.jpg"",""time"":265},{""stimulus"":""img/red_wl/6.jpg"",""time"":303},{""stimulus"":""img/red_wl/7.jpg"",""time"":354},{""stimulus"":""img/red_wl/8.jpg"",""time"":403},{""stimulus"":""img/red_wl/9.jpg"",""time"":466},{""stimulus"":""img/red_wl/10.jpg"",""time"":514},{""stimulus"":""img/red_wl/11.jpg"",""time"":552}]","[]",""
"image-keyboard-response","10","44845","0.0-5.0-1.3","62d06d1b651d6922f62fab9b","bdp_lott","Sat Mar 25 2023 21:42:36 GMT-0600 (Mountain Daylight Time)","264300","red","green","","202","","","","choice","","img/red_wl/choose11.jpg","2","222","red","0.5","0.5","0.5","l","","",""
"animation","11","45455","0.0-5.0-2.3","62d06d1b651d6922f62fab9b","bdp_lott","Sat Mar 25 2023 21:42:36 GMT-0600 (Mountain Daylight Time)","264300","red","green","","","","","","","","","","222","","","","","","[{""stimulus"":""img/red_wl/1.jpg"",""time"":64},{""stimulus"":""img/red_wl/2.jpg"",""time"":101},{""stimulus"":""img/red_wl/3.jpg"",""time"":152},{""stimulus"":""img/red_wl/4.jpg"",""time"":202},{""stimulus"":""img/red_wl/5.jpg"",""time"":251},{""stimulus"":""img/red_wl/6.jpg"",""time"":309},{""stimulus"":""img/red_wl/7.jpg"",""time"":357},{""stimulus"":""img/red_wl/8.jpg"",""time"":401},{""stimulus"":""img/red_wl/9.jpg"",""time"":461},{""stimulus"":""img/red_wl/10.jpg"",""time"":527},{""stimulus"":""img/red_wl/11.jpg"",""time"":552}]","[]",""
"image-keyboard-response","12","45654","0.0-5.0-1.4","62d06d1b651d6922f62fab9b","bdp_lott","Sat Mar 25 2023 21:42:36 GMT-0600 (Mountain Daylight Time)","264300","red","green","","197","","","","choice","","img/red_wl/choose11.jpg","2","221","red","0.5","0.5","0.5","l","","",""
"animation","13","46255","0.0-5.0-2.4","62d06d1b651d6922f62fab9b","bdp_lott","Sat Mar 25 2023 21:42:36 GMT-0600 (Mountain Daylight Time)","264300","red","green","","","","","","","","","","221","","","","","","[{""stimulus"":""img/red_wl/1.jpg"",""time"":55},{""stimulus"":""img/red_wl/2.jpg"",""time"":111},{""stimulus"":""img/red_wl/3.jpg"",""time"":166},{""stimulus"":""img/red_wl/4.jpg"",""time"":201},{""stimulus"":""img/red_wl/5.jpg"",""time"":251},{""stimulus"":""img/red_wl/6.jpg"",""time"":301},{""stimulus"":""img/red_wl/7.jpg"",""time"":366},{""stimulus"":""img/red_wl/8.jpg"",""time"":401},{""stimulus"":""img/red_wl/9.jpg"",""time"":450},{""stimulus"":""img/red_wl/10.jpg"",""time"":500},{""stimulus"":""img/red_wl/11.jpg"",""time"":551}]","[]",""
"image-keyboard-response","14","46421","0.0-5.0-1.5","62d06d1b651d6922f62fab9b","bdp_lott","Sat Mar 25 2023 21:42:36 GMT-0600 (Mountain Daylight Time)","264300","red","green","","164","","","","choice","","img/red_wl/choose11.jpg","2","220","red","0.5","0.5","0.5","w","","",""
"animation","15","47035","0.0-5.0-2.5","62d06d1b651d6922f62fab9b","bdp_lott","Sat Mar 25 2023 21:42:36 GMT-0600 (Mountain Daylight Time)","264300","red","green","","","","","","","","","","220","","","","","","[{""stimulus"":""img/red_ww/1.jpg"",""time"":56},{""stimulus"":""img/red_ww/2.jpg"",""time"":114},{""stimulus"":""img/red_ww/3.jpg"",""time"":151},{""stimulus"":""img/red_ww/4.jpg"",""time"":213},{""stimulus"":""img/red_ww/5.jpg"",""time"":264},{""stimulus"":""img/red_ww/6.jpg"",""time"":316},{""stimulus"":""img/red_ww/7.jpg"",""time"":351},{""stimulus"":""img/red_ww/8.jpg"",""time"":413},{""stimulus"":""img/red_ww/9.jpg"",""time"":461},{""stimulus"":""img/red_ww/10.jpg"",""time"":514},{""stimulus"":""img/red_ww/11.jpg"",""time"":565}]","[]",""
"image-keyboard-response","16","47213","0.0-5.0-1.6","62d06d1b651d6922f62fab9b","bdp_lott","Sat Mar 25 2023 21:42:36 GMT-0600 (Mountain Daylight Time)","264300","red","green","","177","","","","choice","","img/red_ww/choose11.jpg","2","219","red","0.5","0.5","0.5","w","","",""
"animation","17","47818","0.0-5.0-2.6","62d06d1b651d6922f62fab9b","bdp_lott","Sat Mar 25 2023 21:42:36 GMT-0600 (Mountain Daylight Time)","264300","red","green","","","","","","","","","","219","","","","","","[{""stimulus"":""img/red_ww/1.jpg"",""time"":61},{""stimulus"":""img/red_ww/2.jpg"",""time"":121},{""stimulus"":""img/red_ww/3.jpg"",""time"":152},{""stimulus"":""img/red_ww/4.jpg"",""time"":204},{""stimulus"":""img/red_ww/5.jpg"",""time"":251},{""stimulus"":""img/red_ww/6.jpg"",""time"":304},{""stimulus"":""img/red_ww/7.jpg"",""time"":351},{""stimulus"":""img/red_ww/8.jpg"",""time"":401},{""stimulus"":""img/red_ww/9.jpg"",""time"":451},{""stimulus"":""img/red_ww/10.jpg"",""time"":501},{""stimulus"":""img/red_ww/11.jpg"",""time"":553}]","[]",""
"image-keyboard-response","18","49601","0.0-5.0-1.7","62d06d1b651d6922f62fab9b","bdp_lott","Sat Mar 25 2023 21:42:36 GMT-0600 (Mountain Daylight Time)","264300","red","green","","1782","","","","choice","","img/red_ww/choose11.jpg","1","218","green","0.5","0.5","0.5","w","","",""
"animation","19","50203","0.0-5.0-2.7","62d06d1b651d6922f62fab9b","bdp_lott","Sat Mar 25 2023 21:42:36 GMT-0600 (Mountain Daylight Time)","264300","red","green","","","","","","","","","","218","","","","","","[{""stimulus"":""img/green_ww/1.jpg"",""time"":65},{""stimulus"":""img/green_ww/2.jpg"",""time"":101},{""stimulus"":""img/green_ww/3.jpg"",""time"":164},{""stimulus"":""img/green_ww/4.jpg"",""time"":202},{""stimulus"":""img/green_ww/5.jpg"",""time"":280},{""stimulus"":""img/green_ww/6.jpg"",""time"":302},{""stimulus"":""img/green_ww/7.jpg"",""time"":364},{""stimulus"":""img/green_ww/8.jpg"",""time"":405},{""stimulus"":""img/green_ww/9.jpg"",""time"":451},{""stimulus"":""img/green_ww/10.jpg"",""time"":514},{""stimulus"":""img/green_ww/11.jpg"",""time"":565}]","[]",""
"image-keyboard-response","20","50471","0.0-5.0-1.8","62d06d1b651d6922f62fab9b","bdp_lott","Sat Mar 25 2023 21:42:36 GMT-0600 (Mountain Daylight Time)","264300","red","green","","267","","","","choice","","img/green_ww/choose11.jpg","1","217","green","0.5","0.5","0.5","l","","",""
"animation","21","51082","0.0-5.0-2.8","62d06d1b651d6922f62fab9b","bdp_lott","Sat Mar 25 2023 21:42:36 GMT-0600 (Mountain Daylight Time)","264300","red","green","","","","","","","","","","217","","","","","","[{""stimulus"":""img/green_lw/1.jpg"",""time"":57},{""stimulus"":""img/green_lw/2.jpg"",""time"":108},{""stimulus"":""img/green_lw/3.jpg"",""time"":161},{""stimulus"":""img/green_lw/4.jpg"",""time"":211},{""stimulus"":""img/green_lw/5.jpg"",""time"":261},{""stimulus"":""img/green_lw/6.jpg"",""time"":310},{""stimulus"":""img/green_lw/7.jpg"",""time"":361},{""stimulus"":""img/green_lw/8.jpg"",""time"":407},{""stimulus"":""img/green_lw/9.jpg"",""time"":462},{""stimulus"":""img/green_lw/10.jpg"",""time"":511},{""stimulus"":""img/green_lw/11.jpg"",""time"":560}]","[]",""
"image-keyboard-response","22","51657","0.0-5.0-1.9","62d06d1b651d6922f62fab9b","bdp_lott","Sat Mar 25 2023 21:42:36 GMT-0600 (Mountain Daylight Time)","264300","red","green","","573","","","","choice","","img/green_lw/choose11.jpg","1","216","green","0.5","0.5","0.5","l","","",""
"animation","23","52260","0.0-5.0-2.9","62d06d1b651d6922f62fab9b","bdp_lott","Sat Mar 25 2023 21:42:36 GMT-0600 (Mountain Daylight Time)","264300","red","green","","","","","","","","","","216","","","","","","[{""stimulus"":""img/green_lw/1.jpg"",""time"":57},{""stimulus"":""img/green_lw/2.jpg"",""time"":123},{""stimulus"":""img/green_lw/3.jpg"",""time"":152},{""stimulus"":""img/green_lw/4.jpg"",""time"":204},{""stimulus"":""img/green_lw/5.jpg"",""time"":254},{""stimulus"":""img/green_lw/6.jpg"",""time"":305},{""stimulus"":""img/green_lw/7.jpg"",""time"":351},{""stimulus"":""img/green_lw/8.jpg"",""time"":401},{""stimulus"":""img/green_lw/9.jpg"",""time"":451},{""stimulus"":""img/green_lw/10.jpg"",""time"":502},{""stimulus"":""img/green_lw/11.jpg"",""time"":551}]","[]",""
"image-keyboard-response","24","52534","0.0-5.0-1.10","62d06d1b651d6922f62fab9b","bdp_lott","Sat Mar 25 2023 21:42:36 GMT-0600 (Mountain Daylight Time)","264300","red","green","","272","","","","choice","","img/green_lw/choose11.jpg","1","215","green","0.5","0.5","0.5","l","","",""
"animation","25","53135","0.0-5.0-2.10","62d06d1b651d6922f62fab9b","bdp_lott","Sat Mar 25 2023 21:42:36 GMT-0600 (Mountain Daylight Time)","264300","red","green","","","","","","","","","","215","","","","","","[{""stimulus"":""img/green_lw/1.jpg"",""time"":61},{""stimulus"":""img/green_lw/2.jpg"",""time"":101},{""stimulus"":""img/green_lw/3.jpg"",""time"":159},{""stimulus"":""img/green_lw/4.jpg"",""time"":211},{""stimulus"":""img/green_lw/5.jpg"",""time"":277},{""stimulus"":""img/green_lw/6.jpg"",""time"":302},{""stimulus"":""img/green_lw/7.jpg"",""time"":359},{""stimulus"":""img/green_lw/8.jpg"",""time"":426},{""stimulus"":""img/green_lw/9.jpg"",""time"":451},{""stimulus"":""img/green_lw/10.jpg"",""time"":510},{""stimulus"":""img/green_lw/11.jpg"",""time"":560}]","[]",""
"image-keyboard-response","26","53521","0.0-5.0-1.11","62d06d1b651d6922f62fab9b","bdp_lott","Sat Mar 25 2023 21:42:36 GMT-0600 (Mountain Daylight Time)","264300","red","green","","385","","","","choice","","img/green_lw/choose11.jpg","1","214","green","0.5","0.5","0.5","l","","",""
"animation","27","54123","0.0-5.0-2.11","62d06d1b651d6922f62fab9b","bdp_lott","Sat Mar 25 2023 21:42:36 GMT-0600 (Mountain Daylight Time)","264300","red","green","","","","","","","","","","214","","","","","","[{""stimulus"":""img/green_lw/1.jpg"",""time"":66},{""stimulus"":""img/green_lw/2.jpg"",""time"":102},{""stimulus"":""img/green_lw/3.jpg"",""time"":152},{""stimulus"":""img/green_lw/4.jpg"",""time"":203},{""stimulus"":""img/green_lw/5.jpg"",""time"":256},{""stimulus"":""img/green_lw/6.jpg"",""time"":305},{""stimulus"":""img/green_lw/7.jpg"",""time"":355},{""stimulus"":""img/green_lw/8.jpg"",""time"":402},{""stimulus"":""img/green_lw/9.jpg"",""time"":451},{""stimulus"":""img/green_lw/10.jpg"",""time"":504},{""stimulus"":""img/green_lw/11.jpg"",""time"":572}]","[]",""
"image-keyboard-response","28","54424","0.0-5.0-1.12","62d06d1b651d6922f62fab9b","bdp_lott","Sat Mar 25 2023 21:42:36 GMT-0600 (Mountain Daylight Time)","264300","red","green","","300","","","","choice","","img/green_lw/choose11.jpg","1","213","green","0.5","0.5","0.5","w","","",""
"animation","29","55025","0.0-5.0-2.12","62d06d1b651d6922f62fab9b","bdp_lott","Sat Mar 25 2023 21:42:36 GMT-0600 (Mountain Daylight Time)","264300","red","green","","","","","","","","","","213","","","","","","[{""stimulus"":""img/green_ww/1.jpg"",""time"":64},{""stimulus"":""img/green_ww/2.jpg"",""time"":107},{""stimulus"":""img/green_ww/3.jpg"",""time"":152},{""stimulus"":""img/green_ww/4.jpg"",""time"":202},{""stimulus"":""img/green_ww/5.jpg"",""time"":251},{""stimulus"":""img/green_ww/6.jpg"",""time"":301},{""stimulus"":""img/green_ww/7.jpg"",""time"":351},{""stimulus"":""img/green_ww/8.jpg"",""time"":401},{""stimulus"":""img/green_ww/9.jpg"",""time"":466},{""stimulus"":""img/green_ww/10.jpg"",""time"":501},{""stimulus"":""img/green_ww/11.jpg"",""time"":565}]","[]",""
"image-keyboard-response","30","55960","0.0-5.0-1.13","62d06d1b651d6922f62fab9b","bdp_lott","Sat Mar 25 2023 21:42:36 GMT-0600 (Mountain Daylight Time)","264300","red","green","","934","","","","choice","","img/green_ww/choose11.jpg","2","212","red","0.5","0.5","0.5","w","","",""
"animation","31","56562","0.0-5.0-2.13","62d06d1b651d6922f62fab9b","bdp_lott","Sat Mar 25 2023 21:42:36 GMT-0600 (Mountain Daylight Time)","264300","red","green","","","","","","","","","","212","","","","","","[{""stimulus"":""img/red_ww/1.jpg"",""time"":52},{""stimulus"":""img/red_ww/2.jpg"",""time"":102},{""stimulus"":""img/red_ww/3.jpg"",""time"":161},{""stimulus"":""img/red_ww/4.jpg"",""time"":201},{""stimulus"":""img/red_ww/5.jpg"",""time"":251},{""stimulus"":""img/red_ww/6.jpg"",""time"":327},{""stimulus"":""img/red_ww/7.jpg"",""time"":351},{""stimulus"":""img/red_ww/8.jpg"",""time"":416},{""stimulus"":""img/red_ww/9.jpg"",""time"":451},{""stimulus"":""img/red_ww/10.jpg"",""time"":508},{""stimulus"":""img/red_ww/11.jpg"",""time"":551}]","[]",""
"image-keyboard-response","32","56764","0.0-5.0-1.14","62d06d1b651d6922f62fab9b","bdp_lott","Sat Mar 25 2023 21:42:36 GMT-0600 (Mountain Daylight Time)","264300","red","green","","201","","","","choice","","img/red_ww/choose11.jpg","2","211","red","0.5","0.5","0.5","w","","",""
"animation","33","57370","0.0-5.0-2.14","62d06d1b651d6922f62fab9b","bdp_lott","Sat Mar 25 2023 21:42:36 GMT-0600 (Mountain Daylight Time)","264300","red","green","","","","","","","","","","211","","","","","","[{""stimulus"":""img/red_ww/1.jpg"",""time"":62},{""stimulus"":""img/red_ww/2.jpg"",""time"":103},{""stimulus"":""img/red_ww/3.jpg"",""time"":152},{""stimulus"":""img/red_ww/4.jpg"",""time"":206},{""stimulus"":""img/red_ww/5.jpg"",""time"":252},{""stimulus"":""img/red_ww/6.jpg"",""time"":301},{""stimulus"":""img/red_ww/7.jpg"",""time"":351},{""stimulus"":""img/red_ww/8.jpg"",""time"":407},{""stimulus"":""img/red_ww/9.jpg"",""time"":452},{""stimulus"":""img/red_ww/10.jpg"",""time"":506},{""stimulus"":""img/red_ww/11.jpg"",""time"":556}]","[]",""
"image-keyboard-response","34","57512","0.0-5.0-1.15","62d06d1b651d6922f62fab9b","bdp_lott","Sat Mar 25 2023 21:42:36 GMT-0600 (Mountain Daylight Time)","264300","red","green","","141","","","","choice","","img/red_ww/choose11.jpg","2","210","red","0.5","0.5","0.5","l","","",""
"animation","35","58114","0.0-5.0-2.15","62d06d1b651d6922f62fab9b","bdp_lott","Sat Mar 25 2023 21:42:36 GMT-0600 (Mountain Daylight Time)","264300","red","green","","","","","","","","","","210","","","","","","[{""stimulus"":""img/red_wl/1.jpg"",""time"":66},{""stimulus"":""img/red_wl/2.jpg"",""time"":101},{""stimulus"":""img/red_wl/3.jpg"",""time"":151},{""stimulus"":""img/red_wl/4.jpg"",""time"":201},{""stimulus"":""img/red_wl/5.jpg"",""time"":252},{""stimulus"":""img/red_wl/6.jpg"",""time"":306},{""stimulus"":""img/red_wl/7.jpg"",""time"":351},{""stimulus"":""img/red_wl/8.jpg"",""time"":405},{""stimulus"":""img/red_wl/9.jpg"",""time"":456},{""stimulus"":""img/red_wl/10.jpg"",""time"":506},{""stimulus"":""img/red_wl/11.jpg"",""time"":551}]","[]",""
"image-keyboard-response","36","58390","0.0-5.0-1.16","62d06d1b651d6922f62fab9b","bdp_lott","Sat Mar 25 2023 21:42:36 GMT-0600 (Mountain Daylight Time)","264300","red","green","","275","","","","choice","","img/red_wl/choose11.jpg","2","209","red","0.5","0.5","0.5","l","","",""
"animation","37","59001","0.0-5.0-2.16","62d06d1b651d6922f62fab9b","bdp_lott","Sat Mar 25 2023 21:42:36 GMT-0600 (Mountain Daylight Time)","264300","red","green","","","","","","","","","","209","","","","","","[{""stimulus"":""img/red_wl/1.jpg"",""time"":61},{""stimulus"":""img/red_wl/2.jpg"",""time"":106},{""stimulus"":""img/red_wl/3.jpg"",""time"":151},{""stimulus"":""img/red_wl/4.jpg"",""time"":202},{""stimulus"":""img/red_wl/5.jpg"",""time"":252},{""stimulus"":""img/red_wl/6.jpg"",""time"":302},{""stimulus"":""img/red_wl/7.jpg"",""time"":361},{""stimulus"":""img/red_wl/8.jpg"",""time"":427},{""stimulus"":""img/red_wl/9.jpg"",""time"":452},{""stimulus"":""img/red_wl/10.jpg"",""time"":509},{""stimulus"":""img/red_wl/11.jpg"",""time"":551}]","[]",""
"image-keyboard-response","38","59109","0.0-5.0-1.17","62d06d1b651d6922f62fab9b","bdp_lott","Sat Mar 25 2023 21:42:36 GMT-0600 (Mountain Daylight Time)","264300","red","green","","106","","","","choice","","img/red_wl/choose11.jpg","2","208","red","0.5","0.5","0.5","l","","",""
"animation","39","59711","0.0-5.0-2.17","62d06d1b651d6922f62fab9b","bdp_lott","Sat Mar 25 2023 21:42:36 GMT-0600 (Mountain Daylight Time)","264300","red","green","","","","","","","","","","208","","","","","","[{""stimulus"":""img/red_wl/1.jpg"",""time"":52},{""stimulus"":""img/red_wl/2.jpg"",""time"":105},{""stimulus"":""img/red_wl/3.jpg"",""time"":156},{""stimulus"":""img/red_wl/4.jpg"",""time"":201},{""stimulus"":""img/red_wl/5.jpg"",""time"":258},{""stimulus"":""img/red_wl/6.jpg"",""time"":301},{""stimulus"":""img/red_wl/7.jpg"",""time"":351},{""stimulus"":""img/red_wl/8.jpg"",""time"":408},{""stimulus"":""img/red_wl/9.jpg"",""time"":451},{""stimulus"":""img/red_wl/10.jpg"",""time"":506},{""stimulus"":""img/red_wl/11.jpg"",""time"":551}]","[]",""
"image-keyboard-response","40","60193","0.0-5.0-1.18","62d06d1b651d6922f62fab9b","bdp_lott","Sat Mar 25 2023 21:42:36 GMT-0600 (Mountain Daylight Time)","264300","red","green","","480","","","","choice","","img/red_wl/choose11.jpg","2","207","red","0.5","0.5","0.5","w","","",""
"animation","41","60795","0.0-5.0-2.18","62d06d1b651d6922f62fab9b","bdp_lott","Sat Mar 25 2023 21:42:36 GMT-0600 (Mountain Daylight Time)","264300","red","green","","","","","","","","","","207","","","","","","[{""stimulus"":""img/red_ww/1.jpg"",""time"":58},{""stimulus"":""img/red_ww/2.jpg"",""time"":112},{""stimulus"":""img/red_ww/3.jpg"",""time"":152},{""stimulus"":""img/red_ww/4.jpg"",""time"":202},{""stimulus"":""img/red_ww/5.jpg"",""time"":252},{""stimulus"":""img/red_ww/6.jpg"",""time"":301},{""stimulus"":""img/red_ww/7.jpg"",""time"":352},{""stimulus"":""img/red_ww/8.jpg"",""time"":401},{""stimulus"":""img/red_ww/9.jpg"",""time"":451},{""stimulus"":""img/red_ww/10.jpg"",""time"":502},{""stimulus"":""img/red_ww/11.jpg"",""time"":552}]","[]",""
"image-keyboard-response","42","60901","0.0-5.0-1.19","62d06d1b651d6922f62fab9b","bdp_lott","Sat Mar 25 2023 21:42:36 GMT-0600 (Mountain Daylight Time)","264300","red","green","","104","","","","choice","","img/red_ww/choose11.jpg","2","206","red","0.5","0.5","0.5","w","","",""
"animation","43","61511","0.0-5.0-2.19","62d06d1b651d6922f62fab9b","bdp_lott","Sat Mar 25 2023 21:42:36 GMT-0600 (Mountain Daylight Time)","264300","red","green","","","","","","","","","","206","","","","","","[{""stimulus"":""img/red_ww/1.jpg"",""time"":58},{""stimulus"":""img/red_ww/2.jpg"",""time"":117},{""stimulus"":""img/red_ww/3.jpg"",""time"":151},{""stimulus"":""img/red_ww/4.jpg"",""time"":201},{""stimulus"":""img/red_ww/5.jpg"",""time"":252},{""stimulus"":""img/red_ww/6.jpg"",""time"":302},{""stimulus"":""img/red_ww/7.jpg"",""time"":361},{""stimulus"":""img/red_ww/8.jpg"",""time"":401},{""stimulus"":""img/red_ww/9.jpg"",""time"":451},{""stimulus"":""img/red_ww/10.jpg"",""time"":511},{""stimulus"":""img/red_ww/11.jpg"",""time"":551}]","[]",""
"image-keyboard-response","44","62169","0.0-5.0-1.20","62d06d1b651d6922f62fab9b","bdp_lott","Sat Mar 25 2023 21:42:36 GMT-0600 (Mountain Daylight Time)","264300","red","green","","657","","","","choice","","img/red_ww/choose11.jpg","1","205","green","0.5","0.5","0.5","w","","",""
"animation","45","62772","0.0-5.0-2.20","62d06d1b651d6922f62fab9b","bdp_lott","Sat Mar 25 2023 21:42:36 GMT-0600 (Mountain Daylight Time)","264300","red","green","","","","","","","","","","205","","","","","","[{""stimulus"":""img/green_ww/1.jpg"",""time"":52},{""stimulus"":""img/green_ww/2.jpg"",""time"":110},{""stimulus"":""img/green_ww/3.jpg"",""time"":151},{""stimulus"":""img/green_ww/4.jpg"",""time"":201},{""stimulus"":""img/green_ww/5.jpg"",""time"":250},{""stimulus"":""img/green_ww/6.jpg"",""time"":301},{""stimulus"":""img/green_ww/7.jpg"",""time"":350},{""stimulus"":""img/green_ww/8.jpg"",""time"":401},{""stimulus"":""img/green_ww/9.jpg"",""time"":451},{""stimulus"":""img/green_ww/10.jpg"",""time"":507},{""stimulus"":""img/green_ww/11.jpg"",""time"":557}]","[]",""
"image-keyboard-response","46","63223","0.0-5.0-1.21","62d06d1b651d6922f62fab9b","bdp_lott","Sat Mar 25 2023 21:42:36 GMT-0600 (Mountain Daylight Time)","264300","red","green","","451","","","","choice","","img/green_ww/choose11.jpg","1","204","green","0.5","0.5","0.5","l","","",""
"animation","47","63825","0.0-5.0-2.21","62d06d1b651d6922f62fab9b","bdp_lott","Sat Mar 25 2023 21:42:36 GMT-0600 (Mountain Daylight Time)","264300","red","green","","","","","","","","","","204","","","","","","[{""stimulus"":""img/green_lw/1.jpg"",""time"":67},{""stimulus"":""img/green_lw/2.jpg"",""time"":106},{""stimulus"":""img/green_lw/3.jpg"",""time"":155},{""stimulus"":""img/green_lw/4.jpg"",""time"":205},{""stimulus"":""img/green_lw/5.jpg"",""time"":252},{""stimulus"":""img/green_lw/6.jpg"",""time"":320},{""stimulus"":""img/green_lw/7.jpg"",""time"":352},{""stimulus"":""img/green_lw/8.jpg"",""time"":402},{""stimulus"":""img/green_lw/9.jpg"",""time"":455},{""stimulus"":""img/green_lw/10.jpg"",""time"":521},{""stimulus"":""img/green_lw/11.jpg"",""time"":552}]","[]",""
"image-keyboard-response","48","64124","0.0-5.0-1.22","62d06d1b651d6922f62fab9b","bdp_lott","Sat Mar 25 2023 21:42:36 GMT-0600 (Mountain Daylight Time)","264300","red","green","","297","","","","choice","","img/green_lw/choose11.jpg","1","203","green","0.5","0.5","0.5","w","","",""
"animation","49","64726","0.0-5.0-2.22","62d06d1b651d6922f62fab9b","bdp_lott","Sat Mar 25 2023 21:42:36 GMT-0600 (Mountain Daylight Time)","264300","red","green","","","","","","","","","","203","","","","","","[{""stimulus"":""img/green_ww/1.jpg"",""time"":66},{""stimulus"":""img/green_ww/2.jpg"",""time"":104},{""stimulus"":""img/green_ww/3.jpg"",""time"":154},{""stimulus"":""img/green_ww/4.jpg"",""time"":203},{""stimulus"":""img/green_ww/5.jpg"",""time"":252},{""stimulus"":""img/green_ww/6.jpg"",""time"":302},{""stimulus"":""img/green_ww/7.jpg"",""time"":352},{""stimulus"":""img/green_ww/8.jpg"",""time"":402},{""stimulus"":""img/green_ww/9.jpg"",""time"":452},{""stimulus"":""img/green_ww/10.jpg"",""time"":501},{""stimulus"":""img/green_ww/11.jpg"",""time"":552}]","[]",""
"image-keyboard-response","50","64980","0.0-5.0-1.23","62d06d1b651d6922f62fab9b","bdp_lott","Sat Mar 25 2023 21:42:36 GMT-0600 (Mountain Daylight Time)","264300","red","green","","253","","","","choice","","img/green_ww/choose11.jpg","1","202","green","0.5","0.5","0.5","l","","",""
"animation","51","65582","0.0-5.0-2.23","62d06d1b651d6922f62fab9b","bdp_lott","Sat Mar 25 2023 21:42:36 GMT-0600 (Mountain Daylight Time)","264300","red","green","","","","","","","","","","202","","","","","","[{""stimulus"":""img/green_lw/1.jpg"",""time"":63},{""stimulus"":""img/green_lw/2.jpg"",""time"":102},{""stimulus"":""img/green_lw/3.jpg"",""time"":152},{""stimulus"":""img/green_lw/4.jpg"",""time"":202},{""stimulus"":""img/green_lw/5.jpg"",""time"":252},{""stimulus"":""img/green_lw/6.jpg"",""time"":303},{""stimulus"":""img/green_lw/7.jpg"",""time"":352},{""stimulus"":""img/green_lw/8.jpg"",""time"":402},{""stimulus"":""img/green_lw/9.jpg"",""time"":460},{""stimulus"":""img/green_lw/10.jpg"",""time"":509},{""stimulus"":""img/green_lw/11.jpg"",""time"":551}]","[]",""
"image-keyboard-response","52","65906","0.0-5.0-1.24","62d06d1b651d6922f62fab9b","bdp_lott","Sat Mar 25 2023 21:42:36 GMT-0600 (Mountain Daylight Time)","264300","red","green","","323","","","","choice","","img/green_lw/choose11.jpg","1","201","green","0.5","0.5","0.5","l","","",""
"animation","53","66507","0.0-5.0-2.24","62d06d1b651d6922f62fab9b","bdp_lott","Sat Mar 25 2023 21:42:36 GMT-0600 (Mountain Daylight Time)","264300","red","green","","","","","","","","","","201","","","","","","[{""stimulus"":""img/green_lw/1.jpg"",""time"":65},{""stimulus"":""img/green_lw/2.jpg"",""time"":102},{""stimulus"":""img/green_lw/3.jpg"",""time"":153},{""stimulus"":""img/green_lw/4.jpg"",""time"":202},{""stimulus"":""img/green_lw/5.jpg"",""time"":254},{""stimulus"":""img/green_lw/6.jpg"",""time"":302},{""stimulus"":""img/green_lw/7.jpg"",""time"":354},{""stimulus"":""img/green_lw/8.jpg"",""time"":402},{""stimulus"":""img/green_lw/9.jpg"",""time"":453},{""stimulus"":""img/green_lw/10.jpg"",""time"":502},{""stimulus"":""img/green_lw/11.jpg"",""time"":567}]","[]",""
"image-keyboard-response","54","66606","0.0-5.0-1.25","62d06d1b651d6922f62fab9b","bdp_lott","Sat Mar 25 2023 21:42:36 GMT-0600 (Mountain Daylight Time)","264300","red","green","","97","","","","choice","","img/green_lw/choose11.jpg","1","200","green","0.5","0.5","0.5","l","","",""
"animation","55","67207","0.0-5.0-2.25","62d06d1b651d6922f62fab9b","bdp_lott","Sat Mar 25 2023 21:42:36 GMT-0600 (Mountain Daylight Time)","264300","red","green","","","","","","","","","","200","","","","","","[{""stimulus"":""img/green_lw/1.jpg"",""time"":62},{""stimulus"":""img/green_lw/2.jpg"",""time"":102},{""stimulus"":""img/green_lw/3.jpg"",""time"":156},{""stimulus"":""img/green_lw/4.jpg"",""time"":202},{""stimulus"":""img/green_lw/5.jpg"",""time"":251},{""stimulus"":""img/green_lw/6.jpg"",""time"":302},{""stimulus"":""img/green_lw/7.jpg"",""time"":364},{""stimulus"":""img/green_lw/8.jpg"",""time"":416},{""stimulus"":""img/green_lw/9.jpg"",""time"":452},{""stimulus"":""img/green_lw/10.jpg"",""time"":501},{""stimulus"":""img/green_lw/11.jpg"",""time"":564}]","[]",""
"image-keyboard-response","56","67470","0.0-5.0-1.26","62d06d1b651d6922f62fab9b","bdp_lott","Sat Mar 25 2023 21:42:36 GMT-0600 (Mountain Daylight Time)","264300","red","green","","262","","","","choice","","img/green_lw/choose11.jpg","1","199","green","0.5","0.5","0.5","l","","",""
"animation","57","68071","0.0-5.0-2.26","62d06d1b651d6922f62fab9b","bdp_lott","Sat Mar 25 2023 21:42:36 GMT-0600 (Mountain Daylight Time)","264300","red","green","","","","","","","","","","199","","","","","","[{""stimulus"":""img/green_lw/1.jpg"",""time"":53},{""stimulus"":""img/green_lw/2.jpg"",""time"":112},{""stimulus"":""img/green_lw/3.jpg"",""time"":152},{""stimulus"":""img/green_lw/4.jpg"",""time"":202},{""stimulus"":""img/green_lw/5.jpg"",""time"":252},{""stimulus"":""img/green_lw/6.jpg"",""time"":302},{""stimulus"":""img/green_lw/7.jpg"",""time"":352},{""stimulus"":""img/green_lw/8.jpg"",""time"":402},{""stimulus"":""img/green_lw/9.jpg"",""time"":451},{""stimulus"":""img/green_lw/10.jpg"",""time"":516},{""stimulus"":""img/green_lw/11.jpg"",""time"":553}]","[]",""
"image-keyboard-response","58","68193","0.0-5.0-1.27","62d06d1b651d6922f62fab9b","bdp_lott","Sat Mar 25 2023 21:42:36 GMT-0600 (Mountain Daylight Time)","264300","red","green","","120","","","","choice","","img/green_lw/choose11.jpg","1","198","green","0.5","0.5","0.5","w","","",""
"animation","59","68802","0.0-5.0-2.27","62d06d1b651d6922f62fab9b","bdp_lott","Sat Mar 25 2023 21:42:36 GMT-0600 (Mountain Daylight Time)","264300","red","green","","","","","","","","","","198","","","","","","[{""stimulus"":""img/green_ww/1.jpg"",""time"":53},{""stimulus"":""img/green_ww/2.jpg"",""time"":110},{""stimulus"":""img/green_ww/3.jpg"",""time"":161},{""stimulus"":""img/green_ww/4.jpg"",""time"":210},{""stimulus"":""img/green_ww/5.jpg"",""time"":277},{""stimulus"":""img/green_ww/6.jpg"",""time"":302},{""stimulus"":""img/green_ww/7.jpg"",""time"":360},{""stimulus"":""img/green_ww/8.jpg"",""time"":427},{""stimulus"":""img/green_ww/9.jpg"",""time"":452},{""stimulus"":""img/green_ww/10.jpg"",""time"":509},{""stimulus"":""img/green_ww/11.jpg"",""time"":552}]","[]",""
"image-keyboard-response","60","69718","0.0-5.0-1.28","62d06d1b651d6922f62fab9b","bdp_lott","Sat Mar 25 2023 21:42:36 GMT-0600 (Mountain Daylight Time)","264300","red","green","","914","","","","choice","","img/green_ww/choose11.jpg","2","197","red","0.5","0.5","0.5","l","","",""
"animation","61","70320","0.0-5.0-2.28","62d06d1b651d6922f62fab9b","bdp_lott","Sat Mar 25 2023 21:42:36 GMT-0600 (Mountain Daylight Time)","264300","red","green","","","","","","","","","","197","","","","","","[{""stimulus"":""img/red_wl/1.jpg"",""time"":54},{""stimulus"":""img/red_wl/2.jpg"",""time"":115},{""stimulus"":""img/red_wl/3.jpg"",""time"":151},{""stimulus"":""img/red_wl/4.jpg"",""time"":213},{""stimulus"":""img/red_wl/5.jpg"",""time"":265},{""stimulus"":""img/red_wl/6.jpg"",""time"":312},{""stimulus"":""img/red_wl/7.jpg"",""time"":381},{""stimulus"":""img/red_wl/8.jpg"",""time"":402},{""stimulus"":""img/red_wl/9.jpg"",""time"":464},{""stimulus"":""img/red_wl/10.jpg"",""time"":513},{""stimulus"":""img/red_wl/11.jpg"",""time"":580}]","[]",""
"image-keyboard-response","62","70596","0.0-5.0-1.29","62d06d1b651d6922f62fab9b","bdp_lott","Sat Mar 25 2023 21:42:36 GMT-0600 (Mountain Daylight Time)","264300","red","green","","276","","","","choice","","img/red_wl/choose11.jpg","2","196","red","0.5","0.5","0.5","w","","",""
"animation","63","71199","0.0-5.0-2.29","62d06d1b651d6922f62fab9b","bdp_lott","Sat Mar 25 2023 21:42:36 GMT-0600 (Mountain Daylight Time)","264300","red","green","","","","","","","","","","196","","","","","","[{""stimulus"":""img/red_ww/1.jpg"",""time"":53},{""stimulus"":""img/red_ww/2.jpg"",""time"":105},{""stimulus"":""img/red_ww/3.jpg"",""time"":151},{""stimulus"":""img/red_ww/4.jpg"",""time"":218},{""stimulus"":""img/red_ww/5.jpg"",""time"":265},{""stimulus"":""img/red_ww/6.jpg"",""time"":302},{""stimulus"":""img/red_ww/7.jpg"",""time"":353},{""stimulus"":""img/red_ww/8.jpg"",""time"":402},{""stimulus"":""img/red_ww/9.jpg"",""time"":452},{""stimulus"":""img/red_ww/10.jpg"",""time"":501},{""stimulus"":""img/red_ww/11.jpg"",""time"":551}]","[]",""
"image-keyboard-response","64","71404","0.0-5.0-1.30","62d06d1b651d6922f62fab9b","bdp_lott","Sat Mar 25 2023 21:42:36 GMT-0600 (Mountain Daylight Time)","264300","red","green","","204","","","","choice","","img/red_ww/choose11.jpg","2","195","red","0.5","0.5","0.5","l","","",""
"animation","65","72014","0.0-5.0-2.30","62d06d1b651d6922f62fab9b","bdp_lott","Sat Mar 25 2023 21:42:36 GMT-0600 (Mountain Daylight Time)","264300","red","green","","","","","","","","","","195","","","","","","[{""stimulus"":""img/red_wl/1.jpg"",""time"":63},{""stimulus"":""img/red_wl/2.jpg"",""time"":126},{""stimulus"":""img/red_wl/3.jpg"",""time"":151},{""stimulus"":""img/red_wl/4.jpg"",""time"":210},{""stimulus"":""img/red_wl/5.jpg"",""time"":251},{""stimulus"":""img/red_wl/6.jpg"",""time"":310},{""stimulus"":""img/red_wl/7.jpg"",""time"":351},{""stimulus"":""img/red_wl/8.jpg"",""time"":401},{""stimulus"":""img/red_wl/9.jpg"",""time"":451},{""stimulus"":""img/red_wl/10.jpg"",""time"":509},{""stimulus"":""img/red_wl/11.jpg"",""time"":552}]","[]",""
"image-keyboard-response","66","72190","0.0-5.0-1.31","62d06d1b651d6922f62fab9b","bdp_lott","Sat Mar 25 2023 21:42:36 GMT-0600 (Mountain Daylight Time)","264300","red","green","","175","","","","choice","","img/red_wl/choose11.jpg","2","194","red","0.5","0.5","0.5","w","","",""
"animation","67","72791","0.0-5.0-2.31","62d06d1b651d6922f62fab9b","bdp_lott","Sat Mar 25 2023 21:42:36 GMT-0600 (Mountain Daylight Time)","264300","red","green","","","","","","","","","","194","","","","","","[{""stimulus"":""img/red_ww/1.jpg"",""time"":63},{""stimulus"":""img/red_ww/2.jpg"",""time"":125},{""stimulus"":""img/red_ww/3.jpg"",""time"":152},{""stimulus"":""img/red_ww/4.jpg"",""time"":207},{""stimulus"":""img/red_ww/5.jpg"",""time"":257},{""stimulus"":""img/red_ww/6.jpg"",""time"":306},{""stimulus"":""img/red_ww/7.jpg"",""time"":351},{""stimulus"":""img/red_ww/8.jpg"",""time"":401},{""stimulus"":""img/red_ww/9.jpg"",""time"":452},{""stimulus"":""img/red_ww/10.jpg"",""time"":501},{""stimulus"":""img/red_ww/11.jpg"",""time"":555}]","[]",""
"image-keyboard-response","68","72996","0.0-5.0-1.32","62d06d1b651d6922f62fab9b","bdp_lott","Sat Mar 25 2023 21:42:36 GMT-0600 (Mountain Daylight Time)","264300","red","green","","204","","","","choice","","img/red_ww/choose11.jpg","2","193","red","0.5","0.5","0.5","l","","",""
"animation","69","73598","0.0-5.0-2.32","62d06d1b651d6922f62fab9b","bdp_lott","Sat Mar 25 2023 21:42:36 GMT-0600 (Mountain Daylight Time)","264300","red","green","","","","","","","","","","193","","","","","","[{""stimulus"":""img/red_wl/1.jpg"",""time"":54},{""stimulus"":""img/red_wl/2.jpg"",""time"":102},{""stimulus"":""img/red_wl/3.jpg"",""time"":166},{""stimulus"":""img/red_wl/4.jpg"",""time"":216},{""stimulus"":""img/red_wl/5.jpg"",""time"":265},{""stimulus"":""img/red_wl/6.jpg"",""time"":315},{""stimulus"":""img/red_wl/7.jpg"",""time"":363},{""stimulus"":""img/red_wl/8.jpg"",""time"":401},{""stimulus"":""img/red_wl/9.jpg"",""time"":451},{""stimulus"":""img/red_wl/10.jpg"",""time"":501},{""stimulus"":""img/red_wl/11.jpg"",""time"":551}]","[]",""
"image-keyboard-response","70","73815","0.0-5.0-1.33","62d06d1b651d6922f62fab9b","bdp_lott","Sat Mar 25 2023 21:42:36 GMT-0600 (Mountain Daylight Time)","264300","red","green","","217","","","","choice","","img/red_wl/choose11.jpg","1","192","green","0.5","0.5","0.5","w","","",""
"animation","71","74416","0.0-5.0-2.33","62d06d1b651d6922f62fab9b","bdp_lott","Sat Mar 25 2023 21:42:36 GMT-0600 (Mountain Daylight Time)","264300","red","green","","","","","","","","","","192","","","","","","[{""stimulus"":""img/green_wl/1.jpg"",""time"":65},{""stimulus"":""img/green_wl/2.jpg"",""time"":100},{""stimulus"":""img/green_wl/3.jpg"",""time"":160},{""stimulus"":""img/green_wl/4.jpg"",""time"":201},{""stimulus"":""img/green_wl/5.jpg"",""time"":258},{""stimulus"":""img/green_wl/6.jpg"",""time"":301},{""stimulus"":""img/green_wl/7.jpg"",""time"":351},{""stimulus"":""img/green_wl/8.jpg"",""time"":409},{""stimulus"":""img/green_wl/9.jpg"",""time"":450},{""stimulus"":""img/green_wl/10.jpg"",""time"":501},{""stimulus"":""img/green_wl/11.jpg"",""time"":550}]","[]",""
"image-keyboard-response","72","74683","0.0-5.0-1.34","62d06d1b651d6922f62fab9b","bdp_lott","Sat Mar 25 2023 21:42:36 GMT-0600 (Mountain Daylight Time)","264300","red","green","","266","","","","choice","","img/green_wl/choose11.jpg","1","191","green","0.5","0.5","0.5","w","","",""
"animation","73","75289","0.0-5.0-2.34","62d06d1b651d6922f62fab9b","bdp_lott","Sat Mar 25 2023 21:42:36 GMT-0600 (Mountain Daylight Time)","264300","red","green","","","","","","","","","","191","","","","","","[{""stimulus"":""img/green_wl/1.jpg"",""time"":59},{""stimulus"":""img/green_wl/2.jpg"",""time"":101},{""stimulus"":""img/green_wl/3.jpg"",""time"":152},{""stimulus"":""img/green_wl/4.jpg"",""time"":207},{""stimulus"":""img/green_wl/5.jpg"",""time"":257},{""stimulus"":""img/green_wl/6.jpg"",""time"":307},{""stimulus"":""img/green_wl/7.jpg"",""time"":357},{""stimulus"":""img/green_wl/8.jpg"",""time"":401},{""stimulus"":""img/green_wl/9.jpg"",""time"":456},{""stimulus"":""img/green_wl/10.jpg"",""time"":501},{""stimulus"":""img/green_wl/11.jpg"",""time"":551}]","[]",""
"image-keyboard-response","74","75457","0.0-5.0-1.35","62d06d1b651d6922f62fab9b","bdp_lott","Sat Mar 25 2023 21:42:36 GMT-0600 (Mountain Daylight Time)","264300","red","green","","167","","","","choice","","img/green_wl/choose11.jpg","1","190","green","0.5","0.5","0.5","l","","",""
"animation","75","76057","0.0-5.0-2.35","62d06d1b651d6922f62fab9b","bdp_lott","Sat Mar 25 2023 21:42:36 GMT-0600 (Mountain Daylight Time)","264300","red","green","","","","","","","","","","190","","","","","","[{""stimulus"":""img/green_ll/1.jpg"",""time"":58},{""stimulus"":""img/green_ll/2.jpg"",""time"":118},{""stimulus"":""img/green_ll/3.jpg"",""time"":152},{""stimulus"":""img/green_ll/4.jpg"",""time"":201},{""stimulus"":""img/green_ll/5.jpg"",""time"":251},{""stimulus"":""img/green_ll/6.jpg"",""time"":301},{""stimulus"":""img/green_ll/7.jpg"",""time"":351},{""stimulus"":""img/green_ll/8.jpg"",""time"":401},{""stimulus"":""img/green_ll/9.jpg"",""time"":451},{""stimulus"":""img/green_ll/10.jpg"",""time"":501},{""stimulus"":""img/green_ll/11.jpg"",""time"":551}]","[]",""
"image-keyboard-response","76","76225","0.0-5.0-1.36","62d06d1b651d6922f62fab9b","bdp_lott","Sat Mar 25 2023 21:42:36 GMT-0600 (Mountain Daylight Time)","264300","red","green","","167","","","","choice","","img/green_ll/choose11.jpg","1","189","green","0.5","0.5","0.5","l","","",""
"animation","77","76838","0.0-5.0-2.36","62d06d1b651d6922f62fab9b","bdp_lott","Sat Mar 25 2023 21:42:36 GMT-0600 (Mountain Daylight Time)","264300","red","green","","","","","","","","","","189","","","","","","[{""stimulus"":""img/green_ll/1.jpg"",""time"":57},{""stimulus"":""img/green_ll/2.jpg"",""time"":116},{""stimulus"":""img/green_ll/3.jpg"",""time"":151},{""stimulus"":""img/green_ll/4.jpg"",""time"":202},{""stimulus"":""img/green_ll/5.jpg"",""time"":252},{""stimulus"":""img/green_ll/6.jpg"",""time"":302},{""stimulus"":""img/green_ll/7.jpg"",""time"":363},{""stimulus"":""img/green_ll/8.jpg"",""time"":413},{""stimulus"":""img/green_ll/9.jpg"",""time"":451},{""stimulus"":""img/green_ll/10.jpg"",""time"":514},{""stimulus"":""img/green_ll/11.jpg"",""time"":551}]","[]",""
"image-keyboard-response","78","76939","0.0-5.0-1.37","62d06d1b651d6922f62fab9b","bdp_lott","Sat Mar 25 2023 21:42:36 GMT-0600 (Mountain Daylight Time)","264300","red","green","","100","","","","choice","","img/green_ll/choose11.jpg","1","188","green","0.5","0.5","0.5","l","","",""
"animation","79","77539","0.0-5.0-2.37","62d06d1b651d6922f62fab9b","bdp_lott","Sat Mar 25 2023 21:42:36 GMT-0600 (Mountain Daylight Time)","264300","red","green","","","","","","","","","","188","","","","","","[{""stimulus"":""img/green_ll/1.jpg"",""time"":61},{""stimulus"":""img/green_ll/2.jpg"",""time"":102},{""stimulus"":""img/green_ll/3.jpg"",""time"":152},{""stimulus"":""img/green_ll/4.jpg"",""time"":217},{""stimulus"":""img/green_ll/5.jpg"",""time"":266},{""stimulus"":""img/green_ll/6.jpg"",""time"":316},{""stimulus"":""img/green_ll/7.jpg"",""time"":364},{""stimulus"":""img/green_ll/8.jpg"",""time"":415},{""stimulus"":""img/green_ll/9.jpg"",""time"":451},{""stimulus"":""img/green_ll/10.jpg"",""time"":513},{""stimulus"":""img/green_ll/11.jpg"",""time"":565}]","[]",""
"image-keyboard-response","80","77704","0.0-5.0-1.38","62d06d1b651d6922f62fab9b","bdp_lott","Sat Mar 25 2023 21:42:36 GMT-0600 (Mountain Daylight Time)","264300","red","green","","163","","","","choice","","img/green_ll/choose11.jpg","1","187","green","0.5","0.5","0.5","w","","",""
"animation","81","78305","0.0-5.0-2.38","62d06d1b651d6922f62fab9b","bdp_lott","Sat Mar 25 2023 21:42:36 GMT-0600 (Mountain Daylight Time)","264300","red","green","","","","","","","","","","187","","","","","","[{""stimulus"":""img/green_wl/1.jpg"",""time"":59},{""stimulus"":""img/green_wl/2.jpg"",""time"":117},{""stimulus"":""img/green_wl/3.jpg"",""time"":151},{""stimulus"":""img/green_wl/4.jpg"",""time"":201},{""stimulus"":""img/green_wl/5.jpg"",""time"":251},{""stimulus"":""img/green_wl/6.jpg"",""time"":300},{""stimulus"":""img/green_wl/7.jpg"",""time"":351},{""stimulus"":""img/green_wl/8.jpg"",""time"":402},{""stimulus"":""img/green_wl/9.jpg"",""time"":451},{""stimulus"":""img/green_wl/10.jpg"",""time"":501},{""stimulus"":""img/green_wl/11.jpg"",""time"":551}]","[]",""
"image-keyboard-response","82","78511","0.0-5.0-1.39","62d06d1b651d6922f62fab9b","bdp_lott","Sat Mar 25 2023 21:42:36 GMT-0600 (Mountain Daylight Time)","264300","red","green","","205","","","","choice","","img/green_wl/choose11.jpg","1","186","green","0.5","0.5","0.5","l","","",""
"animation","83","79113","0.0-5.0-2.39","62d06d1b651d6922f62fab9b","bdp_lott","Sat Mar 25 2023 21:42:36 GMT-0600 (Mountain Daylight Time)","264300","red","green","","","","","","","","","","186","","","","","","[{""stimulus"":""img/green_ll/1.jpg"",""time"":64},{""stimulus"":""img/green_ll/2.jpg"",""time"":126},{""stimulus"":""img/green_ll/3.jpg"",""time"":151},{""stimulus"":""img/green_ll/4.jpg"",""time"":210},{""stimulus"":""img/green_ll/5.jpg"",""time"":252},{""stimulus"":""img/green_ll/6.jpg"",""time"":301},{""stimulus"":""img/green_ll/7.jpg"",""time"":358},{""stimulus"":""img/green_ll/8.jpg"",""time"":406},{""stimulus"":""img/green_ll/9.jpg"",""time"":452},{""stimulus"":""img/green_ll/10.jpg"",""time"":501},{""stimulus"":""img/green_ll/11.jpg"",""time"":552}]","[]",""
"image-keyboard-response","84","79400","0.0-5.0-1.40","62d06d1b651d6922f62fab9b","bdp_lott","Sat Mar 25 2023 21:42:36 GMT-0600 (Mountain Daylight Time)","264300","red","green","","286","","","","choice","","img/green_ll/choose11.jpg","2","185","red","0.5","0.5","0.5","l","","",""
"animation","85","80003","0.0-5.0-2.40","62d06d1b651d6922f62fab9b","bdp_lott","Sat Mar 25 2023 21:42:36 GMT-0600 (Mountain Daylight Time)","264300","red","green","","","","","","","","","","185","","","","","","[{""stimulus"":""img/red_ll/1.jpg"",""time"":51},{""stimulus"":""img/red_ll/2.jpg"",""time"":101},{""stimulus"":""img/red_ll/3.jpg"",""time"":153},{""stimulus"":""img/red_ll/4.jpg"",""time"":203},{""stimulus"":""img/red_ll/5.jpg"",""time"":253},{""stimulus"":""img/red_ll/6.jpg"",""time"":303},{""stimulus"":""img/red_ll/7.jpg"",""time"":353},{""stimulus"":""img/red_ll/8.jpg"",""time"":403},{""stimulus"":""img/red_ll/9.jpg"",""time"":453},{""stimulus"":""img/red_ll/10.jpg"",""time"":501},{""stimulus"":""img/red_ll/11.jpg"",""time"":566}]","[]",""
"image-keyboard-response","86","80940","0.0-5.0-1.41","62d06d1b651d6922f62fab9b","bdp_lott","Sat Mar 25 2023 21:42:36 GMT-0600 (Mountain Daylight Time)","264300","red","green","","936","","","","choice","","img/red_ll/choose11.jpg","2","184","red","0.5","0.5","0.5","w","","",""
"animation","87","81551","0.0-5.0-2.41","62d06d1b651d6922f62fab9b","bdp_lott","Sat Mar 25 2023 21:42:36 GMT-0600 (Mountain Daylight Time)","264300","red","green","","","","","","","","","","184","","","","","","[{""stimulus"":""img/red_lw/1.jpg"",""time"":64},{""stimulus"":""img/red_lw/2.jpg"",""time"":101},{""stimulus"":""img/red_lw/3.jpg"",""time"":159},{""stimulus"":""img/red_lw/4.jpg"",""time"":211},{""stimulus"":""img/red_lw/5.jpg"",""time"":261},{""stimulus"":""img/red_lw/6.jpg"",""time"":310},{""stimulus"":""img/red_lw/7.jpg"",""time"":360},{""stimulus"":""img/red_lw/8.jpg"",""time"":411},{""stimulus"":""img/red_lw/9.jpg"",""time"":459},{""stimulus"":""img/red_lw/10.jpg"",""time"":509},{""stimulus"":""img/red_lw/11.jpg"",""time"":560}]","[]",""
"image-keyboard-response","88","81959","0.0-5.0-1.42","62d06d1b651d6922f62fab9b","bdp_lott","Sat Mar 25 2023 21:42:36 GMT-0600 (Mountain Daylight Time)","264300","red","green","","407","","","","choice","","img/red_lw/choose11.jpg","2","183","red","0.5","0.5","0.5","l","","",""
"animation","89","82560","0.0-5.0-2.42","62d06d1b651d6922f62fab9b","bdp_lott","Sat Mar 25 2023 21:42:36 GMT-0600 (Mountain Daylight Time)","264300","red","green","","","","","","","","","","183","","","","","","[{""stimulus"":""img/red_ll/1.jpg"",""time"":63},{""stimulus"":""img/red_ll/2.jpg"",""time"":123},{""stimulus"":""img/red_ll/3.jpg"",""time"":152},{""stimulus"":""img/red_ll/4.jpg"",""time"":205},{""stimulus"":""img/red_ll/5.jpg"",""time"":254},{""stimulus"":""img/red_ll/6.jpg"",""time"":304},{""stimulus"":""img/red_ll/7.jpg"",""time"":351},{""stimulus"":""img/red_ll/8.jpg"",""time"":401},{""stimulus"":""img/red_ll/9.jpg"",""time"":455},{""stimulus"":""img/red_ll/10.jpg"",""time"":501},{""stimulus"":""img/red_ll/11.jpg"",""time"":552}]","[]",""
"image-keyboard-response","90","84792","0.0-5.0-1.43","62d06d1b651d6922f62fab9b","bdp_lott","Sat Mar 25 2023 21:42:36 GMT-0600 (Mountain Daylight Time)","264300","red","green","","2231","","","","choice","","img/red_ll/choose11.jpg","1","182","green","0.5","0.5","0.5","w","","",""
"animation","91","85394","0.0-5.0-2.43","62d06d1b651d6922f62fab9b","bdp_lott","Sat Mar 25 2023 21:42:36 GMT-0600 (Mountain Daylight Time)","264300","red","green","","","","","","","","","","182","","","","","","[{""stimulus"":""img/green_wl/1.jpg"",""time"":58},{""stimulus"":""img/green_wl/2.jpg"",""time"":118},{""stimulus"":""img/green_wl/3.jpg"",""time"":152},{""stimulus"":""img/green_wl/4.jpg"",""time"":202},{""stimulus"":""img/green_wl/5.jpg"",""time"":252},{""stimulus"":""img/green_wl/6.jpg"",""time"":301},{""stimulus"":""img/green_wl/7.jpg"",""time"":351},{""stimulus"":""img/green_wl/8.jpg"",""time"":401},{""stimulus"":""img/green_wl/9.jpg"",""time"":451},{""stimulus"":""img/green_wl/10.jpg"",""time"":501},{""stimulus"":""img/green_wl/11.jpg"",""time"":551}]","[]",""
"image-keyboard-response","92","87854","0.0-5.0-1.44","62d06d1b651d6922f62fab9b","bdp_lott","Sat Mar 25 2023 21:42:36 GMT-0600 (Mountain Daylight Time)","264300","red","green","","2459","","","","choice","","img/green_wl/choose11.jpg","2","181","red","0.5","0.5","0.5","l","","",""
"animation","93","88455","0.0-5.0-2.44","62d06d1b651d6922f62fab9b","bdp_lott","Sat Mar 25 2023 21:42:36 GMT-0600 (Mountain Daylight Time)","264300","red","green","","","","","","","","","","181","","","","","","[{""stimulus"":""img/red_wl/1.jpg"",""time"":61},{""stimulus"":""img/red_wl/2.jpg"",""time"":101},{""stimulus"":""img/red_wl/3.jpg"",""time"":151},{""stimulus"":""img/red_wl/4.jpg"",""time"":218},{""stimulus"":""img/red_wl/5.jpg"",""time"":251},{""stimulus"":""img/red_wl/6.jpg"",""time"":302},{""stimulus"":""img/red_wl/7.jpg"",""time"":351},{""stimulus"":""img/red_wl/8.jpg"",""time"":402},{""stimulus"":""img/red_wl/9.jpg"",""time"":451},{""stimulus"":""img/red_wl/10.jpg"",""time"":501},{""stimulus"":""img/red_wl/11.jpg"",""time"":551}]","[]",""
"image-keyboard-response","94","88914","0.0-5.0-1.45","62d06d1b651d6922f62fab9b","bdp_lott","Sat Mar 25 2023 21:42:36 GMT-0600 (Mountain Daylight Time)","264300","red","green","","459","","","","choice","","img/red_wl/choose11.jpg","2","180","red","0.5","0.5","0.5","l","","",""
"animation","95","89516","0.0-5.0-2.45","62d06d1b651d6922f62fab9b","bdp_lott","Sat Mar 25 2023 21:42:36 GMT-0600 (Mountain Daylight Time)","264300","red","green","","","","","","","","","","180","","","","","","[{""stimulus"":""img/red_wl/1.jpg"",""time"":61},{""stimulus"":""img/red_wl/2.jpg"",""time"":122},{""stimulus"":""img/red_wl/3.jpg"",""time"":151},{""stimulus"":""img/red_wl/4.jpg"",""time"":205},{""stimulus"":""img/red_wl/5.jpg"",""time"":251},{""stimulus"":""img/red_wl/6.jpg"",""time"":301},{""stimulus"":""img/red_wl/7.jpg"",""time"":354},{""stimulus"":""img/red_wl/8.jpg"",""time"":401},{""stimulus"":""img/red_wl/9.jpg"",""time"":454},{""stimulus"":""img/red_wl/10.jpg"",""time"":501},{""stimulus"":""img/red_wl/11.jpg"",""time"":554}]","[]",""
"image-keyboard-response","96","90785","0.0-5.0-1.46","62d06d1b651d6922f62fab9b","bdp_lott","Sat Mar 25 2023 21:42:36 GMT-0600 (Mountain Daylight Time)","264300","red","green","","1268","","","","choice","","img/red_wl/choose11.jpg","2","179","red","0.5","0.5","0.5","l","","",""
"animation","97","91386","0.0-5.0-2.46","62d06d1b651d6922f62fab9b","bdp_lott","Sat Mar 25 2023 21:42:36 GMT-0600 (Mountain Daylight Time)","264300","red","green","","","","","","","","","","179","","","","","","[{""stimulus"":""img/red_wl/1.jpg"",""time"":53},{""stimulus"":""img/red_wl/2.jpg"",""time"":116},{""stimulus"":""img/red_wl/3.jpg"",""time"":151},{""stimulus"":""img/red_wl/4.jpg"",""time"":201},{""stimulus"":""img/red_wl/5.jpg"",""time"":265},{""stimulus"":""img/red_wl/6.jpg"",""time"":314},{""stimulus"":""img/red_wl/7.jpg"",""time"":364},{""stimulus"":""img/red_wl/8.jpg"",""time"":415},{""stimulus"":""img/red_wl/9.jpg"",""time"":451},{""stimulus"":""img/red_wl/10.jpg"",""time"":501},{""stimulus"":""img/red_wl/11.jpg"",""time"":551}]","[]",""
"image-keyboard-response","98","92483","0.0-5.0-1.47","62d06d1b651d6922f62fab9b","bdp_lott","Sat Mar 25 2023 21:42:36 GMT-0600 (Mountain Daylight Time)","264300","red","green","","1096","","","","choice","","img/red_wl/choose11.jpg","2","178","red","0.5","0.5","0.5","w","","",""
"animation","99","93085","0.0-5.0-2.47","62d06d1b651d6922f62fab9b","bdp_lott","Sat Mar 25 2023 21:42:36 GMT-0600 (Mountain Daylight Time)","264300","red","green","","","","","","","","","","178","","","","","","[{""stimulus"":""img/red_ww/1.jpg"",""time"":62},{""stimulus"":""img/red_ww/2.jpg"",""time"":114},{""stimulus"":""img/red_ww/3.jpg"",""time"":151},{""stimulus"":""img/red_ww/4.jpg"",""time"":201},{""stimulus"":""img/red_ww/5.jpg"",""time"":251},{""stimulus"":""img/red_ww/6.jpg"",""time"":313},{""stimulus"":""img/red_ww/7.jpg"",""time"":351},{""stimulus"":""img/red_ww/8.jpg"",""time"":415},{""stimulus"":""img/red_ww/9.jpg"",""time"":465},{""stimulus"":""img/red_ww/10.jpg"",""time"":501},{""stimulus"":""img/red_ww/11.jpg"",""time"":562}]","[]",""
"image-keyboard-response","100","94877","0.0-5.0-1.48","62d06d1b651d6922f62fab9b","bdp_lott","Sat Mar 25 2023 21:42:36 GMT-0600 (Mountain Daylight Time)","264300","red","green","","1791","","","","choice","","img/red_ww/choose11.jpg","2","177","red","0.5","0.5","0.5","l","","",""
"animation","101","95479","0.0-5.0-2.48","62d06d1b651d6922f62fab9b","bdp_lott","Sat Mar 25 2023 21:42:36 GMT-0600 (Mountain Daylight Time)","264300","red","green","","","","","","","","","","177","","","","","","[{""stimulus"":""img/red_wl/1.jpg"",""time"":55},{""stimulus"":""img/red_wl/2.jpg"",""time"":119},{""stimulus"":""img/red_wl/3.jpg"",""time"":152},{""stimulus"":""img/red_wl/4.jpg"",""time"":202},{""stimulus"":""img/red_wl/5.jpg"",""time"":252},{""stimulus"":""img/red_wl/6.jpg"",""time"":301},{""stimulus"":""img/red_wl/7.jpg"",""time"":352},{""stimulus"":""img/red_wl/8.jpg"",""time"":402},{""stimulus"":""img/red_wl/9.jpg"",""time"":452},{""stimulus"":""img/red_wl/10.jpg"",""time"":502},{""stimulus"":""img/red_wl/11.jpg"",""time"":552}]","[]",""
"image-keyboard-response","102","95905","0.0-5.0-1.49","62d06d1b651d6922f62fab9b","bdp_lott","Sat Mar 25 2023 21:42:36 GMT-0600 (Mountain Daylight Time)","264300","red","green","","423","","","","choice","","img/red_wl/choose11.jpg","2","176","red","0.5","0.5","0.5","l","","",""
"animation","103","96507","0.0-5.0-2.49","62d06d1b651d6922f62fab9b","bdp_lott","Sat Mar 25 2023 21:42:36 GMT-0600 (Mountain Daylight Time)","264300","red","green","","","","","","","","","","176","","","","","","[{""stimulus"":""img/red_wl/1.jpg"",""time"":62},{""stimulus"":""img/red_wl/2.jpg"",""time"":122},{""stimulus"":""img/red_wl/3.jpg"",""time"":152},{""stimulus"":""img/red_wl/4.jpg"",""time"":221},{""stimulus"":""img/red_wl/5.jpg"",""time"":252},{""stimulus"":""img/red_wl/6.jpg"",""time"":302},{""stimulus"":""img/red_wl/7.jpg"",""time"":352},{""stimulus"":""img/red_wl/8.jpg"",""time"":402},{""stimulus"":""img/red_wl/9.jpg"",""time"":452},{""stimulus"":""img/red_wl/10.jpg"",""time"":505},{""stimulus"":""img/red_wl/11.jpg"",""time"":553}]","[]",""
"image-keyboard-response","104","96749","0.0-5.0-1.50","62d06d1b651d6922f62fab9b","bdp_lott","Sat Mar 25 2023 21:42:36 GMT-0600 (Mountain Daylight Time)","264300","red","green","","241","","","","choice","","img/red_wl/choose11.jpg","2","175","red","0.5","0.5","0.5","w","","",""
"animation","105","97355","0.0-5.0-2.50","62d06d1b651d6922f62fab9b","bdp_lott","Sat Mar 25 2023 21:42:36 GMT-0600 (Mountain Daylight Time)","264300","red","green","","","","","","","","","","175","","","","","","[{""stimulus"":""img/red_ww/1.jpg"",""time"":62},{""stimulus"":""img/red_ww/2.jpg"",""time"":106},{""stimulus"":""img/red_ww/3.jpg"",""time"":176},{""stimulus"":""img/red_ww/4.jpg"",""time"":203},{""stimulus"":""img/red_ww/5.jpg"",""time"":260},{""stimulus"":""img/red_ww/6.jpg"",""time"":302},{""stimulus"":""img/red_ww/7.jpg"",""time"":351},{""stimulus"":""img/red_ww/8.jpg"",""time"":402},{""stimulus"":""img/red_ww/9.jpg"",""time"":452},{""stimulus"":""img/red_ww/10.jpg"",""time"":511},{""stimulus"":""img/red_ww/11.jpg"",""time"":552}]","[]",""
"image-keyboard-response","106","98138","0.0-5.0-1.51","62d06d1b651d6922f62fab9b","bdp_lott","Sat Mar 25 2023 21:42:36 GMT-0600 (Mountain Daylight Time)","264300","red","green","","782","","","","choice","","img/red_ww/choose11.jpg","1","174","green","0.5","0.5","0.5","l","","",""
"animation","107","98739","0.0-5.0-2.51","62d06d1b651d6922f62fab9b","bdp_lott","Sat Mar 25 2023 21:42:36 GMT-0600 (Mountain Daylight Time)","264300","red","green","","","","","","","","","","174","","","","","","[{""stimulus"":""img/green_lw/1.jpg"",""time"":58},{""stimulus"":""img/green_lw/2.jpg"",""time"":121},{""stimulus"":""img/green_lw/3.jpg"",""time"":152},{""stimulus"":""img/green_lw/4.jpg"",""time"":202},{""stimulus"":""img/green_lw/5.jpg"",""time"":252},{""stimulus"":""img/green_lw/6.jpg"",""time"":301},{""stimulus"":""img/green_lw/7.jpg"",""time"":351},{""stimulus"":""img/green_lw/8.jpg"",""time"":401},{""stimulus"":""img/green_lw/9.jpg"",""time"":451},{""stimulus"":""img/green_lw/10.jpg"",""time"":501},{""stimulus"":""img/green_lw/11.jpg"",""time"":552}]","[]",""
"image-keyboard-response","108","99041","0.0-5.0-1.52","62d06d1b651d6922f62fab9b","bdp_lott","Sat Mar 25 2023 21:42:36 GMT-0600 (Mountain Daylight Time)","264300","red","green","","301","","","","choice","","img/green_lw/choose11.jpg","1","173","green","0.5","0.5","0.5","l","","",""
"animation","109","99654","0.0-5.0-2.52","62d06d1b651d6922f62fab9b","bdp_lott","Sat Mar 25 2023 21:42:36 GMT-0600 (Mountain Daylight Time)","264300","red","green","","","","","","","","","","173","","","","","","[{""stimulus"":""img/green_lw/1.jpg"",""time"":64},{""stimulus"":""img/green_lw/2.jpg"",""time"":113},{""stimulus"":""img/green_lw/3.jpg"",""time"":151},{""stimulus"":""img/green_lw/4.jpg"",""time"":201},{""stimulus"":""img/green_lw/5.jpg"",""time"":251},{""stimulus"":""img/green_lw/6.jpg"",""time"":301},{""stimulus"":""img/green_lw/7.jpg"",""time"":352},{""stimulus"":""img/green_lw/8.jpg"",""time"":401},{""stimulus"":""img/green_lw/9.jpg"",""time"":462},{""stimulus"":""img/green_lw/10.jpg"",""time"":514},{""stimulus"":""img/green_lw/11.jpg"",""time"":560}]","[]",""
"image-keyboard-response","110","99819","0.0-5.0-1.53","62d06d1b651d6922f62fab9b","bdp_lott","Sat Mar 25 2023 21:42:36 GMT-0600 (Mountain Daylight Time)","264300","red","green","","164","","","","choice","","img/green_lw/choose11.jpg","1","172","green","0.5","0.5","0.5","l","","",""
"animation","111","100419","0.0-5.0-2.53","62d06d1b651d6922f62fab9b","bdp_lott","Sat Mar 25 2023 21:42:36 GMT-0600 (Mountain Daylight Time)","264300","red","green","","","","","","","","","","172","","","","","","[{""stimulus"":""img/green_lw/1.jpg"",""time"":57},{""stimulus"":""img/green_lw/2.jpg"",""time"":118},{""stimulus"":""img/green_lw/3.jpg"",""time"":151},{""stimulus"":""img/green_lw/4.jpg"",""time"":201},{""stimulus"":""img/green_lw/5.jpg"",""time"":252},{""stimulus"":""img/green_lw/6.jpg"",""time"":301},{""stimulus"":""img/green_lw/7.jpg"",""time"":351},{""stimulus"":""img/green_lw/8.jpg"",""time"":418},{""stimulus"":""img/green_lw/9.jpg"",""time"":451},{""stimulus"":""img/green_lw/10.jpg"",""time"":501},{""stimulus"":""img/green_lw/11.jpg"",""time"":551}]","[]",""
"image-keyboard-response","112","100554","0.0-5.0-1.54","62d06d1b651d6922f62fab9b","bdp_lott","Sat Mar 25 2023 21:42:36 GMT-0600 (Mountain Daylight Time)","264300","red","green","","134","","","","choice","","img/green_lw/choose11.jpg","1","171","green","0.5","0.5","0.5","w","","",""
"animation","113","101155","0.0-5.0-2.54","62d06d1b651d6922f62fab9b","bdp_lott","Sat Mar 25 2023 21:42:36 GMT-0600 (Mountain Daylight Time)","264300","red","green","","","","","","","","","","171","","","","","","[{""stimulus"":""img/green_ww/1.jpg"",""time"":59},{""stimulus"":""img/green_ww/2.jpg"",""time"":115},{""stimulus"":""img/green_ww/3.jpg"",""time"":151},{""stimulus"":""img/green_ww/4.jpg"",""time"":211},{""stimulus"":""img/green_ww/5.jpg"",""time"":261},{""stimulus"":""img/green_ww/6.jpg"",""time"":312},{""stimulus"":""img/green_ww/7.jpg"",""time"":363},{""stimulus"":""img/green_ww/8.jpg"",""time"":413},{""stimulus"":""img/green_ww/9.jpg"",""time"":451},{""stimulus"":""img/green_ww/10.jpg"",""time"":513},{""stimulus"":""img/green_ww/11.jpg"",""time"":551}]","[]",""
"image-keyboard-response","114","101166","0.0-5.0-1.55","62d06d1b651d6922f62fab9b","bdp_lott","Sat Mar 25 2023 21:42:36 GMT-0600 (Mountain Daylight Time)","264300","red","green","","10","","","","choice","","img/green_ww/choose11.jpg","1","170","green","0.5","0.5","0.5","w","","",""
"animation","115","101768","0.0-5.0-2.55","62d06d1b651d6922f62fab9b","bdp_lott","Sat Mar 25 2023 21:42:36 GMT-0600 (Mountain Daylight Time)","264300","red","green","","","","","","","","","","170","","","","","","[{""stimulus"":""img/green_ww/1.jpg"",""time"":51},{""stimulus"":""img/green_ww/2.jpg"",""time"":102},{""stimulus"":""img/green_ww/3.jpg"",""time"":152},{""stimulus"":""img/green_ww/4.jpg"",""time"":202},{""stimulus"":""img/green_ww/5.jpg"",""time"":254},{""stimulus"":""img/green_ww/6.jpg"",""time"":305},{""stimulus"":""img/green_ww/7.jpg"",""time"":352},{""stimulus"":""img/green_ww/8.jpg"",""time"":402},{""stimulus"":""img/green_ww/9.jpg"",""time"":451},{""stimulus"":""img/green_ww/10.jpg"",""time"":501},{""stimulus"":""img/green_ww/11.jpg"",""time"":567}]","[]",""
"image-keyboard-response","116","102421","0.0-5.0-1.56","62d06d1b651d6922f62fab9b","bdp_lott","Sat Mar 25 2023 21:42:36 GMT-0600 (Mountain Daylight Time)","264300","red","green","","652","","","","choice","","img/green_ww/choose11.jpg","2","169","red","0.5","0.5","0.5","w","","",""
"animation","117","103030","0.0-5.0-2.56","62d06d1b651d6922f62fab9b","bdp_lott","Sat Mar 25 2023 21:42:36 GMT-0600 (Mountain Daylight Time)","264300","red","green","","","","","","","","","","169","","","","","","[{""stimulus"":""img/red_ww/1.jpg"",""time"":64},{""stimulus"":""img/red_ww/2.jpg"",""time"":101},{""stimulus"":""img/red_ww/3.jpg"",""time"":151},{""stimulus"":""img/red_ww/4.jpg"",""time"":202},{""stimulus"":""img/red_ww/5.jpg"",""time"":252},{""stimulus"":""img/red_ww/6.jpg"",""time"":310},{""stimulus"":""img/red_ww/7.jpg"",""time"":351},{""stimulus"":""img/red_ww/8.jpg"",""time"":401},{""stimulus"":""img/red_ww/9.jpg"",""time"":451},{""stimulus"":""img/red_ww/10.jpg"",""time"":501},{""stimulus"":""img/red_ww/11.jpg"",""time"":551}]","[]",""
"image-keyboard-response","118","103302","0.0-5.0-1.57","62d06d1b651d6922f62fab9b","bdp_lott","Sat Mar 25 2023 21:42:36 GMT-0600 (Mountain Daylight Time)","264300","red","green","","271","","","","choice","","img/red_ww/choose11.jpg","2","168","red","0.5","0.5","0.5","w","","",""
"animation","119","103904","0.0-5.0-2.57","62d06d1b651d6922f62fab9b","bdp_lott","Sat Mar 25 2023 21:42:36 GMT-0600 (Mountain Daylight Time)","264300","red","green","","","","","","","","","","168","","","","","","[{""stimulus"":""img/red_ww/1.jpg"",""time"":61},{""stimulus"":""img/red_ww/2.jpg"",""time"":110},{""stimulus"":""img/red_ww/3.jpg"",""time"":150},{""stimulus"":""img/red_ww/4.jpg"",""time"":210},{""stimulus"":""img/red_ww/5.jpg"",""time"":260},{""stimulus"":""img/red_ww/6.jpg"",""time"":300},{""stimulus"":""img/red_ww/7.jpg"",""time"":351},{""stimulus"":""img/red_ww/8.jpg"",""time"":401},{""stimulus"":""img/red_ww/9.jpg"",""time"":461},{""stimulus"":""img/red_ww/10.jpg"",""time"":511},{""stimulus"":""img/red_ww/11.jpg"",""time"":551}]","[]",""
"image-keyboard-response","120","104689","0.0-5.0-1.58","62d06d1b651d6922f62fab9b","bdp_lott","Sat Mar 25 2023 21:42:36 GMT-0600 (Mountain Daylight Time)","264300","red","green","","784","","","","choice","","img/red_ww/choose11.jpg","2","167","red","0.5","0.5","0.5","l","","",""
"animation","121","105290","0.0-5.0-2.58","62d06d1b651d6922f62fab9b","bdp_lott","Sat Mar 25 2023 21:42:36 GMT-0600 (Mountain Daylight Time)","264300","red","green","","","","","","","","","","167","","","","","","[{""stimulus"":""img/red_wl/1.jpg"",""time"":54},{""stimulus"":""img/red_wl/2.jpg"",""time"":101},{""stimulus"":""img/red_wl/3.jpg"",""time"":152},{""stimulus"":""img/red_wl/4.jpg"",""time"":202},{""stimulus"":""img/red_wl/5.jpg"",""time"":258},{""stimulus"":""img/red_wl/6.jpg"",""time"":301},{""stimulus"":""img/red_wl/7.jpg"",""time"":351},{""stimulus"":""img/red_wl/8.jpg"",""time"":401},{""stimulus"":""img/red_wl/9.jpg"",""time"":451},{""stimulus"":""img/red_wl/10.jpg"",""time"":504},{""stimulus"":""img/red_wl/11.jpg"",""time"":552}]","[]",""
"image-keyboard-response","122","105668","0.0-5.0-1.59","62d06d1b651d6922f62fab9b","bdp_lott","Sat Mar 25 2023 21:42:36 GMT-0600 (Mountain Daylight Time)","264300","red","green","","377","","","","choice","","img/red_wl/choose11.jpg","2","166","red","0.5","0.5","0.5","w","","",""
"animation","123","106276","0.0-5.0-2.59","62d06d1b651d6922f62fab9b","bdp_lott","Sat Mar 25 2023 21:42:36 GMT-0600 (Mountain Daylight Time)","264300","red","green","","","","","","","","","","166","","","","","","[{""stimulus"":""img/red_ww/1.jpg"",""time"":53},{""stimulus"":""img/red_ww/2.jpg"",""time"":109},{""stimulus"":""img/red_ww/3.jpg"",""time"":159},{""stimulus"":""img/red_ww/4.jpg"",""time"":210},{""stimulus"":""img/red_ww/5.jpg"",""time"":277},{""stimulus"":""img/red_ww/6.jpg"",""time"":302},{""stimulus"":""img/red_ww/7.jpg"",""time"":360},{""stimulus"":""img/red_ww/8.jpg"",""time"":401},{""stimulus"":""img/red_ww/9.jpg"",""time"":451},{""stimulus"":""img/red_ww/10.jpg"",""time"":525},{""stimulus"":""img/red_ww/11.jpg"",""time"":552}]","[]",""
"image-keyboard-response","124","106471","0.0-5.0-1.60","62d06d1b651d6922f62fab9b","bdp_lott","Sat Mar 25 2023 21:42:36 GMT-0600 (Mountain Daylight Time)","264300","red","green","","193","","","","choice","","img/red_ww/choose11.jpg","2","165","red","0.5","0.5","0.5","w","","",""
"animation","125","107093","0.0-5.0-2.60","62d06d1b651d6922f62fab9b","bdp_lott","Sat Mar 25 2023 21:42:36 GMT-0600 (Mountain Daylight Time)","264300","red","green","","","","","","","","","","165","","","","","","[{""stimulus"":""img/red_ww/1.jpg"",""time"":63},{""stimulus"":""img/red_ww/2.jpg"",""time"":100},{""stimulus"":""img/red_ww/3.jpg"",""time"":151},{""stimulus"":""img/red_ww/4.jpg"",""time"":200},{""stimulus"":""img/red_ww/5.jpg"",""time"":251},{""stimulus"":""img/red_ww/6.jpg"",""time"":302},{""stimulus"":""img/red_ww/7.jpg"",""time"":351},{""stimulus"":""img/red_ww/8.jpg"",""time"":402},{""stimulus"":""img/red_ww/9.jpg"",""time"":452},{""stimulus"":""img/red_ww/10.jpg"",""time"":503},{""stimulus"":""img/red_ww/11.jpg"",""time"":554}]","[]",""
"image-keyboard-response","126","107488","0.0-5.0-1.61","62d06d1b651d6922f62fab9b","bdp_lott","Sat Mar 25 2023 21:42:36 GMT-0600 (Mountain Daylight Time)","264300","red","green","","394","","","","choice","","img/red_ww/choose11.jpg","1","164","green","0.5","0.5","0.5","l","","",""
"animation","127","108089","0.0-5.0-2.61","62d06d1b651d6922f62fab9b","bdp_lott","Sat Mar 25 2023 21:42:36 GMT-0600 (Mountain Daylight Time)","264300","red","green","","","","","","","","","","164","","","","","","[{""stimulus"":""img/green_lw/1.jpg"",""time"":63},{""stimulus"":""img/green_lw/2.jpg"",""time"":104},{""stimulus"":""img/green_lw/3.jpg"",""time"":150},{""stimulus"":""img/green_lw/4.jpg"",""time"":202},{""stimulus"":""img/green_lw/5.jpg"",""time"":253},{""stimulus"":""img/green_lw/6.jpg"",""time"":300},{""stimulus"":""img/green_lw/7.jpg"",""time"":351},{""stimulus"":""img/green_lw/8.jpg"",""time"":400},{""stimulus"":""img/green_lw/9.jpg"",""time"":452},{""stimulus"":""img/green_lw/10.jpg"",""time"":502},{""stimulus"":""img/green_lw/11.jpg"",""time"":568}]","[]",""
"image-keyboard-response","128","108490","0.0-5.0-1.62","62d06d1b651d6922f62fab9b","bdp_lott","Sat Mar 25 2023 21:42:36 GMT-0600 (Mountain Daylight Time)","264300","red","green","","399","","","","choice","","img/green_lw/choose11.jpg","1","163","green","0.5","0.5","0.5","w","","",""
"animation","129","109091","0.0-5.0-2.62","62d06d1b651d6922f62fab9b","bdp_lott","Sat Mar 25 2023 21:42:36 GMT-0600 (Mountain Daylight Time)","264300","red","green","","","","","","","","","","163","","","","","","[{""stimulus"":""img/green_ww/1.jpg"",""time"":57},{""stimulus"":""img/green_ww/2.jpg"",""time"":101},{""stimulus"":""img/green_ww/3.jpg"",""time"":166},{""stimulus"":""img/green_ww/4.jpg"",""time"":202},{""stimulus"":""img/green_ww/5.jpg"",""time"":251},{""stimulus"":""img/green_ww/6.jpg"",""time"":302},{""stimulus"":""img/green_ww/7.jpg"",""time"":351},{""stimulus"":""img/green_ww/8.jpg"",""time"":401},{""stimulus"":""img/green_ww/9.jpg"",""time"":452},{""stimulus"":""img/green_ww/10.jpg"",""time"":501},{""stimulus"":""img/green_ww/11.jpg"",""time"":552}]","[]",""
"image-keyboard-response","130","109332","0.0-5.0-1.63","62d06d1b651d6922f62fab9b","bdp_lott","Sat Mar 25 2023 21:42:36 GMT-0600 (Mountain Daylight Time)","264300","red","green","","239","","","","choice","","img/green_ww/choose11.jpg","1","162","green","0.5","0.5","0.5","w","","",""
"animation","131","109954","0.0-5.0-2.63","62d06d1b651d6922f62fab9b","bdp_lott","Sat Mar 25 2023 21:42:36 GMT-0600 (Mountain Daylight Time)","264300","red","green","","","","","","","","","","162","","","","","","[{""stimulus"":""img/green_ww/1.jpg"",""time"":59},{""stimulus"":""img/green_ww/2.jpg"",""time"":121},{""stimulus"":""img/green_ww/3.jpg"",""time"":152},{""stimulus"":""img/green_ww/4.jpg"",""time"":206},{""stimulus"":""img/green_ww/5.jpg"",""time"":251},{""stimulus"":""img/green_ww/6.jpg"",""time"":302},{""stimulus"":""img/green_ww/7.jpg"",""time"":357},{""stimulus"":""img/green_ww/8.jpg"",""time"":423},{""stimulus"":""img/green_ww/9.jpg"",""time"":452},{""stimulus"":""img/green_ww/10.jpg"",""time"":522},{""stimulus"":""img/green_ww/11.jpg"",""time"":552}]","[]",""
"image-keyboard-response","132","110144","0.0-5.0-1.64","62d06d1b651d6922f62fab9b","bdp_lott","Sat Mar 25 2023 21:42:36 GMT-0600 (Mountain Daylight Time)","264300","red","green","","188","","","","choice","","img/green_ww/choose11.jpg","1","161","green","0.5","0.5","0.5","w","","",""
"animation","133","110751","0.0-5.0-2.64","62d06d1b651d6922f62fab9b","bdp_lott","Sat Mar 25 2023 21:42:36 GMT-0600 (Mountain Daylight Time)","264300","red","green","","","","","","","","","","161","","","","","","[{""stimulus"":""img/green_ww/1.jpg"",""time"":64},{""stimulus"":""img/green_ww/2.jpg"",""time"":115},{""stimulus"":""img/green_ww/3.jpg"",""time"":152},{""stimulus"":""img/green_ww/4.jpg"",""time"":202},{""stimulus"":""img/green_ww/5.jpg"",""time"":251},{""stimulus"":""img/green_ww/6.jpg"",""time"":302},{""stimulus"":""img/green_ww/7.jpg"",""time"":352},{""stimulus"":""img/green_ww/8.jpg"",""time"":410},{""stimulus"":""img/green_ww/9.jpg"",""time"":452},{""stimulus"":""img/green_ww/10.jpg"",""time"":509},{""stimulus"":""img/green_ww/11.jpg"",""time"":551}]","[]",""
"image-keyboard-response","134","110771","0.0-5.0-1.65","62d06d1b651d6922f62fab9b","bdp_lott","Sat Mar 25 2023 21:42:36 GMT-0600 (Mountain Daylight Time)","264300","red","green","","18","","","","choice","","img/green_ww/choose11.jpg","1","160","green","0.5","0.5","0.5","w","","",""
"animation","135","111384","0.0-5.0-2.65","62d06d1b651d6922f62fab9b","bdp_lott","Sat Mar 25 2023 21:42:36 GMT-0600 (Mountain Daylight Time)","264300","red","green","","","","","","","","","","160","","","","","","[{""stimulus"":""img/green_ww/1.jpg"",""time"":64},{""stimulus"":""img/green_ww/2.jpg"",""time"":102},{""stimulus"":""img/green_ww/3.jpg"",""time"":166},{""stimulus"":""img/green_ww/4.jpg"",""time"":201},{""stimulus"":""img/green_ww/5.jpg"",""time"":252},{""stimulus"":""img/green_ww/6.jpg"",""time"":314},{""stimulus"":""img/green_ww/7.jpg"",""time"":363},{""stimulus"":""img/green_ww/8.jpg"",""time"":402},{""stimulus"":""img/green_ww/9.jpg"",""time"":451},{""stimulus"":""img/green_ww/10.jpg"",""time"":513},{""stimulus"":""img/green_ww/11.jpg"",""time"":552}]","[]",""
"image-keyboard-response","136","111430","0.0-5.0-1.66","62d06d1b651d6922f62fab9b","bdp_lott","Sat Mar 25 2023 21:42:36 GMT-0600 (Mountain Daylight Time)","264300","red","green","","45","","","","choice","","img/green_ww/choose11.jpg","1","159","green","0.5","0.5","0.5","l","","",""
"animation","137","112034","0.0-5.0-2.66","62d06d1b651d6922f62fab9b","bdp_lott","Sat Mar 25 2023 21:42:36 GMT-0600 (Mountain Daylight Time)","264300","red","green","","","","","","","","","","159","","","","","","[{""stimulus"":""img/green_lw/1.jpg"",""time"":53},{""stimulus"":""img/green_lw/2.jpg"",""time"":103},{""stimulus"":""img/green_lw/3.jpg"",""time"":155},{""stimulus"":""img/green_lw/4.jpg"",""time"":201},{""stimulus"":""img/green_lw/5.jpg"",""time"":254},{""stimulus"":""img/green_lw/6.jpg"",""time"":305},{""stimulus"":""img/green_lw/7.jpg"",""time"":355},{""stimulus"":""img/green_lw/8.jpg"",""time"":404},{""stimulus"":""img/green_lw/9.jpg"",""time"":454},{""stimulus"":""img/green_lw/10.jpg"",""time"":504},{""stimulus"":""img/green_lw/11.jpg"",""time"":554}]","[]",""
"image-keyboard-response","138","112248","0.0-5.0-1.67","62d06d1b651d6922f62fab9b","bdp_lott","Sat Mar 25 2023 21:42:36 GMT-0600 (Mountain Daylight Time)","264300","red","green","","212","","","","choice","","img/green_lw/choose11.jpg","1","158","green","0.5","0.5","0.5","l","","",""
"animation","139","112850","0.0-5.0-2.67","62d06d1b651d6922f62fab9b","bdp_lott","Sat Mar 25 2023 21:42:36 GMT-0600 (Mountain Daylight Time)","264300","red","green","","","","","","","","","","158","","","","","","[{""stimulus"":""img/green_lw/1.jpg"",""time"":56},{""stimulus"":""img/green_lw/2.jpg"",""time"":102},{""stimulus"":""img/green_lw/3.jpg"",""time"":153},{""stimulus"":""img/green_lw/4.jpg"",""time"":202},{""stimulus"":""img/green_lw/5.jpg"",""time"":253},{""stimulus"":""img/green_lw/6.jpg"",""time"":303},{""stimulus"":""img/green_lw/7.jpg"",""time"":352},{""stimulus"":""img/green_lw/8.jpg"",""time"":402},{""stimulus"":""img/green_lw/9.jpg"",""time"":452},{""stimulus"":""img/green_lw/10.jpg"",""time"":502},{""stimulus"":""img/green_lw/11.jpg"",""time"":553}]","[]",""
"image-keyboard-response","140","113201","0.0-5.0-1.68","62d06d1b651d6922f62fab9b","bdp_lott","Sat Mar 25 2023 21:42:36 GMT-0600 (Mountain Daylight Time)","264300","red","green","","350","","","","choice","","img/green_lw/choose11.jpg","1","157","green","0.5","0.5","0.5","l","","",""
"animation","141","113813","0.0-5.0-2.68","62d06d1b651d6922f62fab9b","bdp_lott","Sat Mar 25 2023 21:42:36 GMT-0600 (Mountain Daylight Time)","264300","red","green","","","","","","","","","","157","","","","","","[{""stimulus"":""img/green_lw/1.jpg"",""time"":59},{""stimulus"":""img/green_lw/2.jpg"",""time"":114},{""stimulus"":""img/green_lw/3.jpg"",""time"":162},{""stimulus"":""img/green_lw/4.jpg"",""time"":201},{""stimulus"":""img/green_lw/5.jpg"",""time"":252},{""stimulus"":""img/green_lw/6.jpg"",""time"":313},{""stimulus"":""img/green_lw/7.jpg"",""time"":362},{""stimulus"":""img/green_lw/8.jpg"",""time"":402},{""stimulus"":""img/green_lw/9.jpg"",""time"":462},{""stimulus"":""img/green_lw/10.jpg"",""time"":512},{""stimulus"":""img/green_lw/11.jpg"",""time"":550}]","[]",""
"image-keyboard-response","142","114001","0.0-5.0-1.69","62d06d1b651d6922f62fab9b","bdp_lott","Sat Mar 25 2023 21:42:36 GMT-0600 (Mountain Daylight Time)","264300","red","green","","187","","","","choice","","img/green_lw/choose11.jpg","2","156","red","0.5","0.5","0.5","l","","",""
"animation","143","114602","0.0-5.0-2.69","62d06d1b651d6922f62fab9b","bdp_lott","Sat Mar 25 2023 21:42:36 GMT-0600 (Mountain Daylight Time)","264300","red","green","","","","","","","","","","156","","","","","","[{""stimulus"":""img/red_ll/1.jpg"",""time"":52},{""stimulus"":""img/red_ll/2.jpg"",""time"":113},{""stimulus"":""img/red_ll/3.jpg"",""time"":161},{""stimulus"":""img/red_ll/4.jpg"",""time"":201},{""stimulus"":""img/red_ll/5.jpg"",""time"":261},{""stimulus"":""img/red_ll/6.jpg"",""time"":311},{""stimulus"":""img/red_ll/7.jpg"",""time"":351},{""stimulus"":""img/red_ll/8.jpg"",""time"":401},{""stimulus"":""img/red_ll/9.jpg"",""time"":461},{""stimulus"":""img/red_ll/10.jpg"",""time"":511},{""stimulus"":""img/red_ll/11.jpg"",""time"":551}]","[]",""
"image-keyboard-response","144","114716","0.0-5.0-1.70","62d06d1b651d6922f62fab9b","bdp_lott","Sat Mar 25 2023 21:42:36 GMT-0600 (Mountain Daylight Time)","264300","red","green","","112","","","","choice","","img/red_ll/choose11.jpg","2","155","red","0.5","0.5","0.5","l","","",""
"animation","145","115327","0.0-5.0-2.70","62d06d1b651d6922f62fab9b","bdp_lott","Sat Mar 25 2023 21:42:36 GMT-0600 (Mountain Daylight Time)","264300","red","green","","","","","","","","","","155","","","","","","[{""stimulus"":""img/red_ll/1.jpg"",""time"":59},{""stimulus"":""img/red_ll/2.jpg"",""time"":114},{""stimulus"":""img/red_ll/3.jpg"",""time"":163},{""stimulus"":""img/red_ll/4.jpg"",""time"":214},{""stimulus"":""img/red_ll/5.jpg"",""time"":264},{""stimulus"":""img/red_ll/6.jpg"",""time"":312},{""stimulus"":""img/red_ll/7.jpg"",""time"":351},{""stimulus"":""img/red_ll/8.jpg"",""time"":401},{""stimulus"":""img/red_ll/9.jpg"",""time"":464},{""stimulus"":""img/red_ll/10.jpg"",""time"":501},{""stimulus"":""img/red_ll/11.jpg"",""time"":551}]","[]",""
"image-keyboard-response","146","115448","0.0-5.0-1.71","62d06d1b651d6922f62fab9b","bdp_lott","Sat Mar 25 2023 21:42:36 GMT-0600 (Mountain Daylight Time)","264300","red","green","","120","","","","choice","","img/red_ll/choose11.jpg","2","154","red","0.5","0.5","0.5","w","","",""
"animation","147","116049","0.0-5.0-2.71","62d06d1b651d6922f62fab9b","bdp_lott","Sat Mar 25 2023 21:42:36 GMT-0600 (Mountain Daylight Time)","264300","red","green","","","","","","","","","","154","","","","","","[{""stimulus"":""img/red_lw/1.jpg"",""time"":56},{""stimulus"":""img/red_lw/2.jpg"",""time"":113},{""stimulus"":""img/red_lw/3.jpg"",""time"":163},{""stimulus"":""img/red_lw/4.jpg"",""time"":201},{""stimulus"":""img/red_lw/5.jpg"",""time"":263},{""stimulus"":""img/red_lw/6.jpg"",""time"":318},{""stimulus"":""img/red_lw/7.jpg"",""time"":357},{""stimulus"":""img/red_lw/8.jpg"",""time"":408},{""stimulus"":""img/red_lw/9.jpg"",""time"":462},{""stimulus"":""img/red_lw/10.jpg"",""time"":509},{""stimulus"":""img/red_lw/11.jpg"",""time"":552}]","[]",""
"image-keyboard-response","148","116114","0.0-5.0-1.72","62d06d1b651d6922f62fab9b","bdp_lott","Sat Mar 25 2023 21:42:36 GMT-0600 (Mountain Daylight Time)","264300","red","green","","64","","","","choice","","img/red_lw/choose11.jpg","2","153","red","0.5","0.5","0.5","l","","",""
"animation","149","116715","0.0-5.0-2.72","62d06d1b651d6922f62fab9b","bdp_lott","Sat Mar 25 2023 21:42:36 GMT-0600 (Mountain Daylight Time)","264300","red","green","","","","","","","","","","153","","","","","","[{""stimulus"":""img/red_ll/1.jpg"",""time"":61},{""stimulus"":""img/red_ll/2.jpg"",""time"":102},{""stimulus"":""img/red_ll/3.jpg"",""time"":151},{""stimulus"":""img/red_ll/4.jpg"",""time"":201},{""stimulus"":""img/red_ll/5.jpg"",""time"":251},{""stimulus"":""img/red_ll/6.jpg"",""time"":314},{""stimulus"":""img/red_ll/7.jpg"",""time"":351},{""stimulus"":""img/red_ll/8.jpg"",""time"":402},{""stimulus"":""img/red_ll/9.jpg"",""time"":451},{""stimulus"":""img/red_ll/10.jpg"",""time"":512},{""stimulus"":""img/red_ll/11.jpg"",""time"":552}]","[]",""
"image-keyboard-response","150","116744","0.0-5.0-1.73","62d06d1b651d6922f62fab9b","bdp_lott","Sat Mar 25 2023 21:42:36 GMT-0600 (Mountain Daylight Time)","264300","red","green","","28","","","","choice","","img/red_ll/choose11.jpg","1","152","green","0.5","0.5","0.5","w","","",""
"animation","151","117345","0.0-5.0-2.73","62d06d1b651d6922f62fab9b","bdp_lott","Sat Mar 25 2023 21:42:36 GMT-0600 (Mountain Daylight Time)","264300","red","green","","","","","","","","","","152","","","","","","[{""stimulus"":""img/green_wl/1.jpg"",""time"":67},{""stimulus"":""img/green_wl/2.jpg"",""time"":102},{""stimulus"":""img/green_wl/3.jpg"",""time"":166},{""stimulus"":""img/green_wl/4.jpg"",""time"":217},{""stimulus"":""img/green_wl/5.jpg"",""time"":265},{""stimulus"":""img/green_wl/6.jpg"",""time"":317},{""stimulus"":""img/green_wl/7.jpg"",""time"":352},{""stimulus"":""img/green_wl/8.jpg"",""time"":401},{""stimulus"":""img/green_wl/9.jpg"",""time"":452},{""stimulus"":""img/green_wl/10.jpg"",""time"":502},{""stimulus"":""img/green_wl/11.jpg"",""time"":566}]","[]",""
"image-keyboard-response","152","117444","0.0-5.0-1.74","62d06d1b651d6922f62fab9b","bdp_lott","Sat Mar 25 2023 21:42:36 GMT-0600 (Mountain Daylight Time)","264300","red","green","","97","","","","choice","","img/green_wl/choose11.jpg","1","151","green","0.5","0.5","0.5","w","","",""
"animation","153","118046","0.0-5.0-2.74","62d06d1b651d6922f62fab9b","bdp_lott","Sat Mar 25 2023 21:42:36 GMT-0600 (Mountain Daylight Time)","264300","red","green","","","","","","","","","","151","","","","","","[{""stimulus"":""img/green_wl/1.jpg"",""time"":61},{""stimulus"":""img/green_wl/2.jpg"",""time"":107},{""stimulus"":""img/green_wl/3.jpg"",""time"":166},{""stimulus"":""img/green_wl/4.jpg"",""time"":202},{""stimulus"":""img/green_wl/5.jpg"",""time"":266},{""stimulus"":""img/green_wl/6.jpg"",""time"":302},{""stimulus"":""img/green_wl/7.jpg"",""time"":351},{""stimulus"":""img/green_wl/8.jpg"",""time"":415},{""stimulus"":""img/green_wl/9.jpg"",""time"":451},{""stimulus"":""img/green_wl/10.jpg"",""time"":513},{""stimulus"":""img/green_wl/11.jpg"",""time"":563}]","[]",""
"image-keyboard-response","154","118322","0.0-5.0-1.75","62d06d1b651d6922f62fab9b","bdp_lott","Sat Mar 25 2023 21:42:36 GMT-0600 (Mountain Daylight Time)","264300","red","green","","275","","","","choice","","img/green_wl/choose11.jpg","2","150","red","0.5","0.5","0.5","w","","",""
"animation","155","118924","0.0-5.0-2.75","62d06d1b651d6922f62fab9b","bdp_lott","Sat Mar 25 2023 21:42:36 GMT-0600 (Mountain Daylight Time)","264300","red","green","","","","","","","","","","150","","","","","","[{""stimulus"":""img/red_ww/1.jpg"",""time"":56},{""stimulus"":""img/red_ww/2.jpg"",""time"":119},{""stimulus"":""img/red_ww/3.jpg"",""time"":152},{""stimulus"":""img/red_ww/4.jpg"",""time"":202},{""stimulus"":""img/red_ww/5.jpg"",""time"":252},{""stimulus"":""img/red_ww/6.jpg"",""time"":303},{""stimulus"":""img/red_ww/7.jpg"",""time"":352},{""stimulus"":""img/red_ww/8.jpg"",""time"":418},{""stimulus"":""img/red_ww/9.jpg"",""time"":452},{""stimulus"":""img/red_ww/10.jpg"",""time"":503},{""stimulus"":""img/red_ww/11.jpg"",""time"":552}]","[]",""
"image-keyboard-response","156","119405","0.0-5.0-1.76","62d06d1b651d6922f62fab9b","bdp_lott","Sat Mar 25 2023 21:42:36 GMT-0600 (Mountain Daylight Time)","264300","red","green","","480","","","","choice","","img/red_ww/choose11.jpg","2","149","red","0.5","0.1","0.5","w","","",""
"animation","157","120008","0.0-5.0-2.76","62d06d1b651d6922f62fab9b","bdp_lott","Sat Mar 25 2023 21:42:36 GMT-0600 (Mountain Daylight Time)","264300","red","green","","","","","","","","","","149","","","","","","[{""stimulus"":""img/red_ww/1.jpg"",""time"":53},{""stimulus"":""img/red_ww/2.jpg"",""time"":117},{""stimulus"":""img/red_ww/3.jpg"",""time"":151},{""stimulus"":""img/red_ww/4.jpg"",""time"":202},{""stimulus"":""img/red_ww/5.jpg"",""time"":265},{""stimulus"":""img/red_ww/6.jpg"",""time"":301},{""stimulus"":""img/red_ww/7.jpg"",""time"":352},{""stimulus"":""img/red_ww/8.jpg"",""time"":401},{""stimulus"":""img/red_ww/9.jpg"",""time"":451},{""stimulus"":""img/red_ww/10.jpg"",""time"":501},{""stimulus"":""img/red_ww/11.jpg"",""time"":564}]","[]",""
"image-keyboard-response","158","120230","0.0-5.0-1.77","62d06d1b651d6922f62fab9b","bdp_lott","Sat Mar 25 2023 21:42:36 GMT-0600 (Mountain Daylight Time)","264300","red","green","","220","","","","choice","","img/red_ww/choose11.jpg","1","148","green","0.5","0.1","0.1","l","","",""
"animation","159","120831","0.0-5.0-2.77","62d06d1b651d6922f62fab9b","bdp_lott","Sat Mar 25 2023 21:42:36 GMT-0600 (Mountain Daylight Time)","264300","red","green","","","","","","","","","","148","","","","","","[{""stimulus"":""img/green_lw/1.jpg"",""time"":61},{""stimulus"":""img/green_lw/2.jpg"",""time"":101},{""stimulus"":""img/green_lw/3.jpg"",""time"":157},{""stimulus"":""img/green_lw/4.jpg"",""time"":202},{""stimulus"":""img/green_lw/5.jpg"",""time"":250},{""stimulus"":""img/green_lw/6.jpg"",""time"":301},{""stimulus"":""img/green_lw/7.jpg"",""time"":351},{""stimulus"":""img/green_lw/8.jpg"",""time"":401},{""stimulus"":""img/green_lw/9.jpg"",""time"":451},{""stimulus"":""img/green_lw/10.jpg"",""time"":505},{""stimulus"":""img/green_lw/11.jpg"",""time"":557}]","[]",""
"image-keyboard-response","160","121142","0.0-5.0-1.78","62d06d1b651d6922f62fab9b","bdp_lott","Sat Mar 25 2023 21:42:36 GMT-0600 (Mountain Daylight Time)","264300","red","green","","308","","","","choice","","img/green_lw/choose11.jpg","2","147","red","0.5","0.1","0.5","w","","",""
"animation","161","121753","0.0-5.0-2.78","62d06d1b651d6922f62fab9b","bdp_lott","Sat Mar 25 2023 21:42:36 GMT-0600 (Mountain Daylight Time)","264300","red","green","","","","","","","","","","147","","","","","","[{""stimulus"":""img/red_lw/1.jpg"",""time"":59},{""stimulus"":""img/red_lw/2.jpg"",""time"":112},{""stimulus"":""img/red_lw/3.jpg"",""time"":161},{""stimulus"":""img/red_lw/4.jpg"",""time"":212},{""stimulus"":""img/red_lw/5.jpg"",""time"":262},{""stimulus"":""img/red_lw/6.jpg"",""time"":312},{""stimulus"":""img/red_lw/7.jpg"",""time"":361},{""stimulus"":""img/red_lw/8.jpg"",""time"":411},{""stimulus"":""img/red_lw/9.jpg"",""time"":462},{""stimulus"":""img/red_lw/10.jpg"",""time"":528},{""stimulus"":""img/red_lw/11.jpg"",""time"":551}]","[]",""
"image-keyboard-response","162","122239","0.0-5.0-1.79","62d06d1b651d6922f62fab9b","bdp_lott","Sat Mar 25 2023 21:42:36 GMT-0600 (Mountain Daylight Time)","264300","red","green","","484","","","","choice","","img/red_lw/choose11.jpg","2","146","red","0.5","0.1","0.5","w","","",""
"animation","163","122850","0.0-5.0-2.79","62d06d1b651d6922f62fab9b","bdp_lott","Sat Mar 25 2023 21:42:36 GMT-0600 (Mountain Daylight Time)","264300","red","green","","","","","","","","","","146","","","","","","[{""stimulus"":""img/red_lw/1.jpg"",""time"":64},{""stimulus"":""img/red_lw/2.jpg"",""time"":100},{""stimulus"":""img/red_lw/3.jpg"",""time"":151},{""stimulus"":""img/red_lw/4.jpg"",""time"":210},{""stimulus"":""img/red_lw/5.jpg"",""time"":251},{""stimulus"":""img/red_lw/6.jpg"",""time"":301},{""stimulus"":""img/red_lw/7.jpg"",""time"":359},{""stimulus"":""img/red_lw/8.jpg"",""time"":402},{""stimulus"":""img/red_lw/9.jpg"",""time"":452},{""stimulus"":""img/red_lw/10.jpg"",""time"":501},{""stimulus"":""img/red_lw/11.jpg"",""time"":552}]","[]",""
"image-keyboard-response","164","123354","0.0-5.0-1.80","62d06d1b651d6922f62fab9b","bdp_lott","Sat Mar 25 2023 21:42:36 GMT-0600 (Mountain Daylight Time)","264300","red","green","","502","","","","choice","","img/red_lw/choose11.jpg","2","145","red","0.5","0.1","0.5","w","","",""
"animation","165","123955","0.0-5.0-2.80","62d06d1b651d6922f62fab9b","bdp_lott","Sat Mar 25 2023 21:42:36 GMT-0600 (Mountain Daylight Time)","264300","red","green","","","","","","","","","","145","","","","","","[{""stimulus"":""img/red_lw/1.jpg"",""time"":57},{""stimulus"":""img/red_lw/2.jpg"",""time"":109},{""stimulus"":""img/red_lw/3.jpg"",""time"":162},{""stimulus"":""img/red_lw/4.jpg"",""time"":211},{""stimulus"":""img/red_lw/5.jpg"",""time"":260},{""stimulus"":""img/red_lw/6.jpg"",""time"":301},{""stimulus"":""img/red_lw/7.jpg"",""time"":351},{""stimulus"":""img/red_lw/8.jpg"",""time"":410},{""stimulus"":""img/red_lw/9.jpg"",""time"":463},{""stimulus"":""img/red_lw/10.jpg"",""time"":528},{""stimulus"":""img/red_lw/11.jpg"",""time"":551}]","[]",""
"image-keyboard-response","166","124316","0.0-5.0-1.81","62d06d1b651d6922f62fab9b","bdp_lott","Sat Mar 25 2023 21:42:36 GMT-0600 (Mountain Daylight Time)","264300","red","green","","360","","","","choice","","img/red_lw/choose11.jpg","2","144","red","0.5","0.1","0.5","w","","",""
"animation","167","124917","0.0-5.0-2.81","62d06d1b651d6922f62fab9b","bdp_lott","Sat Mar 25 2023 21:42:36 GMT-0600 (Mountain Daylight Time)","264300","red","green","","","","","","","","","","144","","","","","","[{""stimulus"":""img/red_lw/1.jpg"",""time"":61},{""stimulus"":""img/red_lw/2.jpg"",""time"":109},{""stimulus"":""img/red_lw/3.jpg"",""time"":151},{""stimulus"":""img/red_lw/4.jpg"",""time"":216},{""stimulus"":""img/red_lw/5.jpg"",""time"":251},{""stimulus"":""img/red_lw/6.jpg"",""time"":313},{""stimulus"":""img/red_lw/7.jpg"",""time"":351},{""stimulus"":""img/red_lw/8.jpg"",""time"":416},{""stimulus"":""img/red_lw/9.jpg"",""time"":452},{""stimulus"":""img/red_lw/10.jpg"",""time"":516},{""stimulus"":""img/red_lw/11.jpg"",""time"":552}]","[]",""
"image-keyboard-response","168","125123","0.0-5.0-1.82","62d06d1b651d6922f62fab9b","bdp_lott","Sat Mar 25 2023 21:42:36 GMT-0600 (Mountain Daylight Time)","264300","red","green","","204","","","","choice","","img/red_lw/choose11.jpg","1","143","green","0.5","0.1","0.1","l","","",""
"animation","169","125725","0.0-5.0-2.82","62d06d1b651d6922f62fab9b","bdp_lott","Sat Mar 25 2023 21:42:36 GMT-0600 (Mountain Daylight Time)","264300","red","green","","","","","","","","","","143","","","","","","[{""stimulus"":""img/green_lw/1.jpg"",""time"":63},{""stimulus"":""img/green_lw/2.jpg"",""time"":102},{""stimulus"":""img/green_lw/3.jpg"",""time"":158},{""stimulus"":""img/green_lw/4.jpg"",""time"":202},{""stimulus"":""img/green_lw/5.jpg"",""time"":259},{""stimulus"":""img/green_lw/6.jpg"",""time"":324},{""stimulus"":""img/green_lw/7.jpg"",""time"":352},{""stimulus"":""img/green_lw/8.jpg"",""time"":407},{""stimulus"":""img/green_lw/9.jpg"",""time"":451},{""stimulus"":""img/green_lw/10.jpg"",""time"":507},{""stimulus"":""img/green_lw/11.jpg"",""time"":552}]","[]",""
"image-keyboard-response","170","126017","0.0-5.0-1.83","62d06d1b651d6922f62fab9b","bdp_lott","Sat Mar 25 2023 21:42:36 GMT-0600 (Mountain Daylight Time)","264300","red","green","","291","","","","choice","","img/green_lw/choose11.jpg","1","142","green","0.5","0.1","0.1","l","","",""
"animation","171","126619","0.0-5.0-2.83","62d06d1b651d6922f62fab9b","bdp_lott","Sat Mar 25 2023 21:42:36 GMT-0600 (Mountain Daylight Time)","264300","red","green","","","","","","","","","","142","","","","","","[{""stimulus"":""img/green_lw/1.jpg"",""time"":63},{""stimulus"":""img/green_lw/2.jpg"",""time"":112},{""stimulus"":""img/green_lw/3.jpg"",""time"":152},{""stimulus"":""img/green_lw/4.jpg"",""time"":202},{""stimulus"":""img/green_lw/5.jpg"",""time"":252},{""stimulus"":""img/green_lw/6.jpg"",""time"":302},{""stimulus"":""img/green_lw/7.jpg"",""time"":352},{""stimulus"":""img/green_lw/8.jpg"",""time"":410},{""stimulus"":""img/green_lw/9.jpg"",""time"":452},{""stimulus"":""img/green_lw/10.jpg"",""time"":509},{""stimulus"":""img/green_lw/11.jpg"",""time"":561}]","[]",""
"image-keyboard-response","172","126732","0.0-5.0-1.84","62d06d1b651d6922f62fab9b","bdp_lott","Sat Mar 25 2023 21:42:36 GMT-0600 (Mountain Daylight Time)","264300","red","green","","111","","","","choice","","img/green_lw/choose11.jpg","1","141","green","0.5","0.1","0.1","l","","",""
"animation","173","127343","0.0-5.0-2.84","62d06d1b651d6922f62fab9b","bdp_lott","Sat Mar 25 2023 21:42:36 GMT-0600 (Mountain Daylight Time)","264300","red","green","","","","","","","","","","141","","","","","","[{""stimulus"":""img/green_lw/1.jpg"",""time"":57},{""stimulus"":""img/green_lw/2.jpg"",""time"":103},{""stimulus"":""img/green_lw/3.jpg"",""time"":151},{""stimulus"":""img/green_lw/4.jpg"",""time"":201},{""stimulus"":""img/green_lw/5.jpg"",""time"":262},{""stimulus"":""img/green_lw/6.jpg"",""time"":301},{""stimulus"":""img/green_lw/7.jpg"",""time"":352},{""stimulus"":""img/green_lw/8.jpg"",""time"":401},{""stimulus"":""img/green_lw/9.jpg"",""time"":451},{""stimulus"":""img/green_lw/10.jpg"",""time"":509},{""stimulus"":""img/green_lw/11.jpg"",""time"":560}]","[]",""
"image-keyboard-response","174","127527","0.0-5.0-1.85","62d06d1b651d6922f62fab9b","bdp_lott","Sat Mar 25 2023 21:42:36 GMT-0600 (Mountain Daylight Time)","264300","red","green","","183","","","","choice","","img/green_lw/choose11.jpg","1","140","green","0.5","0.1","0.1","l","","",""
"animation","175","128141","0.0-5.0-2.85","62d06d1b651d6922f62fab9b","bdp_lott","Sat Mar 25 2023 21:42:36 GMT-0600 (Mountain Daylight Time)","264300","red","green","","","","","","","","","","140","","","","","","[{""stimulus"":""img/green_lw/1.jpg"",""time"":57},{""stimulus"":""img/green_lw/2.jpg"",""time"":117},{""stimulus"":""img/green_lw/3.jpg"",""time"":152},{""stimulus"":""img/green_lw/4.jpg"",""time"":201},{""stimulus"":""img/green_lw/5.jpg"",""time"":252},{""stimulus"":""img/green_lw/6.jpg"",""time"":302},{""stimulus"":""img/green_lw/7.jpg"",""time"":351},{""stimulus"":""img/green_lw/8.jpg"",""time"":402},{""stimulus"":""img/green_lw/9.jpg"",""time"":466},{""stimulus"":""img/green_lw/10.jpg"",""time"":516},{""stimulus"":""img/green_lw/11.jpg"",""time"":551}]","[]",""
"image-keyboard-response","176","128235","0.0-5.0-1.86","62d06d1b651d6922f62fab9b","bdp_lott","Sat Mar 25 2023 21:42:36 GMT-0600 (Mountain Daylight Time)","264300","red","green","","91","","","","choice","","img/green_lw/choose11.jpg","1","139","green","0.5","0.1","0.1","l","","",""
"animation","177","128836","0.0-5.0-2.86","62d06d1b651d6922f62fab9b","bdp_lott","Sat Mar 25 2023 21:42:36 GMT-0600 (Mountain Daylight Time)","264300","red","green","","","","","","","","","","139","","","","","","[{""stimulus"":""img/green_lw/1.jpg"",""time"":53},{""stimulus"":""img/green_lw/2.jpg"",""time"":125},{""stimulus"":""img/green_lw/3.jpg"",""time"":152},{""stimulus"":""img/green_lw/4.jpg"",""time"":208},{""stimulus"":""img/green_lw/5.jpg"",""time"":252},{""stimulus"":""img/green_lw/6.jpg"",""time"":305},{""stimulus"":""img/green_lw/7.jpg"",""time"":351},{""stimulus"":""img/green_lw/8.jpg"",""time"":407},{""stimulus"":""img/green_lw/9.jpg"",""time"":452},{""stimulus"":""img/green_lw/10.jpg"",""time"":508},{""stimulus"":""img/green_lw/11.jpg"",""time"":552}]","[]",""
"image-keyboard-response","178","128952","0.0-5.0-1.87","62d06d1b651d6922f62fab9b","bdp_lott","Sat Mar 25 2023 21:42:36 GMT-0600 (Mountain Daylight Time)","264300","red","green","","113","","","","choice","","img/green_lw/choose11.jpg","1","138","green","0.5","0.1","0.1","l","","",""
"animation","179","129553","0.0-5.0-2.87","62d06d1b651d6922f62fab9b","bdp_lott","Sat Mar 25 2023 21:42:36 GMT-0600 (Mountain Daylight Time)","264300","red","green","","","","","","","","","","138","","","","","","[{""stimulus"":""img/green_lw/1.jpg"",""time"":67},{""stimulus"":""img/green_lw/2.jpg"",""time"":107},{""stimulus"":""img/green_lw/3.jpg"",""time"":152},{""stimulus"":""img/green_lw/4.jpg"",""time"":224},{""stimulus"":""img/green_lw/5.jpg"",""time"":251},{""stimulus"":""img/green_lw/6.jpg"",""time"":306},{""stimulus"":""img/green_lw/7.jpg"",""time"":352},{""stimulus"":""img/green_lw/8.jpg"",""time"":406},{""stimulus"":""img/green_lw/9.jpg"",""time"":452},{""stimulus"":""img/green_lw/10.jpg"",""time"":506},{""stimulus"":""img/green_lw/11.jpg"",""time"":551}]","[]",""
"image-keyboard-response","180","130501","0.0-5.0-1.88","62d06d1b651d6922f62fab9b","bdp_lott","Sat Mar 25 2023 21:42:36 GMT-0600 (Mountain Daylight Time)","264300","red","green","","946","","","","choice","","img/green_lw/choose11.jpg","1","137","green","0.5","0.1","0.1","l","","",""
"animation","181","131104","0.0-5.0-2.88","62d06d1b651d6922f62fab9b","bdp_lott","Sat Mar 25 2023 21:42:36 GMT-0600 (Mountain Daylight Time)","264300","red","green","","","","","","","","","","137","","","","","","[{""stimulus"":""img/green_lw/1.jpg"",""time"":61},{""stimulus"":""img/green_lw/2.jpg"",""time"":122},{""stimulus"":""img/green_lw/3.jpg"",""time"":152},{""stimulus"":""img/green_lw/4.jpg"",""time"":202},{""stimulus"":""img/green_lw/5.jpg"",""time"":253},{""stimulus"":""img/green_lw/6.jpg"",""time"":304},{""stimulus"":""img/green_lw/7.jpg"",""time"":355},{""stimulus"":""img/green_lw/8.jpg"",""time"":405},{""stimulus"":""img/green_lw/9.jpg"",""time"":455},{""stimulus"":""img/green_lw/10.jpg"",""time"":505},{""stimulus"":""img/green_lw/11.jpg"",""time"":555}]","[]",""
"image-keyboard-response","182","131270","0.0-5.0-1.89","62d06d1b651d6922f62fab9b","bdp_lott","Sat Mar 25 2023 21:42:36 GMT-0600 (Mountain Daylight Time)","264300","red","green","","164","","","","choice","","img/green_lw/choose11.jpg","1","136","green","0.5","0.1","0.1","l","","",""
"animation","183","131871","0.0-5.0-2.89","62d06d1b651d6922f62fab9b","bdp_lott","Sat Mar 25 2023 21:42:36 GMT-0600 (Mountain Daylight Time)","264300","red","green","","","","","","","","","","136","","","","","","[{""stimulus"":""img/green_lw/1.jpg"",""time"":58},{""stimulus"":""img/green_lw/2.jpg"",""time"":117},{""stimulus"":""img/green_lw/3.jpg"",""time"":151},{""stimulus"":""img/green_lw/4.jpg"",""time"":202},{""stimulus"":""img/green_lw/5.jpg"",""time"":251},{""stimulus"":""img/green_lw/6.jpg"",""time"":301},{""stimulus"":""img/green_lw/7.jpg"",""time"":352},{""stimulus"":""img/green_lw/8.jpg"",""time"":402},{""stimulus"":""img/green_lw/9.jpg"",""time"":452},{""stimulus"":""img/green_lw/10.jpg"",""time"":501},{""stimulus"":""img/green_lw/11.jpg"",""time"":551}]","[]",""
"image-keyboard-response","184","131978","0.0-5.0-1.90","62d06d1b651d6922f62fab9b","bdp_lott","Sat Mar 25 2023 21:42:36 GMT-0600 (Mountain Daylight Time)","264300","red","green","","106","","","","choice","","img/green_lw/choose11.jpg","2","135","red","0.5","0.1","0.5","w","","",""
"animation","185","132579","0.0-5.0-2.90","62d06d1b651d6922f62fab9b","bdp_lott","Sat Mar 25 2023 21:42:36 GMT-0600 (Mountain Daylight Time)","264300","red","green","","","","","","","","","","135","","","","","","[{""stimulus"":""img/red_lw/1.jpg"",""time"":53},{""stimulus"":""img/red_lw/2.jpg"",""time"":102},{""stimulus"":""img/red_lw/3.jpg"",""time"":151},{""stimulus"":""img/red_lw/4.jpg"",""time"":201},{""stimulus"":""img/red_lw/5.jpg"",""time"":252},{""stimulus"":""img/red_lw/6.jpg"",""time"":302},{""stimulus"":""img/red_lw/7.jpg"",""time"":351},{""stimulus"":""img/red_lw/8.jpg"",""time"":401},{""stimulus"":""img/red_lw/9.jpg"",""time"":452},{""stimulus"":""img/red_lw/10.jpg"",""time"":507},{""stimulus"":""img/red_lw/11.jpg"",""time"":551}]","[]",""
"image-keyboard-response","186","132608","0.0-5.0-1.91","62d06d1b651d6922f62fab9b","bdp_lott","Sat Mar 25 2023 21:42:36 GMT-0600 (Mountain Daylight Time)","264300","red","green","","27","","","","choice","","img/red_lw/choose11.jpg","2","134","red","0.5","0.1","0.5","l","","",""
"animation","187","133218","0.0-5.0-2.91","62d06d1b651d6922f62fab9b","bdp_lott","Sat Mar 25 2023 21:42:36 GMT-0600 (Mountain Daylight Time)","264300","red","green","","","","","","","","","","134","","","","","","[{""stimulus"":""img/red_ll/1.jpg"",""time"":59},{""stimulus"":""img/red_ll/2.jpg"",""time"":111},{""stimulus"":""img/red_ll/3.jpg"",""time"":151},{""stimulus"":""img/red_ll/4.jpg"",""time"":202},{""stimulus"":""img/red_ll/5.jpg"",""time"":261},{""stimulus"":""img/red_ll/6.jpg"",""time"":302},{""stimulus"":""img/red_ll/7.jpg"",""time"":376},{""stimulus"":""img/red_ll/8.jpg"",""time"":401},{""stimulus"":""img/red_ll/9.jpg"",""time"":460},{""stimulus"":""img/red_ll/10.jpg"",""time"":510},{""stimulus"":""img/red_ll/11.jpg"",""time"":557}]","[]",""
"image-keyboard-response","188","133687","0.0-5.0-1.92","62d06d1b651d6922f62fab9b","bdp_lott","Sat Mar 25 2023 21:42:36 GMT-0600 (Mountain Daylight Time)","264300","red","green","","467","","","","choice","","img/red_ll/choose11.jpg","2","133","red","0.5","0.1","0.5","w","","",""
"animation","189","134289","0.0-5.0-2.92","62d06d1b651d6922f62fab9b","bdp_lott","Sat Mar 25 2023 21:42:36 GMT-0600 (Mountain Daylight Time)","264300","red","green","","","","","","","","","","133","","","","","","[{""stimulus"":""img/red_lw/1.jpg"",""time"":52},{""stimulus"":""img/red_lw/2.jpg"",""time"":113},{""stimulus"":""img/red_lw/3.jpg"",""time"":152},{""stimulus"":""img/red_lw/4.jpg"",""time"":211},{""stimulus"":""img/red_lw/5.jpg"",""time"":263},{""stimulus"":""img/red_lw/6.jpg"",""time"":301},{""stimulus"":""img/red_lw/7.jpg"",""time"":362},{""stimulus"":""img/red_lw/8.jpg"",""time"":402},{""stimulus"":""img/red_lw/9.jpg"",""time"":451},{""stimulus"":""img/red_lw/10.jpg"",""time"":502},{""stimulus"":""img/red_lw/11.jpg"",""time"":551}]","[]",""
"image-keyboard-response","190","134989","0.0-5.0-1.93","62d06d1b651d6922f62fab9b","bdp_lott","Sat Mar 25 2023 21:42:36 GMT-0600 (Mountain Daylight Time)","264300","red","green","","697","","","","choice","","img/red_lw/choose11.jpg","2","132","red","0.5","0.1","0.5","w","","",""
