"trial_type","trial_index","time_elapsed","internal_node_id","subject_id","task","startTime","totalTime","fairMachine","unfairMachine","view_history","rt","event","trial","time","trialtype","success","stimulus","key_press","roundsLeft","chosen","pFairMachWin","pUnfairMachWin","pTrialWin","outcome","animation_sequence","responses"
"pavlovia","0","2","0.0-0.0","5c4275e526217400018bf1b4","bdp_lott","Sat Mar 25 2023 17:30:21 GMT-0600 (Mountain Daylight Time)","336638","green","red","","","","","","","","","","","","","","","","",""
"instructions","1","3379","0.0-1.0","5c4275e526217400018bf1b4","bdp_lott","Sat Mar 25 2023 17:30:21 GMT-0600 (Mountain Daylight Time)","336638","green","red","[{""page_index"":0,""viewing_time"":3377}]","3377","","","","","","","","","","","","","","",""
"","","","","5c4275e526217400018bf1b4","bdp_lott","Sat Mar 25 2023 17:30:21 GMT-0600 (Mountain Daylight Time)","336638","green","red","","","fullscreenenter","2","6797","fullscreenenter","","","","","","","","","","",""
"fullscreen","2","7767","0.0-2.0","5c4275e526217400018bf1b4","bdp_lott","Sat Mar 25 2023 17:30:21 GMT-0600 (Mountain Daylight Time)","336638","green","red","","","","","","","true","","","","","","","","","",""
"instructions","3","41273","0.0-4.0","5c4275e526217400018bf1b4","bdp_lott","Sat Mar 25 2023 17:30:21 GMT-0600 (Mountain Daylight Time)","336638","green","red","[{""page_index"":0,""viewing_time"":33505}]","33505","","","","","","","","","","","","","","",""
"image-keyboard-response","4","44324","0.0-5.0-1.0","5c4275e526217400018bf1b4","bdp_lott","Sat Mar 25 2023 17:30:21 GMT-0600 (Mountain Daylight Time)","336638","green","red","","3050","","","","choice","","img/red_ll/initchoose11.jpg","1","225","green","0.5","0.5","0.5","w","",""
"animation","5","44925","0.0-5.0-2.0","5c4275e526217400018bf1b4","bdp_lott","Sat Mar 25 2023 17:30:21 GMT-0600 (Mountain Daylight Time)","336638","green","red","","","","","","","","","","225","","","","","","[{""stimulus"":""img/green_wl/1.jpg"",""time"":50},{""stimulus"":""img/green_wl/2.jpg"",""time"":100},{""stimulus"":""img/green_wl/3.jpg"",""time"":150},{""stimulus"":""img/green_wl/4.jpg"",""time"":200},{""stimulus"":""img/green_wl/5.jpg"",""time"":250},{""stimulus"":""img/green_wl/6.jpg"",""time"":300},{""stimulus"":""img/green_wl/7.jpg"",""time"":351},{""stimulus"":""img/green_wl/8.jpg"",""time"":400},{""stimulus"":""img/green_wl/9.jpg"",""time"":450},{""stimulus"":""img/green_wl/10.jpg"",""time"":500},{""stimulus"":""img/green_wl/11.jpg"",""time"":550}]","[]"
"image-keyboard-response","6","47018","0.0-5.0-1.1","5c4275e526217400018bf1b4","bdp_lott","Sat Mar 25 2023 17:30:21 GMT-0600 (Mountain Daylight Time)","336638","green","red","","2092","","","","choice","","img/green_wl/choose11.jpg","1","224","green","0.5","0.5","0.5","l","",""
"animation","7","47619","0.0-5.0-2.1","5c4275e526217400018bf1b4","bdp_lott","Sat Mar 25 2023 17:30:21 GMT-0600 (Mountain Daylight Time)","336638","green","red","","","","","","","","","","224","","","","","","[{""stimulus"":""img/green_ll/1.jpg"",""time"":52},{""stimulus"":""img/green_ll/2.jpg"",""time"":101},{""stimulus"":""img/green_ll/3.jpg"",""time"":152},{""stimulus"":""img/green_ll/4.jpg"",""time"":201},{""stimulus"":""img/green_ll/5.jpg"",""time"":251},{""stimulus"":""img/green_ll/6.jpg"",""time"":302},{""stimulus"":""img/green_ll/7.jpg"",""time"":351},{""stimulus"":""img/green_ll/8.jpg"",""time"":402},{""stimulus"":""img/green_ll/9.jpg"",""time"":451},{""stimulus"":""img/green_ll/10.jpg"",""time"":501},{""stimulus"":""img/green_ll/11.jpg"",""time"":551}]","[]"
"image-keyboard-response","8","48708","0.0-5.0-1.2","5c4275e526217400018bf1b4","bdp_lott","Sat Mar 25 2023 17:30:21 GMT-0600 (Mountain Daylight Time)","336638","green","red","","1089","","","","choice","","img/green_ll/choose11.jpg","1","223","green","0.5","0.5","0.5","l","",""
"animation","9","49308","0.0-5.0-2.2","5c4275e526217400018bf1b4","bdp_lott","Sat Mar 25 2023 17:30:21 GMT-0600 (Mountain Daylight Time)","336638","green","red","","","","","","","","","","223","","","","","","[{""stimulus"":""img/green_ll/1.jpg"",""time"":52},{""stimulus"":""img/green_ll/2.jpg"",""time"":101},{""stimulus"":""img/green_ll/3.jpg"",""time"":151},{""stimulus"":""img/green_ll/4.jpg"",""time"":202},{""stimulus"":""img/green_ll/5.jpg"",""time"":251},{""stimulus"":""img/green_ll/6.jpg"",""time"":301},{""stimulus"":""img/green_ll/7.jpg"",""time"":352},{""stimulus"":""img/green_ll/8.jpg"",""time"":400},{""stimulus"":""img/green_ll/9.jpg"",""time"":450},{""stimulus"":""img/green_ll/10.jpg"",""time"":501},{""stimulus"":""img/green_ll/11.jpg"",""time"":551}]","[]"
"image-keyboard-response","10","50248","0.0-5.0-1.3","5c4275e526217400018bf1b4","bdp_lott","Sat Mar 25 2023 17:30:21 GMT-0600 (Mountain Daylight Time)","336638","green","red","","939","","","","choice","","img/green_ll/choose11.jpg","2","222","red","0.5","0.5","0.5","l","",""
"animation","11","50849","0.0-5.0-2.3","5c4275e526217400018bf1b4","bdp_lott","Sat Mar 25 2023 17:30:21 GMT-0600 (Mountain Daylight Time)","336638","green","red","","","","","","","","","","222","","","","","","[{""stimulus"":""img/red_ll/1.jpg"",""time"":51},{""stimulus"":""img/red_ll/2.jpg"",""time"":101},{""stimulus"":""img/red_ll/3.jpg"",""time"":151},{""stimulus"":""img/red_ll/4.jpg"",""time"":201},{""stimulus"":""img/red_ll/5.jpg"",""time"":252},{""stimulus"":""img/red_ll/6.jpg"",""time"":302},{""stimulus"":""img/red_ll/7.jpg"",""time"":351},{""stimulus"":""img/red_ll/8.jpg"",""time"":402},{""stimulus"":""img/red_ll/9.jpg"",""time"":451},{""stimulus"":""img/red_ll/10.jpg"",""time"":501},{""stimulus"":""img/red_ll/11.jpg"",""time"":551}]","[]"
"image-keyboard-response","12","51369","0.0-5.0-1.4","5c4275e526217400018bf1b4","bdp_lott","Sat Mar 25 2023 17:30:21 GMT-0600 (Mountain Daylight Time)","336638","green","red","","519","","","","choice","","img/red_ll/choose11.jpg","2","221","red","0.5","0.5","0.5","w","",""
"animation","13","51970","0.0-5.0-2.4","5c4275e526217400018bf1b4","bdp_lott","Sat Mar 25 2023 17:30:21 GMT-0600 (Mountain Daylight Time)","336638","green","red","","","","","","","","","","221","","","","","","[{""stimulus"":""img/red_lw/1.jpg"",""time"":51},{""stimulus"":""img/red_lw/2.jpg"",""time"":100},{""stimulus"":""img/red_lw/3.jpg"",""time"":150},{""stimulus"":""img/red_lw/4.jpg"",""time"":200},{""stimulus"":""img/red_lw/5.jpg"",""time"":251},{""stimulus"":""img/red_lw/6.jpg"",""time"":300},{""stimulus"":""img/red_lw/7.jpg"",""time"":351},{""stimulus"":""img/red_lw/8.jpg"",""time"":400},{""stimulus"":""img/red_lw/9.jpg"",""time"":451},{""stimulus"":""img/red_lw/10.jpg"",""time"":501},{""stimulus"":""img/red_lw/11.jpg"",""time"":551}]","[]"
"image-keyboard-response","14","53970","0.0-5.0-1.5","5c4275e526217400018bf1b4","bdp_lott","Sat Mar 25 2023 17:30:21 GMT-0600 (Mountain Daylight Time)","336638","green","red","","1999","","","","choice","","img/red_lw/choose11.jpg","2","220","red","0.5","0.5","0.5","w","",""
"animation","15","54571","0.0-5.0-2.5","5c4275e526217400018bf1b4","bdp_lott","Sat Mar 25 2023 17:30:21 GMT-0600 (Mountain Daylight Time)","336638","green","red","","","","","","","","","","220","","","","","","[{""stimulus"":""img/red_lw/1.jpg"",""time"":50},{""stimulus"":""img/red_lw/2.jpg"",""time"":100},{""stimulus"":""img/red_lw/3.jpg"",""time"":150},{""stimulus"":""img/red_lw/4.jpg"",""time"":201},{""stimulus"":""img/red_lw/5.jpg"",""time"":251},{""stimulus"":""img/red_lw/6.jpg"",""time"":302},{""stimulus"":""img/red_lw/7.jpg"",""time"":352},{""stimulus"":""img/red_lw/8.jpg"",""time"":401},{""stimulus"":""img/red_lw/9.jpg"",""time"":451},{""stimulus"":""img/red_lw/10.jpg"",""time"":502},{""stimulus"":""img/red_lw/11.jpg"",""time"":551}]","[]"
"image-keyboard-response","16","55411","0.0-5.0-1.6","5c4275e526217400018bf1b4","bdp_lott","Sat Mar 25 2023 17:30:21 GMT-0600 (Mountain Daylight Time)","336638","green","red","","840","","","","choice","","img/red_lw/choose11.jpg","2","219","red","0.5","0.5","0.5","l","",""
"animation","17","56011","0.0-5.0-2.6","5c4275e526217400018bf1b4","bdp_lott","Sat Mar 25 2023 17:30:21 GMT-0600 (Mountain Daylight Time)","336638","green","red","","","","","","","","","","219","","","","","","[{""stimulus"":""img/red_ll/1.jpg"",""time"":51},{""stimulus"":""img/red_ll/2.jpg"",""time"":101},{""stimulus"":""img/red_ll/3.jpg"",""time"":151},{""stimulus"":""img/red_ll/4.jpg"",""time"":201},{""stimulus"":""img/red_ll/5.jpg"",""time"":251},{""stimulus"":""img/red_ll/6.jpg"",""time"":301},{""stimulus"":""img/red_ll/7.jpg"",""time"":351},{""stimulus"":""img/red_ll/8.jpg"",""time"":401},{""stimulus"":""img/red_ll/9.jpg"",""time"":451},{""stimulus"":""img/red_ll/10.jpg"",""time"":502},{""stimulus"":""img/red_ll/11.jpg"",""time"":551}]","[]"
"image-keyboard-response","18","56911","0.0-5.0-1.7","5c4275e526217400018bf1b4","bdp_lott","Sat Mar 25 2023 17:30:21 GMT-0600 (Mountain Daylight Time)","336638","green","red","","899","","","","choice","","img/red_ll/choose11.jpg","2","218","red","0.5","0.5","0.5","w","",""
"animation","19","57512","0.0-5.0-2.7","5c4275e526217400018bf1b4","bdp_lott","Sat Mar 25 2023 17:30:21 GMT-0600 (Mountain Daylight Time)","336638","green","red","","","","","","","","","","218","","","","","","[{""stimulus"":""img/red_lw/1.jpg"",""time"":52},{""stimulus"":""img/red_lw/2.jpg"",""time"":101},{""stimulus"":""img/red_lw/3.jpg"",""time"":152},{""stimulus"":""img/red_lw/4.jpg"",""time"":202},{""stimulus"":""img/red_lw/5.jpg"",""time"":252},{""stimulus"":""img/red_lw/6.jpg"",""time"":301},{""stimulus"":""img/red_lw/7.jpg"",""time"":351},{""stimulus"":""img/red_lw/8.jpg"",""time"":402},{""stimulus"":""img/red_lw/9.jpg"",""time"":451},{""stimulus"":""img/red_lw/10.jpg"",""time"":502},{""stimulus"":""img/red_lw/11.jpg"",""time"":552}]","[]"
"image-keyboard-response","20","58562","0.0-5.0-1.8","5c4275e526217400018bf1b4","bdp_lott","Sat Mar 25 2023 17:30:21 GMT-0600 (Mountain Daylight Time)","336638","green","red","","1049","","","","choice","","img/red_lw/choose11.jpg","2","217","red","0.5","0.5","0.5","w","",""
"animation","21","59163","0.0-5.0-2.8","5c4275e526217400018bf1b4","bdp_lott","Sat Mar 25 2023 17:30:21 GMT-0600 (Mountain Daylight Time)","336638","green","red","","","","","","","","","","217","","","","","","[{""stimulus"":""img/red_lw/1.jpg"",""time"":52},{""stimulus"":""img/red_lw/2.jpg"",""time"":101},{""stimulus"":""img/red_lw/3.jpg"",""time"":152},{""stimulus"":""img/red_lw/4.jpg"",""time"":202},{""stimulus"":""img/red_lw/5.jpg"",""time"":251},{""stimulus"":""img/red_lw/6.jpg"",""time"":302},{""stimulus"":""img/red_lw/7.jpg"",""time"":351},{""stimulus"":""img/red_lw/8.jpg"",""time"":401},{""stimulus"":""img/red_lw/9.jpg"",""time"":451},{""stimulus"":""img/red_lw/10.jpg"",""time"":502},{""stimulus"":""img/red_lw/11.jpg"",""time"":551}]","[]"
"image-keyboard-response","22","59832","0.0-5.0-1.9","5c4275e526217400018bf1b4","bdp_lott","Sat Mar 25 2023 17:30:21 GMT-0600 (Mountain Daylight Time)","336638","green","red","","668","","","","choice","","img/red_lw/choose11.jpg","2","216","red","0.5","0.5","0.5","w","",""
"animation","23","60433","0.0-5.0-2.9","5c4275e526217400018bf1b4","bdp_lott","Sat Mar 25 2023 17:30:21 GMT-0600 (Mountain Daylight Time)","336638","green","red","","","","","","","","","","216","","","","","","[{""stimulus"":""img/red_lw/1.jpg"",""time"":52},{""stimulus"":""img/red_lw/2.jpg"",""time"":101},{""stimulus"":""img/red_lw/3.jpg"",""time"":151},{""stimulus"":""img/red_lw/4.jpg"",""time"":202},{""stimulus"":""img/red_lw/5.jpg"",""time"":251},{""stimulus"":""img/red_lw/6.jpg"",""time"":300},{""stimulus"":""img/red_lw/7.jpg"",""time"":350},{""stimulus"":""img/red_lw/8.jpg"",""time"":400},{""stimulus"":""img/red_lw/9.jpg"",""time"":451},{""stimulus"":""img/red_lw/10.jpg"",""time"":500},{""stimulus"":""img/red_lw/11.jpg"",""time"":551}]","[]"
"image-keyboard-response","24","61272","0.0-5.0-1.10","5c4275e526217400018bf1b4","bdp_lott","Sat Mar 25 2023 17:30:21 GMT-0600 (Mountain Daylight Time)","336638","green","red","","839","","","","choice","","img/red_lw/choose11.jpg","2","215","red","0.5","0.5","0.5","l","",""
"animation","25","61873","0.0-5.0-2.10","5c4275e526217400018bf1b4","bdp_lott","Sat Mar 25 2023 17:30:21 GMT-0600 (Mountain Daylight Time)","336638","green","red","","","","","","","","","","215","","","","","","[{""stimulus"":""img/red_ll/1.jpg"",""time"":51},{""stimulus"":""img/red_ll/2.jpg"",""time"":101},{""stimulus"":""img/red_ll/3.jpg"",""time"":151},{""stimulus"":""img/red_ll/4.jpg"",""time"":201},{""stimulus"":""img/red_ll/5.jpg"",""time"":252},{""stimulus"":""img/red_ll/6.jpg"",""time"":302},{""stimulus"":""img/red_ll/7.jpg"",""time"":351},{""stimulus"":""img/red_ll/8.jpg"",""time"":401},{""stimulus"":""img/red_ll/9.jpg"",""time"":451},{""stimulus"":""img/red_ll/10.jpg"",""time"":502},{""stimulus"":""img/red_ll/11.jpg"",""time"":551}]","[]"
"image-keyboard-response","26","62432","0.0-5.0-1.11","5c4275e526217400018bf1b4","bdp_lott","Sat Mar 25 2023 17:30:21 GMT-0600 (Mountain Daylight Time)","336638","green","red","","559","","","","choice","","img/red_ll/choose11.jpg","2","214","red","0.5","0.5","0.5","l","",""
"animation","27","63033","0.0-5.0-2.11","5c4275e526217400018bf1b4","bdp_lott","Sat Mar 25 2023 17:30:21 GMT-0600 (Mountain Daylight Time)","336638","green","red","","","","","","","","","","214","","","","","","[{""stimulus"":""img/red_ll/1.jpg"",""time"":51},{""stimulus"":""img/red_ll/2.jpg"",""time"":102},{""stimulus"":""img/red_ll/3.jpg"",""time"":151},{""stimulus"":""img/red_ll/4.jpg"",""time"":202},{""stimulus"":""img/red_ll/5.jpg"",""time"":252},{""stimulus"":""img/red_ll/6.jpg"",""time"":301},{""stimulus"":""img/red_ll/7.jpg"",""time"":351},{""stimulus"":""img/red_ll/8.jpg"",""time"":401},{""stimulus"":""img/red_ll/9.jpg"",""time"":451},{""stimulus"":""img/red_ll/10.jpg"",""time"":501},{""stimulus"":""img/red_ll/11.jpg"",""time"":551}]","[]"
"image-keyboard-response","28","63722","0.0-5.0-1.12","5c4275e526217400018bf1b4","bdp_lott","Sat Mar 25 2023 17:30:21 GMT-0600 (Mountain Daylight Time)","336638","green","red","","689","","","","choice","","img/red_ll/choose11.jpg","2","213","red","0.5","0.5","0.5","l","",""
"animation","29","64323","0.0-5.0-2.12","5c4275e526217400018bf1b4","bdp_lott","Sat Mar 25 2023 17:30:21 GMT-0600 (Mountain Daylight Time)","336638","green","red","","","","","","","","","","213","","","","","","[{""stimulus"":""img/red_ll/1.jpg"",""time"":52},{""stimulus"":""img/red_ll/2.jpg"",""time"":101},{""stimulus"":""img/red_ll/3.jpg"",""time"":151},{""stimulus"":""img/red_ll/4.jpg"",""time"":201},{""stimulus"":""img/red_ll/5.jpg"",""time"":251},{""stimulus"":""img/red_ll/6.jpg"",""time"":301},{""stimulus"":""img/red_ll/7.jpg"",""time"":351},{""stimulus"":""img/red_ll/8.jpg"",""time"":401},{""stimulus"":""img/red_ll/9.jpg"",""time"":451},{""stimulus"":""img/red_ll/10.jpg"",""time"":501},{""stimulus"":""img/red_ll/11.jpg"",""time"":551}]","[]"
"image-keyboard-response","30","65032","0.0-5.0-1.13","5c4275e526217400018bf1b4","bdp_lott","Sat Mar 25 2023 17:30:21 GMT-0600 (Mountain Daylight Time)","336638","green","red","","709","","","","choice","","img/red_ll/choose11.jpg","2","212","red","0.5","0.5","0.5","l","",""
"animation","31","65635","0.0-5.0-2.13","5c4275e526217400018bf1b4","bdp_lott","Sat Mar 25 2023 17:30:21 GMT-0600 (Mountain Daylight Time)","336638","green","red","","","","","","","","","","212","","","","","","[{""stimulus"":""img/red_ll/1.jpg"",""time"":51},{""stimulus"":""img/red_ll/2.jpg"",""time"":102},{""stimulus"":""img/red_ll/3.jpg"",""time"":152},{""stimulus"":""img/red_ll/4.jpg"",""time"":201},{""stimulus"":""img/red_ll/5.jpg"",""time"":251},{""stimulus"":""img/red_ll/6.jpg"",""time"":301},{""stimulus"":""img/red_ll/7.jpg"",""time"":351},{""stimulus"":""img/red_ll/8.jpg"",""time"":401},{""stimulus"":""img/red_ll/9.jpg"",""time"":451},{""stimulus"":""img/red_ll/10.jpg"",""time"":501},{""stimulus"":""img/red_ll/11.jpg"",""time"":551}]","[]"
"image-keyboard-response","32","66223","0.0-5.0-1.14","5c4275e526217400018bf1b4","bdp_lott","Sat Mar 25 2023 17:30:21 GMT-0600 (Mountain Daylight Time)","336638","green","red","","587","","","","choice","","img/red_ll/choose11.jpg","1","211","green","0.5","0.5","0.5","l","",""
"animation","33","66824","0.0-5.0-2.14","5c4275e526217400018bf1b4","bdp_lott","Sat Mar 25 2023 17:30:21 GMT-0600 (Mountain Daylight Time)","336638","green","red","","","","","","","","","","211","","","","","","[{""stimulus"":""img/green_ll/1.jpg"",""time"":51},{""stimulus"":""img/green_ll/2.jpg"",""time"":101},{""stimulus"":""img/green_ll/3.jpg"",""time"":152},{""stimulus"":""img/green_ll/4.jpg"",""time"":201},{""stimulus"":""img/green_ll/5.jpg"",""time"":251},{""stimulus"":""img/green_ll/6.jpg"",""time"":301},{""stimulus"":""img/green_ll/7.jpg"",""time"":351},{""stimulus"":""img/green_ll/8.jpg"",""time"":402},{""stimulus"":""img/green_ll/9.jpg"",""time"":451},{""stimulus"":""img/green_ll/10.jpg"",""time"":501},{""stimulus"":""img/green_ll/11.jpg"",""time"":551}]","[]"
"image-keyboard-response","34","67413","0.0-5.0-1.15","5c4275e526217400018bf1b4","bdp_lott","Sat Mar 25 2023 17:30:21 GMT-0600 (Mountain Daylight Time)","336638","green","red","","588","","","","choice","","img/green_ll/choose11.jpg","1","210","green","0.5","0.5","0.5","l","",""
"animation","35","68014","0.0-5.0-2.15","5c4275e526217400018bf1b4","bdp_lott","Sat Mar 25 2023 17:30:21 GMT-0600 (Mountain Daylight Time)","336638","green","red","","","","","","","","","","210","","","","","","[{""stimulus"":""img/green_ll/1.jpg"",""time"":51},{""stimulus"":""img/green_ll/2.jpg"",""time"":102},{""stimulus"":""img/green_ll/3.jpg"",""time"":151},{""stimulus"":""img/green_ll/4.jpg"",""time"":202},{""stimulus"":""img/green_ll/5.jpg"",""time"":251},{""stimulus"":""img/green_ll/6.jpg"",""time"":301},{""stimulus"":""img/green_ll/7.jpg"",""time"":351},{""stimulus"":""img/green_ll/8.jpg"",""time"":401},{""stimulus"":""img/green_ll/9.jpg"",""time"":451},{""stimulus"":""img/green_ll/10.jpg"",""time"":501},{""stimulus"":""img/green_ll/11.jpg"",""time"":551}]","[]"
"image-keyboard-response","36","68563","0.0-5.0-1.16","5c4275e526217400018bf1b4","bdp_lott","Sat Mar 25 2023 17:30:21 GMT-0600 (Mountain Daylight Time)","336638","green","red","","549","","","","choice","","img/green_ll/choose11.jpg","1","209","green","0.5","0.5","0.5","l","",""
"animation","37","69165","0.0-5.0-2.16","5c4275e526217400018bf1b4","bdp_lott","Sat Mar 25 2023 17:30:21 GMT-0600 (Mountain Daylight Time)","336638","green","red","","","","","","","","","","209","","","","","","[{""stimulus"":""img/green_ll/1.jpg"",""time"":52},{""stimulus"":""img/green_ll/2.jpg"",""time"":101},{""stimulus"":""img/green_ll/3.jpg"",""time"":151},{""stimulus"":""img/green_ll/4.jpg"",""time"":202},{""stimulus"":""img/green_ll/5.jpg"",""time"":251},{""stimulus"":""img/green_ll/6.jpg"",""time"":301},{""stimulus"":""img/green_ll/7.jpg"",""time"":351},{""stimulus"":""img/green_ll/8.jpg"",""time"":401},{""stimulus"":""img/green_ll/9.jpg"",""time"":451},{""stimulus"":""img/green_ll/10.jpg"",""time"":501},{""stimulus"":""img/green_ll/11.jpg"",""time"":551}]","[]"
"image-keyboard-response","38","69664","0.0-5.0-1.17","5c4275e526217400018bf1b4","bdp_lott","Sat Mar 25 2023 17:30:21 GMT-0600 (Mountain Daylight Time)","336638","green","red","","498","","","","choice","","img/green_ll/choose11.jpg","2","208","red","0.5","0.5","0.5","w","",""
"animation","39","70265","0.0-5.0-2.17","5c4275e526217400018bf1b4","bdp_lott","Sat Mar 25 2023 17:30:21 GMT-0600 (Mountain Daylight Time)","336638","green","red","","","","","","","","","","208","","","","","","[{""stimulus"":""img/red_lw/1.jpg"",""time"":50},{""stimulus"":""img/red_lw/2.jpg"",""time"":101},{""stimulus"":""img/red_lw/3.jpg"",""time"":151},{""stimulus"":""img/red_lw/4.jpg"",""time"":200},{""stimulus"":""img/red_lw/5.jpg"",""time"":251},{""stimulus"":""img/red_lw/6.jpg"",""time"":301},{""stimulus"":""img/red_lw/7.jpg"",""time"":351},{""stimulus"":""img/red_lw/8.jpg"",""time"":402},{""stimulus"":""img/red_lw/9.jpg"",""time"":451},{""stimulus"":""img/red_lw/10.jpg"",""time"":502},{""stimulus"":""img/red_lw/11.jpg"",""time"":552}]","[]"
"image-keyboard-response","40","70903","0.0-5.0-1.18","5c4275e526217400018bf1b4","bdp_lott","Sat Mar 25 2023 17:30:21 GMT-0600 (Mountain Daylight Time)","336638","green","red","","638","","","","choice","","img/red_lw/choose11.jpg","2","207","red","0.5","0.5","0.5","l","",""
"animation","41","71505","0.0-5.0-2.18","5c4275e526217400018bf1b4","bdp_lott","Sat Mar 25 2023 17:30:21 GMT-0600 (Mountain Daylight Time)","336638","green","red","","","","","","","","","","207","","","","","","[{""stimulus"":""img/red_ll/1.jpg"",""time"":52},{""stimulus"":""img/red_ll/2.jpg"",""time"":101},{""stimulus"":""img/red_ll/3.jpg"",""time"":151},{""stimulus"":""img/red_ll/4.jpg"",""time"":201},{""stimulus"":""img/red_ll/5.jpg"",""time"":251},{""stimulus"":""img/red_ll/6.jpg"",""time"":301},{""stimulus"":""img/red_ll/7.jpg"",""time"":352},{""stimulus"":""img/red_ll/8.jpg"",""time"":401},{""stimulus"":""img/red_ll/9.jpg"",""time"":451},{""stimulus"":""img/red_ll/10.jpg"",""time"":501},{""stimulus"":""img/red_ll/11.jpg"",""time"":551}]","[]"
"image-keyboard-response","42","72224","0.0-5.0-1.19","5c4275e526217400018bf1b4","bdp_lott","Sat Mar 25 2023 17:30:21 GMT-0600 (Mountain Daylight Time)","336638","green","red","","719","","","","choice","","img/red_ll/choose11.jpg","2","206","red","0.5","0.5","0.5","l","",""
"animation","43","72825","0.0-5.0-2.19","5c4275e526217400018bf1b4","bdp_lott","Sat Mar 25 2023 17:30:21 GMT-0600 (Mountain Daylight Time)","336638","green","red","","","","","","","","","","206","","","","","","[{""stimulus"":""img/red_ll/1.jpg"",""time"":50},{""stimulus"":""img/red_ll/2.jpg"",""time"":100},{""stimulus"":""img/red_ll/3.jpg"",""time"":151},{""stimulus"":""img/red_ll/4.jpg"",""time"":201},{""stimulus"":""img/red_ll/5.jpg"",""time"":250},{""stimulus"":""img/red_ll/6.jpg"",""time"":301},{""stimulus"":""img/red_ll/7.jpg"",""time"":351},{""stimulus"":""img/red_ll/8.jpg"",""time"":401},{""stimulus"":""img/red_ll/9.jpg"",""time"":450},{""stimulus"":""img/red_ll/10.jpg"",""time"":500},{""stimulus"":""img/red_ll/11.jpg"",""time"":551}]","[]"
"image-keyboard-response","44","73474","0.0-5.0-1.20","5c4275e526217400018bf1b4","bdp_lott","Sat Mar 25 2023 17:30:21 GMT-0600 (Mountain Daylight Time)","336638","green","red","","648","","","","choice","","img/red_ll/choose11.jpg","1","205","green","0.5","0.5","0.5","w","",""
"animation","45","74075","0.0-5.0-2.20","5c4275e526217400018bf1b4","bdp_lott","Sat Mar 25 2023 17:30:21 GMT-0600 (Mountain Daylight Time)","336638","green","red","","","","","","","","","","205","","","","","","[{""stimulus"":""img/green_wl/1.jpg"",""time"":50},{""stimulus"":""img/green_wl/2.jpg"",""time"":100},{""stimulus"":""img/green_wl/3.jpg"",""time"":150},{""stimulus"":""img/green_wl/4.jpg"",""time"":200},{""stimulus"":""img/green_wl/5.jpg"",""time"":250},{""stimulus"":""img/green_wl/6.jpg"",""time"":300},{""stimulus"":""img/green_wl/7.jpg"",""time"":351},{""stimulus"":""img/green_wl/8.jpg"",""time"":401},{""stimulus"":""img/green_wl/9.jpg"",""time"":451},{""stimulus"":""img/green_wl/10.jpg"",""time"":501},{""stimulus"":""img/green_wl/11.jpg"",""time"":551}]","[]"
"image-keyboard-response","46","74734","0.0-5.0-1.21","5c4275e526217400018bf1b4","bdp_lott","Sat Mar 25 2023 17:30:21 GMT-0600 (Mountain Daylight Time)","336638","green","red","","659","","","","choice","","img/green_wl/choose11.jpg","1","204","green","0.5","0.5","0.5","w","",""
"animation","47","75335","0.0-5.0-2.21","5c4275e526217400018bf1b4","bdp_lott","Sat Mar 25 2023 17:30:21 GMT-0600 (Mountain Daylight Time)","336638","green","red","","","","","","","","","","204","","","","","","[{""stimulus"":""img/green_wl/1.jpg"",""time"":51},{""stimulus"":""img/green_wl/2.jpg"",""time"":101},{""stimulus"":""img/green_wl/3.jpg"",""time"":151},{""stimulus"":""img/green_wl/4.jpg"",""time"":202},{""stimulus"":""img/green_wl/5.jpg"",""time"":252},{""stimulus"":""img/green_wl/6.jpg"",""time"":302},{""stimulus"":""img/green_wl/7.jpg"",""time"":351},{""stimulus"":""img/green_wl/8.jpg"",""time"":401},{""stimulus"":""img/green_wl/9.jpg"",""time"":451},{""stimulus"":""img/green_wl/10.jpg"",""time"":501},{""stimulus"":""img/green_wl/11.jpg"",""time"":552}]","[]"
"image-keyboard-response","48","75965","0.0-5.0-1.22","5c4275e526217400018bf1b4","bdp_lott","Sat Mar 25 2023 17:30:21 GMT-0600 (Mountain Daylight Time)","336638","green","red","","630","","","","choice","","img/green_wl/choose11.jpg","1","203","green","0.5","0.5","0.5","l","",""
"animation","49","76567","0.0-5.0-2.22","5c4275e526217400018bf1b4","bdp_lott","Sat Mar 25 2023 17:30:21 GMT-0600 (Mountain Daylight Time)","336638","green","red","","","","","","","","","","203","","","","","","[{""stimulus"":""img/green_ll/1.jpg"",""time"":52},{""stimulus"":""img/green_ll/2.jpg"",""time"":101},{""stimulus"":""img/green_ll/3.jpg"",""time"":151},{""stimulus"":""img/green_ll/4.jpg"",""time"":201},{""stimulus"":""img/green_ll/5.jpg"",""time"":251},{""stimulus"":""img/green_ll/6.jpg"",""time"":301},{""stimulus"":""img/green_ll/7.jpg"",""time"":351},{""stimulus"":""img/green_ll/8.jpg"",""time"":401},{""stimulus"":""img/green_ll/9.jpg"",""time"":451},{""stimulus"":""img/green_ll/10.jpg"",""time"":501},{""stimulus"":""img/green_ll/11.jpg"",""time"":552}]","[]"
"image-keyboard-response","50","77124","0.0-5.0-1.23","5c4275e526217400018bf1b4","bdp_lott","Sat Mar 25 2023 17:30:21 GMT-0600 (Mountain Daylight Time)","336638","green","red","","557","","","","choice","","img/green_ll/choose11.jpg","1","202","green","0.5","0.5","0.5","w","",""
"animation","51","77726","0.0-5.0-2.23","5c4275e526217400018bf1b4","bdp_lott","Sat Mar 25 2023 17:30:21 GMT-0600 (Mountain Daylight Time)","336638","green","red","","","","","","","","","","202","","","","","","[{""stimulus"":""img/green_wl/1.jpg"",""time"":50},{""stimulus"":""img/green_wl/2.jpg"",""time"":101},{""stimulus"":""img/green_wl/3.jpg"",""time"":150},{""stimulus"":""img/green_wl/4.jpg"",""time"":201},{""stimulus"":""img/green_wl/5.jpg"",""time"":251},{""stimulus"":""img/green_wl/6.jpg"",""time"":300},{""stimulus"":""img/green_wl/7.jpg"",""time"":350},{""stimulus"":""img/green_wl/8.jpg"",""time"":401},{""stimulus"":""img/green_wl/9.jpg"",""time"":451},{""stimulus"":""img/green_wl/10.jpg"",""time"":501},{""stimulus"":""img/green_wl/11.jpg"",""time"":551}]","[]"
"image-keyboard-response","52","78915","0.0-5.0-1.24","5c4275e526217400018bf1b4","bdp_lott","Sat Mar 25 2023 17:30:21 GMT-0600 (Mountain Daylight Time)","336638","green","red","","1189","","","","choice","","img/green_wl/choose11.jpg","1","201","green","0.5","0.5","0.5","w","",""
"animation","53","79516","0.0-5.0-2.24","5c4275e526217400018bf1b4","bdp_lott","Sat Mar 25 2023 17:30:21 GMT-0600 (Mountain Daylight Time)","336638","green","red","","","","","","","","","","201","","","","","","[{""stimulus"":""img/green_wl/1.jpg"",""time"":51},{""stimulus"":""img/green_wl/2.jpg"",""time"":102},{""stimulus"":""img/green_wl/3.jpg"",""time"":152},{""stimulus"":""img/green_wl/4.jpg"",""time"":201},{""stimulus"":""img/green_wl/5.jpg"",""time"":251},{""stimulus"":""img/green_wl/6.jpg"",""time"":301},{""stimulus"":""img/green_wl/7.jpg"",""time"":352},{""stimulus"":""img/green_wl/8.jpg"",""time"":402},{""stimulus"":""img/green_wl/9.jpg"",""time"":451},{""stimulus"":""img/green_wl/10.jpg"",""time"":501},{""stimulus"":""img/green_wl/11.jpg"",""time"":552}]","[]"
"image-keyboard-response","54","80115","0.0-5.0-1.25","5c4275e526217400018bf1b4","bdp_lott","Sat Mar 25 2023 17:30:21 GMT-0600 (Mountain Daylight Time)","336638","green","red","","599","","","","choice","","img/green_wl/choose11.jpg","1","200","green","0.5","0.5","0.5","l","",""
"animation","55","80716","0.0-5.0-2.25","5c4275e526217400018bf1b4","bdp_lott","Sat Mar 25 2023 17:30:21 GMT-0600 (Mountain Daylight Time)","336638","green","red","","","","","","","","","","200","","","","","","[{""stimulus"":""img/green_ll/1.jpg"",""time"":51},{""stimulus"":""img/green_ll/2.jpg"",""time"":102},{""stimulus"":""img/green_ll/3.jpg"",""time"":152},{""stimulus"":""img/green_ll/4.jpg"",""time"":201},{""stimulus"":""img/green_ll/5.jpg"",""time"":251},{""stimulus"":""img/green_ll/6.jpg"",""time"":301},{""stimulus"":""img/green_ll/7.jpg"",""time"":351},{""stimulus"":""img/green_ll/8.jpg"",""time"":401},{""stimulus"":""img/green_ll/9.jpg"",""time"":451},{""stimulus"":""img/green_ll/10.jpg"",""time"":501},{""stimulus"":""img/green_ll/11.jpg"",""time"":551}]","[]"
"image-keyboard-response","56","81315","0.0-5.0-1.26","5c4275e526217400018bf1b4","bdp_lott","Sat Mar 25 2023 17:30:21 GMT-0600 (Mountain Daylight Time)","336638","green","red","","598","","","","choice","","img/green_ll/choose11.jpg","1","199","green","0.5","0.5","0.5","w","",""
"animation","57","81916","0.0-5.0-2.26","5c4275e526217400018bf1b4","bdp_lott","Sat Mar 25 2023 17:30:21 GMT-0600 (Mountain Daylight Time)","336638","green","red","","","","","","","","","","199","","","","","","[{""stimulus"":""img/green_wl/1.jpg"",""time"":51},{""stimulus"":""img/green_wl/2.jpg"",""time"":102},{""stimulus"":""img/green_wl/3.jpg"",""time"":152},{""stimulus"":""img/green_wl/4.jpg"",""time"":201},{""stimulus"":""img/green_wl/5.jpg"",""time"":251},{""stimulus"":""img/green_wl/6.jpg"",""time"":301},{""stimulus"":""img/green_wl/7.jpg"",""time"":351},{""stimulus"":""img/green_wl/8.jpg"",""time"":402},{""stimulus"":""img/green_wl/9.jpg"",""time"":451},{""stimulus"":""img/green_wl/10.jpg"",""time"":501},{""stimulus"":""img/green_wl/11.jpg"",""time"":551}]","[]"
"image-keyboard-response","58","82515","0.0-5.0-1.27","5c4275e526217400018bf1b4","bdp_lott","Sat Mar 25 2023 17:30:21 GMT-0600 (Mountain Daylight Time)","336638","green","red","","599","","","","choice","","img/green_wl/choose11.jpg","1","198","green","0.5","0.5","0.5","w","",""
"animation","59","83116","0.0-5.0-2.27","5c4275e526217400018bf1b4","bdp_lott","Sat Mar 25 2023 17:30:21 GMT-0600 (Mountain Daylight Time)","336638","green","red","","","","","","","","","","198","","","","","","[{""stimulus"":""img/green_wl/1.jpg"",""time"":51},{""stimulus"":""img/green_wl/2.jpg"",""time"":101},{""stimulus"":""img/green_wl/3.jpg"",""time"":152},{""stimulus"":""img/green_wl/4.jpg"",""time"":201},{""stimulus"":""img/green_wl/5.jpg"",""time"":251},{""stimulus"":""img/green_wl/6.jpg"",""time"":301},{""stimulus"":""img/green_wl/7.jpg"",""time"":351},{""stimulus"":""img/green_wl/8.jpg"",""time"":401},{""stimulus"":""img/green_wl/9.jpg"",""time"":451},{""stimulus"":""img/green_wl/10.jpg"",""time"":502},{""stimulus"":""img/green_wl/11.jpg"",""time"":552}]","[]"
"image-keyboard-response","60","83625","0.0-5.0-1.28","5c4275e526217400018bf1b4","bdp_lott","Sat Mar 25 2023 17:30:21 GMT-0600 (Mountain Daylight Time)","336638","green","red","","509","","","","choice","","img/green_wl/choose11.jpg","1","197","green","0.5","0.5","0.5","l","",""
"animation","61","84226","0.0-5.0-2.28","5c4275e526217400018bf1b4","bdp_lott","Sat Mar 25 2023 17:30:21 GMT-0600 (Mountain Daylight Time)","336638","green","red","","","","","","","","","","197","","","","","","[{""stimulus"":""img/green_ll/1.jpg"",""time"":50},{""stimulus"":""img/green_ll/2.jpg"",""time"":101},{""stimulus"":""img/green_ll/3.jpg"",""time"":150},{""stimulus"":""img/green_ll/4.jpg"",""time"":200},{""stimulus"":""img/green_ll/5.jpg"",""time"":250},{""stimulus"":""img/green_ll/6.jpg"",""time"":301},{""stimulus"":""img/green_ll/7.jpg"",""time"":350},{""stimulus"":""img/green_ll/8.jpg"",""time"":402},{""stimulus"":""img/green_ll/9.jpg"",""time"":452},{""stimulus"":""img/green_ll/10.jpg"",""time"":502},{""stimulus"":""img/green_ll/11.jpg"",""time"":551}]","[]"
"image-keyboard-response","62","84916","0.0-5.0-1.29","5c4275e526217400018bf1b4","bdp_lott","Sat Mar 25 2023 17:30:21 GMT-0600 (Mountain Daylight Time)","336638","green","red","","688","","","","choice","","img/green_ll/choose11.jpg","1","196","green","0.5","0.5","0.5","w","",""
"animation","63","85518","0.0-5.0-2.29","5c4275e526217400018bf1b4","bdp_lott","Sat Mar 25 2023 17:30:21 GMT-0600 (Mountain Daylight Time)","336638","green","red","","","","","","","","","","196","","","","","","[{""stimulus"":""img/green_wl/1.jpg"",""time"":51},{""stimulus"":""img/green_wl/2.jpg"",""time"":101},{""stimulus"":""img/green_wl/3.jpg"",""time"":151},{""stimulus"":""img/green_wl/4.jpg"",""time"":201},{""stimulus"":""img/green_wl/5.jpg"",""time"":251},{""stimulus"":""img/green_wl/6.jpg"",""time"":301},{""stimulus"":""img/green_wl/7.jpg"",""time"":352},{""stimulus"":""img/green_wl/8.jpg"",""time"":401},{""stimulus"":""img/green_wl/9.jpg"",""time"":451},{""stimulus"":""img/green_wl/10.jpg"",""time"":501},{""stimulus"":""img/green_wl/11.jpg"",""time"":551}]","[]"
"image-keyboard-response","64","86066","0.0-5.0-1.30","5c4275e526217400018bf1b4","bdp_lott","Sat Mar 25 2023 17:30:21 GMT-0600 (Mountain Daylight Time)","336638","green","red","","548","","","","choice","","img/green_wl/choose11.jpg","1","195","green","0.5","0.5","0.5","l","",""
"animation","65","86667","0.0-5.0-2.30","5c4275e526217400018bf1b4","bdp_lott","Sat Mar 25 2023 17:30:21 GMT-0600 (Mountain Daylight Time)","336638","green","red","","","","","","","","","","195","","","","","","[{""stimulus"":""img/green_ll/1.jpg"",""time"":52},{""stimulus"":""img/green_ll/2.jpg"",""time"":101},{""stimulus"":""img/green_ll/3.jpg"",""time"":151},{""stimulus"":""img/green_ll/4.jpg"",""time"":202},{""stimulus"":""img/green_ll/5.jpg"",""time"":251},{""stimulus"":""img/green_ll/6.jpg"",""time"":302},{""stimulus"":""img/green_ll/7.jpg"",""time"":352},{""stimulus"":""img/green_ll/8.jpg"",""time"":402},{""stimulus"":""img/green_ll/9.jpg"",""time"":452},{""stimulus"":""img/green_ll/10.jpg"",""time"":501},{""stimulus"":""img/green_ll/11.jpg"",""time"":551}]","[]"
"image-keyboard-response","66","87116","0.0-5.0-1.31","5c4275e526217400018bf1b4","bdp_lott","Sat Mar 25 2023 17:30:21 GMT-0600 (Mountain Daylight Time)","336638","green","red","","449","","","","choice","","img/green_ll/choose11.jpg","1","194","green","0.5","0.5","0.5","l","",""
"animation","67","87717","0.0-5.0-2.31","5c4275e526217400018bf1b4","bdp_lott","Sat Mar 25 2023 17:30:21 GMT-0600 (Mountain Daylight Time)","336638","green","red","","","","","","","","","","194","","","","","","[{""stimulus"":""img/green_ll/1.jpg"",""time"":51},{""stimulus"":""img/green_ll/2.jpg"",""time"":101},{""stimulus"":""img/green_ll/3.jpg"",""time"":152},{""stimulus"":""img/green_ll/4.jpg"",""time"":202},{""stimulus"":""img/green_ll/5.jpg"",""time"":250},{""stimulus"":""img/green_ll/6.jpg"",""time"":301},{""stimulus"":""img/green_ll/7.jpg"",""time"":351},{""stimulus"":""img/green_ll/8.jpg"",""time"":401},{""stimulus"":""img/green_ll/9.jpg"",""time"":451},{""stimulus"":""img/green_ll/10.jpg"",""time"":501},{""stimulus"":""img/green_ll/11.jpg"",""time"":551}]","[]"
"image-keyboard-response","68","88206","0.0-5.0-1.32","5c4275e526217400018bf1b4","bdp_lott","Sat Mar 25 2023 17:30:21 GMT-0600 (Mountain Daylight Time)","336638","green","red","","489","","","","choice","","img/green_ll/choose11.jpg","2","193","red","0.5","0.5","0.5","w","",""
"animation","69","88807","0.0-5.0-2.32","5c4275e526217400018bf1b4","bdp_lott","Sat Mar 25 2023 17:30:21 GMT-0600 (Mountain Daylight Time)","336638","green","red","","","","","","","","","","193","","","","","","[{""stimulus"":""img/red_lw/1.jpg"",""time"":51},{""stimulus"":""img/red_lw/2.jpg"",""time"":102},{""stimulus"":""img/red_lw/3.jpg"",""time"":151},{""stimulus"":""img/red_lw/4.jpg"",""time"":201},{""stimulus"":""img/red_lw/5.jpg"",""time"":251},{""stimulus"":""img/red_lw/6.jpg"",""time"":302},{""stimulus"":""img/red_lw/7.jpg"",""time"":351},{""stimulus"":""img/red_lw/8.jpg"",""time"":401},{""stimulus"":""img/red_lw/9.jpg"",""time"":451},{""stimulus"":""img/red_lw/10.jpg"",""time"":502},{""stimulus"":""img/red_lw/11.jpg"",""time"":551}]","[]"
"image-keyboard-response","70","89226","0.0-5.0-1.33","5c4275e526217400018bf1b4","bdp_lott","Sat Mar 25 2023 17:30:21 GMT-0600 (Mountain Daylight Time)","336638","green","red","","419","","","","choice","","img/red_lw/choose11.jpg","2","192","red","0.5","0.5","0.5","w","",""
"animation","71","89827","0.0-5.0-2.33","5c4275e526217400018bf1b4","bdp_lott","Sat Mar 25 2023 17:30:21 GMT-0600 (Mountain Daylight Time)","336638","green","red","","","","","","","","","","192","","","","","","[{""stimulus"":""img/red_lw/1.jpg"",""time"":52},{""stimulus"":""img/red_lw/2.jpg"",""time"":101},{""stimulus"":""img/red_lw/3.jpg"",""time"":151},{""stimulus"":""img/red_lw/4.jpg"",""time"":202},{""stimulus"":""img/red_lw/5.jpg"",""time"":251},{""stimulus"":""img/red_lw/6.jpg"",""time"":301},{""stimulus"":""img/red_lw/7.jpg"",""time"":351},{""stimulus"":""img/red_lw/8.jpg"",""time"":402},{""stimulus"":""img/red_lw/9.jpg"",""time"":451},{""stimulus"":""img/red_lw/10.jpg"",""time"":501},{""stimulus"":""img/red_lw/11.jpg"",""time"":552}]","[]"
"image-keyboard-response","72","90487","0.0-5.0-1.34","5c4275e526217400018bf1b4","bdp_lott","Sat Mar 25 2023 17:30:21 GMT-0600 (Mountain Daylight Time)","336638","green","red","","660","","","","choice","","img/red_lw/choose11.jpg","2","191","red","0.5","0.5","0.5","w","",""
"animation","73","91088","0.0-5.0-2.34","5c4275e526217400018bf1b4","bdp_lott","Sat Mar 25 2023 17:30:21 GMT-0600 (Mountain Daylight Time)","336638","green","red","","","","","","","","","","191","","","","","","[{""stimulus"":""img/red_lw/1.jpg"",""time"":51},{""stimulus"":""img/red_lw/2.jpg"",""time"":102},{""stimulus"":""img/red_lw/3.jpg"",""time"":151},{""stimulus"":""img/red_lw/4.jpg"",""time"":201},{""stimulus"":""img/red_lw/5.jpg"",""time"":251},{""stimulus"":""img/red_lw/6.jpg"",""time"":301},{""stimulus"":""img/red_lw/7.jpg"",""time"":351},{""stimulus"":""img/red_lw/8.jpg"",""time"":402},{""stimulus"":""img/red_lw/9.jpg"",""time"":450},{""stimulus"":""img/red_lw/10.jpg"",""time"":501},{""stimulus"":""img/red_lw/11.jpg"",""time"":551}]","[]"
"image-keyboard-response","74","91766","0.0-5.0-1.35","5c4275e526217400018bf1b4","bdp_lott","Sat Mar 25 2023 17:30:21 GMT-0600 (Mountain Daylight Time)","336638","green","red","","677","","","","choice","","img/red_lw/choose11.jpg","2","190","red","0.5","0.5","0.5","w","",""
"animation","75","92366","0.0-5.0-2.35","5c4275e526217400018bf1b4","bdp_lott","Sat Mar 25 2023 17:30:21 GMT-0600 (Mountain Daylight Time)","336638","green","red","","","","","","","","","","190","","","","","","[{""stimulus"":""img/red_lw/1.jpg"",""time"":52},{""stimulus"":""img/red_lw/2.jpg"",""time"":101},{""stimulus"":""img/red_lw/3.jpg"",""time"":152},{""stimulus"":""img/red_lw/4.jpg"",""time"":202},{""stimulus"":""img/red_lw/5.jpg"",""time"":251},{""stimulus"":""img/red_lw/6.jpg"",""time"":301},{""stimulus"":""img/red_lw/7.jpg"",""time"":351},{""stimulus"":""img/red_lw/8.jpg"",""time"":401},{""stimulus"":""img/red_lw/9.jpg"",""time"":452},{""stimulus"":""img/red_lw/10.jpg"",""time"":500},{""stimulus"":""img/red_lw/11.jpg"",""time"":551}]","[]"
"image-keyboard-response","76","92956","0.0-5.0-1.36","5c4275e526217400018bf1b4","bdp_lott","Sat Mar 25 2023 17:30:21 GMT-0600 (Mountain Daylight Time)","336638","green","red","","589","","","","choice","","img/red_lw/choose11.jpg","2","189","red","0.5","0.5","0.5","w","",""
"animation","77","93557","0.0-5.0-2.36","5c4275e526217400018bf1b4","bdp_lott","Sat Mar 25 2023 17:30:21 GMT-0600 (Mountain Daylight Time)","336638","green","red","","","","","","","","","","189","","","","","","[{""stimulus"":""img/red_lw/1.jpg"",""time"":51},{""stimulus"":""img/red_lw/2.jpg"",""time"":101},{""stimulus"":""img/red_lw/3.jpg"",""time"":151},{""stimulus"":""img/red_lw/4.jpg"",""time"":201},{""stimulus"":""img/red_lw/5.jpg"",""time"":251},{""stimulus"":""img/red_lw/6.jpg"",""time"":302},{""stimulus"":""img/red_lw/7.jpg"",""time"":351},{""stimulus"":""img/red_lw/8.jpg"",""time"":402},{""stimulus"":""img/red_lw/9.jpg"",""time"":451},{""stimulus"":""img/red_lw/10.jpg"",""time"":502},{""stimulus"":""img/red_lw/11.jpg"",""time"":551}]","[]"
"image-keyboard-response","78","94256","0.0-5.0-1.37","5c4275e526217400018bf1b4","bdp_lott","Sat Mar 25 2023 17:30:21 GMT-0600 (Mountain Daylight Time)","336638","green","red","","698","","","","choice","","img/red_lw/choose11.jpg","2","188","red","0.5","0.5","0.5","w","",""
"animation","79","94856","0.0-5.0-2.37","5c4275e526217400018bf1b4","bdp_lott","Sat Mar 25 2023 17:30:21 GMT-0600 (Mountain Daylight Time)","336638","green","red","","","","","","","","","","188","","","","","","[{""stimulus"":""img/red_lw/1.jpg"",""time"":52},{""stimulus"":""img/red_lw/2.jpg"",""time"":102},{""stimulus"":""img/red_lw/3.jpg"",""time"":153},{""stimulus"":""img/red_lw/4.jpg"",""time"":202},{""stimulus"":""img/red_lw/5.jpg"",""time"":252},{""stimulus"":""img/red_lw/6.jpg"",""time"":303},{""stimulus"":""img/red_lw/7.jpg"",""time"":353},{""stimulus"":""img/red_lw/8.jpg"",""time"":401},{""stimulus"":""img/red_lw/9.jpg"",""time"":452},{""stimulus"":""img/red_lw/10.jpg"",""time"":501},{""stimulus"":""img/red_lw/11.jpg"",""time"":551}]","[]"
"image-keyboard-response","80","95486","0.0-5.0-1.38","5c4275e526217400018bf1b4","bdp_lott","Sat Mar 25 2023 17:30:21 GMT-0600 (Mountain Daylight Time)","336638","green","red","","629","","","","choice","","img/red_lw/choose11.jpg","2","187","red","0.5","0.5","0.5","l","",""
"animation","81","96088","0.0-5.0-2.38","5c4275e526217400018bf1b4","bdp_lott","Sat Mar 25 2023 17:30:21 GMT-0600 (Mountain Daylight Time)","336638","green","red","","","","","","","","","","187","","","","","","[{""stimulus"":""img/red_ll/1.jpg"",""time"":50},{""stimulus"":""img/red_ll/2.jpg"",""time"":100},{""stimulus"":""img/red_ll/3.jpg"",""time"":150},{""stimulus"":""img/red_ll/4.jpg"",""time"":201},{""stimulus"":""img/red_ll/5.jpg"",""time"":250},{""stimulus"":""img/red_ll/6.jpg"",""time"":301},{""stimulus"":""img/red_ll/7.jpg"",""time"":350},{""stimulus"":""img/red_ll/8.jpg"",""time"":400},{""stimulus"":""img/red_ll/9.jpg"",""time"":451},{""stimulus"":""img/red_ll/10.jpg"",""time"":500},{""stimulus"":""img/red_ll/11.jpg"",""time"":551}]","[]"
"image-keyboard-response","82","96667","0.0-5.0-1.39","5c4275e526217400018bf1b4","bdp_lott","Sat Mar 25 2023 17:30:21 GMT-0600 (Mountain Daylight Time)","336638","green","red","","578","","","","choice","","img/red_ll/choose11.jpg","2","186","red","0.5","0.5","0.5","l","",""
"animation","83","97267","0.0-5.0-2.39","5c4275e526217400018bf1b4","bdp_lott","Sat Mar 25 2023 17:30:21 GMT-0600 (Mountain Daylight Time)","336638","green","red","","","","","","","","","","186","","","","","","[{""stimulus"":""img/red_ll/1.jpg"",""time"":51},{""stimulus"":""img/red_ll/2.jpg"",""time"":101},{""stimulus"":""img/red_ll/3.jpg"",""time"":150},{""stimulus"":""img/red_ll/4.jpg"",""time"":201},{""stimulus"":""img/red_ll/5.jpg"",""time"":252},{""stimulus"":""img/red_ll/6.jpg"",""time"":301},{""stimulus"":""img/red_ll/7.jpg"",""time"":351},{""stimulus"":""img/red_ll/8.jpg"",""time"":401},{""stimulus"":""img/red_ll/9.jpg"",""time"":451},{""stimulus"":""img/red_ll/10.jpg"",""time"":501},{""stimulus"":""img/red_ll/11.jpg"",""time"":550}]","[]"
"image-keyboard-response","84","98007","0.0-5.0-1.40","5c4275e526217400018bf1b4","bdp_lott","Sat Mar 25 2023 17:30:21 GMT-0600 (Mountain Daylight Time)","336638","green","red","","740","","","","choice","","img/red_ll/choose11.jpg","2","185","red","0.5","0.5","0.5","l","",""
"animation","85","98608","0.0-5.0-2.40","5c4275e526217400018bf1b4","bdp_lott","Sat Mar 25 2023 17:30:21 GMT-0600 (Mountain Daylight Time)","336638","green","red","","","","","","","","","","185","","","","","","[{""stimulus"":""img/red_ll/1.jpg"",""time"":52},{""stimulus"":""img/red_ll/2.jpg"",""time"":102},{""stimulus"":""img/red_ll/3.jpg"",""time"":151},{""stimulus"":""img/red_ll/4.jpg"",""time"":202},{""stimulus"":""img/red_ll/5.jpg"",""time"":251},{""stimulus"":""img/red_ll/6.jpg"",""time"":301},{""stimulus"":""img/red_ll/7.jpg"",""time"":351},{""stimulus"":""img/red_ll/8.jpg"",""time"":401},{""stimulus"":""img/red_ll/9.jpg"",""time"":451},{""stimulus"":""img/red_ll/10.jpg"",""time"":502},{""stimulus"":""img/red_ll/11.jpg"",""time"":552}]","[]"
"image-keyboard-response","86","99317","0.0-5.0-1.41","5c4275e526217400018bf1b4","bdp_lott","Sat Mar 25 2023 17:30:21 GMT-0600 (Mountain Daylight Time)","336638","green","red","","709","","","","choice","","img/red_ll/choose11.jpg","2","184","red","0.5","0.5","0.5","l","",""
"animation","87","99917","0.0-5.0-2.41","5c4275e526217400018bf1b4","bdp_lott","Sat Mar 25 2023 17:30:21 GMT-0600 (Mountain Daylight Time)","336638","green","red","","","","","","","","","","184","","","","","","[{""stimulus"":""img/red_ll/1.jpg"",""time"":52},{""stimulus"":""img/red_ll/2.jpg"",""time"":101},{""stimulus"":""img/red_ll/3.jpg"",""time"":151},{""stimulus"":""img/red_ll/4.jpg"",""time"":200},{""stimulus"":""img/red_ll/5.jpg"",""time"":251},{""stimulus"":""img/red_ll/6.jpg"",""time"":301},{""stimulus"":""img/red_ll/7.jpg"",""time"":351},{""stimulus"":""img/red_ll/8.jpg"",""time"":401},{""stimulus"":""img/red_ll/9.jpg"",""time"":452},{""stimulus"":""img/red_ll/10.jpg"",""time"":501},{""stimulus"":""img/red_ll/11.jpg"",""time"":552}]","[]"
"image-keyboard-response","88","100418","0.0-5.0-1.42","5c4275e526217400018bf1b4","bdp_lott","Sat Mar 25 2023 17:30:21 GMT-0600 (Mountain Daylight Time)","336638","green","red","","500","","","","choice","","img/red_ll/choose11.jpg","2","183","red","0.5","0.5","0.5","l","",""
"animation","89","101018","0.0-5.0-2.42","5c4275e526217400018bf1b4","bdp_lott","Sat Mar 25 2023 17:30:21 GMT-0600 (Mountain Daylight Time)","336638","green","red","","","","","","","","","","183","","","","","","[{""stimulus"":""img/red_ll/1.jpg"",""time"":65},{""stimulus"":""img/red_ll/2.jpg"",""time"":101},{""stimulus"":""img/red_ll/3.jpg"",""time"":151},{""stimulus"":""img/red_ll/4.jpg"",""time"":201},{""stimulus"":""img/red_ll/5.jpg"",""time"":251},{""stimulus"":""img/red_ll/6.jpg"",""time"":301},{""stimulus"":""img/red_ll/7.jpg"",""time"":351},{""stimulus"":""img/red_ll/8.jpg"",""time"":400},{""stimulus"":""img/red_ll/9.jpg"",""time"":450},{""stimulus"":""img/red_ll/10.jpg"",""time"":500},{""stimulus"":""img/red_ll/11.jpg"",""time"":551}]","[]"
"image-keyboard-response","90","101518","0.0-5.0-1.43","5c4275e526217400018bf1b4","bdp_lott","Sat Mar 25 2023 17:30:21 GMT-0600 (Mountain Daylight Time)","336638","green","red","","500","","","","choice","","img/red_ll/choose11.jpg","2","182","red","0.5","0.5","0.5","l","",""
"animation","91","102119","0.0-5.0-2.43","5c4275e526217400018bf1b4","bdp_lott","Sat Mar 25 2023 17:30:21 GMT-0600 (Mountain Daylight Time)","336638","green","red","","","","","","","","","","182","","","","","","[{""stimulus"":""img/red_ll/1.jpg"",""time"":51},{""stimulus"":""img/red_ll/2.jpg"",""time"":101},{""stimulus"":""img/red_ll/3.jpg"",""time"":151},{""stimulus"":""img/red_ll/4.jpg"",""time"":201},{""stimulus"":""img/red_ll/5.jpg"",""time"":251},{""stimulus"":""img/red_ll/6.jpg"",""time"":301},{""stimulus"":""img/red_ll/7.jpg"",""time"":351},{""stimulus"":""img/red_ll/8.jpg"",""time"":401},{""stimulus"":""img/red_ll/9.jpg"",""time"":451},{""stimulus"":""img/red_ll/10.jpg"",""time"":501},{""stimulus"":""img/red_ll/11.jpg"",""time"":552}]","[]"
"image-keyboard-response","92","102519","0.0-5.0-1.44","5c4275e526217400018bf1b4","bdp_lott","Sat Mar 25 2023 17:30:21 GMT-0600 (Mountain Daylight Time)","336638","green","red","","399","","","","choice","","img/red_ll/choose11.jpg","1","181","green","0.5","0.5","0.5","l","",""
"animation","93","103120","0.0-5.0-2.44","5c4275e526217400018bf1b4","bdp_lott","Sat Mar 25 2023 17:30:21 GMT-0600 (Mountain Daylight Time)","336638","green","red","","","","","","","","","","181","","","","","","[{""stimulus"":""img/green_ll/1.jpg"",""time"":51},{""stimulus"":""img/green_ll/2.jpg"",""time"":101},{""stimulus"":""img/green_ll/3.jpg"",""time"":151},{""stimulus"":""img/green_ll/4.jpg"",""time"":200},{""stimulus"":""img/green_ll/5.jpg"",""time"":251},{""stimulus"":""img/green_ll/6.jpg"",""time"":301},{""stimulus"":""img/green_ll/7.jpg"",""time"":352},{""stimulus"":""img/green_ll/8.jpg"",""time"":402},{""stimulus"":""img/green_ll/9.jpg"",""time"":451},{""stimulus"":""img/green_ll/10.jpg"",""time"":500},{""stimulus"":""img/green_ll/11.jpg"",""time"":552}]","[]"
"image-keyboard-response","94","103611","0.0-5.0-1.45","5c4275e526217400018bf1b4","bdp_lott","Sat Mar 25 2023 17:30:21 GMT-0600 (Mountain Daylight Time)","336638","green","red","","491","","","","choice","","img/green_ll/choose11.jpg","1","180","green","0.5","0.5","0.5","l","",""
"animation","95","104211","0.0-5.0-2.45","5c4275e526217400018bf1b4","bdp_lott","Sat Mar 25 2023 17:30:21 GMT-0600 (Mountain Daylight Time)","336638","green","red","","","","","","","","","","180","","","","","","[{""stimulus"":""img/green_ll/1.jpg"",""time"":51},{""stimulus"":""img/green_ll/2.jpg"",""time"":101},{""stimulus"":""img/green_ll/3.jpg"",""time"":150},{""stimulus"":""img/green_ll/4.jpg"",""time"":201},{""stimulus"":""img/green_ll/5.jpg"",""time"":250},{""stimulus"":""img/green_ll/6.jpg"",""time"":301},{""stimulus"":""img/green_ll/7.jpg"",""time"":351},{""stimulus"":""img/green_ll/8.jpg"",""time"":400},{""stimulus"":""img/green_ll/9.jpg"",""time"":450},{""stimulus"":""img/green_ll/10.jpg"",""time"":501},{""stimulus"":""img/green_ll/11.jpg"",""time"":551}]","[]"
"image-keyboard-response","96","104761","0.0-5.0-1.46","5c4275e526217400018bf1b4","bdp_lott","Sat Mar 25 2023 17:30:21 GMT-0600 (Mountain Daylight Time)","336638","green","red","","549","","","","choice","","img/green_ll/choose11.jpg","1","179","green","0.5","0.5","0.5","l","",""
"animation","97","105362","0.0-5.0-2.46","5c4275e526217400018bf1b4","bdp_lott","Sat Mar 25 2023 17:30:21 GMT-0600 (Mountain Daylight Time)","336638","green","red","","","","","","","","","","179","","","","","","[{""stimulus"":""img/green_ll/1.jpg"",""time"":51},{""stimulus"":""img/green_ll/2.jpg"",""time"":102},{""stimulus"":""img/green_ll/3.jpg"",""time"":151},{""stimulus"":""img/green_ll/4.jpg"",""time"":201},{""stimulus"":""img/green_ll/5.jpg"",""time"":251},{""stimulus"":""img/green_ll/6.jpg"",""time"":302},{""stimulus"":""img/green_ll/7.jpg"",""time"":351},{""stimulus"":""img/green_ll/8.jpg"",""time"":401},{""stimulus"":""img/green_ll/9.jpg"",""time"":451},{""stimulus"":""img/green_ll/10.jpg"",""time"":501},{""stimulus"":""img/green_ll/11.jpg"",""time"":551}]","[]"
"image-keyboard-response","98","105921","0.0-5.0-1.47","5c4275e526217400018bf1b4","bdp_lott","Sat Mar 25 2023 17:30:21 GMT-0600 (Mountain Daylight Time)","336638","green","red","","559","","","","choice","","img/green_ll/choose11.jpg","1","178","green","0.5","0.5","0.5","w","",""
"animation","99","106522","0.0-5.0-2.47","5c4275e526217400018bf1b4","bdp_lott","Sat Mar 25 2023 17:30:21 GMT-0600 (Mountain Daylight Time)","336638","green","red","","","","","","","","","","178","","","","","","[{""stimulus"":""img/green_wl/1.jpg"",""time"":52},{""stimulus"":""img/green_wl/2.jpg"",""time"":100},{""stimulus"":""img/green_wl/3.jpg"",""time"":152},{""stimulus"":""img/green_wl/4.jpg"",""time"":202},{""stimulus"":""img/green_wl/5.jpg"",""time"":251},{""stimulus"":""img/green_wl/6.jpg"",""time"":301},{""stimulus"":""img/green_wl/7.jpg"",""time"":351},{""stimulus"":""img/green_wl/8.jpg"",""time"":402},{""stimulus"":""img/green_wl/9.jpg"",""time"":451},{""stimulus"":""img/green_wl/10.jpg"",""time"":501},{""stimulus"":""img/green_wl/11.jpg"",""time"":552}]","[]"
"image-keyboard-response","100","107071","0.0-5.0-1.48","5c4275e526217400018bf1b4","bdp_lott","Sat Mar 25 2023 17:30:21 GMT-0600 (Mountain Daylight Time)","336638","green","red","","549","","","","choice","","img/green_wl/choose11.jpg","1","177","green","0.5","0.5","0.5","l","",""
"animation","101","107672","0.0-5.0-2.48","5c4275e526217400018bf1b4","bdp_lott","Sat Mar 25 2023 17:30:21 GMT-0600 (Mountain Daylight Time)","336638","green","red","","","","","","","","","","177","","","","","","[{""stimulus"":""img/green_ll/1.jpg"",""time"":51},{""stimulus"":""img/green_ll/2.jpg"",""time"":101},{""stimulus"":""img/green_ll/3.jpg"",""time"":151},{""stimulus"":""img/green_ll/4.jpg"",""time"":202},{""stimulus"":""img/green_ll/5.jpg"",""time"":252},{""stimulus"":""img/green_ll/6.jpg"",""time"":301},{""stimulus"":""img/green_ll/7.jpg"",""time"":353},{""stimulus"":""img/green_ll/8.jpg"",""time"":403},{""stimulus"":""img/green_ll/9.jpg"",""time"":452},{""stimulus"":""img/green_ll/10.jpg"",""time"":503},{""stimulus"":""img/green_ll/11.jpg"",""time"":552}]","[]"
"image-keyboard-response","102","108172","0.0-5.0-1.49","5c4275e526217400018bf1b4","bdp_lott","Sat Mar 25 2023 17:30:21 GMT-0600 (Mountain Daylight Time)","336638","green","red","","499","","","","choice","","img/green_ll/choose11.jpg","1","176","green","0.5","0.5","0.5","w","",""
"animation","103","108772","0.0-5.0-2.49","5c4275e526217400018bf1b4","bdp_lott","Sat Mar 25 2023 17:30:21 GMT-0600 (Mountain Daylight Time)","336638","green","red","","","","","","","","","","176","","","","","","[{""stimulus"":""img/green_wl/1.jpg"",""time"":50},{""stimulus"":""img/green_wl/2.jpg"",""time"":100},{""stimulus"":""img/green_wl/3.jpg"",""time"":150},{""stimulus"":""img/green_wl/4.jpg"",""time"":200},{""stimulus"":""img/green_wl/5.jpg"",""time"":251},{""stimulus"":""img/green_wl/6.jpg"",""time"":300},{""stimulus"":""img/green_wl/7.jpg"",""time"":350},{""stimulus"":""img/green_wl/8.jpg"",""time"":400},{""stimulus"":""img/green_wl/9.jpg"",""time"":450},{""stimulus"":""img/green_wl/10.jpg"",""time"":500},{""stimulus"":""img/green_wl/11.jpg"",""time"":550}]","[]"
"image-keyboard-response","104","109412","0.0-5.0-1.50","5c4275e526217400018bf1b4","bdp_lott","Sat Mar 25 2023 17:30:21 GMT-0600 (Mountain Daylight Time)","336638","green","red","","639","","","","choice","","img/green_wl/choose11.jpg","1","175","green","0.5","0.5","0.5","l","",""
"animation","105","110013","0.0-5.0-2.50","5c4275e526217400018bf1b4","bdp_lott","Sat Mar 25 2023 17:30:21 GMT-0600 (Mountain Daylight Time)","336638","green","red","","","","","","","","","","175","","","","","","[{""stimulus"":""img/green_ll/1.jpg"",""time"":51},{""stimulus"":""img/green_ll/2.jpg"",""time"":102},{""stimulus"":""img/green_ll/3.jpg"",""time"":152},{""stimulus"":""img/green_ll/4.jpg"",""time"":201},{""stimulus"":""img/green_ll/5.jpg"",""time"":251},{""stimulus"":""img/green_ll/6.jpg"",""time"":301},{""stimulus"":""img/green_ll/7.jpg"",""time"":351},{""stimulus"":""img/green_ll/8.jpg"",""time"":401},{""stimulus"":""img/green_ll/9.jpg"",""time"":451},{""stimulus"":""img/green_ll/10.jpg"",""time"":501},{""stimulus"":""img/green_ll/11.jpg"",""time"":551}]","[]"
"image-keyboard-response","106","110774","0.0-5.0-1.51","5c4275e526217400018bf1b4","bdp_lott","Sat Mar 25 2023 17:30:21 GMT-0600 (Mountain Daylight Time)","336638","green","red","","761","","","","choice","","img/green_ll/choose11.jpg","2","174","red","0.5","0.5","0.5","w","",""
"animation","107","111375","0.0-5.0-2.51","5c4275e526217400018bf1b4","bdp_lott","Sat Mar 25 2023 17:30:21 GMT-0600 (Mountain Daylight Time)","336638","green","red","","","","","","","","","","174","","","","","","[{""stimulus"":""img/red_lw/1.jpg"",""time"":51},{""stimulus"":""img/red_lw/2.jpg"",""time"":101},{""stimulus"":""img/red_lw/3.jpg"",""time"":151},{""stimulus"":""img/red_lw/4.jpg"",""time"":202},{""stimulus"":""img/red_lw/5.jpg"",""time"":251},{""stimulus"":""img/red_lw/6.jpg"",""time"":310},{""stimulus"":""img/red_lw/7.jpg"",""time"":351},{""stimulus"":""img/red_lw/8.jpg"",""time"":401},{""stimulus"":""img/red_lw/9.jpg"",""time"":451},{""stimulus"":""img/red_lw/10.jpg"",""time"":500},{""stimulus"":""img/red_lw/11.jpg"",""time"":550}]","[]"
"image-keyboard-response","108","111845","0.0-5.0-1.52","5c4275e526217400018bf1b4","bdp_lott","Sat Mar 25 2023 17:30:21 GMT-0600 (Mountain Daylight Time)","336638","green","red","","469","","","","choice","","img/red_lw/choose11.jpg","2","173","red","0.5","0.5","0.5","l","",""
"animation","109","112446","0.0-5.0-2.52","5c4275e526217400018bf1b4","bdp_lott","Sat Mar 25 2023 17:30:21 GMT-0600 (Mountain Daylight Time)","336638","green","red","","","","","","","","","","173","","","","","","[{""stimulus"":""img/red_ll/1.jpg"",""time"":50},{""stimulus"":""img/red_ll/2.jpg"",""time"":101},{""stimulus"":""img/red_ll/3.jpg"",""time"":150},{""stimulus"":""img/red_ll/4.jpg"",""time"":200},{""stimulus"":""img/red_ll/5.jpg"",""time"":250},{""stimulus"":""img/red_ll/6.jpg"",""time"":300},{""stimulus"":""img/red_ll/7.jpg"",""time"":350},{""stimulus"":""img/red_ll/8.jpg"",""time"":401},{""stimulus"":""img/red_ll/9.jpg"",""time"":451},{""stimulus"":""img/red_ll/10.jpg"",""time"":500},{""stimulus"":""img/red_ll/11.jpg"",""time"":550}]","[]"
"image-keyboard-response","110","112895","0.0-5.0-1.53","5c4275e526217400018bf1b4","bdp_lott","Sat Mar 25 2023 17:30:21 GMT-0600 (Mountain Daylight Time)","336638","green","red","","448","","","","choice","","img/red_ll/choose11.jpg","2","172","red","0.5","0.5","0.5","w","",""
"animation","111","113497","0.0-5.0-2.53","5c4275e526217400018bf1b4","bdp_lott","Sat Mar 25 2023 17:30:21 GMT-0600 (Mountain Daylight Time)","336638","green","red","","","","","","","","","","172","","","","","","[{""stimulus"":""img/red_lw/1.jpg"",""time"":51},{""stimulus"":""img/red_lw/2.jpg"",""time"":101},{""stimulus"":""img/red_lw/3.jpg"",""time"":152},{""stimulus"":""img/red_lw/4.jpg"",""time"":201},{""stimulus"":""img/red_lw/5.jpg"",""time"":251},{""stimulus"":""img/red_lw/6.jpg"",""time"":301},{""stimulus"":""img/red_lw/7.jpg"",""time"":351},{""stimulus"":""img/red_lw/8.jpg"",""time"":401},{""stimulus"":""img/red_lw/9.jpg"",""time"":452},{""stimulus"":""img/red_lw/10.jpg"",""time"":501},{""stimulus"":""img/red_lw/11.jpg"",""time"":552}]","[]"
"image-keyboard-response","112","114016","0.0-5.0-1.54","5c4275e526217400018bf1b4","bdp_lott","Sat Mar 25 2023 17:30:21 GMT-0600 (Mountain Daylight Time)","336638","green","red","","518","","","","choice","","img/red_lw/choose11.jpg","2","171","red","0.5","0.5","0.5","w","",""
"animation","113","114617","0.0-5.0-2.54","5c4275e526217400018bf1b4","bdp_lott","Sat Mar 25 2023 17:30:21 GMT-0600 (Mountain Daylight Time)","336638","green","red","","","","","","","","","","171","","","","","","[{""stimulus"":""img/red_lw/1.jpg"",""time"":51},{""stimulus"":""img/red_lw/2.jpg"",""time"":102},{""stimulus"":""img/red_lw/3.jpg"",""time"":151},{""stimulus"":""img/red_lw/4.jpg"",""time"":202},{""stimulus"":""img/red_lw/5.jpg"",""time"":251},{""stimulus"":""img/red_lw/6.jpg"",""time"":301},{""stimulus"":""img/red_lw/7.jpg"",""time"":351},{""stimulus"":""img/red_lw/8.jpg"",""time"":401},{""stimulus"":""img/red_lw/9.jpg"",""time"":452},{""stimulus"":""img/red_lw/10.jpg"",""time"":501},{""stimulus"":""img/red_lw/11.jpg"",""time"":551}]","[]"
"image-keyboard-response","114","115286","0.0-5.0-1.55","5c4275e526217400018bf1b4","bdp_lott","Sat Mar 25 2023 17:30:21 GMT-0600 (Mountain Daylight Time)","336638","green","red","","668","","","","choice","","img/red_lw/choose11.jpg","2","170","red","0.5","0.5","0.5","w","",""
"animation","115","115886","0.0-5.0-2.55","5c4275e526217400018bf1b4","bdp_lott","Sat Mar 25 2023 17:30:21 GMT-0600 (Mountain Daylight Time)","336638","green","red","","","","","","","","","","170","","","","","","[{""stimulus"":""img/red_lw/1.jpg"",""time"":51},{""stimulus"":""img/red_lw/2.jpg"",""time"":101},{""stimulus"":""img/red_lw/3.jpg"",""time"":151},{""stimulus"":""img/red_lw/4.jpg"",""time"":202},{""stimulus"":""img/red_lw/5.jpg"",""time"":251},{""stimulus"":""img/red_lw/6.jpg"",""time"":302},{""stimulus"":""img/red_lw/7.jpg"",""time"":350},{""stimulus"":""img/red_lw/8.jpg"",""time"":400},{""stimulus"":""img/red_lw/9.jpg"",""time"":450},{""stimulus"":""img/red_lw/10.jpg"",""time"":500},{""stimulus"":""img/red_lw/11.jpg"",""time"":550}]","[]"
"image-keyboard-response","116","116546","0.0-5.0-1.56","5c4275e526217400018bf1b4","bdp_lott","Sat Mar 25 2023 17:30:21 GMT-0600 (Mountain Daylight Time)","336638","green","red","","659","","","","choice","","img/red_lw/choose11.jpg","2","169","red","0.5","0.5","0.5","w","",""
"animation","117","117147","0.0-5.0-2.56","5c4275e526217400018bf1b4","bdp_lott","Sat Mar 25 2023 17:30:21 GMT-0600 (Mountain Daylight Time)","336638","green","red","","","","","","","","","","169","","","","","","[{""stimulus"":""img/red_lw/1.jpg"",""time"":52},{""stimulus"":""img/red_lw/2.jpg"",""time"":101},{""stimulus"":""img/red_lw/3.jpg"",""time"":152},{""stimulus"":""img/red_lw/4.jpg"",""time"":200},{""stimulus"":""img/red_lw/5.jpg"",""time"":250},{""stimulus"":""img/red_lw/6.jpg"",""time"":300},{""stimulus"":""img/red_lw/7.jpg"",""time"":350},{""stimulus"":""img/red_lw/8.jpg"",""time"":400},{""stimulus"":""img/red_lw/9.jpg"",""time"":450},{""stimulus"":""img/red_lw/10.jpg"",""time"":500},{""stimulus"":""img/red_lw/11.jpg"",""time"":550}]","[]"
"image-keyboard-response","118","117867","0.0-5.0-1.57","5c4275e526217400018bf1b4","bdp_lott","Sat Mar 25 2023 17:30:21 GMT-0600 (Mountain Daylight Time)","336638","green","red","","719","","","","choice","","img/red_lw/choose11.jpg","2","168","red","0.5","0.5","0.5","w","",""
"animation","119","118468","0.0-5.0-2.57","5c4275e526217400018bf1b4","bdp_lott","Sat Mar 25 2023 17:30:21 GMT-0600 (Mountain Daylight Time)","336638","green","red","","","","","","","","","","168","","","","","","[{""stimulus"":""img/red_lw/1.jpg"",""time"":51},{""stimulus"":""img/red_lw/2.jpg"",""time"":100},{""stimulus"":""img/red_lw/3.jpg"",""time"":150},{""stimulus"":""img/red_lw/4.jpg"",""time"":201},{""stimulus"":""img/red_lw/5.jpg"",""time"":251},{""stimulus"":""img/red_lw/6.jpg"",""time"":301},{""stimulus"":""img/red_lw/7.jpg"",""time"":351},{""stimulus"":""img/red_lw/8.jpg"",""time"":401},{""stimulus"":""img/red_lw/9.jpg"",""time"":451},{""stimulus"":""img/red_lw/10.jpg"",""time"":502},{""stimulus"":""img/red_lw/11.jpg"",""time"":551}]","[]"
"image-keyboard-response","120","118968","0.0-5.0-1.58","5c4275e526217400018bf1b4","bdp_lott","Sat Mar 25 2023 17:30:21 GMT-0600 (Mountain Daylight Time)","336638","green","red","","500","","","","choice","","img/red_lw/choose11.jpg","2","167","red","0.5","0.5","0.5","w","",""
"animation","121","119568","0.0-5.0-2.58","5c4275e526217400018bf1b4","bdp_lott","Sat Mar 25 2023 17:30:21 GMT-0600 (Mountain Daylight Time)","336638","green","red","","","","","","","","","","167","","","","","","[{""stimulus"":""img/red_lw/1.jpg"",""time"":50},{""stimulus"":""img/red_lw/2.jpg"",""time"":100},{""stimulus"":""img/red_lw/3.jpg"",""time"":151},{""stimulus"":""img/red_lw/4.jpg"",""time"":201},{""stimulus"":""img/red_lw/5.jpg"",""time"":251},{""stimulus"":""img/red_lw/6.jpg"",""time"":313},{""stimulus"":""img/red_lw/7.jpg"",""time"":350},{""stimulus"":""img/red_lw/8.jpg"",""time"":400},{""stimulus"":""img/red_lw/9.jpg"",""time"":450},{""stimulus"":""img/red_lw/10.jpg"",""time"":500},{""stimulus"":""img/red_lw/11.jpg"",""time"":551}]","[]"
"image-keyboard-response","122","119968","0.0-5.0-1.59","5c4275e526217400018bf1b4","bdp_lott","Sat Mar 25 2023 17:30:21 GMT-0600 (Mountain Daylight Time)","336638","green","red","","398","","","","choice","","img/red_lw/choose11.jpg","2","166","red","0.5","0.5","0.5","w","",""
"animation","123","120569","0.0-5.0-2.59","5c4275e526217400018bf1b4","bdp_lott","Sat Mar 25 2023 17:30:21 GMT-0600 (Mountain Daylight Time)","336638","green","red","","","","","","","","","","166","","","","","","[{""stimulus"":""img/red_lw/1.jpg"",""time"":52},{""stimulus"":""img/red_lw/2.jpg"",""time"":101},{""stimulus"":""img/red_lw/3.jpg"",""time"":152},{""stimulus"":""img/red_lw/4.jpg"",""time"":202},{""stimulus"":""img/red_lw/5.jpg"",""time"":251},{""stimulus"":""img/red_lw/6.jpg"",""time"":302},{""stimulus"":""img/red_lw/7.jpg"",""time"":352},{""stimulus"":""img/red_lw/8.jpg"",""time"":400},{""stimulus"":""img/red_lw/9.jpg"",""time"":450},{""stimulus"":""img/red_lw/10.jpg"",""time"":501},{""stimulus"":""img/red_lw/11.jpg"",""time"":551}]","[]"
"image-keyboard-response","124","121128","0.0-5.0-1.60","5c4275e526217400018bf1b4","bdp_lott","Sat Mar 25 2023 17:30:21 GMT-0600 (Mountain Daylight Time)","336638","green","red","","558","","","","choice","","img/red_lw/choose11.jpg","2","165","red","0.5","0.5","0.5","w","",""
"animation","125","121728","0.0-5.0-2.60","5c4275e526217400018bf1b4","bdp_lott","Sat Mar 25 2023 17:30:21 GMT-0600 (Mountain Daylight Time)","336638","green","red","","","","","","","","","","165","","","","","","[{""stimulus"":""img/red_lw/1.jpg"",""time"":51},{""stimulus"":""img/red_lw/2.jpg"",""time"":100},{""stimulus"":""img/red_lw/3.jpg"",""time"":150},{""stimulus"":""img/red_lw/4.jpg"",""time"":200},{""stimulus"":""img/red_lw/5.jpg"",""time"":250},{""stimulus"":""img/red_lw/6.jpg"",""time"":300},{""stimulus"":""img/red_lw/7.jpg"",""time"":350},{""stimulus"":""img/red_lw/8.jpg"",""time"":400},{""stimulus"":""img/red_lw/9.jpg"",""time"":450},{""stimulus"":""img/red_lw/10.jpg"",""time"":501},{""stimulus"":""img/red_lw/11.jpg"",""time"":551}]","[]"
"image-keyboard-response","126","122178","0.0-5.0-1.61","5c4275e526217400018bf1b4","bdp_lott","Sat Mar 25 2023 17:30:21 GMT-0600 (Mountain Daylight Time)","336638","green","red","","449","","","","choice","","img/red_lw/choose11.jpg","2","164","red","0.5","0.5","0.5","w","",""
"animation","127","122779","0.0-5.0-2.61","5c4275e526217400018bf1b4","bdp_lott","Sat Mar 25 2023 17:30:21 GMT-0600 (Mountain Daylight Time)","336638","green","red","","","","","","","","","","164","","","","","","[{""stimulus"":""img/red_lw/1.jpg"",""time"":51},{""stimulus"":""img/red_lw/2.jpg"",""time"":101},{""stimulus"":""img/red_lw/3.jpg"",""time"":151},{""stimulus"":""img/red_lw/4.jpg"",""time"":202},{""stimulus"":""img/red_lw/5.jpg"",""time"":251},{""stimulus"":""img/red_lw/6.jpg"",""time"":301},{""stimulus"":""img/red_lw/7.jpg"",""time"":352},{""stimulus"":""img/red_lw/8.jpg"",""time"":401},{""stimulus"":""img/red_lw/9.jpg"",""time"":452},{""stimulus"":""img/red_lw/10.jpg"",""time"":501},{""stimulus"":""img/red_lw/11.jpg"",""time"":551}]","[]"
"image-keyboard-response","128","123178","0.0-5.0-1.62","5c4275e526217400018bf1b4","bdp_lott","Sat Mar 25 2023 17:30:21 GMT-0600 (Mountain Daylight Time)","336638","green","red","","399","","","","choice","","img/red_lw/choose11.jpg","2","163","red","0.5","0.5","0.5","l","",""
"animation","129","123779","0.0-5.0-2.62","5c4275e526217400018bf1b4","bdp_lott","Sat Mar 25 2023 17:30:21 GMT-0600 (Mountain Daylight Time)","336638","green","red","","","","","","","","","","163","","","","","","[{""stimulus"":""img/red_ll/1.jpg"",""time"":51},{""stimulus"":""img/red_ll/2.jpg"",""time"":101},{""stimulus"":""img/red_ll/3.jpg"",""time"":151},{""stimulus"":""img/red_ll/4.jpg"",""time"":202},{""stimulus"":""img/red_ll/5.jpg"",""time"":252},{""stimulus"":""img/red_ll/6.jpg"",""time"":307},{""stimulus"":""img/red_ll/7.jpg"",""time"":352},{""stimulus"":""img/red_ll/8.jpg"",""time"":401},{""stimulus"":""img/red_ll/9.jpg"",""time"":451},{""stimulus"":""img/red_ll/10.jpg"",""time"":501},{""stimulus"":""img/red_ll/11.jpg"",""time"":552}]","[]"
"image-keyboard-response","130","124378","0.0-5.0-1.63","5c4275e526217400018bf1b4","bdp_lott","Sat Mar 25 2023 17:30:21 GMT-0600 (Mountain Daylight Time)","336638","green","red","","598","","","","choice","","img/red_ll/choose11.jpg","2","162","red","0.5","0.5","0.5","l","",""
"animation","131","124979","0.0-5.0-2.63","5c4275e526217400018bf1b4","bdp_lott","Sat Mar 25 2023 17:30:21 GMT-0600 (Mountain Daylight Time)","336638","green","red","","","","","","","","","","162","","","","","","[{""stimulus"":""img/red_ll/1.jpg"",""time"":53},{""stimulus"":""img/red_ll/2.jpg"",""time"":101},{""stimulus"":""img/red_ll/3.jpg"",""time"":152},{""stimulus"":""img/red_ll/4.jpg"",""time"":201},{""stimulus"":""img/red_ll/5.jpg"",""time"":252},{""stimulus"":""img/red_ll/6.jpg"",""time"":301},{""stimulus"":""img/red_ll/7.jpg"",""time"":351},{""stimulus"":""img/red_ll/8.jpg"",""time"":401},{""stimulus"":""img/red_ll/9.jpg"",""time"":451},{""stimulus"":""img/red_ll/10.jpg"",""time"":501},{""stimulus"":""img/red_ll/11.jpg"",""time"":551}]","[]"
"image-keyboard-response","132","125419","0.0-5.0-1.64","5c4275e526217400018bf1b4","bdp_lott","Sat Mar 25 2023 17:30:21 GMT-0600 (Mountain Daylight Time)","336638","green","red","","440","","","","choice","","img/red_ll/choose11.jpg","2","161","red","0.5","0.5","0.5","l","",""
"animation","133","126020","0.0-5.0-2.64","5c4275e526217400018bf1b4","bdp_lott","Sat Mar 25 2023 17:30:21 GMT-0600 (Mountain Daylight Time)","336638","green","red","","","","","","","","","","161","","","","","","[{""stimulus"":""img/red_ll/1.jpg"",""time"":52},{""stimulus"":""img/red_ll/2.jpg"",""time"":102},{""stimulus"":""img/red_ll/3.jpg"",""time"":151},{""stimulus"":""img/red_ll/4.jpg"",""time"":201},{""stimulus"":""img/red_ll/5.jpg"",""time"":251},{""stimulus"":""img/red_ll/6.jpg"",""time"":301},{""stimulus"":""img/red_ll/7.jpg"",""time"":352},{""stimulus"":""img/red_ll/8.jpg"",""time"":401},{""stimulus"":""img/red_ll/9.jpg"",""time"":452},{""stimulus"":""img/red_ll/10.jpg"",""time"":502},{""stimulus"":""img/red_ll/11.jpg"",""time"":552}]","[]"
"image-keyboard-response","134","126639","0.0-5.0-1.65","5c4275e526217400018bf1b4","bdp_lott","Sat Mar 25 2023 17:30:21 GMT-0600 (Mountain Daylight Time)","336638","green","red","","618","","","","choice","","img/red_ll/choose11.jpg","2","160","red","0.5","0.5","0.5","l","",""
"animation","135","127240","0.0-5.0-2.65","5c4275e526217400018bf1b4","bdp_lott","Sat Mar 25 2023 17:30:21 GMT-0600 (Mountain Daylight Time)","336638","green","red","","","","","","","","","","160","","","","","","[{""stimulus"":""img/red_ll/1.jpg"",""time"":51},{""stimulus"":""img/red_ll/2.jpg"",""time"":102},{""stimulus"":""img/red_ll/3.jpg"",""time"":151},{""stimulus"":""img/red_ll/4.jpg"",""time"":201},{""stimulus"":""img/red_ll/5.jpg"",""time"":251},{""stimulus"":""img/red_ll/6.jpg"",""time"":301},{""stimulus"":""img/red_ll/7.jpg"",""time"":351},{""stimulus"":""img/red_ll/8.jpg"",""time"":402},{""stimulus"":""img/red_ll/9.jpg"",""time"":450},{""stimulus"":""img/red_ll/10.jpg"",""time"":501},{""stimulus"":""img/red_ll/11.jpg"",""time"":551}]","[]"
"image-keyboard-response","136","127682","0.0-5.0-1.66","5c4275e526217400018bf1b4","bdp_lott","Sat Mar 25 2023 17:30:21 GMT-0600 (Mountain Daylight Time)","336638","green","red","","441","","","","choice","","img/red_ll/choose11.jpg","2","159","red","0.5","0.5","0.5","l","",""
"animation","137","128282","0.0-5.0-2.66","5c4275e526217400018bf1b4","bdp_lott","Sat Mar 25 2023 17:30:21 GMT-0600 (Mountain Daylight Time)","336638","green","red","","","","","","","","","","159","","","","","","[{""stimulus"":""img/red_ll/1.jpg"",""time"":51},{""stimulus"":""img/red_ll/2.jpg"",""time"":101},{""stimulus"":""img/red_ll/3.jpg"",""time"":150},{""stimulus"":""img/red_ll/4.jpg"",""time"":200},{""stimulus"":""img/red_ll/5.jpg"",""time"":250},{""stimulus"":""img/red_ll/6.jpg"",""time"":300},{""stimulus"":""img/red_ll/7.jpg"",""time"":350},{""stimulus"":""img/red_ll/8.jpg"",""time"":400},{""stimulus"":""img/red_ll/9.jpg"",""time"":450},{""stimulus"":""img/red_ll/10.jpg"",""time"":500},{""stimulus"":""img/red_ll/11.jpg"",""time"":550}]","[]"
"image-keyboard-response","138","128783","0.0-5.0-1.67","5c4275e526217400018bf1b4","bdp_lott","Sat Mar 25 2023 17:30:21 GMT-0600 (Mountain Daylight Time)","336638","green","red","","500","","","","choice","","img/red_ll/choose11.jpg","2","158","red","0.5","0.5","0.5","l","",""
"animation","139","129384","0.0-5.0-2.67","5c4275e526217400018bf1b4","bdp_lott","Sat Mar 25 2023 17:30:21 GMT-0600 (Mountain Daylight Time)","336638","green","red","","","","","","","","","","158","","","","","","[{""stimulus"":""img/red_ll/1.jpg"",""time"":51},{""stimulus"":""img/red_ll/2.jpg"",""time"":101},{""stimulus"":""img/red_ll/3.jpg"",""time"":151},{""stimulus"":""img/red_ll/4.jpg"",""time"":200},{""stimulus"":""img/red_ll/5.jpg"",""time"":252},{""stimulus"":""img/red_ll/6.jpg"",""time"":301},{""stimulus"":""img/red_ll/7.jpg"",""time"":352},{""stimulus"":""img/red_ll/8.jpg"",""time"":401},{""stimulus"":""img/red_ll/9.jpg"",""time"":450},{""stimulus"":""img/red_ll/10.jpg"",""time"":500},{""stimulus"":""img/red_ll/11.jpg"",""time"":550}]","[]"
"image-keyboard-response","140","129893","0.0-5.0-1.68","5c4275e526217400018bf1b4","bdp_lott","Sat Mar 25 2023 17:30:21 GMT-0600 (Mountain Daylight Time)","336638","green","red","","509","","","","choice","","img/red_ll/choose11.jpg","2","157","red","0.5","0.5","0.5","w","",""
"animation","141","130494","0.0-5.0-2.68","5c4275e526217400018bf1b4","bdp_lott","Sat Mar 25 2023 17:30:21 GMT-0600 (Mountain Daylight Time)","336638","green","red","","","","","","","","","","157","","","","","","[{""stimulus"":""img/red_lw/1.jpg"",""time"":51},{""stimulus"":""img/red_lw/2.jpg"",""time"":101},{""stimulus"":""img/red_lw/3.jpg"",""time"":152},{""stimulus"":""img/red_lw/4.jpg"",""time"":201},{""stimulus"":""img/red_lw/5.jpg"",""time"":251},{""stimulus"":""img/red_lw/6.jpg"",""time"":302},{""stimulus"":""img/red_lw/7.jpg"",""time"":352},{""stimulus"":""img/red_lw/8.jpg"",""time"":401},{""stimulus"":""img/red_lw/9.jpg"",""time"":452},{""stimulus"":""img/red_lw/10.jpg"",""time"":501},{""stimulus"":""img/red_lw/11.jpg"",""time"":551}]","[]"
"image-keyboard-response","142","131124","0.0-5.0-1.69","5c4275e526217400018bf1b4","bdp_lott","Sat Mar 25 2023 17:30:21 GMT-0600 (Mountain Daylight Time)","336638","green","red","","630","","","","choice","","img/red_lw/choose11.jpg","2","156","red","0.5","0.5","0.5","w","",""
"animation","143","131726","0.0-5.0-2.69","5c4275e526217400018bf1b4","bdp_lott","Sat Mar 25 2023 17:30:21 GMT-0600 (Mountain Daylight Time)","336638","green","red","","","","","","","","","","156","","","","","","[{""stimulus"":""img/red_lw/1.jpg"",""time"":51},{""stimulus"":""img/red_lw/2.jpg"",""time"":101},{""stimulus"":""img/red_lw/3.jpg"",""time"":151},{""stimulus"":""img/red_lw/4.jpg"",""time"":201},{""stimulus"":""img/red_lw/5.jpg"",""time"":252},{""stimulus"":""img/red_lw/6.jpg"",""time"":301},{""stimulus"":""img/red_lw/7.jpg"",""time"":352},{""stimulus"":""img/red_lw/8.jpg"",""time"":401},{""stimulus"":""img/red_lw/9.jpg"",""time"":452},{""stimulus"":""img/red_lw/10.jpg"",""time"":501},{""stimulus"":""img/red_lw/11.jpg"",""time"":552}]","[]"
"image-keyboard-response","144","132256","0.0-5.0-1.70","5c4275e526217400018bf1b4","bdp_lott","Sat Mar 25 2023 17:30:21 GMT-0600 (Mountain Daylight Time)","336638","green","red","","530","","","","choice","","img/red_lw/choose11.jpg","2","155","red","0.5","0.5","0.5","l","",""
"animation","145","132858","0.0-5.0-2.70","5c4275e526217400018bf1b4","bdp_lott","Sat Mar 25 2023 17:30:21 GMT-0600 (Mountain Daylight Time)","336638","green","red","","","","","","","","","","155","","","","","","[{""stimulus"":""img/red_ll/1.jpg"",""time"":51},{""stimulus"":""img/red_ll/2.jpg"",""time"":101},{""stimulus"":""img/red_ll/3.jpg"",""time"":151},{""stimulus"":""img/red_ll/4.jpg"",""time"":201},{""stimulus"":""img/red_ll/5.jpg"",""time"":251},{""stimulus"":""img/red_ll/6.jpg"",""time"":301},{""stimulus"":""img/red_ll/7.jpg"",""time"":351},{""stimulus"":""img/red_ll/8.jpg"",""time"":402},{""stimulus"":""img/red_ll/9.jpg"",""time"":451},{""stimulus"":""img/red_ll/10.jpg"",""time"":501},{""stimulus"":""img/red_ll/11.jpg"",""time"":551}]","[]"
"image-keyboard-response","146","133306","0.0-5.0-1.71","5c4275e526217400018bf1b4","bdp_lott","Sat Mar 25 2023 17:30:21 GMT-0600 (Mountain Daylight Time)","336638","green","red","","447","","","","choice","","img/red_ll/choose11.jpg","2","154","red","0.5","0.5","0.5","w","",""
"animation","147","133907","0.0-5.0-2.71","5c4275e526217400018bf1b4","bdp_lott","Sat Mar 25 2023 17:30:21 GMT-0600 (Mountain Daylight Time)","336638","green","red","","","","","","","","","","154","","","","","","[{""stimulus"":""img/red_lw/1.jpg"",""time"":50},{""stimulus"":""img/red_lw/2.jpg"",""time"":100},{""stimulus"":""img/red_lw/3.jpg"",""time"":150},{""stimulus"":""img/red_lw/4.jpg"",""time"":201},{""stimulus"":""img/red_lw/5.jpg"",""time"":251},{""stimulus"":""img/red_lw/6.jpg"",""time"":301},{""stimulus"":""img/red_lw/7.jpg"",""time"":350},{""stimulus"":""img/red_lw/8.jpg"",""time"":400},{""stimulus"":""img/red_lw/9.jpg"",""time"":451},{""stimulus"":""img/red_lw/10.jpg"",""time"":502},{""stimulus"":""img/red_lw/11.jpg"",""time"":551}]","[]"
"image-keyboard-response","148","134436","0.0-5.0-1.72","5c4275e526217400018bf1b4","bdp_lott","Sat Mar 25 2023 17:30:21 GMT-0600 (Mountain Daylight Time)","336638","green","red","","529","","","","choice","","img/red_lw/choose11.jpg","2","153","red","0.5","0.5","0.5","w","",""
"animation","149","135038","0.0-5.0-2.72","5c4275e526217400018bf1b4","bdp_lott","Sat Mar 25 2023 17:30:21 GMT-0600 (Mountain Daylight Time)","336638","green","red","","","","","","","","","","153","","","","","","[{""stimulus"":""img/red_lw/1.jpg"",""time"":51},{""stimulus"":""img/red_lw/2.jpg"",""time"":100},{""stimulus"":""img/red_lw/3.jpg"",""time"":151},{""stimulus"":""img/red_lw/4.jpg"",""time"":201},{""stimulus"":""img/red_lw/5.jpg"",""time"":251},{""stimulus"":""img/red_lw/6.jpg"",""time"":302},{""stimulus"":""img/red_lw/7.jpg"",""time"":351},{""stimulus"":""img/red_lw/8.jpg"",""time"":401},{""stimulus"":""img/red_lw/9.jpg"",""time"":451},{""stimulus"":""img/red_lw/10.jpg"",""time"":501},{""stimulus"":""img/red_lw/11.jpg"",""time"":551}]","[]"
"image-keyboard-response","150","135586","0.0-5.0-1.73","5c4275e526217400018bf1b4","bdp_lott","Sat Mar 25 2023 17:30:21 GMT-0600 (Mountain Daylight Time)","336638","green","red","","548","","","","choice","","img/red_lw/choose11.jpg","2","152","red","0.5","0.5","0.5","l","",""
"animation","151","136186","0.0-5.0-2.73","5c4275e526217400018bf1b4","bdp_lott","Sat Mar 25 2023 17:30:21 GMT-0600 (Mountain Daylight Time)","336638","green","red","","","","","","","","","","152","","","","","","[{""stimulus"":""img/red_ll/1.jpg"",""time"":51},{""stimulus"":""img/red_ll/2.jpg"",""time"":101},{""stimulus"":""img/red_ll/3.jpg"",""time"":151},{""stimulus"":""img/red_ll/4.jpg"",""time"":201},{""stimulus"":""img/red_ll/5.jpg"",""time"":251},{""stimulus"":""img/red_ll/6.jpg"",""time"":301},{""stimulus"":""img/red_ll/7.jpg"",""time"":351},{""stimulus"":""img/red_ll/8.jpg"",""time"":402},{""stimulus"":""img/red_ll/9.jpg"",""time"":451},{""stimulus"":""img/red_ll/10.jpg"",""time"":502},{""stimulus"":""img/red_ll/11.jpg"",""time"":550}]","[]"
"image-keyboard-response","152","136696","0.0-5.0-1.74","5c4275e526217400018bf1b4","bdp_lott","Sat Mar 25 2023 17:30:21 GMT-0600 (Mountain Daylight Time)","336638","green","red","","509","","","","choice","","img/red_ll/choose11.jpg","2","151","red","0.5","0.5","0.5","l","",""
"animation","153","137297","0.0-5.0-2.74","5c4275e526217400018bf1b4","bdp_lott","Sat Mar 25 2023 17:30:21 GMT-0600 (Mountain Daylight Time)","336638","green","red","","","","","","","","","","151","","","","","","[{""stimulus"":""img/red_ll/1.jpg"",""time"":51},{""stimulus"":""img/red_ll/2.jpg"",""time"":101},{""stimulus"":""img/red_ll/3.jpg"",""time"":152},{""stimulus"":""img/red_ll/4.jpg"",""time"":201},{""stimulus"":""img/red_ll/5.jpg"",""time"":252},{""stimulus"":""img/red_ll/6.jpg"",""time"":301},{""stimulus"":""img/red_ll/7.jpg"",""time"":351},{""stimulus"":""img/red_ll/8.jpg"",""time"":402},{""stimulus"":""img/red_ll/9.jpg"",""time"":451},{""stimulus"":""img/red_ll/10.jpg"",""time"":501},{""stimulus"":""img/red_ll/11.jpg"",""time"":552}]","[]"
"image-keyboard-response","154","137886","0.0-5.0-1.75","5c4275e526217400018bf1b4","bdp_lott","Sat Mar 25 2023 17:30:21 GMT-0600 (Mountain Daylight Time)","336638","green","red","","588","","","","choice","","img/red_ll/choose11.jpg","2","150","red","0.5","0.5","0.5","w","",""
"animation","155","138487","0.0-5.0-2.75","5c4275e526217400018bf1b4","bdp_lott","Sat Mar 25 2023 17:30:21 GMT-0600 (Mountain Daylight Time)","336638","green","red","","","","","","","","","","150","","","","","","[{""stimulus"":""img/red_lw/1.jpg"",""time"":51},{""stimulus"":""img/red_lw/2.jpg"",""time"":101},{""stimulus"":""img/red_lw/3.jpg"",""time"":152},{""stimulus"":""img/red_lw/4.jpg"",""time"":203},{""stimulus"":""img/red_lw/5.jpg"",""time"":252},{""stimulus"":""img/red_lw/6.jpg"",""time"":302},{""stimulus"":""img/red_lw/7.jpg"",""time"":351},{""stimulus"":""img/red_lw/8.jpg"",""time"":402},{""stimulus"":""img/red_lw/9.jpg"",""time"":452},{""stimulus"":""img/red_lw/10.jpg"",""time"":502},{""stimulus"":""img/red_lw/11.jpg"",""time"":552}]","[]"
"image-keyboard-response","156","139006","0.0-5.0-1.76","5c4275e526217400018bf1b4","bdp_lott","Sat Mar 25 2023 17:30:21 GMT-0600 (Mountain Daylight Time)","336638","green","red","","519","","","","choice","","img/red_lw/choose11.jpg","2","149","red","0.5","0.1","0.1","l","",""
"animation","157","139608","0.0-5.0-2.76","5c4275e526217400018bf1b4","bdp_lott","Sat Mar 25 2023 17:30:21 GMT-0600 (Mountain Daylight Time)","336638","green","red","","","","","","","","","","149","","","","","","[{""stimulus"":""img/red_ll/1.jpg"",""time"":50},{""stimulus"":""img/red_ll/2.jpg"",""time"":100},{""stimulus"":""img/red_ll/3.jpg"",""time"":150},{""stimulus"":""img/red_ll/4.jpg"",""time"":200},{""stimulus"":""img/red_ll/5.jpg"",""time"":251},{""stimulus"":""img/red_ll/6.jpg"",""time"":300},{""stimulus"":""img/red_ll/7.jpg"",""time"":350},{""stimulus"":""img/red_ll/8.jpg"",""time"":400},{""stimulus"":""img/red_ll/9.jpg"",""time"":450},{""stimulus"":""img/red_ll/10.jpg"",""time"":501},{""stimulus"":""img/red_ll/11.jpg"",""time"":550}]","[]"
"image-keyboard-response","158","140197","0.0-5.0-1.77","5c4275e526217400018bf1b4","bdp_lott","Sat Mar 25 2023 17:30:21 GMT-0600 (Mountain Daylight Time)","336638","green","red","","588","","","","choice","","img/red_ll/choose11.jpg","2","148","red","0.5","0.1","0.1","l","",""
"animation","159","140798","0.0-5.0-2.77","5c4275e526217400018bf1b4","bdp_lott","Sat Mar 25 2023 17:30:21 GMT-0600 (Mountain Daylight Time)","336638","green","red","","","","","","","","","","148","","","","","","[{""stimulus"":""img/red_ll/1.jpg"",""time"":50},{""stimulus"":""img/red_ll/2.jpg"",""time"":101},{""stimulus"":""img/red_ll/3.jpg"",""time"":150},{""stimulus"":""img/red_ll/4.jpg"",""time"":201},{""stimulus"":""img/red_ll/5.jpg"",""time"":250},{""stimulus"":""img/red_ll/6.jpg"",""time"":300},{""stimulus"":""img/red_ll/7.jpg"",""time"":350},{""stimulus"":""img/red_ll/8.jpg"",""time"":401},{""stimulus"":""img/red_ll/9.jpg"",""time"":451},{""stimulus"":""img/red_ll/10.jpg"",""time"":501},{""stimulus"":""img/red_ll/11.jpg"",""time"":551}]","[]"
"image-keyboard-response","160","141377","0.0-5.0-1.78","5c4275e526217400018bf1b4","bdp_lott","Sat Mar 25 2023 17:30:21 GMT-0600 (Mountain Daylight Time)","336638","green","red","","579","","","","choice","","img/red_ll/choose11.jpg","2","147","red","0.5","0.1","0.1","l","",""
"animation","161","141979","0.0-5.0-2.78","5c4275e526217400018bf1b4","bdp_lott","Sat Mar 25 2023 17:30:21 GMT-0600 (Mountain Daylight Time)","336638","green","red","","","","","","","","","","147","","","","","","[{""stimulus"":""img/red_ll/1.jpg"",""time"":52},{""stimulus"":""img/red_ll/2.jpg"",""time"":101},{""stimulus"":""img/red_ll/3.jpg"",""time"":152},{""stimulus"":""img/red_ll/4.jpg"",""time"":202},{""stimulus"":""img/red_ll/5.jpg"",""time"":251},{""stimulus"":""img/red_ll/6.jpg"",""time"":301},{""stimulus"":""img/red_ll/7.jpg"",""time"":351},{""stimulus"":""img/red_ll/8.jpg"",""time"":401},{""stimulus"":""img/red_ll/9.jpg"",""time"":452},{""stimulus"":""img/red_ll/10.jpg"",""time"":501},{""stimulus"":""img/red_ll/11.jpg"",""time"":551}]","[]"
"image-keyboard-response","162","142447","0.0-5.0-1.79","5c4275e526217400018bf1b4","bdp_lott","Sat Mar 25 2023 17:30:21 GMT-0600 (Mountain Daylight Time)","336638","green","red","","468","","","","choice","","img/red_ll/choose11.jpg","2","146","red","0.5","0.1","0.1","w","",""
"animation","163","143048","0.0-5.0-2.79","5c4275e526217400018bf1b4","bdp_lott","Sat Mar 25 2023 17:30:21 GMT-0600 (Mountain Daylight Time)","336638","green","red","","","","","","","","","","146","","","","","","[{""stimulus"":""img/red_lw/1.jpg"",""time"":50},{""stimulus"":""img/red_lw/2.jpg"",""time"":100},{""stimulus"":""img/red_lw/3.jpg"",""time"":151},{""stimulus"":""img/red_lw/4.jpg"",""time"":200},{""stimulus"":""img/red_lw/5.jpg"",""time"":250},{""stimulus"":""img/red_lw/6.jpg"",""time"":300},{""stimulus"":""img/red_lw/7.jpg"",""time"":350},{""stimulus"":""img/red_lw/8.jpg"",""time"":401},{""stimulus"":""img/red_lw/9.jpg"",""time"":451},{""stimulus"":""img/red_lw/10.jpg"",""time"":500},{""stimulus"":""img/red_lw/11.jpg"",""time"":550}]","[]"
"image-keyboard-response","164","143787","0.0-5.0-1.80","5c4275e526217400018bf1b4","bdp_lott","Sat Mar 25 2023 17:30:21 GMT-0600 (Mountain Daylight Time)","336638","green","red","","738","","","","choice","","img/red_lw/choose11.jpg","2","145","red","0.5","0.1","0.1","l","",""
"animation","165","144388","0.0-5.0-2.80","5c4275e526217400018bf1b4","bdp_lott","Sat Mar 25 2023 17:30:21 GMT-0600 (Mountain Daylight Time)","336638","green","red","","","","","","","","","","145","","","","","","[{""stimulus"":""img/red_ll/1.jpg"",""time"":51},{""stimulus"":""img/red_ll/2.jpg"",""time"":102},{""stimulus"":""img/red_ll/3.jpg"",""time"":151},{""stimulus"":""img/red_ll/4.jpg"",""time"":202},{""stimulus"":""img/red_ll/5.jpg"",""time"":251},{""stimulus"":""img/red_ll/6.jpg"",""time"":302},{""stimulus"":""img/red_ll/7.jpg"",""time"":352},{""stimulus"":""img/red_ll/8.jpg"",""time"":402},{""stimulus"":""img/red_ll/9.jpg"",""time"":452},{""stimulus"":""img/red_ll/10.jpg"",""time"":501},{""stimulus"":""img/red_ll/11.jpg"",""time"":551}]","[]"
"image-keyboard-response","166","144987","0.0-5.0-1.81","5c4275e526217400018bf1b4","bdp_lott","Sat Mar 25 2023 17:30:21 GMT-0600 (Mountain Daylight Time)","336638","green","red","","598","","","","choice","","img/red_ll/choose11.jpg","2","144","red","0.5","0.1","0.1","l","",""
"animation","167","145588","0.0-5.0-2.81","5c4275e526217400018bf1b4","bdp_lott","Sat Mar 25 2023 17:30:21 GMT-0600 (Mountain Daylight Time)","336638","green","red","","","","","","","","","","144","","","","","","[{""stimulus"":""img/red_ll/1.jpg"",""time"":51},{""stimulus"":""img/red_ll/2.jpg"",""time"":101},{""stimulus"":""img/red_ll/3.jpg"",""time"":151},{""stimulus"":""img/red_ll/4.jpg"",""time"":201},{""stimulus"":""img/red_ll/5.jpg"",""time"":251},{""stimulus"":""img/red_ll/6.jpg"",""time"":300},{""stimulus"":""img/red_ll/7.jpg"",""time"":350},{""stimulus"":""img/red_ll/8.jpg"",""time"":400},{""stimulus"":""img/red_ll/9.jpg"",""time"":450},{""stimulus"":""img/red_ll/10.jpg"",""time"":500},{""stimulus"":""img/red_ll/11.jpg"",""time"":550}]","[]"
"image-keyboard-response","168","146078","0.0-5.0-1.82","5c4275e526217400018bf1b4","bdp_lott","Sat Mar 25 2023 17:30:21 GMT-0600 (Mountain Daylight Time)","336638","green","red","","489","","","","choice","","img/red_ll/choose11.jpg","2","143","red","0.5","0.1","0.1","l","",""
"animation","169","146679","0.0-5.0-2.82","5c4275e526217400018bf1b4","bdp_lott","Sat Mar 25 2023 17:30:21 GMT-0600 (Mountain Daylight Time)","336638","green","red","","","","","","","","","","143","","","","","","[{""stimulus"":""img/red_ll/1.jpg"",""time"":52},{""stimulus"":""img/red_ll/2.jpg"",""time"":102},{""stimulus"":""img/red_ll/3.jpg"",""time"":152},{""stimulus"":""img/red_ll/4.jpg"",""time"":201},{""stimulus"":""img/red_ll/5.jpg"",""time"":251},{""stimulus"":""img/red_ll/6.jpg"",""time"":301},{""stimulus"":""img/red_ll/7.jpg"",""time"":351},{""stimulus"":""img/red_ll/8.jpg"",""time"":401},{""stimulus"":""img/red_ll/9.jpg"",""time"":452},{""stimulus"":""img/red_ll/10.jpg"",""time"":500},{""stimulus"":""img/red_ll/11.jpg"",""time"":550}]","[]"
"image-keyboard-response","170","147179","0.0-5.0-1.83","5c4275e526217400018bf1b4","bdp_lott","Sat Mar 25 2023 17:30:21 GMT-0600 (Mountain Daylight Time)","336638","green","red","","500","","","","choice","","img/red_ll/choose11.jpg","2","142","red","0.5","0.1","0.1","l","",""
"animation","171","147780","0.0-5.0-2.83","5c4275e526217400018bf1b4","bdp_lott","Sat Mar 25 2023 17:30:21 GMT-0600 (Mountain Daylight Time)","336638","green","red","","","","","","","","","","142","","","","","","[{""stimulus"":""img/red_ll/1.jpg"",""time"":51},{""stimulus"":""img/red_ll/2.jpg"",""time"":101},{""stimulus"":""img/red_ll/3.jpg"",""time"":150},{""stimulus"":""img/red_ll/4.jpg"",""time"":201},{""stimulus"":""img/red_ll/5.jpg"",""time"":250},{""stimulus"":""img/red_ll/6.jpg"",""time"":301},{""stimulus"":""img/red_ll/7.jpg"",""time"":350},{""stimulus"":""img/red_ll/8.jpg"",""time"":400},{""stimulus"":""img/red_ll/9.jpg"",""time"":450},{""stimulus"":""img/red_ll/10.jpg"",""time"":500},{""stimulus"":""img/red_ll/11.jpg"",""time"":550}]","[]"
"image-keyboard-response","172","148190","0.0-5.0-1.84","5c4275e526217400018bf1b4","bdp_lott","Sat Mar 25 2023 17:30:21 GMT-0600 (Mountain Daylight Time)","336638","green","red","","409","","","","choice","","img/red_ll/choose11.jpg","2","141","red","0.5","0.1","0.1","l","",""
"animation","173","148790","0.0-5.0-2.84","5c4275e526217400018bf1b4","bdp_lott","Sat Mar 25 2023 17:30:21 GMT-0600 (Mountain Daylight Time)","336638","green","red","","","","","","","","","","141","","","","","","[{""stimulus"":""img/red_ll/1.jpg"",""time"":51},{""stimulus"":""img/red_ll/2.jpg"",""time"":101},{""stimulus"":""img/red_ll/3.jpg"",""time"":151},{""stimulus"":""img/red_ll/4.jpg"",""time"":202},{""stimulus"":""img/red_ll/5.jpg"",""time"":252},{""stimulus"":""img/red_ll/6.jpg"",""time"":302},{""stimulus"":""img/red_ll/7.jpg"",""time"":351},{""stimulus"":""img/red_ll/8.jpg"",""time"":401},{""stimulus"":""img/red_ll/9.jpg"",""time"":451},{""stimulus"":""img/red_ll/10.jpg"",""time"":501},{""stimulus"":""img/red_ll/11.jpg"",""time"":551}]","[]"
"image-keyboard-response","174","149161","0.0-5.0-1.85","5c4275e526217400018bf1b4","bdp_lott","Sat Mar 25 2023 17:30:21 GMT-0600 (Mountain Daylight Time)","336638","green","red","","370","","","","choice","","img/red_ll/choose11.jpg","2","140","red","0.5","0.1","0.1","l","",""
"animation","175","149762","0.0-5.0-2.85","5c4275e526217400018bf1b4","bdp_lott","Sat Mar 25 2023 17:30:21 GMT-0600 (Mountain Daylight Time)","336638","green","red","","","","","","","","","","140","","","","","","[{""stimulus"":""img/red_ll/1.jpg"",""time"":52},{""stimulus"":""img/red_ll/2.jpg"",""time"":101},{""stimulus"":""img/red_ll/3.jpg"",""time"":151},{""stimulus"":""img/red_ll/4.jpg"",""time"":201},{""stimulus"":""img/red_ll/5.jpg"",""time"":252},{""stimulus"":""img/red_ll/6.jpg"",""time"":302},{""stimulus"":""img/red_ll/7.jpg"",""time"":351},{""stimulus"":""img/red_ll/8.jpg"",""time"":401},{""stimulus"":""img/red_ll/9.jpg"",""time"":451},{""stimulus"":""img/red_ll/10.jpg"",""time"":501},{""stimulus"":""img/red_ll/11.jpg"",""time"":551}]","[]"
"image-keyboard-response","176","150133","0.0-5.0-1.86","5c4275e526217400018bf1b4","bdp_lott","Sat Mar 25 2023 17:30:21 GMT-0600 (Mountain Daylight Time)","336638","green","red","","371","","","","choice","","img/red_ll/choose11.jpg","1","139","green","0.5","0.1","0.5","l","",""
"animation","177","150734","0.0-5.0-2.86","5c4275e526217400018bf1b4","bdp_lott","Sat Mar 25 2023 17:30:21 GMT-0600 (Mountain Daylight Time)","336638","green","red","","","","","","","","","","139","","","","","","[{""stimulus"":""img/green_ll/1.jpg"",""time"":52},{""stimulus"":""img/green_ll/2.jpg"",""time"":101},{""stimulus"":""img/green_ll/3.jpg"",""time"":152},{""stimulus"":""img/green_ll/4.jpg"",""time"":202},{""stimulus"":""img/green_ll/5.jpg"",""time"":251},{""stimulus"":""img/green_ll/6.jpg"",""time"":302},{""stimulus"":""img/green_ll/7.jpg"",""time"":351},{""stimulus"":""img/green_ll/8.jpg"",""time"":401},{""stimulus"":""img/green_ll/9.jpg"",""time"":451},{""stimulus"":""img/green_ll/10.jpg"",""time"":501},{""stimulus"":""img/green_ll/11.jpg"",""time"":551}]","[]"
"image-keyboard-response","178","151183","0.0-5.0-1.87","5c4275e526217400018bf1b4","bdp_lott","Sat Mar 25 2023 17:30:21 GMT-0600 (Mountain Daylight Time)","336638","green","red","","449","","","","choice","","img/green_ll/choose11.jpg","1","138","green","0.5","0.1","0.5","l","",""
"animation","179","151785","0.0-5.0-2.87","5c4275e526217400018bf1b4","bdp_lott","Sat Mar 25 2023 17:30:21 GMT-0600 (Mountain Daylight Time)","336638","green","red","","","","","","","","","","138","","","","","","[{""stimulus"":""img/green_ll/1.jpg"",""time"":51},{""stimulus"":""img/green_ll/2.jpg"",""time"":102},{""stimulus"":""img/green_ll/3.jpg"",""time"":151},{""stimulus"":""img/green_ll/4.jpg"",""time"":201},{""stimulus"":""img/green_ll/5.jpg"",""time"":250},{""stimulus"":""img/green_ll/6.jpg"",""time"":300},{""stimulus"":""img/green_ll/7.jpg"",""time"":350},{""stimulus"":""img/green_ll/8.jpg"",""time"":401},{""stimulus"":""img/green_ll/9.jpg"",""time"":450},{""stimulus"":""img/green_ll/10.jpg"",""time"":501},{""stimulus"":""img/green_ll/11.jpg"",""time"":550}]","[]"
"image-keyboard-response","180","152255","0.0-5.0-1.88","5c4275e526217400018bf1b4","bdp_lott","Sat Mar 25 2023 17:30:21 GMT-0600 (Mountain Daylight Time)","336638","green","red","","469","","","","choice","","img/green_ll/choose11.jpg","1","137","green","0.5","0.1","0.5","w","",""
"animation","181","152855","0.0-5.0-2.88","5c4275e526217400018bf1b4","bdp_lott","Sat Mar 25 2023 17:30:21 GMT-0600 (Mountain Daylight Time)","336638","green","red","","","","","","","","","","137","","","","","","[{""stimulus"":""img/green_wl/1.jpg"",""time"":50},{""stimulus"":""img/green_wl/2.jpg"",""time"":100},{""stimulus"":""img/green_wl/3.jpg"",""time"":150},{""stimulus"":""img/green_wl/4.jpg"",""time"":200},{""stimulus"":""img/green_wl/5.jpg"",""time"":250},{""stimulus"":""img/green_wl/6.jpg"",""time"":300},{""stimulus"":""img/green_wl/7.jpg"",""time"":350},{""stimulus"":""img/green_wl/8.jpg"",""time"":400},{""stimulus"":""img/green_wl/9.jpg"",""time"":451},{""stimulus"":""img/green_wl/10.jpg"",""time"":501},{""stimulus"":""img/green_wl/11.jpg"",""time"":550}]","[]"
"image-keyboard-response","182","154015","0.0-5.0-1.89","5c4275e526217400018bf1b4","bdp_lott","Sat Mar 25 2023 17:30:21 GMT-0600 (Mountain Daylight Time)","336638","green","red","","1159","","","","choice","","img/green_wl/choose11.jpg","1","136","green","0.5","0.1","0.5","w","",""
"animation","183","154616","0.0-5.0-2.89","5c4275e526217400018bf1b4","bdp_lott","Sat Mar 25 2023 17:30:21 GMT-0600 (Mountain Daylight Time)","336638","green","red","","","","","","","","","","136","","","","","","[{""stimulus"":""img/green_wl/1.jpg"",""time"":51},{""stimulus"":""img/green_wl/2.jpg"",""time"":101},{""stimulus"":""img/green_wl/3.jpg"",""time"":151},{""stimulus"":""img/green_wl/4.jpg"",""time"":201},{""stimulus"":""img/green_wl/5.jpg"",""time"":251},{""stimulus"":""img/green_wl/6.jpg"",""time"":301},{""stimulus"":""img/green_wl/7.jpg"",""time"":351},{""stimulus"":""img/green_wl/8.jpg"",""time"":401},{""stimulus"":""img/green_wl/9.jpg"",""time"":451},{""stimulus"":""img/green_wl/10.jpg"",""time"":501},{""stimulus"":""img/green_wl/11.jpg"",""time"":551}]","[]"
"image-keyboard-response","184","155195","0.0-5.0-1.90","5c4275e526217400018bf1b4","bdp_lott","Sat Mar 25 2023 17:30:21 GMT-0600 (Mountain Daylight Time)","336638","green","red","","579","","","","choice","","img/green_wl/choose11.jpg","1","135","green","0.5","0.1","0.5","w","",""
"animation","185","155796","0.0-5.0-2.90","5c4275e526217400018bf1b4","bdp_lott","Sat Mar 25 2023 17:30:21 GMT-0600 (Mountain Daylight Time)","336638","green","red","","","","","","","","","","135","","","","","","[{""stimulus"":""img/green_wl/1.jpg"",""time"":52},{""stimulus"":""img/green_wl/2.jpg"",""time"":101},{""stimulus"":""img/green_wl/3.jpg"",""time"":151},{""stimulus"":""img/green_wl/4.jpg"",""time"":202},{""stimulus"":""img/green_wl/5.jpg"",""time"":251},{""stimulus"":""img/green_wl/6.jpg"",""time"":302},{""stimulus"":""img/green_wl/7.jpg"",""time"":351},{""stimulus"":""img/green_wl/8.jpg"",""time"":401},{""stimulus"":""img/green_wl/9.jpg"",""time"":451},{""stimulus"":""img/green_wl/10.jpg"",""time"":501},{""stimulus"":""img/green_wl/11.jpg"",""time"":552}]","[]"
"image-keyboard-response","186","156305","0.0-5.0-1.91","5c4275e526217400018bf1b4","bdp_lott","Sat Mar 25 2023 17:30:21 GMT-0600 (Mountain Daylight Time)","336638","green","red","","509","","","","choice","","img/green_wl/choose11.jpg","1","134","green","0.5","0.1","0.5","l","",""
"animation","187","156906","0.0-5.0-2.91","5c4275e526217400018bf1b4","bdp_lott","Sat Mar 25 2023 17:30:21 GMT-0600 (Mountain Daylight Time)","336638","green","red","","","","","","","","","","134","","","","","","[{""stimulus"":""img/green_ll/1.jpg"",""time"":51},{""stimulus"":""img/green_ll/2.jpg"",""time"":101},{""stimulus"":""img/green_ll/3.jpg"",""time"":152},{""stimulus"":""img/green_ll/4.jpg"",""time"":201},{""stimulus"":""img/green_ll/5.jpg"",""time"":251},{""stimulus"":""img/green_ll/6.jpg"",""time"":301},{""stimulus"":""img/green_ll/7.jpg"",""time"":351},{""stimulus"":""img/green_ll/8.jpg"",""time"":401},{""stimulus"":""img/green_ll/9.jpg"",""time"":451},{""stimulus"":""img/green_ll/10.jpg"",""time"":502},{""stimulus"":""img/green_ll/11.jpg"",""time"":551}]","[]"
"image-keyboard-response","188","157535","0.0-5.0-1.92","5c4275e526217400018bf1b4","bdp_lott","Sat Mar 25 2023 17:30:21 GMT-0600 (Mountain Daylight Time)","336638","green","red","","629","","","","choice","","img/green_ll/choose11.jpg","1","133","green","0.5","0.1","0.5","w","",""
"animation","189","158136","0.0-5.0-2.92","5c4275e526217400018bf1b4","bdp_lott","Sat Mar 25 2023 17:30:21 GMT-0600 (Mountain Daylight Time)","336638","green","red","","","","","","","","","","133","","","","","","[{""stimulus"":""img/green_wl/1.jpg"",""time"":52},{""stimulus"":""img/green_wl/2.jpg"",""time"":101},{""stimulus"":""img/green_wl/3.jpg"",""time"":151},{""stimulus"":""img/green_wl/4.jpg"",""time"":201},{""stimulus"":""img/green_wl/5.jpg"",""time"":251},{""stimulus"":""img/green_wl/6.jpg"",""time"":301},{""stimulus"":""img/green_wl/7.jpg"",""time"":351},{""stimulus"":""img/green_wl/8.jpg"",""time"":401},{""stimulus"":""img/green_wl/9.jpg"",""time"":452},{""stimulus"":""img/green_wl/10.jpg"",""time"":502},{""stimulus"":""img/green_wl/11.jpg"",""time"":551}]","[]"
"image-keyboard-response","190","158805","0.0-5.0-1.93","5c4275e526217400018bf1b4","bdp_lott","Sat Mar 25 2023 17:30:21 GMT-0600 (Mountain Daylight Time)","336638","green","red","","669","","","","choice","","img/green_wl/choose11.jpg","1","132","green","0.5","0.1","0.5","l","",""
"animation","191","159407","0.0-5.0-2.93","5c4275e526217400018bf1b4","bdp_lott","Sat Mar 25 2023 17:30:21 GMT-0600 (Mountain Daylight Time)","336638","green","red","","","","","","","","","","132","","","","","","[{""stimulus"":""img/green_ll/1.jpg"",""time"":50},{""stimulus"":""img/green_ll/2.jpg"",""time"":100},{""stimulus"":""img/green_ll/3.jpg"",""time"":151},{""stimulus"":""img/green_ll/4.jpg"",""time"":200},{""stimulus"":""img/green_ll/5.jpg"",""time"":251},{""stimulus"":""img/green_ll/6.jpg"",""time"":301},{""stimulus"":""img/green_ll/7.jpg"",""time"":351},{""stimulus"":""img/green_ll/8.jpg"",""time"":401},{""stimulus"":""img/green_ll/9.jpg"",""time"":451},{""stimulus"":""img/green_ll/10.jpg"",""time"":502},{""stimulus"":""img/green_ll/11.jpg"",""time"":552}]","[]"
