"trial_type","trial_index","time_elapsed","internal_node_id","subject_id","task","startTime","totalTime","fairMachine","unfairMachine","view_history","rt","event","trial","time","trialtype","success","stimulus","key_press","roundsLeft","chosen","pFairMachWin","pUnfairMachWin","pTrialWin","outcome","animation_sequence","responses"
"pavlovia","0","6","0.0-0.0","60ff4339f5ffb265d16b144f","bdp_lott","Mon Mar 27 2023 16:17:48 GMT-0400 (Eastern Daylight Time)","247988","green","red","","","","","","","","","","","","","","","","",""
"instructions","1","2788","0.0-1.0","60ff4339f5ffb265d16b144f","bdp_lott","Mon Mar 27 2023 16:17:48 GMT-0400 (Eastern Daylight Time)","247988","green","red","[{""page_index"":0,""viewing_time"":2779}]","2780","","","","","","","","","","","","","","",""
"","","","","60ff4339f5ffb265d16b144f","bdp_lott","Mon Mar 27 2023 16:17:48 GMT-0400 (Eastern Daylight Time)","247988","green","red","","","fullscreenenter","2","5587","fullscreenenter","","","","","","","","","","",""
"fullscreen","2","6517","0.0-2.0","60ff4339f5ffb265d16b144f","bdp_lott","Mon Mar 27 2023 16:17:48 GMT-0400 (Eastern Daylight Time)","247988","green","red","","","","","","","true","","","","","","","","","",""
"instructions","3","32646","0.0-4.0","60ff4339f5ffb265d16b144f","bdp_lott","Mon Mar 27 2023 16:17:48 GMT-0400 (Eastern Daylight Time)","247988","green","red","[{""page_index"":0,""viewing_time"":26127}]","26127","","","","","","","","","","","","","","",""
"image-keyboard-response","4","34228","0.0-5.0-1.0","60ff4339f5ffb265d16b144f","bdp_lott","Mon Mar 27 2023 16:17:48 GMT-0400 (Eastern Daylight Time)","247988","green","red","","1579","","","","choice","","img/red_ll/initchoose11.jpg","1","225","green","0.5","0.5","0.5","w","",""
"animation","5","34839","0.0-5.0-2.0","60ff4339f5ffb265d16b144f","bdp_lott","Mon Mar 27 2023 16:17:48 GMT-0400 (Eastern Daylight Time)","247988","green","red","","","","","","","","","","225","","","","","","[{""stimulus"":""img/green_wl/1.jpg"",""time"":52},{""stimulus"":""img/green_wl/2.jpg"",""time"":102},{""stimulus"":""img/green_wl/3.jpg"",""time"":152},{""stimulus"":""img/green_wl/4.jpg"",""time"":203},{""stimulus"":""img/green_wl/5.jpg"",""time"":254},{""stimulus"":""img/green_wl/6.jpg"",""time"":304},{""stimulus"":""img/green_wl/7.jpg"",""time"":355},{""stimulus"":""img/green_wl/8.jpg"",""time"":406},{""stimulus"":""img/green_wl/9.jpg"",""time"":457},{""stimulus"":""img/green_wl/10.jpg"",""time"":508},{""stimulus"":""img/green_wl/11.jpg"",""time"":559}]","[]"
"image-keyboard-response","6","37432","0.0-5.0-1.1","60ff4339f5ffb265d16b144f","bdp_lott","Mon Mar 27 2023 16:17:48 GMT-0400 (Eastern Daylight Time)","247988","green","red","","2592","","","","choice","","img/green_wl/choose11.jpg","1","224","green","0.5","0.5","0.5","l","",""
"animation","7","38045","0.0-5.0-2.1","60ff4339f5ffb265d16b144f","bdp_lott","Mon Mar 27 2023 16:17:48 GMT-0400 (Eastern Daylight Time)","247988","green","red","","","","","","","","","","224","","","","","","[{""stimulus"":""img/green_ll/1.jpg"",""time"":51},{""stimulus"":""img/green_ll/2.jpg"",""time"":102},{""stimulus"":""img/green_ll/3.jpg"",""time"":155},{""stimulus"":""img/green_ll/4.jpg"",""time"":206},{""stimulus"":""img/green_ll/5.jpg"",""time"":257},{""stimulus"":""img/green_ll/6.jpg"",""time"":308},{""stimulus"":""img/green_ll/7.jpg"",""time"":359},{""stimulus"":""img/green_ll/8.jpg"",""time"":409},{""stimulus"":""img/green_ll/9.jpg"",""time"":460},{""stimulus"":""img/green_ll/10.jpg"",""time"":511},{""stimulus"":""img/green_ll/11.jpg"",""time"":562}]","[]"
"image-keyboard-response","8","39204","0.0-5.0-1.2","60ff4339f5ffb265d16b144f","bdp_lott","Mon Mar 27 2023 16:17:48 GMT-0400 (Eastern Daylight Time)","247988","green","red","","1158","","","","choice","","img/green_ll/choose11.jpg","2","223","red","0.5","0.5","0.5","w","",""
"animation","9","39813","0.0-5.0-2.2","60ff4339f5ffb265d16b144f","bdp_lott","Mon Mar 27 2023 16:17:48 GMT-0400 (Eastern Daylight Time)","247988","green","red","","","","","","","","","","223","","","","","","[{""stimulus"":""img/red_lw/1.jpg"",""time"":51},{""stimulus"":""img/red_lw/2.jpg"",""time"":102},{""stimulus"":""img/red_lw/3.jpg"",""time"":153},{""stimulus"":""img/red_lw/4.jpg"",""time"":203},{""stimulus"":""img/red_lw/5.jpg"",""time"":254},{""stimulus"":""img/red_lw/6.jpg"",""time"":305},{""stimulus"":""img/red_lw/7.jpg"",""time"":356},{""stimulus"":""img/red_lw/8.jpg"",""time"":407},{""stimulus"":""img/red_lw/9.jpg"",""time"":457},{""stimulus"":""img/red_lw/10.jpg"",""time"":507},{""stimulus"":""img/red_lw/11.jpg"",""time"":558}]","[]"
"image-keyboard-response","10","41243","0.0-5.0-1.3","60ff4339f5ffb265d16b144f","bdp_lott","Mon Mar 27 2023 16:17:48 GMT-0400 (Eastern Daylight Time)","247988","green","red","","1429","","","","choice","","img/red_lw/choose11.jpg","1","222","green","0.5","0.5","0.5","l","",""
"animation","11","41855","0.0-5.0-2.3","60ff4339f5ffb265d16b144f","bdp_lott","Mon Mar 27 2023 16:17:48 GMT-0400 (Eastern Daylight Time)","247988","green","red","","","","","","","","","","222","","","","","","[{""stimulus"":""img/green_lw/1.jpg"",""time"":51},{""stimulus"":""img/green_lw/2.jpg"",""time"":102},{""stimulus"":""img/green_lw/3.jpg"",""time"":153},{""stimulus"":""img/green_lw/4.jpg"",""time"":207},{""stimulus"":""img/green_lw/5.jpg"",""time"":257},{""stimulus"":""img/green_lw/6.jpg"",""time"":308},{""stimulus"":""img/green_lw/7.jpg"",""time"":358},{""stimulus"":""img/green_lw/8.jpg"",""time"":408},{""stimulus"":""img/green_lw/9.jpg"",""time"":458},{""stimulus"":""img/green_lw/10.jpg"",""time"":509},{""stimulus"":""img/green_lw/11.jpg"",""time"":561}]","[]"
"image-keyboard-response","12","42786","0.0-5.0-1.4","60ff4339f5ffb265d16b144f","bdp_lott","Mon Mar 27 2023 16:17:48 GMT-0400 (Eastern Daylight Time)","247988","green","red","","930","","","","choice","","img/green_lw/choose11.jpg","1","221","green","0.5","0.5","0.5","w","",""
"animation","13","43401","0.0-5.0-2.4","60ff4339f5ffb265d16b144f","bdp_lott","Mon Mar 27 2023 16:17:48 GMT-0400 (Eastern Daylight Time)","247988","green","red","","","","","","","","","","221","","","","","","[{""stimulus"":""img/green_ww/1.jpg"",""time"":51},{""stimulus"":""img/green_ww/2.jpg"",""time"":102},{""stimulus"":""img/green_ww/3.jpg"",""time"":153},{""stimulus"":""img/green_ww/4.jpg"",""time"":203},{""stimulus"":""img/green_ww/5.jpg"",""time"":255},{""stimulus"":""img/green_ww/6.jpg"",""time"":305},{""stimulus"":""img/green_ww/7.jpg"",""time"":356},{""stimulus"":""img/green_ww/8.jpg"",""time"":407},{""stimulus"":""img/green_ww/9.jpg"",""time"":461},{""stimulus"":""img/green_ww/10.jpg"",""time"":511},{""stimulus"":""img/green_ww/11.jpg"",""time"":561}]","[]"
"image-keyboard-response","14","44318","0.0-5.0-1.5","60ff4339f5ffb265d16b144f","bdp_lott","Mon Mar 27 2023 16:17:48 GMT-0400 (Eastern Daylight Time)","247988","green","red","","916","","","","choice","","img/green_ww/choose11.jpg","2","220","red","0.5","0.5","0.5","w","",""
"animation","15","44932","0.0-5.0-2.5","60ff4339f5ffb265d16b144f","bdp_lott","Mon Mar 27 2023 16:17:48 GMT-0400 (Eastern Daylight Time)","247988","green","red","","","","","","","","","","220","","","","","","[{""stimulus"":""img/red_ww/1.jpg"",""time"":51},{""stimulus"":""img/red_ww/2.jpg"",""time"":102},{""stimulus"":""img/red_ww/3.jpg"",""time"":153},{""stimulus"":""img/red_ww/4.jpg"",""time"":205},{""stimulus"":""img/red_ww/5.jpg"",""time"":255},{""stimulus"":""img/red_ww/6.jpg"",""time"":306},{""stimulus"":""img/red_ww/7.jpg"",""time"":357},{""stimulus"":""img/red_ww/8.jpg"",""time"":408},{""stimulus"":""img/red_ww/9.jpg"",""time"":459},{""stimulus"":""img/red_ww/10.jpg"",""time"":510},{""stimulus"":""img/red_ww/11.jpg"",""time"":562}]","[]"
"image-keyboard-response","16","45886","0.0-5.0-1.6","60ff4339f5ffb265d16b144f","bdp_lott","Mon Mar 27 2023 16:17:48 GMT-0400 (Eastern Daylight Time)","247988","green","red","","953","","","","choice","","img/red_ww/choose11.jpg","2","219","red","0.5","0.5","0.5","l","",""
"animation","17","46495","0.0-5.0-2.6","60ff4339f5ffb265d16b144f","bdp_lott","Mon Mar 27 2023 16:17:48 GMT-0400 (Eastern Daylight Time)","247988","green","red","","","","","","","","","","219","","","","","","[{""stimulus"":""img/red_wl/1.jpg"",""time"":52},{""stimulus"":""img/red_wl/2.jpg"",""time"":102},{""stimulus"":""img/red_wl/3.jpg"",""time"":153},{""stimulus"":""img/red_wl/4.jpg"",""time"":204},{""stimulus"":""img/red_wl/5.jpg"",""time"":254},{""stimulus"":""img/red_wl/6.jpg"",""time"":305},{""stimulus"":""img/red_wl/7.jpg"",""time"":355},{""stimulus"":""img/red_wl/8.jpg"",""time"":406},{""stimulus"":""img/red_wl/9.jpg"",""time"":457},{""stimulus"":""img/red_wl/10.jpg"",""time"":508},{""stimulus"":""img/red_wl/11.jpg"",""time"":559}]","[]"
"image-keyboard-response","18","47194","0.0-5.0-1.7","60ff4339f5ffb265d16b144f","bdp_lott","Mon Mar 27 2023 16:17:48 GMT-0400 (Eastern Daylight Time)","247988","green","red","","698","","","","choice","","img/red_wl/choose11.jpg","1","218","green","0.5","0.5","0.5","l","",""
"animation","19","47803","0.0-5.0-2.7","60ff4339f5ffb265d16b144f","bdp_lott","Mon Mar 27 2023 16:17:48 GMT-0400 (Eastern Daylight Time)","247988","green","red","","","","","","","","","","218","","","","","","[{""stimulus"":""img/green_ll/1.jpg"",""time"":51},{""stimulus"":""img/green_ll/2.jpg"",""time"":102},{""stimulus"":""img/green_ll/3.jpg"",""time"":154},{""stimulus"":""img/green_ll/4.jpg"",""time"":205},{""stimulus"":""img/green_ll/5.jpg"",""time"":256},{""stimulus"":""img/green_ll/6.jpg"",""time"":306},{""stimulus"":""img/green_ll/7.jpg"",""time"":357},{""stimulus"":""img/green_ll/8.jpg"",""time"":407},{""stimulus"":""img/green_ll/9.jpg"",""time"":458},{""stimulus"":""img/green_ll/10.jpg"",""time"":508},{""stimulus"":""img/green_ll/11.jpg"",""time"":559}]","[]"
"image-keyboard-response","20","48572","0.0-5.0-1.8","60ff4339f5ffb265d16b144f","bdp_lott","Mon Mar 27 2023 16:17:48 GMT-0400 (Eastern Daylight Time)","247988","green","red","","767","","","","choice","","img/green_ll/choose11.jpg","2","217","red","0.5","0.5","0.5","w","",""
"animation","21","49183","0.0-5.0-2.8","60ff4339f5ffb265d16b144f","bdp_lott","Mon Mar 27 2023 16:17:48 GMT-0400 (Eastern Daylight Time)","247988","green","red","","","","","","","","","","217","","","","","","[{""stimulus"":""img/red_lw/1.jpg"",""time"":52},{""stimulus"":""img/red_lw/2.jpg"",""time"":103},{""stimulus"":""img/red_lw/3.jpg"",""time"":156},{""stimulus"":""img/red_lw/4.jpg"",""time"":207},{""stimulus"":""img/red_lw/5.jpg"",""time"":258},{""stimulus"":""img/red_lw/6.jpg"",""time"":308},{""stimulus"":""img/red_lw/7.jpg"",""time"":358},{""stimulus"":""img/red_lw/8.jpg"",""time"":409},{""stimulus"":""img/red_lw/9.jpg"",""time"":460},{""stimulus"":""img/red_lw/10.jpg"",""time"":511},{""stimulus"":""img/red_lw/11.jpg"",""time"":561}]","[]"
"image-keyboard-response","22","49906","0.0-5.0-1.9","60ff4339f5ffb265d16b144f","bdp_lott","Mon Mar 27 2023 16:17:48 GMT-0400 (Eastern Daylight Time)","247988","green","red","","722","","","","choice","","img/red_lw/choose11.jpg","1","216","green","0.5","0.5","0.5","l","",""
"animation","23","50518","0.0-5.0-2.9","60ff4339f5ffb265d16b144f","bdp_lott","Mon Mar 27 2023 16:17:48 GMT-0400 (Eastern Daylight Time)","247988","green","red","","","","","","","","","","216","","","","","","[{""stimulus"":""img/green_lw/1.jpg"",""time"":52},{""stimulus"":""img/green_lw/2.jpg"",""time"":103},{""stimulus"":""img/green_lw/3.jpg"",""time"":154},{""stimulus"":""img/green_lw/4.jpg"",""time"":206},{""stimulus"":""img/green_lw/5.jpg"",""time"":256},{""stimulus"":""img/green_lw/6.jpg"",""time"":307},{""stimulus"":""img/green_lw/7.jpg"",""time"":358},{""stimulus"":""img/green_lw/8.jpg"",""time"":408},{""stimulus"":""img/green_lw/9.jpg"",""time"":460},{""stimulus"":""img/green_lw/10.jpg"",""time"":510},{""stimulus"":""img/green_lw/11.jpg"",""time"":561}]","[]"
"image-keyboard-response","24","51130","0.0-5.0-1.10","60ff4339f5ffb265d16b144f","bdp_lott","Mon Mar 27 2023 16:17:48 GMT-0400 (Eastern Daylight Time)","247988","green","red","","611","","","","choice","","img/green_lw/choose11.jpg","2","215","red","0.5","0.5","0.5","w","",""
"animation","25","51741","0.0-5.0-2.10","60ff4339f5ffb265d16b144f","bdp_lott","Mon Mar 27 2023 16:17:48 GMT-0400 (Eastern Daylight Time)","247988","green","red","","","","","","","","","","215","","","","","","[{""stimulus"":""img/red_lw/1.jpg"",""time"":51},{""stimulus"":""img/red_lw/2.jpg"",""time"":102},{""stimulus"":""img/red_lw/3.jpg"",""time"":152},{""stimulus"":""img/red_lw/4.jpg"",""time"":203},{""stimulus"":""img/red_lw/5.jpg"",""time"":254},{""stimulus"":""img/red_lw/6.jpg"",""time"":305},{""stimulus"":""img/red_lw/7.jpg"",""time"":355},{""stimulus"":""img/red_lw/8.jpg"",""time"":406},{""stimulus"":""img/red_lw/9.jpg"",""time"":457},{""stimulus"":""img/red_lw/10.jpg"",""time"":508},{""stimulus"":""img/red_lw/11.jpg"",""time"":559}]","[]"
"image-keyboard-response","26","53356","0.0-5.0-1.11","60ff4339f5ffb265d16b144f","bdp_lott","Mon Mar 27 2023 16:17:48 GMT-0400 (Eastern Daylight Time)","247988","green","red","","1614","","","","choice","","img/red_lw/choose11.jpg","2","214","red","0.5","0.5","0.5","w","",""
"animation","27","53966","0.0-5.0-2.11","60ff4339f5ffb265d16b144f","bdp_lott","Mon Mar 27 2023 16:17:48 GMT-0400 (Eastern Daylight Time)","247988","green","red","","","","","","","","","","214","","","","","","[{""stimulus"":""img/red_lw/1.jpg"",""time"":52},{""stimulus"":""img/red_lw/2.jpg"",""time"":103},{""stimulus"":""img/red_lw/3.jpg"",""time"":153},{""stimulus"":""img/red_lw/4.jpg"",""time"":204},{""stimulus"":""img/red_lw/5.jpg"",""time"":254},{""stimulus"":""img/red_lw/6.jpg"",""time"":305},{""stimulus"":""img/red_lw/7.jpg"",""time"":356},{""stimulus"":""img/red_lw/8.jpg"",""time"":407},{""stimulus"":""img/red_lw/9.jpg"",""time"":457},{""stimulus"":""img/red_lw/10.jpg"",""time"":508},{""stimulus"":""img/red_lw/11.jpg"",""time"":558}]","[]"
"image-keyboard-response","28","54939","0.0-5.0-1.12","60ff4339f5ffb265d16b144f","bdp_lott","Mon Mar 27 2023 16:17:48 GMT-0400 (Eastern Daylight Time)","247988","green","red","","972","","","","choice","","img/red_lw/choose11.jpg","1","213","green","0.5","0.5","0.5","l","",""
"animation","29","55549","0.0-5.0-2.12","60ff4339f5ffb265d16b144f","bdp_lott","Mon Mar 27 2023 16:17:48 GMT-0400 (Eastern Daylight Time)","247988","green","red","","","","","","","","","","213","","","","","","[{""stimulus"":""img/green_lw/1.jpg"",""time"":50},{""stimulus"":""img/green_lw/2.jpg"",""time"":101},{""stimulus"":""img/green_lw/3.jpg"",""time"":152},{""stimulus"":""img/green_lw/4.jpg"",""time"":203},{""stimulus"":""img/green_lw/5.jpg"",""time"":253},{""stimulus"":""img/green_lw/6.jpg"",""time"":304},{""stimulus"":""img/green_lw/7.jpg"",""time"":355},{""stimulus"":""img/green_lw/8.jpg"",""time"":406},{""stimulus"":""img/green_lw/9.jpg"",""time"":457},{""stimulus"":""img/green_lw/10.jpg"",""time"":507},{""stimulus"":""img/green_lw/11.jpg"",""time"":559}]","[]"
"image-keyboard-response","30","56052","0.0-5.0-1.13","60ff4339f5ffb265d16b144f","bdp_lott","Mon Mar 27 2023 16:17:48 GMT-0400 (Eastern Daylight Time)","247988","green","red","","502","","","","choice","","img/green_lw/choose11.jpg","2","212","red","0.5","0.5","0.5","l","",""
"animation","31","56665","0.0-5.0-2.13","60ff4339f5ffb265d16b144f","bdp_lott","Mon Mar 27 2023 16:17:48 GMT-0400 (Eastern Daylight Time)","247988","green","red","","","","","","","","","","212","","","","","","[{""stimulus"":""img/red_ll/1.jpg"",""time"":52},{""stimulus"":""img/red_ll/2.jpg"",""time"":102},{""stimulus"":""img/red_ll/3.jpg"",""time"":153},{""stimulus"":""img/red_ll/4.jpg"",""time"":204},{""stimulus"":""img/red_ll/5.jpg"",""time"":255},{""stimulus"":""img/red_ll/6.jpg"",""time"":307},{""stimulus"":""img/red_ll/7.jpg"",""time"":358},{""stimulus"":""img/red_ll/8.jpg"",""time"":408},{""stimulus"":""img/red_ll/9.jpg"",""time"":459},{""stimulus"":""img/red_ll/10.jpg"",""time"":509},{""stimulus"":""img/red_ll/11.jpg"",""time"":560}]","[]"
"image-keyboard-response","32","57550","0.0-5.0-1.14","60ff4339f5ffb265d16b144f","bdp_lott","Mon Mar 27 2023 16:17:48 GMT-0400 (Eastern Daylight Time)","247988","green","red","","882","","","","choice","","img/red_ll/choose11.jpg","2","211","red","0.5","0.5","0.5","l","",""
"animation","33","58162","0.0-5.0-2.14","60ff4339f5ffb265d16b144f","bdp_lott","Mon Mar 27 2023 16:17:48 GMT-0400 (Eastern Daylight Time)","247988","green","red","","","","","","","","","","211","","","","","","[{""stimulus"":""img/red_ll/1.jpg"",""time"":50},{""stimulus"":""img/red_ll/2.jpg"",""time"":102},{""stimulus"":""img/red_ll/3.jpg"",""time"":152},{""stimulus"":""img/red_ll/4.jpg"",""time"":204},{""stimulus"":""img/red_ll/5.jpg"",""time"":255},{""stimulus"":""img/red_ll/6.jpg"",""time"":306},{""stimulus"":""img/red_ll/7.jpg"",""time"":357},{""stimulus"":""img/red_ll/8.jpg"",""time"":407},{""stimulus"":""img/red_ll/9.jpg"",""time"":458},{""stimulus"":""img/red_ll/10.jpg"",""time"":510},{""stimulus"":""img/red_ll/11.jpg"",""time"":560}]","[]"
"image-keyboard-response","34","58836","0.0-5.0-1.15","60ff4339f5ffb265d16b144f","bdp_lott","Mon Mar 27 2023 16:17:48 GMT-0400 (Eastern Daylight Time)","247988","green","red","","673","","","","choice","","img/red_ll/choose11.jpg","1","210","green","0.5","0.5","0.5","l","",""
"animation","35","59448","0.0-5.0-2.15","60ff4339f5ffb265d16b144f","bdp_lott","Mon Mar 27 2023 16:17:48 GMT-0400 (Eastern Daylight Time)","247988","green","red","","","","","","","","","","210","","","","","","[{""stimulus"":""img/green_ll/1.jpg"",""time"":51},{""stimulus"":""img/green_ll/2.jpg"",""time"":102},{""stimulus"":""img/green_ll/3.jpg"",""time"":152},{""stimulus"":""img/green_ll/4.jpg"",""time"":203},{""stimulus"":""img/green_ll/5.jpg"",""time"":254},{""stimulus"":""img/green_ll/6.jpg"",""time"":304},{""stimulus"":""img/green_ll/7.jpg"",""time"":355},{""stimulus"":""img/green_ll/8.jpg"",""time"":406},{""stimulus"":""img/green_ll/9.jpg"",""time"":457},{""stimulus"":""img/green_ll/10.jpg"",""time"":508},{""stimulus"":""img/green_ll/11.jpg"",""time"":559}]","[]"
"image-keyboard-response","36","60020","0.0-5.0-1.16","60ff4339f5ffb265d16b144f","bdp_lott","Mon Mar 27 2023 16:17:48 GMT-0400 (Eastern Daylight Time)","247988","green","red","","572","","","","choice","","img/green_ll/choose11.jpg","2","209","red","0.5","0.5","0.5","w","",""
"animation","37","60634","0.0-5.0-2.16","60ff4339f5ffb265d16b144f","bdp_lott","Mon Mar 27 2023 16:17:48 GMT-0400 (Eastern Daylight Time)","247988","green","red","","","","","","","","","","209","","","","","","[{""stimulus"":""img/red_lw/1.jpg"",""time"":51},{""stimulus"":""img/red_lw/2.jpg"",""time"":102},{""stimulus"":""img/red_lw/3.jpg"",""time"":153},{""stimulus"":""img/red_lw/4.jpg"",""time"":205},{""stimulus"":""img/red_lw/5.jpg"",""time"":255},{""stimulus"":""img/red_lw/6.jpg"",""time"":306},{""stimulus"":""img/red_lw/7.jpg"",""time"":357},{""stimulus"":""img/red_lw/8.jpg"",""time"":407},{""stimulus"":""img/red_lw/9.jpg"",""time"":458},{""stimulus"":""img/red_lw/10.jpg"",""time"":510},{""stimulus"":""img/red_lw/11.jpg"",""time"":560}]","[]"
"image-keyboard-response","38","61284","0.0-5.0-1.17","60ff4339f5ffb265d16b144f","bdp_lott","Mon Mar 27 2023 16:17:48 GMT-0400 (Eastern Daylight Time)","247988","green","red","","649","","","","choice","","img/red_lw/choose11.jpg","2","208","red","0.5","0.5","0.5","w","",""
"animation","39","61895","0.0-5.0-2.17","60ff4339f5ffb265d16b144f","bdp_lott","Mon Mar 27 2023 16:17:48 GMT-0400 (Eastern Daylight Time)","247988","green","red","","","","","","","","","","208","","","","","","[{""stimulus"":""img/red_lw/1.jpg"",""time"":50},{""stimulus"":""img/red_lw/2.jpg"",""time"":100},{""stimulus"":""img/red_lw/3.jpg"",""time"":151},{""stimulus"":""img/red_lw/4.jpg"",""time"":202},{""stimulus"":""img/red_lw/5.jpg"",""time"":253},{""stimulus"":""img/red_lw/6.jpg"",""time"":305},{""stimulus"":""img/red_lw/7.jpg"",""time"":356},{""stimulus"":""img/red_lw/8.jpg"",""time"":407},{""stimulus"":""img/red_lw/9.jpg"",""time"":457},{""stimulus"":""img/red_lw/10.jpg"",""time"":507},{""stimulus"":""img/red_lw/11.jpg"",""time"":559}]","[]"
"image-keyboard-response","40","62681","0.0-5.0-1.18","60ff4339f5ffb265d16b144f","bdp_lott","Mon Mar 27 2023 16:17:48 GMT-0400 (Eastern Daylight Time)","247988","green","red","","785","","","","choice","","img/red_lw/choose11.jpg","2","207","red","0.5","0.5","0.5","l","",""
"animation","41","63293","0.0-5.0-2.18","60ff4339f5ffb265d16b144f","bdp_lott","Mon Mar 27 2023 16:17:48 GMT-0400 (Eastern Daylight Time)","247988","green","red","","","","","","","","","","207","","","","","","[{""stimulus"":""img/red_ll/1.jpg"",""time"":54},{""stimulus"":""img/red_ll/2.jpg"",""time"":105},{""stimulus"":""img/red_ll/3.jpg"",""time"":155},{""stimulus"":""img/red_ll/4.jpg"",""time"":206},{""stimulus"":""img/red_ll/5.jpg"",""time"":256},{""stimulus"":""img/red_ll/6.jpg"",""time"":307},{""stimulus"":""img/red_ll/7.jpg"",""time"":358},{""stimulus"":""img/red_ll/8.jpg"",""time"":409},{""stimulus"":""img/red_ll/9.jpg"",""time"":460},{""stimulus"":""img/red_ll/10.jpg"",""time"":511},{""stimulus"":""img/red_ll/11.jpg"",""time"":561}]","[]"
"image-keyboard-response","42","63831","0.0-5.0-1.19","60ff4339f5ffb265d16b144f","bdp_lott","Mon Mar 27 2023 16:17:48 GMT-0400 (Eastern Daylight Time)","247988","green","red","","537","","","","choice","","img/red_ll/choose11.jpg","2","206","red","0.5","0.5","0.5","w","",""
"animation","43","64440","0.0-5.0-2.19","60ff4339f5ffb265d16b144f","bdp_lott","Mon Mar 27 2023 16:17:48 GMT-0400 (Eastern Daylight Time)","247988","green","red","","","","","","","","","","206","","","","","","[{""stimulus"":""img/red_lw/1.jpg"",""time"":52},{""stimulus"":""img/red_lw/2.jpg"",""time"":103},{""stimulus"":""img/red_lw/3.jpg"",""time"":154},{""stimulus"":""img/red_lw/4.jpg"",""time"":204},{""stimulus"":""img/red_lw/5.jpg"",""time"":254},{""stimulus"":""img/red_lw/6.jpg"",""time"":305},{""stimulus"":""img/red_lw/7.jpg"",""time"":355},{""stimulus"":""img/red_lw/8.jpg"",""time"":405},{""stimulus"":""img/red_lw/9.jpg"",""time"":456},{""stimulus"":""img/red_lw/10.jpg"",""time"":507},{""stimulus"":""img/red_lw/11.jpg"",""time"":558}]","[]"
"image-keyboard-response","44","65210","0.0-5.0-1.20","60ff4339f5ffb265d16b144f","bdp_lott","Mon Mar 27 2023 16:17:48 GMT-0400 (Eastern Daylight Time)","247988","green","red","","770","","","","choice","","img/red_lw/choose11.jpg","2","205","red","0.5","0.5","0.5","w","",""
"animation","45","65822","0.0-5.0-2.20","60ff4339f5ffb265d16b144f","bdp_lott","Mon Mar 27 2023 16:17:48 GMT-0400 (Eastern Daylight Time)","247988","green","red","","","","","","","","","","205","","","","","","[{""stimulus"":""img/red_lw/1.jpg"",""time"":53},{""stimulus"":""img/red_lw/2.jpg"",""time"":104},{""stimulus"":""img/red_lw/3.jpg"",""time"":154},{""stimulus"":""img/red_lw/4.jpg"",""time"":205},{""stimulus"":""img/red_lw/5.jpg"",""time"":255},{""stimulus"":""img/red_lw/6.jpg"",""time"":306},{""stimulus"":""img/red_lw/7.jpg"",""time"":357},{""stimulus"":""img/red_lw/8.jpg"",""time"":408},{""stimulus"":""img/red_lw/9.jpg"",""time"":458},{""stimulus"":""img/red_lw/10.jpg"",""time"":509},{""stimulus"":""img/red_lw/11.jpg"",""time"":560}]","[]"
"image-keyboard-response","46","66452","0.0-5.0-1.21","60ff4339f5ffb265d16b144f","bdp_lott","Mon Mar 27 2023 16:17:48 GMT-0400 (Eastern Daylight Time)","247988","green","red","","629","","","","choice","","img/red_lw/choose11.jpg","2","204","red","0.5","0.5","0.5","l","",""
"animation","47","67064","0.0-5.0-2.21","60ff4339f5ffb265d16b144f","bdp_lott","Mon Mar 27 2023 16:17:48 GMT-0400 (Eastern Daylight Time)","247988","green","red","","","","","","","","","","204","","","","","","[{""stimulus"":""img/red_ll/1.jpg"",""time"":51},{""stimulus"":""img/red_ll/2.jpg"",""time"":102},{""stimulus"":""img/red_ll/3.jpg"",""time"":153},{""stimulus"":""img/red_ll/4.jpg"",""time"":204},{""stimulus"":""img/red_ll/5.jpg"",""time"":254},{""stimulus"":""img/red_ll/6.jpg"",""time"":305},{""stimulus"":""img/red_ll/7.jpg"",""time"":356},{""stimulus"":""img/red_ll/8.jpg"",""time"":410},{""stimulus"":""img/red_ll/9.jpg"",""time"":460},{""stimulus"":""img/red_ll/10.jpg"",""time"":510},{""stimulus"":""img/red_ll/11.jpg"",""time"":561}]","[]"
"image-keyboard-response","48","67437","0.0-5.0-1.22","60ff4339f5ffb265d16b144f","bdp_lott","Mon Mar 27 2023 16:17:48 GMT-0400 (Eastern Daylight Time)","247988","green","red","","372","","","","choice","","img/red_ll/choose11.jpg","1","203","green","0.5","0.5","0.5","w","",""
"animation","49","68048","0.0-5.0-2.22","60ff4339f5ffb265d16b144f","bdp_lott","Mon Mar 27 2023 16:17:48 GMT-0400 (Eastern Daylight Time)","247988","green","red","","","","","","","","","","203","","","","","","[{""stimulus"":""img/green_wl/1.jpg"",""time"":51},{""stimulus"":""img/green_wl/2.jpg"",""time"":101},{""stimulus"":""img/green_wl/3.jpg"",""time"":152},{""stimulus"":""img/green_wl/4.jpg"",""time"":203},{""stimulus"":""img/green_wl/5.jpg"",""time"":254},{""stimulus"":""img/green_wl/6.jpg"",""time"":305},{""stimulus"":""img/green_wl/7.jpg"",""time"":356},{""stimulus"":""img/green_wl/8.jpg"",""time"":408},{""stimulus"":""img/green_wl/9.jpg"",""time"":459},{""stimulus"":""img/green_wl/10.jpg"",""time"":509},{""stimulus"":""img/green_wl/11.jpg"",""time"":559}]","[]"
"image-keyboard-response","50","68780","0.0-5.0-1.23","60ff4339f5ffb265d16b144f","bdp_lott","Mon Mar 27 2023 16:17:48 GMT-0400 (Eastern Daylight Time)","247988","green","red","","730","","","","choice","","img/green_wl/choose11.jpg","2","202","red","0.5","0.5","0.5","l","",""
"animation","51","69390","0.0-5.0-2.23","60ff4339f5ffb265d16b144f","bdp_lott","Mon Mar 27 2023 16:17:48 GMT-0400 (Eastern Daylight Time)","247988","green","red","","","","","","","","","","202","","","","","","[{""stimulus"":""img/red_wl/1.jpg"",""time"":52},{""stimulus"":""img/red_wl/2.jpg"",""time"":102},{""stimulus"":""img/red_wl/3.jpg"",""time"":153},{""stimulus"":""img/red_wl/4.jpg"",""time"":203},{""stimulus"":""img/red_wl/5.jpg"",""time"":254},{""stimulus"":""img/red_wl/6.jpg"",""time"":306},{""stimulus"":""img/red_wl/7.jpg"",""time"":356},{""stimulus"":""img/red_wl/8.jpg"",""time"":407},{""stimulus"":""img/red_wl/9.jpg"",""time"":458},{""stimulus"":""img/red_wl/10.jpg"",""time"":509},{""stimulus"":""img/red_wl/11.jpg"",""time"":559}]","[]"
"image-keyboard-response","52","70223","0.0-5.0-1.24","60ff4339f5ffb265d16b144f","bdp_lott","Mon Mar 27 2023 16:17:48 GMT-0400 (Eastern Daylight Time)","247988","green","red","","832","","","","choice","","img/red_wl/choose11.jpg","2","201","red","0.5","0.5","0.5","l","",""
"animation","53","70837","0.0-5.0-2.24","60ff4339f5ffb265d16b144f","bdp_lott","Mon Mar 27 2023 16:17:48 GMT-0400 (Eastern Daylight Time)","247988","green","red","","","","","","","","","","201","","","","","","[{""stimulus"":""img/red_wl/1.jpg"",""time"":51},{""stimulus"":""img/red_wl/2.jpg"",""time"":102},{""stimulus"":""img/red_wl/3.jpg"",""time"":155},{""stimulus"":""img/red_wl/4.jpg"",""time"":207},{""stimulus"":""img/red_wl/5.jpg"",""time"":257},{""stimulus"":""img/red_wl/6.jpg"",""time"":309},{""stimulus"":""img/red_wl/7.jpg"",""time"":359},{""stimulus"":""img/red_wl/8.jpg"",""time"":410},{""stimulus"":""img/red_wl/9.jpg"",""time"":460},{""stimulus"":""img/red_wl/10.jpg"",""time"":511},{""stimulus"":""img/red_wl/11.jpg"",""time"":562}]","[]"
"image-keyboard-response","54","71180","0.0-5.0-1.25","60ff4339f5ffb265d16b144f","bdp_lott","Mon Mar 27 2023 16:17:48 GMT-0400 (Eastern Daylight Time)","247988","green","red","","342","","","","choice","","img/red_wl/choose11.jpg","1","200","green","0.5","0.5","0.5","w","",""
"animation","55","71789","0.0-5.0-2.25","60ff4339f5ffb265d16b144f","bdp_lott","Mon Mar 27 2023 16:17:48 GMT-0400 (Eastern Daylight Time)","247988","green","red","","","","","","","","","","200","","","","","","[{""stimulus"":""img/green_wl/1.jpg"",""time"":51},{""stimulus"":""img/green_wl/2.jpg"",""time"":101},{""stimulus"":""img/green_wl/3.jpg"",""time"":152},{""stimulus"":""img/green_wl/4.jpg"",""time"":202},{""stimulus"":""img/green_wl/5.jpg"",""time"":253},{""stimulus"":""img/green_wl/6.jpg"",""time"":304},{""stimulus"":""img/green_wl/7.jpg"",""time"":355},{""stimulus"":""img/green_wl/8.jpg"",""time"":405},{""stimulus"":""img/green_wl/9.jpg"",""time"":456},{""stimulus"":""img/green_wl/10.jpg"",""time"":507},{""stimulus"":""img/green_wl/11.jpg"",""time"":558}]","[]"
"image-keyboard-response","56","72589","0.0-5.0-1.26","60ff4339f5ffb265d16b144f","bdp_lott","Mon Mar 27 2023 16:17:48 GMT-0400 (Eastern Daylight Time)","247988","green","red","","799","","","","choice","","img/green_wl/choose11.jpg","1","199","green","0.5","0.5","0.5","w","",""
"animation","57","73200","0.0-5.0-2.26","60ff4339f5ffb265d16b144f","bdp_lott","Mon Mar 27 2023 16:17:48 GMT-0400 (Eastern Daylight Time)","247988","green","red","","","","","","","","","","199","","","","","","[{""stimulus"":""img/green_wl/1.jpg"",""time"":50},{""stimulus"":""img/green_wl/2.jpg"",""time"":101},{""stimulus"":""img/green_wl/3.jpg"",""time"":154},{""stimulus"":""img/green_wl/4.jpg"",""time"":205},{""stimulus"":""img/green_wl/5.jpg"",""time"":256},{""stimulus"":""img/green_wl/6.jpg"",""time"":306},{""stimulus"":""img/green_wl/7.jpg"",""time"":356},{""stimulus"":""img/green_wl/8.jpg"",""time"":407},{""stimulus"":""img/green_wl/9.jpg"",""time"":457},{""stimulus"":""img/green_wl/10.jpg"",""time"":508},{""stimulus"":""img/green_wl/11.jpg"",""time"":559}]","[]"
"image-keyboard-response","58","73706","0.0-5.0-1.27","60ff4339f5ffb265d16b144f","bdp_lott","Mon Mar 27 2023 16:17:48 GMT-0400 (Eastern Daylight Time)","247988","green","red","","506","","","","choice","","img/green_wl/choose11.jpg","2","198","red","0.5","0.5","0.5","l","",""
"animation","59","74318","0.0-5.0-2.27","60ff4339f5ffb265d16b144f","bdp_lott","Mon Mar 27 2023 16:17:48 GMT-0400 (Eastern Daylight Time)","247988","green","red","","","","","","","","","","198","","","","","","[{""stimulus"":""img/red_wl/1.jpg"",""time"":51},{""stimulus"":""img/red_wl/2.jpg"",""time"":103},{""stimulus"":""img/red_wl/3.jpg"",""time"":153},{""stimulus"":""img/red_wl/4.jpg"",""time"":204},{""stimulus"":""img/red_wl/5.jpg"",""time"":255},{""stimulus"":""img/red_wl/6.jpg"",""time"":306},{""stimulus"":""img/red_wl/7.jpg"",""time"":357},{""stimulus"":""img/red_wl/8.jpg"",""time"":408},{""stimulus"":""img/red_wl/9.jpg"",""time"":459},{""stimulus"":""img/red_wl/10.jpg"",""time"":510},{""stimulus"":""img/red_wl/11.jpg"",""time"":561}]","[]"
"image-keyboard-response","60","74758","0.0-5.0-1.28","60ff4339f5ffb265d16b144f","bdp_lott","Mon Mar 27 2023 16:17:48 GMT-0400 (Eastern Daylight Time)","247988","green","red","","438","","","","choice","","img/red_wl/choose11.jpg","1","197","green","0.5","0.5","0.5","w","",""
"animation","61","75369","0.0-5.0-2.28","60ff4339f5ffb265d16b144f","bdp_lott","Mon Mar 27 2023 16:17:48 GMT-0400 (Eastern Daylight Time)","247988","green","red","","","","","","","","","","197","","","","","","[{""stimulus"":""img/green_wl/1.jpg"",""time"":51},{""stimulus"":""img/green_wl/2.jpg"",""time"":102},{""stimulus"":""img/green_wl/3.jpg"",""time"":153},{""stimulus"":""img/green_wl/4.jpg"",""time"":203},{""stimulus"":""img/green_wl/5.jpg"",""time"":254},{""stimulus"":""img/green_wl/6.jpg"",""time"":304},{""stimulus"":""img/green_wl/7.jpg"",""time"":355},{""stimulus"":""img/green_wl/8.jpg"",""time"":406},{""stimulus"":""img/green_wl/9.jpg"",""time"":456},{""stimulus"":""img/green_wl/10.jpg"",""time"":507},{""stimulus"":""img/green_wl/11.jpg"",""time"":559}]","[]"
"image-keyboard-response","62","76027","0.0-5.0-1.29","60ff4339f5ffb265d16b144f","bdp_lott","Mon Mar 27 2023 16:17:48 GMT-0400 (Eastern Daylight Time)","247988","green","red","","657","","","","choice","","img/green_wl/choose11.jpg","2","196","red","0.5","0.5","0.5","l","",""
"animation","63","76635","0.0-5.0-2.29","60ff4339f5ffb265d16b144f","bdp_lott","Mon Mar 27 2023 16:17:48 GMT-0400 (Eastern Daylight Time)","247988","green","red","","","","","","","","","","196","","","","","","[{""stimulus"":""img/red_wl/1.jpg"",""time"":50},{""stimulus"":""img/red_wl/2.jpg"",""time"":101},{""stimulus"":""img/red_wl/3.jpg"",""time"":151},{""stimulus"":""img/red_wl/4.jpg"",""time"":203},{""stimulus"":""img/red_wl/5.jpg"",""time"":254},{""stimulus"":""img/red_wl/6.jpg"",""time"":304},{""stimulus"":""img/red_wl/7.jpg"",""time"":355},{""stimulus"":""img/red_wl/8.jpg"",""time"":405},{""stimulus"":""img/red_wl/9.jpg"",""time"":456},{""stimulus"":""img/red_wl/10.jpg"",""time"":506},{""stimulus"":""img/red_wl/11.jpg"",""time"":557}]","[]"
"image-keyboard-response","64","76950","0.0-5.0-1.30","60ff4339f5ffb265d16b144f","bdp_lott","Mon Mar 27 2023 16:17:48 GMT-0400 (Eastern Daylight Time)","247988","green","red","","315","","","","choice","","img/red_wl/choose11.jpg","1","195","green","0.5","0.5","0.5","l","",""
"animation","65","77564","0.0-5.0-2.30","60ff4339f5ffb265d16b144f","bdp_lott","Mon Mar 27 2023 16:17:48 GMT-0400 (Eastern Daylight Time)","247988","green","red","","","","","","","","","","195","","","","","","[{""stimulus"":""img/green_ll/1.jpg"",""time"":51},{""stimulus"":""img/green_ll/2.jpg"",""time"":102},{""stimulus"":""img/green_ll/3.jpg"",""time"":153},{""stimulus"":""img/green_ll/4.jpg"",""time"":204},{""stimulus"":""img/green_ll/5.jpg"",""time"":255},{""stimulus"":""img/green_ll/6.jpg"",""time"":307},{""stimulus"":""img/green_ll/7.jpg"",""time"":358},{""stimulus"":""img/green_ll/8.jpg"",""time"":411},{""stimulus"":""img/green_ll/9.jpg"",""time"":461},{""stimulus"":""img/green_ll/10.jpg"",""time"":512},{""stimulus"":""img/green_ll/11.jpg"",""time"":562}]","[]"
"image-keyboard-response","66","78108","0.0-5.0-1.31","60ff4339f5ffb265d16b144f","bdp_lott","Mon Mar 27 2023 16:17:48 GMT-0400 (Eastern Daylight Time)","247988","green","red","","543","","","","choice","","img/green_ll/choose11.jpg","2","194","red","0.5","0.5","0.5","w","",""
"animation","67","78717","0.0-5.0-2.31","60ff4339f5ffb265d16b144f","bdp_lott","Mon Mar 27 2023 16:17:48 GMT-0400 (Eastern Daylight Time)","247988","green","red","","","","","","","","","","194","","","","","","[{""stimulus"":""img/red_lw/1.jpg"",""time"":51},{""stimulus"":""img/red_lw/2.jpg"",""time"":101},{""stimulus"":""img/red_lw/3.jpg"",""time"":151},{""stimulus"":""img/red_lw/4.jpg"",""time"":202},{""stimulus"":""img/red_lw/5.jpg"",""time"":253},{""stimulus"":""img/red_lw/6.jpg"",""time"":303},{""stimulus"":""img/red_lw/7.jpg"",""time"":353},{""stimulus"":""img/red_lw/8.jpg"",""time"":404},{""stimulus"":""img/red_lw/9.jpg"",""time"":455},{""stimulus"":""img/red_lw/10.jpg"",""time"":506},{""stimulus"":""img/red_lw/11.jpg"",""time"":557}]","[]"
"image-keyboard-response","68","79339","0.0-5.0-1.32","60ff4339f5ffb265d16b144f","bdp_lott","Mon Mar 27 2023 16:17:48 GMT-0400 (Eastern Daylight Time)","247988","green","red","","622","","","","choice","","img/red_lw/choose11.jpg","2","193","red","0.5","0.5","0.5","w","",""
"animation","69","79949","0.0-5.0-2.32","60ff4339f5ffb265d16b144f","bdp_lott","Mon Mar 27 2023 16:17:48 GMT-0400 (Eastern Daylight Time)","247988","green","red","","","","","","","","","","193","","","","","","[{""stimulus"":""img/red_lw/1.jpg"",""time"":51},{""stimulus"":""img/red_lw/2.jpg"",""time"":102},{""stimulus"":""img/red_lw/3.jpg"",""time"":152},{""stimulus"":""img/red_lw/4.jpg"",""time"":203},{""stimulus"":""img/red_lw/5.jpg"",""time"":254},{""stimulus"":""img/red_lw/6.jpg"",""time"":304},{""stimulus"":""img/red_lw/7.jpg"",""time"":356},{""stimulus"":""img/red_lw/8.jpg"",""time"":406},{""stimulus"":""img/red_lw/9.jpg"",""time"":456},{""stimulus"":""img/red_lw/10.jpg"",""time"":507},{""stimulus"":""img/red_lw/11.jpg"",""time"":558}]","[]"
"image-keyboard-response","70","80393","0.0-5.0-1.33","60ff4339f5ffb265d16b144f","bdp_lott","Mon Mar 27 2023 16:17:48 GMT-0400 (Eastern Daylight Time)","247988","green","red","","443","","","","choice","","img/red_lw/choose11.jpg","1","192","green","0.5","0.5","0.5","l","",""
"animation","71","81007","0.0-5.0-2.33","60ff4339f5ffb265d16b144f","bdp_lott","Mon Mar 27 2023 16:17:48 GMT-0400 (Eastern Daylight Time)","247988","green","red","","","","","","","","","","192","","","","","","[{""stimulus"":""img/green_lw/1.jpg"",""time"":52},{""stimulus"":""img/green_lw/2.jpg"",""time"":103},{""stimulus"":""img/green_lw/3.jpg"",""time"":154},{""stimulus"":""img/green_lw/4.jpg"",""time"":205},{""stimulus"":""img/green_lw/5.jpg"",""time"":256},{""stimulus"":""img/green_lw/6.jpg"",""time"":307},{""stimulus"":""img/green_lw/7.jpg"",""time"":358},{""stimulus"":""img/green_lw/8.jpg"",""time"":408},{""stimulus"":""img/green_lw/9.jpg"",""time"":461},{""stimulus"":""img/green_lw/10.jpg"",""time"":512},{""stimulus"":""img/green_lw/11.jpg"",""time"":564}]","[]"
"image-keyboard-response","72","81473","0.0-5.0-1.34","60ff4339f5ffb265d16b144f","bdp_lott","Mon Mar 27 2023 16:17:48 GMT-0400 (Eastern Daylight Time)","247988","green","red","","465","","","","choice","","img/green_lw/choose11.jpg","2","191","red","0.5","0.5","0.5","l","",""
"animation","73","82085","0.0-5.0-2.34","60ff4339f5ffb265d16b144f","bdp_lott","Mon Mar 27 2023 16:17:48 GMT-0400 (Eastern Daylight Time)","247988","green","red","","","","","","","","","","191","","","","","","[{""stimulus"":""img/red_ll/1.jpg"",""time"":52},{""stimulus"":""img/red_ll/2.jpg"",""time"":103},{""stimulus"":""img/red_ll/3.jpg"",""time"":153},{""stimulus"":""img/red_ll/4.jpg"",""time"":204},{""stimulus"":""img/red_ll/5.jpg"",""time"":254},{""stimulus"":""img/red_ll/6.jpg"",""time"":305},{""stimulus"":""img/red_ll/7.jpg"",""time"":356},{""stimulus"":""img/red_ll/8.jpg"",""time"":407},{""stimulus"":""img/red_ll/9.jpg"",""time"":458},{""stimulus"":""img/red_ll/10.jpg"",""time"":509},{""stimulus"":""img/red_ll/11.jpg"",""time"":561}]","[]"
"image-keyboard-response","74","82406","0.0-5.0-1.35","60ff4339f5ffb265d16b144f","bdp_lott","Mon Mar 27 2023 16:17:48 GMT-0400 (Eastern Daylight Time)","247988","green","red","","321","","","","choice","","img/red_ll/choose11.jpg","1","190","green","0.5","0.5","0.5","w","",""
"animation","75","83017","0.0-5.0-2.35","60ff4339f5ffb265d16b144f","bdp_lott","Mon Mar 27 2023 16:17:48 GMT-0400 (Eastern Daylight Time)","247988","green","red","","","","","","","","","","190","","","","","","[{""stimulus"":""img/green_wl/1.jpg"",""time"":51},{""stimulus"":""img/green_wl/2.jpg"",""time"":102},{""stimulus"":""img/green_wl/3.jpg"",""time"":153},{""stimulus"":""img/green_wl/4.jpg"",""time"":204},{""stimulus"":""img/green_wl/5.jpg"",""time"":255},{""stimulus"":""img/green_wl/6.jpg"",""time"":306},{""stimulus"":""img/green_wl/7.jpg"",""time"":357},{""stimulus"":""img/green_wl/8.jpg"",""time"":408},{""stimulus"":""img/green_wl/9.jpg"",""time"":459},{""stimulus"":""img/green_wl/10.jpg"",""time"":509},{""stimulus"":""img/green_wl/11.jpg"",""time"":560}]","[]"
"image-keyboard-response","76","83502","0.0-5.0-1.36","60ff4339f5ffb265d16b144f","bdp_lott","Mon Mar 27 2023 16:17:48 GMT-0400 (Eastern Daylight Time)","247988","green","red","","484","","","","choice","","img/green_wl/choose11.jpg","2","189","red","0.5","0.5","0.5","w","",""
"animation","77","84111","0.0-5.0-2.36","60ff4339f5ffb265d16b144f","bdp_lott","Mon Mar 27 2023 16:17:48 GMT-0400 (Eastern Daylight Time)","247988","green","red","","","","","","","","","","189","","","","","","[{""stimulus"":""img/red_ww/1.jpg"",""time"":51},{""stimulus"":""img/red_ww/2.jpg"",""time"":101},{""stimulus"":""img/red_ww/3.jpg"",""time"":152},{""stimulus"":""img/red_ww/4.jpg"",""time"":204},{""stimulus"":""img/red_ww/5.jpg"",""time"":254},{""stimulus"":""img/red_ww/6.jpg"",""time"":305},{""stimulus"":""img/red_ww/7.jpg"",""time"":356},{""stimulus"":""img/red_ww/8.jpg"",""time"":407},{""stimulus"":""img/red_ww/9.jpg"",""time"":457},{""stimulus"":""img/red_ww/10.jpg"",""time"":508},{""stimulus"":""img/red_ww/11.jpg"",""time"":558}]","[]"
"image-keyboard-response","78","84722","0.0-5.0-1.37","60ff4339f5ffb265d16b144f","bdp_lott","Mon Mar 27 2023 16:17:48 GMT-0400 (Eastern Daylight Time)","247988","green","red","","610","","","","choice","","img/red_ww/choose11.jpg","2","188","red","0.5","0.5","0.5","w","",""
"animation","79","85338","0.0-5.0-2.37","60ff4339f5ffb265d16b144f","bdp_lott","Mon Mar 27 2023 16:17:48 GMT-0400 (Eastern Daylight Time)","247988","green","red","","","","","","","","","","188","","","","","","[{""stimulus"":""img/red_ww/1.jpg"",""time"":51},{""stimulus"":""img/red_ww/2.jpg"",""time"":101},{""stimulus"":""img/red_ww/3.jpg"",""time"":152},{""stimulus"":""img/red_ww/4.jpg"",""time"":203},{""stimulus"":""img/red_ww/5.jpg"",""time"":254},{""stimulus"":""img/red_ww/6.jpg"",""time"":305},{""stimulus"":""img/red_ww/7.jpg"",""time"":356},{""stimulus"":""img/red_ww/8.jpg"",""time"":407},{""stimulus"":""img/red_ww/9.jpg"",""time"":458},{""stimulus"":""img/red_ww/10.jpg"",""time"":512},{""stimulus"":""img/red_ww/11.jpg"",""time"":565}]","[]"
"image-keyboard-response","80","85922","0.0-5.0-1.38","60ff4339f5ffb265d16b144f","bdp_lott","Mon Mar 27 2023 16:17:48 GMT-0400 (Eastern Daylight Time)","247988","green","red","","584","","","","choice","","img/red_ww/choose11.jpg","1","187","green","0.5","0.5","0.5","w","",""
"animation","81","86537","0.0-5.0-2.38","60ff4339f5ffb265d16b144f","bdp_lott","Mon Mar 27 2023 16:17:48 GMT-0400 (Eastern Daylight Time)","247988","green","red","","","","","","","","","","187","","","","","","[{""stimulus"":""img/green_ww/1.jpg"",""time"":51},{""stimulus"":""img/green_ww/2.jpg"",""time"":101},{""stimulus"":""img/green_ww/3.jpg"",""time"":153},{""stimulus"":""img/green_ww/4.jpg"",""time"":203},{""stimulus"":""img/green_ww/5.jpg"",""time"":254},{""stimulus"":""img/green_ww/6.jpg"",""time"":304},{""stimulus"":""img/green_ww/7.jpg"",""time"":356},{""stimulus"":""img/green_ww/8.jpg"",""time"":407},{""stimulus"":""img/green_ww/9.jpg"",""time"":457},{""stimulus"":""img/green_ww/10.jpg"",""time"":511},{""stimulus"":""img/green_ww/11.jpg"",""time"":563}]","[]"
"image-keyboard-response","82","87348","0.0-5.0-1.39","60ff4339f5ffb265d16b144f","bdp_lott","Mon Mar 27 2023 16:17:48 GMT-0400 (Eastern Daylight Time)","247988","green","red","","811","","","","choice","","img/green_ww/choose11.jpg","1","186","green","0.5","0.5","0.5","w","",""
"animation","83","87958","0.0-5.0-2.39","60ff4339f5ffb265d16b144f","bdp_lott","Mon Mar 27 2023 16:17:48 GMT-0400 (Eastern Daylight Time)","247988","green","red","","","","","","","","","","186","","","","","","[{""stimulus"":""img/green_ww/1.jpg"",""time"":51},{""stimulus"":""img/green_ww/2.jpg"",""time"":102},{""stimulus"":""img/green_ww/3.jpg"",""time"":152},{""stimulus"":""img/green_ww/4.jpg"",""time"":203},{""stimulus"":""img/green_ww/5.jpg"",""time"":253},{""stimulus"":""img/green_ww/6.jpg"",""time"":304},{""stimulus"":""img/green_ww/7.jpg"",""time"":355},{""stimulus"":""img/green_ww/8.jpg"",""time"":406},{""stimulus"":""img/green_ww/9.jpg"",""time"":457},{""stimulus"":""img/green_ww/10.jpg"",""time"":508},{""stimulus"":""img/green_ww/11.jpg"",""time"":559}]","[]"
"image-keyboard-response","84","88400","0.0-5.0-1.40","60ff4339f5ffb265d16b144f","bdp_lott","Mon Mar 27 2023 16:17:48 GMT-0400 (Eastern Daylight Time)","247988","green","red","","441","","","","choice","","img/green_ww/choose11.jpg","2","185","red","0.5","0.5","0.5","w","",""
"animation","85","89009","0.0-5.0-2.40","60ff4339f5ffb265d16b144f","bdp_lott","Mon Mar 27 2023 16:17:48 GMT-0400 (Eastern Daylight Time)","247988","green","red","","","","","","","","","","185","","","","","","[{""stimulus"":""img/red_ww/1.jpg"",""time"":53},{""stimulus"":""img/red_ww/2.jpg"",""time"":103},{""stimulus"":""img/red_ww/3.jpg"",""time"":153},{""stimulus"":""img/red_ww/4.jpg"",""time"":203},{""stimulus"":""img/red_ww/5.jpg"",""time"":254},{""stimulus"":""img/red_ww/6.jpg"",""time"":304},{""stimulus"":""img/red_ww/7.jpg"",""time"":355},{""stimulus"":""img/red_ww/8.jpg"",""time"":405},{""stimulus"":""img/red_ww/9.jpg"",""time"":455},{""stimulus"":""img/red_ww/10.jpg"",""time"":505},{""stimulus"":""img/red_ww/11.jpg"",""time"":557}]","[]"
"image-keyboard-response","86","89691","0.0-5.0-1.41","60ff4339f5ffb265d16b144f","bdp_lott","Mon Mar 27 2023 16:17:48 GMT-0400 (Eastern Daylight Time)","247988","green","red","","680","","","","choice","","img/red_ww/choose11.jpg","1","184","green","0.5","0.5","0.5","l","",""
"animation","87","90305","0.0-5.0-2.41","60ff4339f5ffb265d16b144f","bdp_lott","Mon Mar 27 2023 16:17:48 GMT-0400 (Eastern Daylight Time)","247988","green","red","","","","","","","","","","184","","","","","","[{""stimulus"":""img/green_lw/1.jpg"",""time"":51},{""stimulus"":""img/green_lw/2.jpg"",""time"":102},{""stimulus"":""img/green_lw/3.jpg"",""time"":154},{""stimulus"":""img/green_lw/4.jpg"",""time"":205},{""stimulus"":""img/green_lw/5.jpg"",""time"":255},{""stimulus"":""img/green_lw/6.jpg"",""time"":308},{""stimulus"":""img/green_lw/7.jpg"",""time"":359},{""stimulus"":""img/green_lw/8.jpg"",""time"":410},{""stimulus"":""img/green_lw/9.jpg"",""time"":462},{""stimulus"":""img/green_lw/10.jpg"",""time"":512},{""stimulus"":""img/green_lw/11.jpg"",""time"":564}]","[]"
"image-keyboard-response","88","90737","0.0-5.0-1.42","60ff4339f5ffb265d16b144f","bdp_lott","Mon Mar 27 2023 16:17:48 GMT-0400 (Eastern Daylight Time)","247988","green","red","","431","","","","choice","","img/green_lw/choose11.jpg","2","183","red","0.5","0.5","0.5","l","",""
"animation","89","91350","0.0-5.0-2.42","60ff4339f5ffb265d16b144f","bdp_lott","Mon Mar 27 2023 16:17:48 GMT-0400 (Eastern Daylight Time)","247988","green","red","","","","","","","","","","183","","","","","","[{""stimulus"":""img/red_ll/1.jpg"",""time"":51},{""stimulus"":""img/red_ll/2.jpg"",""time"":101},{""stimulus"":""img/red_ll/3.jpg"",""time"":152},{""stimulus"":""img/red_ll/4.jpg"",""time"":202},{""stimulus"":""img/red_ll/5.jpg"",""time"":253},{""stimulus"":""img/red_ll/6.jpg"",""time"":304},{""stimulus"":""img/red_ll/7.jpg"",""time"":355},{""stimulus"":""img/red_ll/8.jpg"",""time"":406},{""stimulus"":""img/red_ll/9.jpg"",""time"":457},{""stimulus"":""img/red_ll/10.jpg"",""time"":511},{""stimulus"":""img/red_ll/11.jpg"",""time"":561}]","[]"
"image-keyboard-response","90","91942","0.0-5.0-1.43","60ff4339f5ffb265d16b144f","bdp_lott","Mon Mar 27 2023 16:17:48 GMT-0400 (Eastern Daylight Time)","247988","green","red","","590","","","","choice","","img/red_ll/choose11.jpg","1","182","green","0.5","0.5","0.5","l","",""
"animation","91","92553","0.0-5.0-2.43","60ff4339f5ffb265d16b144f","bdp_lott","Mon Mar 27 2023 16:17:48 GMT-0400 (Eastern Daylight Time)","247988","green","red","","","","","","","","","","182","","","","","","[{""stimulus"":""img/green_ll/1.jpg"",""time"":51},{""stimulus"":""img/green_ll/2.jpg"",""time"":102},{""stimulus"":""img/green_ll/3.jpg"",""time"":154},{""stimulus"":""img/green_ll/4.jpg"",""time"":207},{""stimulus"":""img/green_ll/5.jpg"",""time"":257},{""stimulus"":""img/green_ll/6.jpg"",""time"":308},{""stimulus"":""img/green_ll/7.jpg"",""time"":358},{""stimulus"":""img/green_ll/8.jpg"",""time"":408},{""stimulus"":""img/green_ll/9.jpg"",""time"":458},{""stimulus"":""img/green_ll/10.jpg"",""time"":509},{""stimulus"":""img/green_ll/11.jpg"",""time"":560}]","[]"
"image-keyboard-response","92","92974","0.0-5.0-1.44","60ff4339f5ffb265d16b144f","bdp_lott","Mon Mar 27 2023 16:17:48 GMT-0400 (Eastern Daylight Time)","247988","green","red","","420","","","","choice","","img/green_ll/choose11.jpg","1","181","green","0.5","0.5","0.5","l","",""
"animation","93","93590","0.0-5.0-2.44","60ff4339f5ffb265d16b144f","bdp_lott","Mon Mar 27 2023 16:17:48 GMT-0400 (Eastern Daylight Time)","247988","green","red","","","","","","","","","","181","","","","","","[{""stimulus"":""img/green_ll/1.jpg"",""time"":53},{""stimulus"":""img/green_ll/2.jpg"",""time"":103},{""stimulus"":""img/green_ll/3.jpg"",""time"":155},{""stimulus"":""img/green_ll/4.jpg"",""time"":205},{""stimulus"":""img/green_ll/5.jpg"",""time"":259},{""stimulus"":""img/green_ll/6.jpg"",""time"":310},{""stimulus"":""img/green_ll/7.jpg"",""time"":361},{""stimulus"":""img/green_ll/8.jpg"",""time"":411},{""stimulus"":""img/green_ll/9.jpg"",""time"":463},{""stimulus"":""img/green_ll/10.jpg"",""time"":514},{""stimulus"":""img/green_ll/11.jpg"",""time"":565}]","[]"
"image-keyboard-response","94","93916","0.0-5.0-1.45","60ff4339f5ffb265d16b144f","bdp_lott","Mon Mar 27 2023 16:17:48 GMT-0400 (Eastern Daylight Time)","247988","green","red","","325","","","","choice","","img/green_ll/choose11.jpg","2","180","red","0.5","0.5","0.5","l","",""
"animation","95","94528","0.0-5.0-2.45","60ff4339f5ffb265d16b144f","bdp_lott","Mon Mar 27 2023 16:17:48 GMT-0400 (Eastern Daylight Time)","247988","green","red","","","","","","","","","","180","","","","","","[{""stimulus"":""img/red_ll/1.jpg"",""time"":51},{""stimulus"":""img/red_ll/2.jpg"",""time"":102},{""stimulus"":""img/red_ll/3.jpg"",""time"":153},{""stimulus"":""img/red_ll/4.jpg"",""time"":204},{""stimulus"":""img/red_ll/5.jpg"",""time"":254},{""stimulus"":""img/red_ll/6.jpg"",""time"":305},{""stimulus"":""img/red_ll/7.jpg"",""time"":356},{""stimulus"":""img/red_ll/8.jpg"",""time"":407},{""stimulus"":""img/red_ll/9.jpg"",""time"":458},{""stimulus"":""img/red_ll/10.jpg"",""time"":510},{""stimulus"":""img/red_ll/11.jpg"",""time"":560}]","[]"
"image-keyboard-response","96","94834","0.0-5.0-1.46","60ff4339f5ffb265d16b144f","bdp_lott","Mon Mar 27 2023 16:17:48 GMT-0400 (Eastern Daylight Time)","247988","green","red","","304","","","","choice","","img/red_ll/choose11.jpg","2","179","red","0.5","0.5","0.5","l","",""
"animation","97","95445","0.0-5.0-2.46","60ff4339f5ffb265d16b144f","bdp_lott","Mon Mar 27 2023 16:17:48 GMT-0400 (Eastern Daylight Time)","247988","green","red","","","","","","","","","","179","","","","","","[{""stimulus"":""img/red_ll/1.jpg"",""time"":52},{""stimulus"":""img/red_ll/2.jpg"",""time"":103},{""stimulus"":""img/red_ll/3.jpg"",""time"":154},{""stimulus"":""img/red_ll/4.jpg"",""time"":204},{""stimulus"":""img/red_ll/5.jpg"",""time"":255},{""stimulus"":""img/red_ll/6.jpg"",""time"":306},{""stimulus"":""img/red_ll/7.jpg"",""time"":357},{""stimulus"":""img/red_ll/8.jpg"",""time"":408},{""stimulus"":""img/red_ll/9.jpg"",""time"":458},{""stimulus"":""img/red_ll/10.jpg"",""time"":510},{""stimulus"":""img/red_ll/11.jpg"",""time"":560}]","[]"
"image-keyboard-response","98","96324","0.0-5.0-1.47","60ff4339f5ffb265d16b144f","bdp_lott","Mon Mar 27 2023 16:17:48 GMT-0400 (Eastern Daylight Time)","247988","green","red","","877","","","","choice","","img/red_ll/choose11.jpg","2","178","red","0.5","0.5","0.5","w","",""
"animation","99","96936","0.0-5.0-2.47","60ff4339f5ffb265d16b144f","bdp_lott","Mon Mar 27 2023 16:17:48 GMT-0400 (Eastern Daylight Time)","247988","green","red","","","","","","","","","","178","","","","","","[{""stimulus"":""img/red_lw/1.jpg"",""time"":51},{""stimulus"":""img/red_lw/2.jpg"",""time"":105},{""stimulus"":""img/red_lw/3.jpg"",""time"":155},{""stimulus"":""img/red_lw/4.jpg"",""time"":206},{""stimulus"":""img/red_lw/5.jpg"",""time"":257},{""stimulus"":""img/red_lw/6.jpg"",""time"":307},{""stimulus"":""img/red_lw/7.jpg"",""time"":358},{""stimulus"":""img/red_lw/8.jpg"",""time"":408},{""stimulus"":""img/red_lw/9.jpg"",""time"":459},{""stimulus"":""img/red_lw/10.jpg"",""time"":510},{""stimulus"":""img/red_lw/11.jpg"",""time"":561}]","[]"
"image-keyboard-response","100","97528","0.0-5.0-1.48","60ff4339f5ffb265d16b144f","bdp_lott","Mon Mar 27 2023 16:17:48 GMT-0400 (Eastern Daylight Time)","247988","green","red","","591","","","","choice","","img/red_lw/choose11.jpg","2","177","red","0.5","0.5","0.5","w","",""
"animation","101","98138","0.0-5.0-2.48","60ff4339f5ffb265d16b144f","bdp_lott","Mon Mar 27 2023 16:17:48 GMT-0400 (Eastern Daylight Time)","247988","green","red","","","","","","","","","","177","","","","","","[{""stimulus"":""img/red_lw/1.jpg"",""time"":51},{""stimulus"":""img/red_lw/2.jpg"",""time"":101},{""stimulus"":""img/red_lw/3.jpg"",""time"":152},{""stimulus"":""img/red_lw/4.jpg"",""time"":203},{""stimulus"":""img/red_lw/5.jpg"",""time"":253},{""stimulus"":""img/red_lw/6.jpg"",""time"":303},{""stimulus"":""img/red_lw/7.jpg"",""time"":355},{""stimulus"":""img/red_lw/8.jpg"",""time"":405},{""stimulus"":""img/red_lw/9.jpg"",""time"":455},{""stimulus"":""img/red_lw/10.jpg"",""time"":506},{""stimulus"":""img/red_lw/11.jpg"",""time"":557}]","[]"
"image-keyboard-response","102","98584","0.0-5.0-1.49","60ff4339f5ffb265d16b144f","bdp_lott","Mon Mar 27 2023 16:17:48 GMT-0400 (Eastern Daylight Time)","247988","green","red","","446","","","","choice","","img/red_lw/choose11.jpg","1","176","green","0.5","0.5","0.5","w","",""
"animation","103","99194","0.0-5.0-2.49","60ff4339f5ffb265d16b144f","bdp_lott","Mon Mar 27 2023 16:17:48 GMT-0400 (Eastern Daylight Time)","247988","green","red","","","","","","","","","","176","","","","","","[{""stimulus"":""img/green_ww/1.jpg"",""time"":51},{""stimulus"":""img/green_ww/2.jpg"",""time"":102},{""stimulus"":""img/green_ww/3.jpg"",""time"":153},{""stimulus"":""img/green_ww/4.jpg"",""time"":204},{""stimulus"":""img/green_ww/5.jpg"",""time"":254},{""stimulus"":""img/green_ww/6.jpg"",""time"":305},{""stimulus"":""img/green_ww/7.jpg"",""time"":356},{""stimulus"":""img/green_ww/8.jpg"",""time"":406},{""stimulus"":""img/green_ww/9.jpg"",""time"":457},{""stimulus"":""img/green_ww/10.jpg"",""time"":507},{""stimulus"":""img/green_ww/11.jpg"",""time"":558}]","[]"
"image-keyboard-response","104","99663","0.0-5.0-1.50","60ff4339f5ffb265d16b144f","bdp_lott","Mon Mar 27 2023 16:17:48 GMT-0400 (Eastern Daylight Time)","247988","green","red","","468","","","","choice","","img/green_ww/choose11.jpg","1","175","green","0.5","0.5","0.5","w","",""
"animation","105","100273","0.0-5.0-2.50","60ff4339f5ffb265d16b144f","bdp_lott","Mon Mar 27 2023 16:17:48 GMT-0400 (Eastern Daylight Time)","247988","green","red","","","","","","","","","","175","","","","","","[{""stimulus"":""img/green_ww/1.jpg"",""time"":53},{""stimulus"":""img/green_ww/2.jpg"",""time"":102},{""stimulus"":""img/green_ww/3.jpg"",""time"":153},{""stimulus"":""img/green_ww/4.jpg"",""time"":203},{""stimulus"":""img/green_ww/5.jpg"",""time"":254},{""stimulus"":""img/green_ww/6.jpg"",""time"":305},{""stimulus"":""img/green_ww/7.jpg"",""time"":356},{""stimulus"":""img/green_ww/8.jpg"",""time"":406},{""stimulus"":""img/green_ww/9.jpg"",""time"":458},{""stimulus"":""img/green_ww/10.jpg"",""time"":508},{""stimulus"":""img/green_ww/11.jpg"",""time"":559}]","[]"
"image-keyboard-response","106","100691","0.0-5.0-1.51","60ff4339f5ffb265d16b144f","bdp_lott","Mon Mar 27 2023 16:17:48 GMT-0400 (Eastern Daylight Time)","247988","green","red","","417","","","","choice","","img/green_ww/choose11.jpg","1","174","green","0.5","0.5","0.5","l","",""
"animation","107","101299","0.0-5.0-2.51","60ff4339f5ffb265d16b144f","bdp_lott","Mon Mar 27 2023 16:17:48 GMT-0400 (Eastern Daylight Time)","247988","green","red","","","","","","","","","","174","","","","","","[{""stimulus"":""img/green_lw/1.jpg"",""time"":52},{""stimulus"":""img/green_lw/2.jpg"",""time"":103},{""stimulus"":""img/green_lw/3.jpg"",""time"":153},{""stimulus"":""img/green_lw/4.jpg"",""time"":203},{""stimulus"":""img/green_lw/5.jpg"",""time"":253},{""stimulus"":""img/green_lw/6.jpg"",""time"":304},{""stimulus"":""img/green_lw/7.jpg"",""time"":355},{""stimulus"":""img/green_lw/8.jpg"",""time"":406},{""stimulus"":""img/green_lw/9.jpg"",""time"":456},{""stimulus"":""img/green_lw/10.jpg"",""time"":506},{""stimulus"":""img/green_lw/11.jpg"",""time"":557}]","[]"
"image-keyboard-response","108","101789","0.0-5.0-1.52","60ff4339f5ffb265d16b144f","bdp_lott","Mon Mar 27 2023 16:17:48 GMT-0400 (Eastern Daylight Time)","247988","green","red","","489","","","","choice","","img/green_lw/choose11.jpg","2","173","red","0.5","0.5","0.5","l","",""
"animation","109","102397","0.0-5.0-2.52","60ff4339f5ffb265d16b144f","bdp_lott","Mon Mar 27 2023 16:17:48 GMT-0400 (Eastern Daylight Time)","247988","green","red","","","","","","","","","","173","","","","","","[{""stimulus"":""img/red_ll/1.jpg"",""time"":51},{""stimulus"":""img/red_ll/2.jpg"",""time"":102},{""stimulus"":""img/red_ll/3.jpg"",""time"":152},{""stimulus"":""img/red_ll/4.jpg"",""time"":202},{""stimulus"":""img/red_ll/5.jpg"",""time"":253},{""stimulus"":""img/red_ll/6.jpg"",""time"":304},{""stimulus"":""img/red_ll/7.jpg"",""time"":355},{""stimulus"":""img/red_ll/8.jpg"",""time"":406},{""stimulus"":""img/red_ll/9.jpg"",""time"":456},{""stimulus"":""img/red_ll/10.jpg"",""time"":507},{""stimulus"":""img/red_ll/11.jpg"",""time"":557}]","[]"
"image-keyboard-response","110","102736","0.0-5.0-1.53","60ff4339f5ffb265d16b144f","bdp_lott","Mon Mar 27 2023 16:17:48 GMT-0400 (Eastern Daylight Time)","247988","green","red","","338","","","","choice","","img/red_ll/choose11.jpg","1","172","green","0.5","0.5","0.5","l","",""
"animation","111","103347","0.0-5.0-2.53","60ff4339f5ffb265d16b144f","bdp_lott","Mon Mar 27 2023 16:17:48 GMT-0400 (Eastern Daylight Time)","247988","green","red","","","","","","","","","","172","","","","","","[{""stimulus"":""img/green_ll/1.jpg"",""time"":51},{""stimulus"":""img/green_ll/2.jpg"",""time"":102},{""stimulus"":""img/green_ll/3.jpg"",""time"":153},{""stimulus"":""img/green_ll/4.jpg"",""time"":203},{""stimulus"":""img/green_ll/5.jpg"",""time"":254},{""stimulus"":""img/green_ll/6.jpg"",""time"":305},{""stimulus"":""img/green_ll/7.jpg"",""time"":356},{""stimulus"":""img/green_ll/8.jpg"",""time"":407},{""stimulus"":""img/green_ll/9.jpg"",""time"":458},{""stimulus"":""img/green_ll/10.jpg"",""time"":509},{""stimulus"":""img/green_ll/11.jpg"",""time"":560}]","[]"
"image-keyboard-response","112","103766","0.0-5.0-1.54","60ff4339f5ffb265d16b144f","bdp_lott","Mon Mar 27 2023 16:17:48 GMT-0400 (Eastern Daylight Time)","247988","green","red","","417","","","","choice","","img/green_ll/choose11.jpg","2","171","red","0.5","0.5","0.5","w","",""
"animation","113","104376","0.0-5.0-2.54","60ff4339f5ffb265d16b144f","bdp_lott","Mon Mar 27 2023 16:17:48 GMT-0400 (Eastern Daylight Time)","247988","green","red","","","","","","","","","","171","","","","","","[{""stimulus"":""img/red_lw/1.jpg"",""time"":51},{""stimulus"":""img/red_lw/2.jpg"",""time"":102},{""stimulus"":""img/red_lw/3.jpg"",""time"":152},{""stimulus"":""img/red_lw/4.jpg"",""time"":202},{""stimulus"":""img/red_lw/5.jpg"",""time"":253},{""stimulus"":""img/red_lw/6.jpg"",""time"":304},{""stimulus"":""img/red_lw/7.jpg"",""time"":356},{""stimulus"":""img/red_lw/8.jpg"",""time"":407},{""stimulus"":""img/red_lw/9.jpg"",""time"":458},{""stimulus"":""img/red_lw/10.jpg"",""time"":509},{""stimulus"":""img/red_lw/11.jpg"",""time"":560}]","[]"
"image-keyboard-response","114","104772","0.0-5.0-1.55","60ff4339f5ffb265d16b144f","bdp_lott","Mon Mar 27 2023 16:17:48 GMT-0400 (Eastern Daylight Time)","247988","green","red","","396","","","","choice","","img/red_lw/choose11.jpg","2","170","red","0.5","0.5","0.5","l","",""
"animation","115","105382","0.0-5.0-2.55","60ff4339f5ffb265d16b144f","bdp_lott","Mon Mar 27 2023 16:17:48 GMT-0400 (Eastern Daylight Time)","247988","green","red","","","","","","","","","","170","","","","","","[{""stimulus"":""img/red_ll/1.jpg"",""time"":52},{""stimulus"":""img/red_ll/2.jpg"",""time"":102},{""stimulus"":""img/red_ll/3.jpg"",""time"":152},{""stimulus"":""img/red_ll/4.jpg"",""time"":203},{""stimulus"":""img/red_ll/5.jpg"",""time"":254},{""stimulus"":""img/red_ll/6.jpg"",""time"":305},{""stimulus"":""img/red_ll/7.jpg"",""time"":356},{""stimulus"":""img/red_ll/8.jpg"",""time"":407},{""stimulus"":""img/red_ll/9.jpg"",""time"":457},{""stimulus"":""img/red_ll/10.jpg"",""time"":508},{""stimulus"":""img/red_ll/11.jpg"",""time"":559}]","[]"
"image-keyboard-response","116","105696","0.0-5.0-1.56","60ff4339f5ffb265d16b144f","bdp_lott","Mon Mar 27 2023 16:17:48 GMT-0400 (Eastern Daylight Time)","247988","green","red","","313","","","","choice","","img/red_ll/choose11.jpg","1","169","green","0.5","0.5","0.5","l","",""
"animation","117","106307","0.0-5.0-2.56","60ff4339f5ffb265d16b144f","bdp_lott","Mon Mar 27 2023 16:17:48 GMT-0400 (Eastern Daylight Time)","247988","green","red","","","","","","","","","","169","","","","","","[{""stimulus"":""img/green_ll/1.jpg"",""time"":52},{""stimulus"":""img/green_ll/2.jpg"",""time"":103},{""stimulus"":""img/green_ll/3.jpg"",""time"":153},{""stimulus"":""img/green_ll/4.jpg"",""time"":204},{""stimulus"":""img/green_ll/5.jpg"",""time"":255},{""stimulus"":""img/green_ll/6.jpg"",""time"":306},{""stimulus"":""img/green_ll/7.jpg"",""time"":358},{""stimulus"":""img/green_ll/8.jpg"",""time"":409},{""stimulus"":""img/green_ll/9.jpg"",""time"":460},{""stimulus"":""img/green_ll/10.jpg"",""time"":511},{""stimulus"":""img/green_ll/11.jpg"",""time"":561}]","[]"
"image-keyboard-response","118","106649","0.0-5.0-1.57","60ff4339f5ffb265d16b144f","bdp_lott","Mon Mar 27 2023 16:17:48 GMT-0400 (Eastern Daylight Time)","247988","green","red","","341","","","","choice","","img/green_ll/choose11.jpg","1","168","green","0.5","0.5","0.5","w","",""
"animation","119","107260","0.0-5.0-2.57","60ff4339f5ffb265d16b144f","bdp_lott","Mon Mar 27 2023 16:17:48 GMT-0400 (Eastern Daylight Time)","247988","green","red","","","","","","","","","","168","","","","","","[{""stimulus"":""img/green_wl/1.jpg"",""time"":51},{""stimulus"":""img/green_wl/2.jpg"",""time"":102},{""stimulus"":""img/green_wl/3.jpg"",""time"":153},{""stimulus"":""img/green_wl/4.jpg"",""time"":203},{""stimulus"":""img/green_wl/5.jpg"",""time"":254},{""stimulus"":""img/green_wl/6.jpg"",""time"":304},{""stimulus"":""img/green_wl/7.jpg"",""time"":354},{""stimulus"":""img/green_wl/8.jpg"",""time"":408},{""stimulus"":""img/green_wl/9.jpg"",""time"":459},{""stimulus"":""img/green_wl/10.jpg"",""time"":509},{""stimulus"":""img/green_wl/11.jpg"",""time"":560}]","[]"
"image-keyboard-response","120","107520","0.0-5.0-1.58","60ff4339f5ffb265d16b144f","bdp_lott","Mon Mar 27 2023 16:17:48 GMT-0400 (Eastern Daylight Time)","247988","green","red","","259","","","","choice","","img/green_wl/choose11.jpg","2","167","red","0.5","0.5","0.5","l","",""
"animation","121","108130","0.0-5.0-2.58","60ff4339f5ffb265d16b144f","bdp_lott","Mon Mar 27 2023 16:17:48 GMT-0400 (Eastern Daylight Time)","247988","green","red","","","","","","","","","","167","","","","","","[{""stimulus"":""img/red_wl/1.jpg"",""time"":52},{""stimulus"":""img/red_wl/2.jpg"",""time"":102},{""stimulus"":""img/red_wl/3.jpg"",""time"":153},{""stimulus"":""img/red_wl/4.jpg"",""time"":204},{""stimulus"":""img/red_wl/5.jpg"",""time"":254},{""stimulus"":""img/red_wl/6.jpg"",""time"":306},{""stimulus"":""img/red_wl/7.jpg"",""time"":357},{""stimulus"":""img/red_wl/8.jpg"",""time"":407},{""stimulus"":""img/red_wl/9.jpg"",""time"":457},{""stimulus"":""img/red_wl/10.jpg"",""time"":508},{""stimulus"":""img/red_wl/11.jpg"",""time"":560}]","[]"
"image-keyboard-response","122","108401","0.0-5.0-1.59","60ff4339f5ffb265d16b144f","bdp_lott","Mon Mar 27 2023 16:17:48 GMT-0400 (Eastern Daylight Time)","247988","green","red","","270","","","","choice","","img/red_wl/choose11.jpg","2","166","red","0.5","0.5","0.5","l","",""
"animation","123","109016","0.0-5.0-2.59","60ff4339f5ffb265d16b144f","bdp_lott","Mon Mar 27 2023 16:17:48 GMT-0400 (Eastern Daylight Time)","247988","green","red","","","","","","","","","","166","","","","","","[{""stimulus"":""img/red_wl/1.jpg"",""time"":54},{""stimulus"":""img/red_wl/2.jpg"",""time"":105},{""stimulus"":""img/red_wl/3.jpg"",""time"":156},{""stimulus"":""img/red_wl/4.jpg"",""time"":207},{""stimulus"":""img/red_wl/5.jpg"",""time"":258},{""stimulus"":""img/red_wl/6.jpg"",""time"":309},{""stimulus"":""img/red_wl/7.jpg"",""time"":359},{""stimulus"":""img/red_wl/8.jpg"",""time"":410},{""stimulus"":""img/red_wl/9.jpg"",""time"":461},{""stimulus"":""img/red_wl/10.jpg"",""time"":512},{""stimulus"":""img/red_wl/11.jpg"",""time"":563}]","[]"
"image-keyboard-response","124","109366","0.0-5.0-1.60","60ff4339f5ffb265d16b144f","bdp_lott","Mon Mar 27 2023 16:17:48 GMT-0400 (Eastern Daylight Time)","247988","green","red","","350","","","","choice","","img/red_wl/choose11.jpg","1","165","green","0.5","0.5","0.5","l","",""
"animation","125","109973","0.0-5.0-2.60","60ff4339f5ffb265d16b144f","bdp_lott","Mon Mar 27 2023 16:17:48 GMT-0400 (Eastern Daylight Time)","247988","green","red","","","","","","","","","","165","","","","","","[{""stimulus"":""img/green_ll/1.jpg"",""time"":51},{""stimulus"":""img/green_ll/2.jpg"",""time"":102},{""stimulus"":""img/green_ll/3.jpg"",""time"":152},{""stimulus"":""img/green_ll/4.jpg"",""time"":203},{""stimulus"":""img/green_ll/5.jpg"",""time"":253},{""stimulus"":""img/green_ll/6.jpg"",""time"":303},{""stimulus"":""img/green_ll/7.jpg"",""time"":354},{""stimulus"":""img/green_ll/8.jpg"",""time"":404},{""stimulus"":""img/green_ll/9.jpg"",""time"":455},{""stimulus"":""img/green_ll/10.jpg"",""time"":505},{""stimulus"":""img/green_ll/11.jpg"",""time"":556}]","[]"
"image-keyboard-response","126","110315","0.0-5.0-1.61","60ff4339f5ffb265d16b144f","bdp_lott","Mon Mar 27 2023 16:17:48 GMT-0400 (Eastern Daylight Time)","247988","green","red","","341","","","","choice","","img/green_ll/choose11.jpg","2","164","red","0.5","0.5","0.5","w","",""
"animation","127","110927","0.0-5.0-2.61","60ff4339f5ffb265d16b144f","bdp_lott","Mon Mar 27 2023 16:17:48 GMT-0400 (Eastern Daylight Time)","247988","green","red","","","","","","","","","","164","","","","","","[{""stimulus"":""img/red_lw/1.jpg"",""time"":52},{""stimulus"":""img/red_lw/2.jpg"",""time"":103},{""stimulus"":""img/red_lw/3.jpg"",""time"":154},{""stimulus"":""img/red_lw/4.jpg"",""time"":205},{""stimulus"":""img/red_lw/5.jpg"",""time"":256},{""stimulus"":""img/red_lw/6.jpg"",""time"":307},{""stimulus"":""img/red_lw/7.jpg"",""time"":358},{""stimulus"":""img/red_lw/8.jpg"",""time"":409},{""stimulus"":""img/red_lw/9.jpg"",""time"":459},{""stimulus"":""img/red_lw/10.jpg"",""time"":510},{""stimulus"":""img/red_lw/11.jpg"",""time"":562}]","[]"
"image-keyboard-response","128","111256","0.0-5.0-1.62","60ff4339f5ffb265d16b144f","bdp_lott","Mon Mar 27 2023 16:17:48 GMT-0400 (Eastern Daylight Time)","247988","green","red","","328","","","","choice","","img/red_lw/choose11.jpg","2","163","red","0.5","0.5","0.5","w","",""
"animation","129","111869","0.0-5.0-2.62","60ff4339f5ffb265d16b144f","bdp_lott","Mon Mar 27 2023 16:17:48 GMT-0400 (Eastern Daylight Time)","247988","green","red","","","","","","","","","","163","","","","","","[{""stimulus"":""img/red_lw/1.jpg"",""time"":51},{""stimulus"":""img/red_lw/2.jpg"",""time"":102},{""stimulus"":""img/red_lw/3.jpg"",""time"":153},{""stimulus"":""img/red_lw/4.jpg"",""time"":204},{""stimulus"":""img/red_lw/5.jpg"",""time"":255},{""stimulus"":""img/red_lw/6.jpg"",""time"":306},{""stimulus"":""img/red_lw/7.jpg"",""time"":357},{""stimulus"":""img/red_lw/8.jpg"",""time"":407},{""stimulus"":""img/red_lw/9.jpg"",""time"":459},{""stimulus"":""img/red_lw/10.jpg"",""time"":510},{""stimulus"":""img/red_lw/11.jpg"",""time"":560}]","[]"
"image-keyboard-response","130","112315","0.0-5.0-1.63","60ff4339f5ffb265d16b144f","bdp_lott","Mon Mar 27 2023 16:17:48 GMT-0400 (Eastern Daylight Time)","247988","green","red","","443","","","","choice","","img/red_lw/choose11.jpg","2","162","red","0.5","0.5","0.5","w","",""
"animation","131","112923","0.0-5.0-2.63","60ff4339f5ffb265d16b144f","bdp_lott","Mon Mar 27 2023 16:17:48 GMT-0400 (Eastern Daylight Time)","247988","green","red","","","","","","","","","","162","","","","","","[{""stimulus"":""img/red_lw/1.jpg"",""time"":51},{""stimulus"":""img/red_lw/2.jpg"",""time"":102},{""stimulus"":""img/red_lw/3.jpg"",""time"":153},{""stimulus"":""img/red_lw/4.jpg"",""time"":204},{""stimulus"":""img/red_lw/5.jpg"",""time"":254},{""stimulus"":""img/red_lw/6.jpg"",""time"":305},{""stimulus"":""img/red_lw/7.jpg"",""time"":355},{""stimulus"":""img/red_lw/8.jpg"",""time"":405},{""stimulus"":""img/red_lw/9.jpg"",""time"":455},{""stimulus"":""img/red_lw/10.jpg"",""time"":507},{""stimulus"":""img/red_lw/11.jpg"",""time"":558}]","[]"
"image-keyboard-response","132","113493","0.0-5.0-1.64","60ff4339f5ffb265d16b144f","bdp_lott","Mon Mar 27 2023 16:17:48 GMT-0400 (Eastern Daylight Time)","247988","green","red","","568","","","","choice","","img/red_lw/choose11.jpg","2","161","red","0.5","0.5","0.5","l","",""
"animation","133","114105","0.0-5.0-2.64","60ff4339f5ffb265d16b144f","bdp_lott","Mon Mar 27 2023 16:17:48 GMT-0400 (Eastern Daylight Time)","247988","green","red","","","","","","","","","","161","","","","","","[{""stimulus"":""img/red_ll/1.jpg"",""time"":51},{""stimulus"":""img/red_ll/2.jpg"",""time"":102},{""stimulus"":""img/red_ll/3.jpg"",""time"":152},{""stimulus"":""img/red_ll/4.jpg"",""time"":206},{""stimulus"":""img/red_ll/5.jpg"",""time"":256},{""stimulus"":""img/red_ll/6.jpg"",""time"":307},{""stimulus"":""img/red_ll/7.jpg"",""time"":358},{""stimulus"":""img/red_ll/8.jpg"",""time"":408},{""stimulus"":""img/red_ll/9.jpg"",""time"":459},{""stimulus"":""img/red_ll/10.jpg"",""time"":511},{""stimulus"":""img/red_ll/11.jpg"",""time"":561}]","[]"
"image-keyboard-response","134","114367","0.0-5.0-1.65","60ff4339f5ffb265d16b144f","bdp_lott","Mon Mar 27 2023 16:17:48 GMT-0400 (Eastern Daylight Time)","247988","green","red","","261","","","","choice","","img/red_ll/choose11.jpg","1","160","green","0.5","0.5","0.5","l","",""
"animation","135","114978","0.0-5.0-2.65","60ff4339f5ffb265d16b144f","bdp_lott","Mon Mar 27 2023 16:17:48 GMT-0400 (Eastern Daylight Time)","247988","green","red","","","","","","","","","","160","","","","","","[{""stimulus"":""img/green_ll/1.jpg"",""time"":51},{""stimulus"":""img/green_ll/2.jpg"",""time"":102},{""stimulus"":""img/green_ll/3.jpg"",""time"":152},{""stimulus"":""img/green_ll/4.jpg"",""time"":202},{""stimulus"":""img/green_ll/5.jpg"",""time"":254},{""stimulus"":""img/green_ll/6.jpg"",""time"":304},{""stimulus"":""img/green_ll/7.jpg"",""time"":356},{""stimulus"":""img/green_ll/8.jpg"",""time"":407},{""stimulus"":""img/green_ll/9.jpg"",""time"":458},{""stimulus"":""img/green_ll/10.jpg"",""time"":508},{""stimulus"":""img/green_ll/11.jpg"",""time"":559}]","[]"
"image-keyboard-response","136","115369","0.0-5.0-1.66","60ff4339f5ffb265d16b144f","bdp_lott","Mon Mar 27 2023 16:17:48 GMT-0400 (Eastern Daylight Time)","247988","green","red","","390","","","","choice","","img/green_ll/choose11.jpg","2","159","red","0.5","0.5","0.5","w","",""
"animation","137","115983","0.0-5.0-2.66","60ff4339f5ffb265d16b144f","bdp_lott","Mon Mar 27 2023 16:17:48 GMT-0400 (Eastern Daylight Time)","247988","green","red","","","","","","","","","","159","","","","","","[{""stimulus"":""img/red_lw/1.jpg"",""time"":52},{""stimulus"":""img/red_lw/2.jpg"",""time"":102},{""stimulus"":""img/red_lw/3.jpg"",""time"":153},{""stimulus"":""img/red_lw/4.jpg"",""time"":204},{""stimulus"":""img/red_lw/5.jpg"",""time"":254},{""stimulus"":""img/red_lw/6.jpg"",""time"":306},{""stimulus"":""img/red_lw/7.jpg"",""time"":357},{""stimulus"":""img/red_lw/8.jpg"",""time"":407},{""stimulus"":""img/red_lw/9.jpg"",""time"":460},{""stimulus"":""img/red_lw/10.jpg"",""time"":511},{""stimulus"":""img/red_lw/11.jpg"",""time"":563}]","[]"
"image-keyboard-response","138","116386","0.0-5.0-1.67","60ff4339f5ffb265d16b144f","bdp_lott","Mon Mar 27 2023 16:17:48 GMT-0400 (Eastern Daylight Time)","247988","green","red","","403","","","","choice","","img/red_lw/choose11.jpg","1","158","green","0.5","0.5","0.5","w","",""
"animation","139","116998","0.0-5.0-2.67","60ff4339f5ffb265d16b144f","bdp_lott","Mon Mar 27 2023 16:17:48 GMT-0400 (Eastern Daylight Time)","247988","green","red","","","","","","","","","","158","","","","","","[{""stimulus"":""img/green_ww/1.jpg"",""time"":51},{""stimulus"":""img/green_ww/2.jpg"",""time"":101},{""stimulus"":""img/green_ww/3.jpg"",""time"":152},{""stimulus"":""img/green_ww/4.jpg"",""time"":203},{""stimulus"":""img/green_ww/5.jpg"",""time"":253},{""stimulus"":""img/green_ww/6.jpg"",""time"":305},{""stimulus"":""img/green_ww/7.jpg"",""time"":356},{""stimulus"":""img/green_ww/8.jpg"",""time"":407},{""stimulus"":""img/green_ww/9.jpg"",""time"":459},{""stimulus"":""img/green_ww/10.jpg"",""time"":510},{""stimulus"":""img/green_ww/11.jpg"",""time"":561}]","[]"
"image-keyboard-response","140","117369","0.0-5.0-1.68","60ff4339f5ffb265d16b144f","bdp_lott","Mon Mar 27 2023 16:17:48 GMT-0400 (Eastern Daylight Time)","247988","green","red","","370","","","","choice","","img/green_ww/choose11.jpg","1","157","green","0.5","0.5","0.5","l","",""
"animation","141","117980","0.0-5.0-2.68","60ff4339f5ffb265d16b144f","bdp_lott","Mon Mar 27 2023 16:17:48 GMT-0400 (Eastern Daylight Time)","247988","green","red","","","","","","","","","","157","","","","","","[{""stimulus"":""img/green_lw/1.jpg"",""time"":52},{""stimulus"":""img/green_lw/2.jpg"",""time"":102},{""stimulus"":""img/green_lw/3.jpg"",""time"":152},{""stimulus"":""img/green_lw/4.jpg"",""time"":203},{""stimulus"":""img/green_lw/5.jpg"",""time"":253},{""stimulus"":""img/green_lw/6.jpg"",""time"":303},{""stimulus"":""img/green_lw/7.jpg"",""time"":353},{""stimulus"":""img/green_lw/8.jpg"",""time"":405},{""stimulus"":""img/green_lw/9.jpg"",""time"":456},{""stimulus"":""img/green_lw/10.jpg"",""time"":507},{""stimulus"":""img/green_lw/11.jpg"",""time"":560}]","[]"
"image-keyboard-response","142","118293","0.0-5.0-1.69","60ff4339f5ffb265d16b144f","bdp_lott","Mon Mar 27 2023 16:17:48 GMT-0400 (Eastern Daylight Time)","247988","green","red","","313","","","","choice","","img/green_lw/choose11.jpg","2","156","red","0.5","0.5","0.5","w","",""
"animation","143","118901","0.0-5.0-2.69","60ff4339f5ffb265d16b144f","bdp_lott","Mon Mar 27 2023 16:17:48 GMT-0400 (Eastern Daylight Time)","247988","green","red","","","","","","","","","","156","","","","","","[{""stimulus"":""img/red_lw/1.jpg"",""time"":50},{""stimulus"":""img/red_lw/2.jpg"",""time"":101},{""stimulus"":""img/red_lw/3.jpg"",""time"":152},{""stimulus"":""img/red_lw/4.jpg"",""time"":202},{""stimulus"":""img/red_lw/5.jpg"",""time"":252},{""stimulus"":""img/red_lw/6.jpg"",""time"":303},{""stimulus"":""img/red_lw/7.jpg"",""time"":354},{""stimulus"":""img/red_lw/8.jpg"",""time"":405},{""stimulus"":""img/red_lw/9.jpg"",""time"":455},{""stimulus"":""img/red_lw/10.jpg"",""time"":506},{""stimulus"":""img/red_lw/11.jpg"",""time"":557}]","[]"
"image-keyboard-response","144","119239","0.0-5.0-1.70","60ff4339f5ffb265d16b144f","bdp_lott","Mon Mar 27 2023 16:17:48 GMT-0400 (Eastern Daylight Time)","247988","green","red","","337","","","","choice","","img/red_lw/choose11.jpg","1","155","green","0.5","0.5","0.5","l","",""
"animation","145","119850","0.0-5.0-2.70","60ff4339f5ffb265d16b144f","bdp_lott","Mon Mar 27 2023 16:17:48 GMT-0400 (Eastern Daylight Time)","247988","green","red","","","","","","","","","","155","","","","","","[{""stimulus"":""img/green_lw/1.jpg"",""time"":54},{""stimulus"":""img/green_lw/2.jpg"",""time"":105},{""stimulus"":""img/green_lw/3.jpg"",""time"":156},{""stimulus"":""img/green_lw/4.jpg"",""time"":207},{""stimulus"":""img/green_lw/5.jpg"",""time"":258},{""stimulus"":""img/green_lw/6.jpg"",""time"":308},{""stimulus"":""img/green_lw/7.jpg"",""time"":358},{""stimulus"":""img/green_lw/8.jpg"",""time"":409},{""stimulus"":""img/green_lw/9.jpg"",""time"":459},{""stimulus"":""img/green_lw/10.jpg"",""time"":510},{""stimulus"":""img/green_lw/11.jpg"",""time"":561}]","[]"
"image-keyboard-response","146","120200","0.0-5.0-1.71","60ff4339f5ffb265d16b144f","bdp_lott","Mon Mar 27 2023 16:17:48 GMT-0400 (Eastern Daylight Time)","247988","green","red","","349","","","","choice","","img/green_lw/choose11.jpg","2","154","red","0.5","0.5","0.5","w","",""
"animation","147","120814","0.0-5.0-2.71","60ff4339f5ffb265d16b144f","bdp_lott","Mon Mar 27 2023 16:17:48 GMT-0400 (Eastern Daylight Time)","247988","green","red","","","","","","","","","","154","","","","","","[{""stimulus"":""img/red_lw/1.jpg"",""time"":52},{""stimulus"":""img/red_lw/2.jpg"",""time"":103},{""stimulus"":""img/red_lw/3.jpg"",""time"":153},{""stimulus"":""img/red_lw/4.jpg"",""time"":205},{""stimulus"":""img/red_lw/5.jpg"",""time"":256},{""stimulus"":""img/red_lw/6.jpg"",""time"":307},{""stimulus"":""img/red_lw/7.jpg"",""time"":358},{""stimulus"":""img/red_lw/8.jpg"",""time"":412},{""stimulus"":""img/red_lw/9.jpg"",""time"":462},{""stimulus"":""img/red_lw/10.jpg"",""time"":513},{""stimulus"":""img/red_lw/11.jpg"",""time"":563}]","[]"
"image-keyboard-response","148","121135","0.0-5.0-1.72","60ff4339f5ffb265d16b144f","bdp_lott","Mon Mar 27 2023 16:17:48 GMT-0400 (Eastern Daylight Time)","247988","green","red","","320","","","","choice","","img/red_lw/choose11.jpg","2","153","red","0.5","0.5","0.5","w","",""
"animation","149","121746","0.0-5.0-2.72","60ff4339f5ffb265d16b144f","bdp_lott","Mon Mar 27 2023 16:17:48 GMT-0400 (Eastern Daylight Time)","247988","green","red","","","","","","","","","","153","","","","","","[{""stimulus"":""img/red_lw/1.jpg"",""time"":52},{""stimulus"":""img/red_lw/2.jpg"",""time"":102},{""stimulus"":""img/red_lw/3.jpg"",""time"":153},{""stimulus"":""img/red_lw/4.jpg"",""time"":203},{""stimulus"":""img/red_lw/5.jpg"",""time"":255},{""stimulus"":""img/red_lw/6.jpg"",""time"":306},{""stimulus"":""img/red_lw/7.jpg"",""time"":357},{""stimulus"":""img/red_lw/8.jpg"",""time"":408},{""stimulus"":""img/red_lw/9.jpg"",""time"":459},{""stimulus"":""img/red_lw/10.jpg"",""time"":510},{""stimulus"":""img/red_lw/11.jpg"",""time"":560}]","[]"
"image-keyboard-response","150","122030","0.0-5.0-1.73","60ff4339f5ffb265d16b144f","bdp_lott","Mon Mar 27 2023 16:17:48 GMT-0400 (Eastern Daylight Time)","247988","green","red","","283","","","","choice","","img/red_lw/choose11.jpg","1","152","green","0.5","0.5","0.5","l","",""
"animation","151","122643","0.0-5.0-2.73","60ff4339f5ffb265d16b144f","bdp_lott","Mon Mar 27 2023 16:17:48 GMT-0400 (Eastern Daylight Time)","247988","green","red","","","","","","","","","","152","","","","","","[{""stimulus"":""img/green_lw/1.jpg"",""time"":51},{""stimulus"":""img/green_lw/2.jpg"",""time"":101},{""stimulus"":""img/green_lw/3.jpg"",""time"":153},{""stimulus"":""img/green_lw/4.jpg"",""time"":203},{""stimulus"":""img/green_lw/5.jpg"",""time"":254},{""stimulus"":""img/green_lw/6.jpg"",""time"":306},{""stimulus"":""img/green_lw/7.jpg"",""time"":356},{""stimulus"":""img/green_lw/8.jpg"",""time"":407},{""stimulus"":""img/green_lw/9.jpg"",""time"":457},{""stimulus"":""img/green_lw/10.jpg"",""time"":508},{""stimulus"":""img/green_lw/11.jpg"",""time"":561}]","[]"
"image-keyboard-response","152","122778","0.0-5.0-1.74","60ff4339f5ffb265d16b144f","bdp_lott","Mon Mar 27 2023 16:17:48 GMT-0400 (Eastern Daylight Time)","247988","green","red","","135","","","","choice","","img/green_lw/choose11.jpg","2","151","red","0.5","0.5","0.5","l","",""
"animation","153","123388","0.0-5.0-2.74","60ff4339f5ffb265d16b144f","bdp_lott","Mon Mar 27 2023 16:17:48 GMT-0400 (Eastern Daylight Time)","247988","green","red","","","","","","","","","","151","","","","","","[{""stimulus"":""img/red_ll/1.jpg"",""time"":51},{""stimulus"":""img/red_ll/2.jpg"",""time"":101},{""stimulus"":""img/red_ll/3.jpg"",""time"":153},{""stimulus"":""img/red_ll/4.jpg"",""time"":203},{""stimulus"":""img/red_ll/5.jpg"",""time"":253},{""stimulus"":""img/red_ll/6.jpg"",""time"":304},{""stimulus"":""img/red_ll/7.jpg"",""time"":354},{""stimulus"":""img/red_ll/8.jpg"",""time"":406},{""stimulus"":""img/red_ll/9.jpg"",""time"":457},{""stimulus"":""img/red_ll/10.jpg"",""time"":507},{""stimulus"":""img/red_ll/11.jpg"",""time"":558}]","[]"
"image-keyboard-response","154","123661","0.0-5.0-1.75","60ff4339f5ffb265d16b144f","bdp_lott","Mon Mar 27 2023 16:17:48 GMT-0400 (Eastern Daylight Time)","247988","green","red","","272","","","","choice","","img/red_ll/choose11.jpg","1","150","green","0.5","0.5","0.5","w","",""
"animation","155","124274","0.0-5.0-2.75","60ff4339f5ffb265d16b144f","bdp_lott","Mon Mar 27 2023 16:17:48 GMT-0400 (Eastern Daylight Time)","247988","green","red","","","","","","","","","","150","","","","","","[{""stimulus"":""img/green_wl/1.jpg"",""time"":51},{""stimulus"":""img/green_wl/2.jpg"",""time"":102},{""stimulus"":""img/green_wl/3.jpg"",""time"":152},{""stimulus"":""img/green_wl/4.jpg"",""time"":203},{""stimulus"":""img/green_wl/5.jpg"",""time"":254},{""stimulus"":""img/green_wl/6.jpg"",""time"":305},{""stimulus"":""img/green_wl/7.jpg"",""time"":356},{""stimulus"":""img/green_wl/8.jpg"",""time"":407},{""stimulus"":""img/green_wl/9.jpg"",""time"":458},{""stimulus"":""img/green_wl/10.jpg"",""time"":508},{""stimulus"":""img/green_wl/11.jpg"",""time"":561}]","[]"
"image-keyboard-response","156","124664","0.0-5.0-1.76","60ff4339f5ffb265d16b144f","bdp_lott","Mon Mar 27 2023 16:17:48 GMT-0400 (Eastern Daylight Time)","247988","green","red","","390","","","","choice","","img/green_wl/choose11.jpg","1","149","green","0.5","0.1","0.5","l","",""
"animation","157","125279","0.0-5.0-2.76","60ff4339f5ffb265d16b144f","bdp_lott","Mon Mar 27 2023 16:17:48 GMT-0400 (Eastern Daylight Time)","247988","green","red","","","","","","","","","","149","","","","","","[{""stimulus"":""img/green_ll/1.jpg"",""time"":51},{""stimulus"":""img/green_ll/2.jpg"",""time"":102},{""stimulus"":""img/green_ll/3.jpg"",""time"":153},{""stimulus"":""img/green_ll/4.jpg"",""time"":204},{""stimulus"":""img/green_ll/5.jpg"",""time"":256},{""stimulus"":""img/green_ll/6.jpg"",""time"":306},{""stimulus"":""img/green_ll/7.jpg"",""time"":356},{""stimulus"":""img/green_ll/8.jpg"",""time"":407},{""stimulus"":""img/green_ll/9.jpg"",""time"":460},{""stimulus"":""img/green_ll/10.jpg"",""time"":511},{""stimulus"":""img/green_ll/11.jpg"",""time"":563}]","[]"
"image-keyboard-response","158","125595","0.0-5.0-1.77","60ff4339f5ffb265d16b144f","bdp_lott","Mon Mar 27 2023 16:17:48 GMT-0400 (Eastern Daylight Time)","247988","green","red","","315","","","","choice","","img/green_ll/choose11.jpg","2","148","red","0.5","0.1","0.1","l","",""
"animation","159","126208","0.0-5.0-2.77","60ff4339f5ffb265d16b144f","bdp_lott","Mon Mar 27 2023 16:17:48 GMT-0400 (Eastern Daylight Time)","247988","green","red","","","","","","","","","","148","","","","","","[{""stimulus"":""img/red_ll/1.jpg"",""time"":51},{""stimulus"":""img/red_ll/2.jpg"",""time"":102},{""stimulus"":""img/red_ll/3.jpg"",""time"":153},{""stimulus"":""img/red_ll/4.jpg"",""time"":203},{""stimulus"":""img/red_ll/5.jpg"",""time"":254},{""stimulus"":""img/red_ll/6.jpg"",""time"":306},{""stimulus"":""img/red_ll/7.jpg"",""time"":357},{""stimulus"":""img/red_ll/8.jpg"",""time"":408},{""stimulus"":""img/red_ll/9.jpg"",""time"":461},{""stimulus"":""img/red_ll/10.jpg"",""time"":512},{""stimulus"":""img/red_ll/11.jpg"",""time"":564}]","[]"
"image-keyboard-response","160","126400","0.0-5.0-1.78","60ff4339f5ffb265d16b144f","bdp_lott","Mon Mar 27 2023 16:17:48 GMT-0400 (Eastern Daylight Time)","247988","green","red","","191","","","","choice","","img/red_ll/choose11.jpg","2","147","red","0.5","0.1","0.1","l","",""
"animation","161","127012","0.0-5.0-2.78","60ff4339f5ffb265d16b144f","bdp_lott","Mon Mar 27 2023 16:17:48 GMT-0400 (Eastern Daylight Time)","247988","green","red","","","","","","","","","","147","","","","","","[{""stimulus"":""img/red_ll/1.jpg"",""time"":50},{""stimulus"":""img/red_ll/2.jpg"",""time"":100},{""stimulus"":""img/red_ll/3.jpg"",""time"":152},{""stimulus"":""img/red_ll/4.jpg"",""time"":203},{""stimulus"":""img/red_ll/5.jpg"",""time"":254},{""stimulus"":""img/red_ll/6.jpg"",""time"":304},{""stimulus"":""img/red_ll/7.jpg"",""time"":355},{""stimulus"":""img/red_ll/8.jpg"",""time"":406},{""stimulus"":""img/red_ll/9.jpg"",""time"":459},{""stimulus"":""img/red_ll/10.jpg"",""time"":510},{""stimulus"":""img/red_ll/11.jpg"",""time"":560}]","[]"
"image-keyboard-response","162","127266","0.0-5.0-1.79","60ff4339f5ffb265d16b144f","bdp_lott","Mon Mar 27 2023 16:17:48 GMT-0400 (Eastern Daylight Time)","247988","green","red","","253","","","","choice","","img/red_ll/choose11.jpg","1","146","green","0.5","0.1","0.5","w","",""
"animation","163","127882","0.0-5.0-2.79","60ff4339f5ffb265d16b144f","bdp_lott","Mon Mar 27 2023 16:17:48 GMT-0400 (Eastern Daylight Time)","247988","green","red","","","","","","","","","","146","","","","","","[{""stimulus"":""img/green_wl/1.jpg"",""time"":52},{""stimulus"":""img/green_wl/2.jpg"",""time"":102},{""stimulus"":""img/green_wl/3.jpg"",""time"":154},{""stimulus"":""img/green_wl/4.jpg"",""time"":204},{""stimulus"":""img/green_wl/5.jpg"",""time"":257},{""stimulus"":""img/green_wl/6.jpg"",""time"":308},{""stimulus"":""img/green_wl/7.jpg"",""time"":361},{""stimulus"":""img/green_wl/8.jpg"",""time"":412},{""stimulus"":""img/green_wl/9.jpg"",""time"":463},{""stimulus"":""img/green_wl/10.jpg"",""time"":513},{""stimulus"":""img/green_wl/11.jpg"",""time"":565}]","[]"
"image-keyboard-response","164","128075","0.0-5.0-1.80","60ff4339f5ffb265d16b144f","bdp_lott","Mon Mar 27 2023 16:17:48 GMT-0400 (Eastern Daylight Time)","247988","green","red","","193","","","","choice","","img/green_wl/choose11.jpg","1","145","green","0.5","0.1","0.5","w","",""
"animation","165","128689","0.0-5.0-2.80","60ff4339f5ffb265d16b144f","bdp_lott","Mon Mar 27 2023 16:17:48 GMT-0400 (Eastern Daylight Time)","247988","green","red","","","","","","","","","","145","","","","","","[{""stimulus"":""img/green_wl/1.jpg"",""time"":52},{""stimulus"":""img/green_wl/2.jpg"",""time"":103},{""stimulus"":""img/green_wl/3.jpg"",""time"":154},{""stimulus"":""img/green_wl/4.jpg"",""time"":204},{""stimulus"":""img/green_wl/5.jpg"",""time"":257},{""stimulus"":""img/green_wl/6.jpg"",""time"":309},{""stimulus"":""img/green_wl/7.jpg"",""time"":360},{""stimulus"":""img/green_wl/8.jpg"",""time"":410},{""stimulus"":""img/green_wl/9.jpg"",""time"":461},{""stimulus"":""img/green_wl/10.jpg"",""time"":512},{""stimulus"":""img/green_wl/11.jpg"",""time"":563}]","[]"
"image-keyboard-response","166","128891","0.0-5.0-1.81","60ff4339f5ffb265d16b144f","bdp_lott","Mon Mar 27 2023 16:17:48 GMT-0400 (Eastern Daylight Time)","247988","green","red","","201","","","","choice","","img/green_wl/choose11.jpg","2","144","red","0.5","0.1","0.1","l","",""
"animation","167","129502","0.0-5.0-2.81","60ff4339f5ffb265d16b144f","bdp_lott","Mon Mar 27 2023 16:17:48 GMT-0400 (Eastern Daylight Time)","247988","green","red","","","","","","","","","","144","","","","","","[{""stimulus"":""img/red_wl/1.jpg"",""time"":51},{""stimulus"":""img/red_wl/2.jpg"",""time"":102},{""stimulus"":""img/red_wl/3.jpg"",""time"":153},{""stimulus"":""img/red_wl/4.jpg"",""time"":205},{""stimulus"":""img/red_wl/5.jpg"",""time"":256},{""stimulus"":""img/red_wl/6.jpg"",""time"":306},{""stimulus"":""img/red_wl/7.jpg"",""time"":357},{""stimulus"":""img/red_wl/8.jpg"",""time"":407},{""stimulus"":""img/red_wl/9.jpg"",""time"":458},{""stimulus"":""img/red_wl/10.jpg"",""time"":509},{""stimulus"":""img/red_wl/11.jpg"",""time"":560}]","[]"
"image-keyboard-response","168","129832","0.0-5.0-1.82","60ff4339f5ffb265d16b144f","bdp_lott","Mon Mar 27 2023 16:17:48 GMT-0400 (Eastern Daylight Time)","247988","green","red","","329","","","","choice","","img/red_wl/choose11.jpg","1","143","green","0.5","0.1","0.5","w","",""
"animation","169","130443","0.0-5.0-2.82","60ff4339f5ffb265d16b144f","bdp_lott","Mon Mar 27 2023 16:17:48 GMT-0400 (Eastern Daylight Time)","247988","green","red","","","","","","","","","","143","","","","","","[{""stimulus"":""img/green_wl/1.jpg"",""time"":52},{""stimulus"":""img/green_wl/2.jpg"",""time"":103},{""stimulus"":""img/green_wl/3.jpg"",""time"":155},{""stimulus"":""img/green_wl/4.jpg"",""time"":205},{""stimulus"":""img/green_wl/5.jpg"",""time"":255},{""stimulus"":""img/green_wl/6.jpg"",""time"":307},{""stimulus"":""img/green_wl/7.jpg"",""time"":357},{""stimulus"":""img/green_wl/8.jpg"",""time"":408},{""stimulus"":""img/green_wl/9.jpg"",""time"":458},{""stimulus"":""img/green_wl/10.jpg"",""time"":510},{""stimulus"":""img/green_wl/11.jpg"",""time"":560}]","[]"
"image-keyboard-response","170","130720","0.0-5.0-1.83","60ff4339f5ffb265d16b144f","bdp_lott","Mon Mar 27 2023 16:17:48 GMT-0400 (Eastern Daylight Time)","247988","green","red","","277","","","","choice","","img/green_wl/choose11.jpg","1","142","green","0.5","0.1","0.5","w","",""
"animation","171","131337","0.0-5.0-2.83","60ff4339f5ffb265d16b144f","bdp_lott","Mon Mar 27 2023 16:17:48 GMT-0400 (Eastern Daylight Time)","247988","green","red","","","","","","","","","","142","","","","","","[{""stimulus"":""img/green_wl/1.jpg"",""time"":51},{""stimulus"":""img/green_wl/2.jpg"",""time"":103},{""stimulus"":""img/green_wl/3.jpg"",""time"":155},{""stimulus"":""img/green_wl/4.jpg"",""time"":205},{""stimulus"":""img/green_wl/5.jpg"",""time"":256},{""stimulus"":""img/green_wl/6.jpg"",""time"":309},{""stimulus"":""img/green_wl/7.jpg"",""time"":360},{""stimulus"":""img/green_wl/8.jpg"",""time"":412},{""stimulus"":""img/green_wl/9.jpg"",""time"":464},{""stimulus"":""img/green_wl/10.jpg"",""time"":515},{""stimulus"":""img/green_wl/11.jpg"",""time"":566}]","[]"
"image-keyboard-response","172","131517","0.0-5.0-1.84","60ff4339f5ffb265d16b144f","bdp_lott","Mon Mar 27 2023 16:17:48 GMT-0400 (Eastern Daylight Time)","247988","green","red","","179","","","","choice","","img/green_wl/choose11.jpg","2","141","red","0.5","0.1","0.1","l","",""
"animation","173","132128","0.0-5.0-2.84","60ff4339f5ffb265d16b144f","bdp_lott","Mon Mar 27 2023 16:17:48 GMT-0400 (Eastern Daylight Time)","247988","green","red","","","","","","","","","","141","","","","","","[{""stimulus"":""img/red_wl/1.jpg"",""time"":52},{""stimulus"":""img/red_wl/2.jpg"",""time"":102},{""stimulus"":""img/red_wl/3.jpg"",""time"":152},{""stimulus"":""img/red_wl/4.jpg"",""time"":205},{""stimulus"":""img/red_wl/5.jpg"",""time"":255},{""stimulus"":""img/red_wl/6.jpg"",""time"":305},{""stimulus"":""img/red_wl/7.jpg"",""time"":355},{""stimulus"":""img/red_wl/8.jpg"",""time"":406},{""stimulus"":""img/red_wl/9.jpg"",""time"":457},{""stimulus"":""img/red_wl/10.jpg"",""time"":508},{""stimulus"":""img/red_wl/11.jpg"",""time"":559}]","[]"
"image-keyboard-response","174","132302","0.0-5.0-1.85","60ff4339f5ffb265d16b144f","bdp_lott","Mon Mar 27 2023 16:17:48 GMT-0400 (Eastern Daylight Time)","247988","green","red","","173","","","","choice","","img/red_wl/choose11.jpg","1","140","green","0.5","0.1","0.5","l","",""
"animation","175","132912","0.0-5.0-2.85","60ff4339f5ffb265d16b144f","bdp_lott","Mon Mar 27 2023 16:17:48 GMT-0400 (Eastern Daylight Time)","247988","green","red","","","","","","","","","","140","","","","","","[{""stimulus"":""img/green_ll/1.jpg"",""time"":52},{""stimulus"":""img/green_ll/2.jpg"",""time"":102},{""stimulus"":""img/green_ll/3.jpg"",""time"":155},{""stimulus"":""img/green_ll/4.jpg"",""time"":205},{""stimulus"":""img/green_ll/5.jpg"",""time"":256},{""stimulus"":""img/green_ll/6.jpg"",""time"":306},{""stimulus"":""img/green_ll/7.jpg"",""time"":357},{""stimulus"":""img/green_ll/8.jpg"",""time"":408},{""stimulus"":""img/green_ll/9.jpg"",""time"":458},{""stimulus"":""img/green_ll/10.jpg"",""time"":509},{""stimulus"":""img/green_ll/11.jpg"",""time"":560}]","[]"
"image-keyboard-response","176","133351","0.0-5.0-1.86","60ff4339f5ffb265d16b144f","bdp_lott","Mon Mar 27 2023 16:17:48 GMT-0400 (Eastern Daylight Time)","247988","green","red","","438","","","","choice","","img/green_ll/choose11.jpg","2","139","red","0.5","0.1","0.1","l","",""
"animation","177","133963","0.0-5.0-2.86","60ff4339f5ffb265d16b144f","bdp_lott","Mon Mar 27 2023 16:17:48 GMT-0400 (Eastern Daylight Time)","247988","green","red","","","","","","","","","","139","","","","","","[{""stimulus"":""img/red_ll/1.jpg"",""time"":51},{""stimulus"":""img/red_ll/2.jpg"",""time"":102},{""stimulus"":""img/red_ll/3.jpg"",""time"":152},{""stimulus"":""img/red_ll/4.jpg"",""time"":204},{""stimulus"":""img/red_ll/5.jpg"",""time"":255},{""stimulus"":""img/red_ll/6.jpg"",""time"":306},{""stimulus"":""img/red_ll/7.jpg"",""time"":356},{""stimulus"":""img/red_ll/8.jpg"",""time"":407},{""stimulus"":""img/red_ll/9.jpg"",""time"":458},{""stimulus"":""img/red_ll/10.jpg"",""time"":509},{""stimulus"":""img/red_ll/11.jpg"",""time"":560}]","[]"
"image-keyboard-response","178","134145","0.0-5.0-1.87","60ff4339f5ffb265d16b144f","bdp_lott","Mon Mar 27 2023 16:17:48 GMT-0400 (Eastern Daylight Time)","247988","green","red","","181","","","","choice","","img/red_ll/choose11.jpg","1","138","green","0.5","0.1","0.5","l","",""
"animation","179","134759","0.0-5.0-2.87","60ff4339f5ffb265d16b144f","bdp_lott","Mon Mar 27 2023 16:17:48 GMT-0400 (Eastern Daylight Time)","247988","green","red","","","","","","","","","","138","","","","","","[{""stimulus"":""img/green_ll/1.jpg"",""time"":53},{""stimulus"":""img/green_ll/2.jpg"",""time"":104},{""stimulus"":""img/green_ll/3.jpg"",""time"":155},{""stimulus"":""img/green_ll/4.jpg"",""time"":206},{""stimulus"":""img/green_ll/5.jpg"",""time"":257},{""stimulus"":""img/green_ll/6.jpg"",""time"":308},{""stimulus"":""img/green_ll/7.jpg"",""time"":359},{""stimulus"":""img/green_ll/8.jpg"",""time"":410},{""stimulus"":""img/green_ll/9.jpg"",""time"":462},{""stimulus"":""img/green_ll/10.jpg"",""time"":513},{""stimulus"":""img/green_ll/11.jpg"",""time"":564}]","[]"
"image-keyboard-response","180","135180","0.0-5.0-1.88","60ff4339f5ffb265d16b144f","bdp_lott","Mon Mar 27 2023 16:17:48 GMT-0400 (Eastern Daylight Time)","247988","green","red","","420","","","","choice","","img/green_ll/choose11.jpg","2","137","red","0.5","0.1","0.1","l","",""
"animation","181","135791","0.0-5.0-2.88","60ff4339f5ffb265d16b144f","bdp_lott","Mon Mar 27 2023 16:17:48 GMT-0400 (Eastern Daylight Time)","247988","green","red","","","","","","","","","","137","","","","","","[{""stimulus"":""img/red_ll/1.jpg"",""time"":52},{""stimulus"":""img/red_ll/2.jpg"",""time"":103},{""stimulus"":""img/red_ll/3.jpg"",""time"":155},{""stimulus"":""img/red_ll/4.jpg"",""time"":205},{""stimulus"":""img/red_ll/5.jpg"",""time"":255},{""stimulus"":""img/red_ll/6.jpg"",""time"":305},{""stimulus"":""img/red_ll/7.jpg"",""time"":356},{""stimulus"":""img/red_ll/8.jpg"",""time"":407},{""stimulus"":""img/red_ll/9.jpg"",""time"":457},{""stimulus"":""img/red_ll/10.jpg"",""time"":508},{""stimulus"":""img/red_ll/11.jpg"",""time"":559}]","[]"
"image-keyboard-response","182","135973","0.0-5.0-1.89","60ff4339f5ffb265d16b144f","bdp_lott","Mon Mar 27 2023 16:17:48 GMT-0400 (Eastern Daylight Time)","247988","green","red","","181","","","","choice","","img/red_ll/choose11.jpg","2","136","red","0.5","0.1","0.1","w","",""
"animation","183","136587","0.0-5.0-2.89","60ff4339f5ffb265d16b144f","bdp_lott","Mon Mar 27 2023 16:17:48 GMT-0400 (Eastern Daylight Time)","247988","green","red","","","","","","","","","","136","","","","","","[{""stimulus"":""img/red_lw/1.jpg"",""time"":52},{""stimulus"":""img/red_lw/2.jpg"",""time"":103},{""stimulus"":""img/red_lw/3.jpg"",""time"":154},{""stimulus"":""img/red_lw/4.jpg"",""time"":205},{""stimulus"":""img/red_lw/5.jpg"",""time"":259},{""stimulus"":""img/red_lw/6.jpg"",""time"":310},{""stimulus"":""img/red_lw/7.jpg"",""time"":360},{""stimulus"":""img/red_lw/8.jpg"",""time"":410},{""stimulus"":""img/red_lw/9.jpg"",""time"":460},{""stimulus"":""img/red_lw/10.jpg"",""time"":512},{""stimulus"":""img/red_lw/11.jpg"",""time"":562}]","[]"
"image-keyboard-response","184","136954","0.0-5.0-1.90","60ff4339f5ffb265d16b144f","bdp_lott","Mon Mar 27 2023 16:17:48 GMT-0400 (Eastern Daylight Time)","247988","green","red","","366","","","","choice","","img/red_lw/choose11.jpg","1","135","green","0.5","0.1","0.5","l","",""
"animation","185","137563","0.0-5.0-2.90","60ff4339f5ffb265d16b144f","bdp_lott","Mon Mar 27 2023 16:17:48 GMT-0400 (Eastern Daylight Time)","247988","green","red","","","","","","","","","","135","","","","","","[{""stimulus"":""img/green_lw/1.jpg"",""time"":50},{""stimulus"":""img/green_lw/2.jpg"",""time"":101},{""stimulus"":""img/green_lw/3.jpg"",""time"":152},{""stimulus"":""img/green_lw/4.jpg"",""time"":203},{""stimulus"":""img/green_lw/5.jpg"",""time"":254},{""stimulus"":""img/green_lw/6.jpg"",""time"":305},{""stimulus"":""img/green_lw/7.jpg"",""time"":355},{""stimulus"":""img/green_lw/8.jpg"",""time"":405},{""stimulus"":""img/green_lw/9.jpg"",""time"":456},{""stimulus"":""img/green_lw/10.jpg"",""time"":506},{""stimulus"":""img/green_lw/11.jpg"",""time"":557}]","[]"
"image-keyboard-response","186","137792","0.0-5.0-1.91","60ff4339f5ffb265d16b144f","bdp_lott","Mon Mar 27 2023 16:17:48 GMT-0400 (Eastern Daylight Time)","247988","green","red","","228","","","","choice","","img/green_lw/choose11.jpg","2","134","red","0.5","0.1","0.1","l","",""
"animation","187","138404","0.0-5.0-2.91","60ff4339f5ffb265d16b144f","bdp_lott","Mon Mar 27 2023 16:17:48 GMT-0400 (Eastern Daylight Time)","247988","green","red","","","","","","","","","","134","","","","","","[{""stimulus"":""img/red_ll/1.jpg"",""time"":51},{""stimulus"":""img/red_ll/2.jpg"",""time"":102},{""stimulus"":""img/red_ll/3.jpg"",""time"":153},{""stimulus"":""img/red_ll/4.jpg"",""time"":204},{""stimulus"":""img/red_ll/5.jpg"",""time"":255},{""stimulus"":""img/red_ll/6.jpg"",""time"":306},{""stimulus"":""img/red_ll/7.jpg"",""time"":357},{""stimulus"":""img/red_ll/8.jpg"",""time"":408},{""stimulus"":""img/red_ll/9.jpg"",""time"":459},{""stimulus"":""img/red_ll/10.jpg"",""time"":510},{""stimulus"":""img/red_ll/11.jpg"",""time"":561}]","[]"
"image-keyboard-response","188","138691","0.0-5.0-1.92","60ff4339f5ffb265d16b144f","bdp_lott","Mon Mar 27 2023 16:17:48 GMT-0400 (Eastern Daylight Time)","247988","green","red","","287","","","","choice","","img/red_ll/choose11.jpg","2","133","red","0.5","0.1","0.1","l","",""
"animation","189","139301","0.0-5.0-2.92","60ff4339f5ffb265d16b144f","bdp_lott","Mon Mar 27 2023 16:17:48 GMT-0400 (Eastern Daylight Time)","247988","green","red","","","","","","","","","","133","","","","","","[{""stimulus"":""img/red_ll/1.jpg"",""time"":52},{""stimulus"":""img/red_ll/2.jpg"",""time"":102},{""stimulus"":""img/red_ll/3.jpg"",""time"":152},{""stimulus"":""img/red_ll/4.jpg"",""time"":203},{""stimulus"":""img/red_ll/5.jpg"",""time"":254},{""stimulus"":""img/red_ll/6.jpg"",""time"":305},{""stimulus"":""img/red_ll/7.jpg"",""time"":356},{""stimulus"":""img/red_ll/8.jpg"",""time"":407},{""stimulus"":""img/red_ll/9.jpg"",""time"":457},{""stimulus"":""img/red_ll/10.jpg"",""time"":508},{""stimulus"":""img/red_ll/11.jpg"",""time"":558}]","[]"
"image-keyboard-response","190","139467","0.0-5.0-1.93","60ff4339f5ffb265d16b144f","bdp_lott","Mon Mar 27 2023 16:17:48 GMT-0400 (Eastern Daylight Time)","247988","green","red","","166","","","","choice","","img/red_ll/choose11.jpg","1","132","green","0.5","0.1","0.5","l","",""
"animation","191","140081","0.0-5.0-2.93","60ff4339f5ffb265d16b144f","bdp_lott","Mon Mar 27 2023 16:17:48 GMT-0400 (Eastern Daylight Time)","247988","green","red","","","","","","","","","","132","","","","","","[{""stimulus"":""img/green_ll/1.jpg"",""time"":52},{""stimulus"":""img/green_ll/2.jpg"",""time"":103},{""stimulus"":""img/green_ll/3.jpg"",""time"":154},{""stimulus"":""img/green_ll/4.jpg"",""time"":205},{""stimulus"":""img/green_ll/5.jpg"",""time"":256},{""stimulus"":""img/green_ll/6.jpg"",""time"":308},{""stimulus"":""img/green_ll/7.jpg"",""time"":359},{""stimulus"":""img/green_ll/8.jpg"",""time"":410},{""stimulus"":""img/green_ll/9.jpg"",""time"":460},{""stimulus"":""img/green_ll/10.jpg"",""time"":510},{""stimulus"":""img/green_ll/11.jpg"",""time"":564}]","[]"
