"trial_type","trial_index","time_elapsed","internal_node_id","subject_id","task","startTime","totalTime","fairMachine","unfairMachine","event","trial","time","trialtype","numBlurs","view_history","rt","success","stimulus","key_press","roundsLeft","chosen","pFairMachWin","pUnfairMachWin","pTrialWin","outcome","animation_sequence","responses"
"pavlovia","0","5","0.0-0.0","63d842d3e9626bd5fe5c17b1","bdp_lott","Mon Mar 27 2023 15:59:25 GMT-0700 (Pacific Daylight Time)","398293","red","green","","","","","","","","","","","","","","","","","",""
"","","","","63d842d3e9626bd5fe5c17b1","bdp_lott","Mon Mar 27 2023 15:59:25 GMT-0700 (Pacific Daylight Time)","398293","red","green","blur","1","2201","blurevent","1","","","","","","","","","","","","",""
"","","","","63d842d3e9626bd5fe5c17b1","bdp_lott","Mon Mar 27 2023 15:59:25 GMT-0700 (Pacific Daylight Time)","398293","red","green","focus","1","99009","focusevent","","","","","","","","","","","","","",""
"instructions","1","99619","0.0-1.0","63d842d3e9626bd5fe5c17b1","bdp_lott","Mon Mar 27 2023 15:59:25 GMT-0700 (Pacific Daylight Time)","398293","red","green","","","","","","[{""page_index"":0,""viewing_time"":99614}]","99614","","","","","","","","","","",""
"","","","","63d842d3e9626bd5fe5c17b1","bdp_lott","Mon Mar 27 2023 15:59:25 GMT-0700 (Pacific Daylight Time)","398293","red","green","fullscreenexit","2","100953","fullscreenexit","","","","","","","","","","","","","",""
"fullscreen","2","101757","0.0-2.0","63d842d3e9626bd5fe5c17b1","bdp_lott","Mon Mar 27 2023 15:59:25 GMT-0700 (Pacific Daylight Time)","398293","red","green","","","","","","","","true","","","","","","","","","",""
"image-keyboard-response","3","107201","0.0-3.0-0.0","63d842d3e9626bd5fe5c17b1","bdp_lott","Mon Mar 27 2023 15:59:25 GMT-0700 (Pacific Daylight Time)","398293","red","green","","","","fullscreenfail","","","5443","","","32","","","","","","","",""
"instructions","4","176748","0.0-4.0","63d842d3e9626bd5fe5c17b1","bdp_lott","Mon Mar 27 2023 15:59:25 GMT-0700 (Pacific Daylight Time)","398293","red","green","","","","","","[{""page_index"":0,""viewing_time"":69296}]","69297","","","","","","","","","","",""
"image-keyboard-response","5","185434","0.0-5.0-0.0-0.0","63d842d3e9626bd5fe5c17b1","bdp_lott","Mon Mar 27 2023 15:59:25 GMT-0700 (Pacific Daylight Time)","398293","red","green","","","","blurwarn","1","","8685","","","49","","","","","","","",""
"image-keyboard-response","6","187580","0.0-5.0-1.0","63d842d3e9626bd5fe5c17b1","bdp_lott","Mon Mar 27 2023 15:59:25 GMT-0700 (Pacific Daylight Time)","398293","red","green","","","","choice","","","1884","","img/red_ll/initchoose11.jpg","1","225","green","0.5","0.5","0.5","l","",""
"animation","7","188316","0.0-5.0-2.0","63d842d3e9626bd5fe5c17b1","bdp_lott","Mon Mar 27 2023 15:59:25 GMT-0700 (Pacific Daylight Time)","398293","red","green","","","","","","","","","","","225","","","","","","[{""stimulus"":""img/green_ll/1.jpg"",""time"":57},{""stimulus"":""img/green_ll/2.jpg"",""time"":120},{""stimulus"":""img/green_ll/3.jpg"",""time"":182},{""stimulus"":""img/green_ll/4.jpg"",""time"":243},{""stimulus"":""img/green_ll/5.jpg"",""time"":305},{""stimulus"":""img/green_ll/6.jpg"",""time"":366},{""stimulus"":""img/green_ll/7.jpg"",""time"":427},{""stimulus"":""img/green_ll/8.jpg"",""time"":488},{""stimulus"":""img/green_ll/9.jpg"",""time"":551},{""stimulus"":""img/green_ll/10.jpg"",""time"":612},{""stimulus"":""img/green_ll/11.jpg"",""time"":674}]","[]"
"image-keyboard-response","8","189346","0.0-5.0-1.1","63d842d3e9626bd5fe5c17b1","bdp_lott","Mon Mar 27 2023 15:59:25 GMT-0700 (Pacific Daylight Time)","398293","red","green","","","","choice","","","1029","","img/green_ll/choose11.jpg","1","224","green","0.5","0.5","0.5","l","",""
"animation","9","190087","0.0-5.0-2.1","63d842d3e9626bd5fe5c17b1","bdp_lott","Mon Mar 27 2023 15:59:25 GMT-0700 (Pacific Daylight Time)","398293","red","green","","","","","","","","","","","224","","","","","","[{""stimulus"":""img/green_ll/1.jpg"",""time"":63},{""stimulus"":""img/green_ll/2.jpg"",""time"":125},{""stimulus"":""img/green_ll/3.jpg"",""time"":186},{""stimulus"":""img/green_ll/4.jpg"",""time"":248},{""stimulus"":""img/green_ll/5.jpg"",""time"":309},{""stimulus"":""img/green_ll/6.jpg"",""time"":371},{""stimulus"":""img/green_ll/7.jpg"",""time"":432},{""stimulus"":""img/green_ll/8.jpg"",""time"":494},{""stimulus"":""img/green_ll/9.jpg"",""time"":555},{""stimulus"":""img/green_ll/10.jpg"",""time"":617},{""stimulus"":""img/green_ll/11.jpg"",""time"":679}]","[]"
"image-keyboard-response","10","190586","0.0-5.0-1.2","63d842d3e9626bd5fe5c17b1","bdp_lott","Mon Mar 27 2023 15:59:25 GMT-0700 (Pacific Daylight Time)","398293","red","green","","","","choice","","","498","","img/green_ll/choose11.jpg","2","223","red","0.5","0.5","0.5","l","",""
"animation","11","191323","0.0-5.0-2.2","63d842d3e9626bd5fe5c17b1","bdp_lott","Mon Mar 27 2023 15:59:25 GMT-0700 (Pacific Daylight Time)","398293","red","green","","","","","","","","","","","223","","","","","","[{""stimulus"":""img/red_ll/1.jpg"",""time"":56},{""stimulus"":""img/red_ll/2.jpg"",""time"":118},{""stimulus"":""img/red_ll/3.jpg"",""time"":180},{""stimulus"":""img/red_ll/4.jpg"",""time"":242},{""stimulus"":""img/red_ll/5.jpg"",""time"":304},{""stimulus"":""img/red_ll/6.jpg"",""time"":366},{""stimulus"":""img/red_ll/7.jpg"",""time"":428},{""stimulus"":""img/red_ll/8.jpg"",""time"":489},{""stimulus"":""img/red_ll/9.jpg"",""time"":552},{""stimulus"":""img/red_ll/10.jpg"",""time"":614},{""stimulus"":""img/red_ll/11.jpg"",""time"":675}]","[]"
"image-keyboard-response","12","191787","0.0-5.0-1.3","63d842d3e9626bd5fe5c17b1","bdp_lott","Mon Mar 27 2023 15:59:25 GMT-0700 (Pacific Daylight Time)","398293","red","green","","","","choice","","","464","","img/red_ll/choose11.jpg","2","222","red","0.5","0.5","0.5","w","",""
"animation","13","192524","0.0-5.0-2.3","63d842d3e9626bd5fe5c17b1","bdp_lott","Mon Mar 27 2023 15:59:25 GMT-0700 (Pacific Daylight Time)","398293","red","green","","","","","","","","","","","222","","","","","","[{""stimulus"":""img/red_lw/1.jpg"",""time"":59},{""stimulus"":""img/red_lw/2.jpg"",""time"":120},{""stimulus"":""img/red_lw/3.jpg"",""time"":181},{""stimulus"":""img/red_lw/4.jpg"",""time"":243},{""stimulus"":""img/red_lw/5.jpg"",""time"":304},{""stimulus"":""img/red_lw/6.jpg"",""time"":366},{""stimulus"":""img/red_lw/7.jpg"",""time"":428},{""stimulus"":""img/red_lw/8.jpg"",""time"":489},{""stimulus"":""img/red_lw/9.jpg"",""time"":551},{""stimulus"":""img/red_lw/10.jpg"",""time"":612},{""stimulus"":""img/red_lw/11.jpg"",""time"":674}]","[]"
"image-keyboard-response","14","193046","0.0-5.0-1.4","63d842d3e9626bd5fe5c17b1","bdp_lott","Mon Mar 27 2023 15:59:25 GMT-0700 (Pacific Daylight Time)","398293","red","green","","","","choice","","","522","","img/red_lw/choose11.jpg","2","221","red","0.5","0.5","0.5","w","",""
"animation","15","193789","0.0-5.0-2.4","63d842d3e9626bd5fe5c17b1","bdp_lott","Mon Mar 27 2023 15:59:25 GMT-0700 (Pacific Daylight Time)","398293","red","green","","","","","","","","","","","221","","","","","","[{""stimulus"":""img/red_lw/1.jpg"",""time"":65},{""stimulus"":""img/red_lw/2.jpg"",""time"":125},{""stimulus"":""img/red_lw/3.jpg"",""time"":188},{""stimulus"":""img/red_lw/4.jpg"",""time"":249},{""stimulus"":""img/red_lw/5.jpg"",""time"":312},{""stimulus"":""img/red_lw/6.jpg"",""time"":373},{""stimulus"":""img/red_lw/7.jpg"",""time"":434},{""stimulus"":""img/red_lw/8.jpg"",""time"":497},{""stimulus"":""img/red_lw/9.jpg"",""time"":559},{""stimulus"":""img/red_lw/10.jpg"",""time"":619},{""stimulus"":""img/red_lw/11.jpg"",""time"":681}]","[]"
"image-keyboard-response","16","194088","0.0-5.0-1.5","63d842d3e9626bd5fe5c17b1","bdp_lott","Mon Mar 27 2023 15:59:25 GMT-0700 (Pacific Daylight Time)","398293","red","green","","","","choice","","","298","","img/red_lw/choose11.jpg","2","220","red","0.5","0.5","0.5","l","",""
"animation","17","194822","0.0-5.0-2.5","63d842d3e9626bd5fe5c17b1","bdp_lott","Mon Mar 27 2023 15:59:25 GMT-0700 (Pacific Daylight Time)","398293","red","green","","","","","","","","","","","220","","","","","","[{""stimulus"":""img/red_ll/1.jpg"",""time"":55},{""stimulus"":""img/red_ll/2.jpg"",""time"":117},{""stimulus"":""img/red_ll/3.jpg"",""time"":179},{""stimulus"":""img/red_ll/4.jpg"",""time"":241},{""stimulus"":""img/red_ll/5.jpg"",""time"":303},{""stimulus"":""img/red_ll/6.jpg"",""time"":365},{""stimulus"":""img/red_ll/7.jpg"",""time"":426},{""stimulus"":""img/red_ll/8.jpg"",""time"":488},{""stimulus"":""img/red_ll/9.jpg"",""time"":550},{""stimulus"":""img/red_ll/10.jpg"",""time"":611},{""stimulus"":""img/red_ll/11.jpg"",""time"":673}]","[]"
"image-keyboard-response","18","195163","0.0-5.0-1.6","63d842d3e9626bd5fe5c17b1","bdp_lott","Mon Mar 27 2023 15:59:25 GMT-0700 (Pacific Daylight Time)","398293","red","green","","","","choice","","","341","","img/red_ll/choose11.jpg","2","219","red","0.5","0.5","0.5","w","",""
"animation","19","195902","0.0-5.0-2.6","63d842d3e9626bd5fe5c17b1","bdp_lott","Mon Mar 27 2023 15:59:25 GMT-0700 (Pacific Daylight Time)","398293","red","green","","","","","","","","","","","219","","","","","","[{""stimulus"":""img/red_lw/1.jpg"",""time"":61},{""stimulus"":""img/red_lw/2.jpg"",""time"":122},{""stimulus"":""img/red_lw/3.jpg"",""time"":185},{""stimulus"":""img/red_lw/4.jpg"",""time"":246},{""stimulus"":""img/red_lw/5.jpg"",""time"":309},{""stimulus"":""img/red_lw/6.jpg"",""time"":369},{""stimulus"":""img/red_lw/7.jpg"",""time"":431},{""stimulus"":""img/red_lw/8.jpg"",""time"":492},{""stimulus"":""img/red_lw/9.jpg"",""time"":554},{""stimulus"":""img/red_lw/10.jpg"",""time"":615},{""stimulus"":""img/red_lw/11.jpg"",""time"":677}]","[]"
"image-keyboard-response","20","198330","0.0-5.0-1.7","63d842d3e9626bd5fe5c17b1","bdp_lott","Mon Mar 27 2023 15:59:25 GMT-0700 (Pacific Daylight Time)","398293","red","green","","","","choice","","","2427","","img/red_lw/choose11.jpg","1","218","green","0.5","0.5","0.5","w","",""
"animation","21","199066","0.0-5.0-2.7","63d842d3e9626bd5fe5c17b1","bdp_lott","Mon Mar 27 2023 15:59:25 GMT-0700 (Pacific Daylight Time)","398293","red","green","","","","","","","","","","","218","","","","","","[{""stimulus"":""img/green_ww/1.jpg"",""time"":56},{""stimulus"":""img/green_ww/2.jpg"",""time"":118},{""stimulus"":""img/green_ww/3.jpg"",""time"":181},{""stimulus"":""img/green_ww/4.jpg"",""time"":242},{""stimulus"":""img/green_ww/5.jpg"",""time"":303},{""stimulus"":""img/green_ww/6.jpg"",""time"":365},{""stimulus"":""img/green_ww/7.jpg"",""time"":427},{""stimulus"":""img/green_ww/8.jpg"",""time"":488},{""stimulus"":""img/green_ww/9.jpg"",""time"":550},{""stimulus"":""img/green_ww/10.jpg"",""time"":612},{""stimulus"":""img/green_ww/11.jpg"",""time"":674}]","[]"
"image-keyboard-response","22","200014","0.0-5.0-1.8","63d842d3e9626bd5fe5c17b1","bdp_lott","Mon Mar 27 2023 15:59:25 GMT-0700 (Pacific Daylight Time)","398293","red","green","","","","choice","","","948","","img/green_ww/choose11.jpg","1","217","green","0.5","0.5","0.5","w","",""
"animation","23","200751","0.0-5.0-2.8","63d842d3e9626bd5fe5c17b1","bdp_lott","Mon Mar 27 2023 15:59:25 GMT-0700 (Pacific Daylight Time)","398293","red","green","","","","","","","","","","","217","","","","","","[{""stimulus"":""img/green_ww/1.jpg"",""time"":57},{""stimulus"":""img/green_ww/2.jpg"",""time"":118},{""stimulus"":""img/green_ww/3.jpg"",""time"":180},{""stimulus"":""img/green_ww/4.jpg"",""time"":241},{""stimulus"":""img/green_ww/5.jpg"",""time"":304},{""stimulus"":""img/green_ww/6.jpg"",""time"":366},{""stimulus"":""img/green_ww/7.jpg"",""time"":427},{""stimulus"":""img/green_ww/8.jpg"",""time"":490},{""stimulus"":""img/green_ww/9.jpg"",""time"":551},{""stimulus"":""img/green_ww/10.jpg"",""time"":613},{""stimulus"":""img/green_ww/11.jpg"",""time"":675}]","[]"
"image-keyboard-response","24","201286","0.0-5.0-1.9","63d842d3e9626bd5fe5c17b1","bdp_lott","Mon Mar 27 2023 15:59:25 GMT-0700 (Pacific Daylight Time)","398293","red","green","","","","choice","","","535","","img/green_ww/choose11.jpg","1","216","green","0.5","0.5","0.5","w","",""
"animation","25","202014","0.0-5.0-2.9","63d842d3e9626bd5fe5c17b1","bdp_lott","Mon Mar 27 2023 15:59:25 GMT-0700 (Pacific Daylight Time)","398293","red","green","","","","","","","","","","","216","","","","","","[{""stimulus"":""img/green_ww/1.jpg"",""time"":51},{""stimulus"":""img/green_ww/2.jpg"",""time"":113},{""stimulus"":""img/green_ww/3.jpg"",""time"":174},{""stimulus"":""img/green_ww/4.jpg"",""time"":235},{""stimulus"":""img/green_ww/5.jpg"",""time"":297},{""stimulus"":""img/green_ww/6.jpg"",""time"":359},{""stimulus"":""img/green_ww/7.jpg"",""time"":421},{""stimulus"":""img/green_ww/8.jpg"",""time"":482},{""stimulus"":""img/green_ww/9.jpg"",""time"":544},{""stimulus"":""img/green_ww/10.jpg"",""time"":605},{""stimulus"":""img/green_ww/11.jpg"",""time"":667}]","[]"
"image-keyboard-response","26","202491","0.0-5.0-1.10","63d842d3e9626bd5fe5c17b1","bdp_lott","Mon Mar 27 2023 15:59:25 GMT-0700 (Pacific Daylight Time)","398293","red","green","","","","choice","","","477","","img/green_ww/choose11.jpg","1","215","green","0.5","0.5","0.5","l","",""
"animation","27","203233","0.0-5.0-2.10","63d842d3e9626bd5fe5c17b1","bdp_lott","Mon Mar 27 2023 15:59:25 GMT-0700 (Pacific Daylight Time)","398293","red","green","","","","","","","","","","","215","","","","","","[{""stimulus"":""img/green_lw/1.jpg"",""time"":63},{""stimulus"":""img/green_lw/2.jpg"",""time"":125},{""stimulus"":""img/green_lw/3.jpg"",""time"":187},{""stimulus"":""img/green_lw/4.jpg"",""time"":249},{""stimulus"":""img/green_lw/5.jpg"",""time"":310},{""stimulus"":""img/green_lw/6.jpg"",""time"":372},{""stimulus"":""img/green_lw/7.jpg"",""time"":433},{""stimulus"":""img/green_lw/8.jpg"",""time"":495},{""stimulus"":""img/green_lw/9.jpg"",""time"":556},{""stimulus"":""img/green_lw/10.jpg"",""time"":617},{""stimulus"":""img/green_lw/11.jpg"",""time"":679}]","[]"
"image-keyboard-response","28","203740","0.0-5.0-1.11","63d842d3e9626bd5fe5c17b1","bdp_lott","Mon Mar 27 2023 15:59:25 GMT-0700 (Pacific Daylight Time)","398293","red","green","","","","choice","","","507","","img/green_lw/choose11.jpg","1","214","green","0.5","0.5","0.5","w","",""
"animation","29","204481","0.0-5.0-2.11","63d842d3e9626bd5fe5c17b1","bdp_lott","Mon Mar 27 2023 15:59:25 GMT-0700 (Pacific Daylight Time)","398293","red","green","","","","","","","","","","","214","","","","","","[{""stimulus"":""img/green_ww/1.jpg"",""time"":64},{""stimulus"":""img/green_ww/2.jpg"",""time"":126},{""stimulus"":""img/green_ww/3.jpg"",""time"":187},{""stimulus"":""img/green_ww/4.jpg"",""time"":248},{""stimulus"":""img/green_ww/5.jpg"",""time"":310},{""stimulus"":""img/green_ww/6.jpg"",""time"":372},{""stimulus"":""img/green_ww/7.jpg"",""time"":434},{""stimulus"":""img/green_ww/8.jpg"",""time"":495},{""stimulus"":""img/green_ww/9.jpg"",""time"":557},{""stimulus"":""img/green_ww/10.jpg"",""time"":618},{""stimulus"":""img/green_ww/11.jpg"",""time"":680}]","[]"
"image-keyboard-response","30","204965","0.0-5.0-1.12","63d842d3e9626bd5fe5c17b1","bdp_lott","Mon Mar 27 2023 15:59:25 GMT-0700 (Pacific Daylight Time)","398293","red","green","","","","choice","","","484","","img/green_ww/choose11.jpg","1","213","green","0.5","0.5","0.5","w","",""
"animation","31","205699","0.0-5.0-2.12","63d842d3e9626bd5fe5c17b1","bdp_lott","Mon Mar 27 2023 15:59:25 GMT-0700 (Pacific Daylight Time)","398293","red","green","","","","","","","","","","","213","","","","","","[{""stimulus"":""img/green_ww/1.jpg"",""time"":56},{""stimulus"":""img/green_ww/2.jpg"",""time"":118},{""stimulus"":""img/green_ww/3.jpg"",""time"":180},{""stimulus"":""img/green_ww/4.jpg"",""time"":240},{""stimulus"":""img/green_ww/5.jpg"",""time"":303},{""stimulus"":""img/green_ww/6.jpg"",""time"":364},{""stimulus"":""img/green_ww/7.jpg"",""time"":426},{""stimulus"":""img/green_ww/8.jpg"",""time"":488},{""stimulus"":""img/green_ww/9.jpg"",""time"":550},{""stimulus"":""img/green_ww/10.jpg"",""time"":611},{""stimulus"":""img/green_ww/11.jpg"",""time"":672}]","[]"
"image-keyboard-response","32","206080","0.0-5.0-1.13","63d842d3e9626bd5fe5c17b1","bdp_lott","Mon Mar 27 2023 15:59:25 GMT-0700 (Pacific Daylight Time)","398293","red","green","","","","choice","","","380","","img/green_ww/choose11.jpg","1","212","green","0.5","0.5","0.5","w","",""
"animation","33","206811","0.0-5.0-2.13","63d842d3e9626bd5fe5c17b1","bdp_lott","Mon Mar 27 2023 15:59:25 GMT-0700 (Pacific Daylight Time)","398293","red","green","","","","","","","","","","","212","","","","","","[{""stimulus"":""img/green_ww/1.jpg"",""time"":51},{""stimulus"":""img/green_ww/2.jpg"",""time"":114},{""stimulus"":""img/green_ww/3.jpg"",""time"":175},{""stimulus"":""img/green_ww/4.jpg"",""time"":236},{""stimulus"":""img/green_ww/5.jpg"",""time"":298},{""stimulus"":""img/green_ww/6.jpg"",""time"":360},{""stimulus"":""img/green_ww/7.jpg"",""time"":422},{""stimulus"":""img/green_ww/8.jpg"",""time"":484},{""stimulus"":""img/green_ww/9.jpg"",""time"":545},{""stimulus"":""img/green_ww/10.jpg"",""time"":607},{""stimulus"":""img/green_ww/11.jpg"",""time"":670}]","[]"
"image-keyboard-response","34","207134","0.0-5.0-1.14","63d842d3e9626bd5fe5c17b1","bdp_lott","Mon Mar 27 2023 15:59:25 GMT-0700 (Pacific Daylight Time)","398293","red","green","","","","choice","","","323","","img/green_ww/choose11.jpg","1","211","green","0.5","0.5","0.5","w","",""
"animation","35","207874","0.0-5.0-2.14","63d842d3e9626bd5fe5c17b1","bdp_lott","Mon Mar 27 2023 15:59:25 GMT-0700 (Pacific Daylight Time)","398293","red","green","","","","","","","","","","","211","","","","","","[{""stimulus"":""img/green_ww/1.jpg"",""time"":62},{""stimulus"":""img/green_ww/2.jpg"",""time"":124},{""stimulus"":""img/green_ww/3.jpg"",""time"":186},{""stimulus"":""img/green_ww/4.jpg"",""time"":248},{""stimulus"":""img/green_ww/5.jpg"",""time"":309},{""stimulus"":""img/green_ww/6.jpg"",""time"":370},{""stimulus"":""img/green_ww/7.jpg"",""time"":432},{""stimulus"":""img/green_ww/8.jpg"",""time"":495},{""stimulus"":""img/green_ww/9.jpg"",""time"":555},{""stimulus"":""img/green_ww/10.jpg"",""time"":617},{""stimulus"":""img/green_ww/11.jpg"",""time"":678}]","[]"
"image-keyboard-response","36","208113","0.0-5.0-1.15","63d842d3e9626bd5fe5c17b1","bdp_lott","Mon Mar 27 2023 15:59:25 GMT-0700 (Pacific Daylight Time)","398293","red","green","","","","choice","","","239","","img/green_ww/choose11.jpg","1","210","green","0.5","0.5","0.5","w","",""
"animation","37","208845","0.0-5.0-2.15","63d842d3e9626bd5fe5c17b1","bdp_lott","Mon Mar 27 2023 15:59:25 GMT-0700 (Pacific Daylight Time)","398293","red","green","","","","","","","","","","","210","","","","","","[{""stimulus"":""img/green_ww/1.jpg"",""time"":53},{""stimulus"":""img/green_ww/2.jpg"",""time"":115},{""stimulus"":""img/green_ww/3.jpg"",""time"":176},{""stimulus"":""img/green_ww/4.jpg"",""time"":238},{""stimulus"":""img/green_ww/5.jpg"",""time"":299},{""stimulus"":""img/green_ww/6.jpg"",""time"":361},{""stimulus"":""img/green_ww/7.jpg"",""time"":423},{""stimulus"":""img/green_ww/8.jpg"",""time"":484},{""stimulus"":""img/green_ww/9.jpg"",""time"":546},{""stimulus"":""img/green_ww/10.jpg"",""time"":608},{""stimulus"":""img/green_ww/11.jpg"",""time"":669}]","[]"
"image-keyboard-response","38","209086","0.0-5.0-1.16","63d842d3e9626bd5fe5c17b1","bdp_lott","Mon Mar 27 2023 15:59:25 GMT-0700 (Pacific Daylight Time)","398293","red","green","","","","choice","","","241","","img/green_ww/choose11.jpg","1","209","green","0.5","0.5","0.5","w","",""
"animation","39","209816","0.0-5.0-2.16","63d842d3e9626bd5fe5c17b1","bdp_lott","Mon Mar 27 2023 15:59:25 GMT-0700 (Pacific Daylight Time)","398293","red","green","","","","","","","","","","","209","","","","","","[{""stimulus"":""img/green_ww/1.jpg"",""time"":51},{""stimulus"":""img/green_ww/2.jpg"",""time"":113},{""stimulus"":""img/green_ww/3.jpg"",""time"":174},{""stimulus"":""img/green_ww/4.jpg"",""time"":236},{""stimulus"":""img/green_ww/5.jpg"",""time"":298},{""stimulus"":""img/green_ww/6.jpg"",""time"":360},{""stimulus"":""img/green_ww/7.jpg"",""time"":422},{""stimulus"":""img/green_ww/8.jpg"",""time"":483},{""stimulus"":""img/green_ww/9.jpg"",""time"":546},{""stimulus"":""img/green_ww/10.jpg"",""time"":607},{""stimulus"":""img/green_ww/11.jpg"",""time"":668}]","[]"
"image-keyboard-response","40","210053","0.0-5.0-1.17","63d842d3e9626bd5fe5c17b1","bdp_lott","Mon Mar 27 2023 15:59:25 GMT-0700 (Pacific Daylight Time)","398293","red","green","","","","choice","","","237","","img/green_ww/choose11.jpg","1","208","green","0.5","0.5","0.5","w","",""
"animation","41","210788","0.0-5.0-2.17","63d842d3e9626bd5fe5c17b1","bdp_lott","Mon Mar 27 2023 15:59:25 GMT-0700 (Pacific Daylight Time)","398293","red","green","","","","","","","","","","","208","","","","","","[{""stimulus"":""img/green_ww/1.jpg"",""time"":55},{""stimulus"":""img/green_ww/2.jpg"",""time"":117},{""stimulus"":""img/green_ww/3.jpg"",""time"":178},{""stimulus"":""img/green_ww/4.jpg"",""time"":241},{""stimulus"":""img/green_ww/5.jpg"",""time"":302},{""stimulus"":""img/green_ww/6.jpg"",""time"":364},{""stimulus"":""img/green_ww/7.jpg"",""time"":426},{""stimulus"":""img/green_ww/8.jpg"",""time"":488},{""stimulus"":""img/green_ww/9.jpg"",""time"":549},{""stimulus"":""img/green_ww/10.jpg"",""time"":611},{""stimulus"":""img/green_ww/11.jpg"",""time"":673}]","[]"
"image-keyboard-response","42","210958","0.0-5.0-1.18","63d842d3e9626bd5fe5c17b1","bdp_lott","Mon Mar 27 2023 15:59:25 GMT-0700 (Pacific Daylight Time)","398293","red","green","","","","choice","","","170","","img/green_ww/choose11.jpg","1","207","green","0.5","0.5","0.5","w","",""
"animation","43","211702","0.0-5.0-2.18","63d842d3e9626bd5fe5c17b1","bdp_lott","Mon Mar 27 2023 15:59:25 GMT-0700 (Pacific Daylight Time)","398293","red","green","","","","","","","","","","","207","","","","","","[{""stimulus"":""img/green_ww/1.jpg"",""time"":63},{""stimulus"":""img/green_ww/2.jpg"",""time"":124},{""stimulus"":""img/green_ww/3.jpg"",""time"":186},{""stimulus"":""img/green_ww/4.jpg"",""time"":248},{""stimulus"":""img/green_ww/5.jpg"",""time"":311},{""stimulus"":""img/green_ww/6.jpg"",""time"":372},{""stimulus"":""img/green_ww/7.jpg"",""time"":434},{""stimulus"":""img/green_ww/8.jpg"",""time"":496},{""stimulus"":""img/green_ww/9.jpg"",""time"":558},{""stimulus"":""img/green_ww/10.jpg"",""time"":621},{""stimulus"":""img/green_ww/11.jpg"",""time"":682}]","[]"
"image-keyboard-response","44","211835","0.0-5.0-1.19","63d842d3e9626bd5fe5c17b1","bdp_lott","Mon Mar 27 2023 15:59:25 GMT-0700 (Pacific Daylight Time)","398293","red","green","","","","choice","","","133","","img/green_ww/choose11.jpg","1","206","green","0.5","0.5","0.5","l","",""
"animation","45","212570","0.0-5.0-2.19","63d842d3e9626bd5fe5c17b1","bdp_lott","Mon Mar 27 2023 15:59:25 GMT-0700 (Pacific Daylight Time)","398293","red","green","","","","","","","","","","","206","","","","","","[{""stimulus"":""img/green_lw/1.jpg"",""time"":53},{""stimulus"":""img/green_lw/2.jpg"",""time"":115},{""stimulus"":""img/green_lw/3.jpg"",""time"":177},{""stimulus"":""img/green_lw/4.jpg"",""time"":239},{""stimulus"":""img/green_lw/5.jpg"",""time"":302},{""stimulus"":""img/green_lw/6.jpg"",""time"":363},{""stimulus"":""img/green_lw/7.jpg"",""time"":425},{""stimulus"":""img/green_lw/8.jpg"",""time"":488},{""stimulus"":""img/green_lw/9.jpg"",""time"":549},{""stimulus"":""img/green_lw/10.jpg"",""time"":612},{""stimulus"":""img/green_lw/11.jpg"",""time"":673}]","[]"
"image-keyboard-response","46","212694","0.0-5.0-1.20","63d842d3e9626bd5fe5c17b1","bdp_lott","Mon Mar 27 2023 15:59:25 GMT-0700 (Pacific Daylight Time)","398293","red","green","","","","choice","","","124","","img/green_lw/choose11.jpg","1","205","green","0.5","0.5","0.5","w","",""
"animation","47","213434","0.0-5.0-2.20","63d842d3e9626bd5fe5c17b1","bdp_lott","Mon Mar 27 2023 15:59:25 GMT-0700 (Pacific Daylight Time)","398293","red","green","","","","","","","","","","","205","","","","","","[{""stimulus"":""img/green_ww/1.jpg"",""time"":61},{""stimulus"":""img/green_ww/2.jpg"",""time"":123},{""stimulus"":""img/green_ww/3.jpg"",""time"":185},{""stimulus"":""img/green_ww/4.jpg"",""time"":247},{""stimulus"":""img/green_ww/5.jpg"",""time"":308},{""stimulus"":""img/green_ww/6.jpg"",""time"":370},{""stimulus"":""img/green_ww/7.jpg"",""time"":432},{""stimulus"":""img/green_ww/8.jpg"",""time"":494},{""stimulus"":""img/green_ww/9.jpg"",""time"":555},{""stimulus"":""img/green_ww/10.jpg"",""time"":615},{""stimulus"":""img/green_ww/11.jpg"",""time"":678}]","[]"
"image-keyboard-response","48","213591","0.0-5.0-1.21","63d842d3e9626bd5fe5c17b1","bdp_lott","Mon Mar 27 2023 15:59:25 GMT-0700 (Pacific Daylight Time)","398293","red","green","","","","choice","","","157","","img/green_ww/choose11.jpg","1","204","green","0.5","0.5","0.5","w","",""
"animation","49","214328","0.0-5.0-2.21","63d842d3e9626bd5fe5c17b1","bdp_lott","Mon Mar 27 2023 15:59:25 GMT-0700 (Pacific Daylight Time)","398293","red","green","","","","","","","","","","","204","","","","","","[{""stimulus"":""img/green_ww/1.jpg"",""time"":59},{""stimulus"":""img/green_ww/2.jpg"",""time"":120},{""stimulus"":""img/green_ww/3.jpg"",""time"":182},{""stimulus"":""img/green_ww/4.jpg"",""time"":244},{""stimulus"":""img/green_ww/5.jpg"",""time"":306},{""stimulus"":""img/green_ww/6.jpg"",""time"":368},{""stimulus"":""img/green_ww/7.jpg"",""time"":429},{""stimulus"":""img/green_ww/8.jpg"",""time"":492},{""stimulus"":""img/green_ww/9.jpg"",""time"":553},{""stimulus"":""img/green_ww/10.jpg"",""time"":615},{""stimulus"":""img/green_ww/11.jpg"",""time"":675}]","[]"
"image-keyboard-response","50","214380","0.0-5.0-1.22","63d842d3e9626bd5fe5c17b1","bdp_lott","Mon Mar 27 2023 15:59:25 GMT-0700 (Pacific Daylight Time)","398293","red","green","","","","choice","","","52","","img/green_ww/choose11.jpg","1","203","green","0.5","0.5","0.5","l","",""
"animation","51","215114","0.0-5.0-2.22","63d842d3e9626bd5fe5c17b1","bdp_lott","Mon Mar 27 2023 15:59:25 GMT-0700 (Pacific Daylight Time)","398293","red","green","","","","","","","","","","","203","","","","","","[{""stimulus"":""img/green_lw/1.jpg"",""time"":57},{""stimulus"":""img/green_lw/2.jpg"",""time"":118},{""stimulus"":""img/green_lw/3.jpg"",""time"":181},{""stimulus"":""img/green_lw/4.jpg"",""time"":241},{""stimulus"":""img/green_lw/5.jpg"",""time"":303},{""stimulus"":""img/green_lw/6.jpg"",""time"":364},{""stimulus"":""img/green_lw/7.jpg"",""time"":426},{""stimulus"":""img/green_lw/8.jpg"",""time"":487},{""stimulus"":""img/green_lw/9.jpg"",""time"":550},{""stimulus"":""img/green_lw/10.jpg"",""time"":611},{""stimulus"":""img/green_lw/11.jpg"",""time"":673}]","[]"
"image-keyboard-response","52","215137","0.0-5.0-1.23","63d842d3e9626bd5fe5c17b1","bdp_lott","Mon Mar 27 2023 15:59:25 GMT-0700 (Pacific Daylight Time)","398293","red","green","","","","choice","","","22","","img/green_lw/choose11.jpg","1","202","green","0.5","0.5","0.5","l","",""
"animation","53","215870","0.0-5.0-2.23","63d842d3e9626bd5fe5c17b1","bdp_lott","Mon Mar 27 2023 15:59:25 GMT-0700 (Pacific Daylight Time)","398293","red","green","","","","","","","","","","","202","","","","","","[{""stimulus"":""img/green_lw/1.jpg"",""time"":54},{""stimulus"":""img/green_lw/2.jpg"",""time"":115},{""stimulus"":""img/green_lw/3.jpg"",""time"":177},{""stimulus"":""img/green_lw/4.jpg"",""time"":238},{""stimulus"":""img/green_lw/5.jpg"",""time"":300},{""stimulus"":""img/green_lw/6.jpg"",""time"":362},{""stimulus"":""img/green_lw/7.jpg"",""time"":424},{""stimulus"":""img/green_lw/8.jpg"",""time"":486},{""stimulus"":""img/green_lw/9.jpg"",""time"":548},{""stimulus"":""img/green_lw/10.jpg"",""time"":609},{""stimulus"":""img/green_lw/11.jpg"",""time"":671}]","[]"
"image-keyboard-response","54","215894","0.0-5.0-1.24","63d842d3e9626bd5fe5c17b1","bdp_lott","Mon Mar 27 2023 15:59:25 GMT-0700 (Pacific Daylight Time)","398293","red","green","","","","choice","","","24","","img/green_lw/choose11.jpg","1","201","green","0.5","0.5","0.5","l","",""
"animation","55","216624","0.0-5.0-2.24","63d842d3e9626bd5fe5c17b1","bdp_lott","Mon Mar 27 2023 15:59:25 GMT-0700 (Pacific Daylight Time)","398293","red","green","","","","","","","","","","","201","","","","","","[{""stimulus"":""img/green_lw/1.jpg"",""time"":53},{""stimulus"":""img/green_lw/2.jpg"",""time"":115},{""stimulus"":""img/green_lw/3.jpg"",""time"":176},{""stimulus"":""img/green_lw/4.jpg"",""time"":238},{""stimulus"":""img/green_lw/5.jpg"",""time"":299},{""stimulus"":""img/green_lw/6.jpg"",""time"":361},{""stimulus"":""img/green_lw/7.jpg"",""time"":423},{""stimulus"":""img/green_lw/8.jpg"",""time"":485},{""stimulus"":""img/green_lw/9.jpg"",""time"":546},{""stimulus"":""img/green_lw/10.jpg"",""time"":608},{""stimulus"":""img/green_lw/11.jpg"",""time"":670}]","[]"
"image-keyboard-response","56","216649","0.0-5.0-1.25","63d842d3e9626bd5fe5c17b1","bdp_lott","Mon Mar 27 2023 15:59:25 GMT-0700 (Pacific Daylight Time)","398293","red","green","","","","choice","","","24","","img/green_lw/choose11.jpg","1","200","green","0.5","0.5","0.5","w","",""
"animation","57","217381","0.0-5.0-2.25","63d842d3e9626bd5fe5c17b1","bdp_lott","Mon Mar 27 2023 15:59:25 GMT-0700 (Pacific Daylight Time)","398293","red","green","","","","","","","","","","","200","","","","","","[{""stimulus"":""img/green_ww/1.jpg"",""time"":53},{""stimulus"":""img/green_ww/2.jpg"",""time"":114},{""stimulus"":""img/green_ww/3.jpg"",""time"":176},{""stimulus"":""img/green_ww/4.jpg"",""time"":238},{""stimulus"":""img/green_ww/5.jpg"",""time"":300},{""stimulus"":""img/green_ww/6.jpg"",""time"":362},{""stimulus"":""img/green_ww/7.jpg"",""time"":424},{""stimulus"":""img/green_ww/8.jpg"",""time"":485},{""stimulus"":""img/green_ww/9.jpg"",""time"":547},{""stimulus"":""img/green_ww/10.jpg"",""time"":609},{""stimulus"":""img/green_ww/11.jpg"",""time"":670}]","[]"
"image-keyboard-response","58","217401","0.0-5.0-1.26","63d842d3e9626bd5fe5c17b1","bdp_lott","Mon Mar 27 2023 15:59:25 GMT-0700 (Pacific Daylight Time)","398293","red","green","","","","choice","","","20","","img/green_ww/choose11.jpg","1","199","green","0.5","0.5","0.5","l","",""
"animation","59","218134","0.0-5.0-2.26","63d842d3e9626bd5fe5c17b1","bdp_lott","Mon Mar 27 2023 15:59:25 GMT-0700 (Pacific Daylight Time)","398293","red","green","","","","","","","","","","","199","","","","","","[{""stimulus"":""img/green_lw/1.jpg"",""time"":57},{""stimulus"":""img/green_lw/2.jpg"",""time"":119},{""stimulus"":""img/green_lw/3.jpg"",""time"":181},{""stimulus"":""img/green_lw/4.jpg"",""time"":242},{""stimulus"":""img/green_lw/5.jpg"",""time"":303},{""stimulus"":""img/green_lw/6.jpg"",""time"":366},{""stimulus"":""img/green_lw/7.jpg"",""time"":427},{""stimulus"":""img/green_lw/8.jpg"",""time"":488},{""stimulus"":""img/green_lw/9.jpg"",""time"":550},{""stimulus"":""img/green_lw/10.jpg"",""time"":611},{""stimulus"":""img/green_lw/11.jpg"",""time"":673}]","[]"
"image-keyboard-response","60","218149","0.0-5.0-1.27","63d842d3e9626bd5fe5c17b1","bdp_lott","Mon Mar 27 2023 15:59:25 GMT-0700 (Pacific Daylight Time)","398293","red","green","","","","choice","","","14","","img/green_lw/choose11.jpg","1","198","green","0.5","0.5","0.5","l","",""
"animation","61","218890","0.0-5.0-2.27","63d842d3e9626bd5fe5c17b1","bdp_lott","Mon Mar 27 2023 15:59:25 GMT-0700 (Pacific Daylight Time)","398293","red","green","","","","","","","","","","","198","","","","","","[{""stimulus"":""img/green_lw/1.jpg"",""time"":63},{""stimulus"":""img/green_lw/2.jpg"",""time"":125},{""stimulus"":""img/green_lw/3.jpg"",""time"":186},{""stimulus"":""img/green_lw/4.jpg"",""time"":248},{""stimulus"":""img/green_lw/5.jpg"",""time"":309},{""stimulus"":""img/green_lw/6.jpg"",""time"":371},{""stimulus"":""img/green_lw/7.jpg"",""time"":432},{""stimulus"":""img/green_lw/8.jpg"",""time"":494},{""stimulus"":""img/green_lw/9.jpg"",""time"":556},{""stimulus"":""img/green_lw/10.jpg"",""time"":617},{""stimulus"":""img/green_lw/11.jpg"",""time"":678}]","[]"
"image-keyboard-response","62","218927","0.0-5.0-1.28","63d842d3e9626bd5fe5c17b1","bdp_lott","Mon Mar 27 2023 15:59:25 GMT-0700 (Pacific Daylight Time)","398293","red","green","","","","choice","","","37","","img/green_lw/choose11.jpg","1","197","green","0.5","0.5","0.5","w","",""
"animation","63","219658","0.0-5.0-2.28","63d842d3e9626bd5fe5c17b1","bdp_lott","Mon Mar 27 2023 15:59:25 GMT-0700 (Pacific Daylight Time)","398293","red","green","","","","","","","","","","","197","","","","","","[{""stimulus"":""img/green_ww/1.jpg"",""time"":54},{""stimulus"":""img/green_ww/2.jpg"",""time"":116},{""stimulus"":""img/green_ww/3.jpg"",""time"":177},{""stimulus"":""img/green_ww/4.jpg"",""time"":239},{""stimulus"":""img/green_ww/5.jpg"",""time"":299},{""stimulus"":""img/green_ww/6.jpg"",""time"":362},{""stimulus"":""img/green_ww/7.jpg"",""time"":422},{""stimulus"":""img/green_ww/8.jpg"",""time"":484},{""stimulus"":""img/green_ww/9.jpg"",""time"":546},{""stimulus"":""img/green_ww/10.jpg"",""time"":608},{""stimulus"":""img/green_ww/11.jpg"",""time"":670}]","[]"
"image-keyboard-response","64","219700","0.0-5.0-1.29","63d842d3e9626bd5fe5c17b1","bdp_lott","Mon Mar 27 2023 15:59:25 GMT-0700 (Pacific Daylight Time)","398293","red","green","","","","choice","","","42","","img/green_ww/choose11.jpg","1","196","green","0.5","0.5","0.5","l","",""
"animation","65","220428","0.0-5.0-2.29","63d842d3e9626bd5fe5c17b1","bdp_lott","Mon Mar 27 2023 15:59:25 GMT-0700 (Pacific Daylight Time)","398293","red","green","","","","","","","","","","","196","","","","","","[{""stimulus"":""img/green_lw/1.jpg"",""time"":50},{""stimulus"":""img/green_lw/2.jpg"",""time"":111},{""stimulus"":""img/green_lw/3.jpg"",""time"":173},{""stimulus"":""img/green_lw/4.jpg"",""time"":235},{""stimulus"":""img/green_lw/5.jpg"",""time"":296},{""stimulus"":""img/green_lw/6.jpg"",""time"":357},{""stimulus"":""img/green_lw/7.jpg"",""time"":418},{""stimulus"":""img/green_lw/8.jpg"",""time"":480},{""stimulus"":""img/green_lw/9.jpg"",""time"":542},{""stimulus"":""img/green_lw/10.jpg"",""time"":604},{""stimulus"":""img/green_lw/11.jpg"",""time"":666}]","[]"
"image-keyboard-response","66","220430","0.0-5.0-1.30","63d842d3e9626bd5fe5c17b1","bdp_lott","Mon Mar 27 2023 15:59:25 GMT-0700 (Pacific Daylight Time)","398293","red","green","","","","choice","","","2","","img/green_lw/choose11.jpg","1","195","green","0.5","0.5","0.5","l","",""
"animation","67","221166","0.0-5.0-2.30","63d842d3e9626bd5fe5c17b1","bdp_lott","Mon Mar 27 2023 15:59:25 GMT-0700 (Pacific Daylight Time)","398293","red","green","","","","","","","","","","","195","","","","","","[{""stimulus"":""img/green_lw/1.jpg"",""time"":60},{""stimulus"":""img/green_lw/2.jpg"",""time"":121},{""stimulus"":""img/green_lw/3.jpg"",""time"":183},{""stimulus"":""img/green_lw/4.jpg"",""time"":244},{""stimulus"":""img/green_lw/5.jpg"",""time"":306},{""stimulus"":""img/green_lw/6.jpg"",""time"":367},{""stimulus"":""img/green_lw/7.jpg"",""time"":429},{""stimulus"":""img/green_lw/8.jpg"",""time"":489},{""stimulus"":""img/green_lw/9.jpg"",""time"":551},{""stimulus"":""img/green_lw/10.jpg"",""time"":612},{""stimulus"":""img/green_lw/11.jpg"",""time"":674}]","[]"
"image-keyboard-response","68","221631","0.0-5.0-1.31","63d842d3e9626bd5fe5c17b1","bdp_lott","Mon Mar 27 2023 15:59:25 GMT-0700 (Pacific Daylight Time)","398293","red","green","","","","choice","","","465","","img/green_lw/choose11.jpg","1","194","green","0.5","0.5","0.5","l","",""
"animation","69","222369","0.0-5.0-2.31","63d842d3e9626bd5fe5c17b1","bdp_lott","Mon Mar 27 2023 15:59:25 GMT-0700 (Pacific Daylight Time)","398293","red","green","","","","","","","","","","","194","","","","","","[{""stimulus"":""img/green_lw/1.jpg"",""time"":58},{""stimulus"":""img/green_lw/2.jpg"",""time"":121},{""stimulus"":""img/green_lw/3.jpg"",""time"":182},{""stimulus"":""img/green_lw/4.jpg"",""time"":244},{""stimulus"":""img/green_lw/5.jpg"",""time"":306},{""stimulus"":""img/green_lw/6.jpg"",""time"":367},{""stimulus"":""img/green_lw/7.jpg"",""time"":429},{""stimulus"":""img/green_lw/8.jpg"",""time"":490},{""stimulus"":""img/green_lw/9.jpg"",""time"":553},{""stimulus"":""img/green_lw/10.jpg"",""time"":615},{""stimulus"":""img/green_lw/11.jpg"",""time"":676}]","[]"
"image-keyboard-response","70","222396","0.0-5.0-1.32","63d842d3e9626bd5fe5c17b1","bdp_lott","Mon Mar 27 2023 15:59:25 GMT-0700 (Pacific Daylight Time)","398293","red","green","","","","choice","","","27","","img/green_lw/choose11.jpg","1","193","green","0.5","0.5","0.5","w","",""
"animation","71","223141","0.0-5.0-2.32","63d842d3e9626bd5fe5c17b1","bdp_lott","Mon Mar 27 2023 15:59:25 GMT-0700 (Pacific Daylight Time)","398293","red","green","","","","","","","","","","","193","","","","","","[{""stimulus"":""img/green_ww/1.jpg"",""time"":65},{""stimulus"":""img/green_ww/2.jpg"",""time"":127},{""stimulus"":""img/green_ww/3.jpg"",""time"":189},{""stimulus"":""img/green_ww/4.jpg"",""time"":251},{""stimulus"":""img/green_ww/5.jpg"",""time"":312},{""stimulus"":""img/green_ww/6.jpg"",""time"":374},{""stimulus"":""img/green_ww/7.jpg"",""time"":435},{""stimulus"":""img/green_ww/8.jpg"",""time"":497},{""stimulus"":""img/green_ww/9.jpg"",""time"":558},{""stimulus"":""img/green_ww/10.jpg"",""time"":621},{""stimulus"":""img/green_ww/11.jpg"",""time"":682}]","[]"
"image-keyboard-response","72","223177","0.0-5.0-1.33","63d842d3e9626bd5fe5c17b1","bdp_lott","Mon Mar 27 2023 15:59:25 GMT-0700 (Pacific Daylight Time)","398293","red","green","","","","choice","","","36","","img/green_ww/choose11.jpg","1","192","green","0.5","0.5","0.5","w","",""
"animation","73","223910","0.0-5.0-2.33","63d842d3e9626bd5fe5c17b1","bdp_lott","Mon Mar 27 2023 15:59:25 GMT-0700 (Pacific Daylight Time)","398293","red","green","","","","","","","","","","","192","","","","","","[{""stimulus"":""img/green_ww/1.jpg"",""time"":56},{""stimulus"":""img/green_ww/2.jpg"",""time"":118},{""stimulus"":""img/green_ww/3.jpg"",""time"":180},{""stimulus"":""img/green_ww/4.jpg"",""time"":241},{""stimulus"":""img/green_ww/5.jpg"",""time"":303},{""stimulus"":""img/green_ww/6.jpg"",""time"":364},{""stimulus"":""img/green_ww/7.jpg"",""time"":426},{""stimulus"":""img/green_ww/8.jpg"",""time"":487},{""stimulus"":""img/green_ww/9.jpg"",""time"":549},{""stimulus"":""img/green_ww/10.jpg"",""time"":610},{""stimulus"":""img/green_ww/11.jpg"",""time"":672}]","[]"
"image-keyboard-response","74","223936","0.0-5.0-1.34","63d842d3e9626bd5fe5c17b1","bdp_lott","Mon Mar 27 2023 15:59:25 GMT-0700 (Pacific Daylight Time)","398293","red","green","","","","choice","","","26","","img/green_ww/choose11.jpg","1","191","green","0.5","0.5","0.5","l","",""
"animation","75","224663","0.0-5.0-2.34","63d842d3e9626bd5fe5c17b1","bdp_lott","Mon Mar 27 2023 15:59:25 GMT-0700 (Pacific Daylight Time)","398293","red","green","","","","","","","","","","","191","","","","","","[{""stimulus"":""img/green_lw/1.jpg"",""time"":51},{""stimulus"":""img/green_lw/2.jpg"",""time"":112},{""stimulus"":""img/green_lw/3.jpg"",""time"":174},{""stimulus"":""img/green_lw/4.jpg"",""time"":234},{""stimulus"":""img/green_lw/5.jpg"",""time"":296},{""stimulus"":""img/green_lw/6.jpg"",""time"":357},{""stimulus"":""img/green_lw/7.jpg"",""time"":420},{""stimulus"":""img/green_lw/8.jpg"",""time"":481},{""stimulus"":""img/green_lw/9.jpg"",""time"":543},{""stimulus"":""img/green_lw/10.jpg"",""time"":605},{""stimulus"":""img/green_lw/11.jpg"",""time"":666}]","[]"
"image-keyboard-response","76","224710","0.0-5.0-1.35","63d842d3e9626bd5fe5c17b1","bdp_lott","Mon Mar 27 2023 15:59:25 GMT-0700 (Pacific Daylight Time)","398293","red","green","","","","choice","","","47","","img/green_lw/choose11.jpg","1","190","green","0.5","0.5","0.5","l","",""
"animation","77","225448","0.0-5.0-2.35","63d842d3e9626bd5fe5c17b1","bdp_lott","Mon Mar 27 2023 15:59:25 GMT-0700 (Pacific Daylight Time)","398293","red","green","","","","","","","","","","","190","","","","","","[{""stimulus"":""img/green_lw/1.jpg"",""time"":60},{""stimulus"":""img/green_lw/2.jpg"",""time"":123},{""stimulus"":""img/green_lw/3.jpg"",""time"":185},{""stimulus"":""img/green_lw/4.jpg"",""time"":245},{""stimulus"":""img/green_lw/5.jpg"",""time"":307},{""stimulus"":""img/green_lw/6.jpg"",""time"":369},{""stimulus"":""img/green_lw/7.jpg"",""time"":430},{""stimulus"":""img/green_lw/8.jpg"",""time"":492},{""stimulus"":""img/green_lw/9.jpg"",""time"":553},{""stimulus"":""img/green_lw/10.jpg"",""time"":615},{""stimulus"":""img/green_lw/11.jpg"",""time"":676}]","[]"
"image-keyboard-response","78","225629","0.0-5.0-1.36","63d842d3e9626bd5fe5c17b1","bdp_lott","Mon Mar 27 2023 15:59:25 GMT-0700 (Pacific Daylight Time)","398293","red","green","","","","choice","","","180","","img/green_lw/choose11.jpg","2","189","red","0.5","0.5","0.5","l","",""
"animation","79","226361","0.0-5.0-2.36","63d842d3e9626bd5fe5c17b1","bdp_lott","Mon Mar 27 2023 15:59:25 GMT-0700 (Pacific Daylight Time)","398293","red","green","","","","","","","","","","","189","","","","","","[{""stimulus"":""img/red_ll/1.jpg"",""time"":52},{""stimulus"":""img/red_ll/2.jpg"",""time"":113},{""stimulus"":""img/red_ll/3.jpg"",""time"":176},{""stimulus"":""img/red_ll/4.jpg"",""time"":238},{""stimulus"":""img/red_ll/5.jpg"",""time"":299},{""stimulus"":""img/red_ll/6.jpg"",""time"":361},{""stimulus"":""img/red_ll/7.jpg"",""time"":423},{""stimulus"":""img/red_ll/8.jpg"",""time"":484},{""stimulus"":""img/red_ll/9.jpg"",""time"":546},{""stimulus"":""img/red_ll/10.jpg"",""time"":608},{""stimulus"":""img/red_ll/11.jpg"",""time"":669}]","[]"
"image-keyboard-response","80","226453","0.0-5.0-1.37","63d842d3e9626bd5fe5c17b1","bdp_lott","Mon Mar 27 2023 15:59:25 GMT-0700 (Pacific Daylight Time)","398293","red","green","","","","choice","","","92","","img/red_ll/choose11.jpg","2","188","red","0.5","0.5","0.5","w","",""
"animation","81","227196","0.0-5.0-2.37","63d842d3e9626bd5fe5c17b1","bdp_lott","Mon Mar 27 2023 15:59:25 GMT-0700 (Pacific Daylight Time)","398293","red","green","","","","","","","","","","","188","","","","","","[{""stimulus"":""img/red_lw/1.jpg"",""time"":62},{""stimulus"":""img/red_lw/2.jpg"",""time"":124},{""stimulus"":""img/red_lw/3.jpg"",""time"":186},{""stimulus"":""img/red_lw/4.jpg"",""time"":249},{""stimulus"":""img/red_lw/5.jpg"",""time"":310},{""stimulus"":""img/red_lw/6.jpg"",""time"":373},{""stimulus"":""img/red_lw/7.jpg"",""time"":434},{""stimulus"":""img/red_lw/8.jpg"",""time"":496},{""stimulus"":""img/red_lw/9.jpg"",""time"":558},{""stimulus"":""img/red_lw/10.jpg"",""time"":620},{""stimulus"":""img/red_lw/11.jpg"",""time"":681}]","[]"
"image-keyboard-response","82","227735","0.0-5.0-1.38","63d842d3e9626bd5fe5c17b1","bdp_lott","Mon Mar 27 2023 15:59:25 GMT-0700 (Pacific Daylight Time)","398293","red","green","","","","choice","","","539","","img/red_lw/choose11.jpg","2","187","red","0.5","0.5","0.5","l","",""
"animation","83","228479","0.0-5.0-2.38","63d842d3e9626bd5fe5c17b1","bdp_lott","Mon Mar 27 2023 15:59:25 GMT-0700 (Pacific Daylight Time)","398293","red","green","","","","","","","","","","","187","","","","","","[{""stimulus"":""img/red_ll/1.jpg"",""time"":65},{""stimulus"":""img/red_ll/2.jpg"",""time"":126},{""stimulus"":""img/red_ll/3.jpg"",""time"":189},{""stimulus"":""img/red_ll/4.jpg"",""time"":251},{""stimulus"":""img/red_ll/5.jpg"",""time"":313},{""stimulus"":""img/red_ll/6.jpg"",""time"":374},{""stimulus"":""img/red_ll/7.jpg"",""time"":435},{""stimulus"":""img/red_ll/8.jpg"",""time"":498},{""stimulus"":""img/red_ll/9.jpg"",""time"":559},{""stimulus"":""img/red_ll/10.jpg"",""time"":620},{""stimulus"":""img/red_ll/11.jpg"",""time"":682}]","[]"
"image-keyboard-response","84","228641","0.0-5.0-1.39","63d842d3e9626bd5fe5c17b1","bdp_lott","Mon Mar 27 2023 15:59:25 GMT-0700 (Pacific Daylight Time)","398293","red","green","","","","choice","","","162","","img/red_ll/choose11.jpg","2","186","red","0.5","0.5","0.5","l","",""
"animation","85","229373","0.0-5.0-2.39","63d842d3e9626bd5fe5c17b1","bdp_lott","Mon Mar 27 2023 15:59:25 GMT-0700 (Pacific Daylight Time)","398293","red","green","","","","","","","","","","","186","","","","","","[{""stimulus"":""img/red_ll/1.jpg"",""time"":54},{""stimulus"":""img/red_ll/2.jpg"",""time"":115},{""stimulus"":""img/red_ll/3.jpg"",""time"":177},{""stimulus"":""img/red_ll/4.jpg"",""time"":239},{""stimulus"":""img/red_ll/5.jpg"",""time"":301},{""stimulus"":""img/red_ll/6.jpg"",""time"":363},{""stimulus"":""img/red_ll/7.jpg"",""time"":424},{""stimulus"":""img/red_ll/8.jpg"",""time"":485},{""stimulus"":""img/red_ll/9.jpg"",""time"":548},{""stimulus"":""img/red_ll/10.jpg"",""time"":609},{""stimulus"":""img/red_ll/11.jpg"",""time"":670}]","[]"
"image-keyboard-response","86","229438","0.0-5.0-1.40","63d842d3e9626bd5fe5c17b1","bdp_lott","Mon Mar 27 2023 15:59:25 GMT-0700 (Pacific Daylight Time)","398293","red","green","","","","choice","","","65","","img/red_ll/choose11.jpg","2","185","red","0.5","0.5","0.5","w","",""
"animation","87","230175","0.0-5.0-2.40","63d842d3e9626bd5fe5c17b1","bdp_lott","Mon Mar 27 2023 15:59:25 GMT-0700 (Pacific Daylight Time)","398293","red","green","","","","","","","","","","","185","","","","","","[{""stimulus"":""img/red_lw/1.jpg"",""time"":58},{""stimulus"":""img/red_lw/2.jpg"",""time"":119},{""stimulus"":""img/red_lw/3.jpg"",""time"":181},{""stimulus"":""img/red_lw/4.jpg"",""time"":243},{""stimulus"":""img/red_lw/5.jpg"",""time"":304},{""stimulus"":""img/red_lw/6.jpg"",""time"":366},{""stimulus"":""img/red_lw/7.jpg"",""time"":427},{""stimulus"":""img/red_lw/8.jpg"",""time"":489},{""stimulus"":""img/red_lw/9.jpg"",""time"":551},{""stimulus"":""img/red_lw/10.jpg"",""time"":613},{""stimulus"":""img/red_lw/11.jpg"",""time"":674}]","[]"
"image-keyboard-response","88","230264","0.0-5.0-1.41","63d842d3e9626bd5fe5c17b1","bdp_lott","Mon Mar 27 2023 15:59:25 GMT-0700 (Pacific Daylight Time)","398293","red","green","","","","choice","","","89","","img/red_lw/choose11.jpg","1","184","green","0.5","0.5","0.5","w","",""
"animation","89","230992","0.0-5.0-2.41","63d842d3e9626bd5fe5c17b1","bdp_lott","Mon Mar 27 2023 15:59:25 GMT-0700 (Pacific Daylight Time)","398293","red","green","","","","","","","","","","","184","","","","","","[{""stimulus"":""img/green_ww/1.jpg"",""time"":50},{""stimulus"":""img/green_ww/2.jpg"",""time"":111},{""stimulus"":""img/green_ww/3.jpg"",""time"":173},{""stimulus"":""img/green_ww/4.jpg"",""time"":235},{""stimulus"":""img/green_ww/5.jpg"",""time"":297},{""stimulus"":""img/green_ww/6.jpg"",""time"":358},{""stimulus"":""img/green_ww/7.jpg"",""time"":420},{""stimulus"":""img/green_ww/8.jpg"",""time"":481},{""stimulus"":""img/green_ww/9.jpg"",""time"":543},{""stimulus"":""img/green_ww/10.jpg"",""time"":605},{""stimulus"":""img/green_ww/11.jpg"",""time"":665}]","[]"
"image-keyboard-response","90","231087","0.0-5.0-1.42","63d842d3e9626bd5fe5c17b1","bdp_lott","Mon Mar 27 2023 15:59:25 GMT-0700 (Pacific Daylight Time)","398293","red","green","","","","choice","","","95","","img/green_ww/choose11.jpg","2","183","red","0.5","0.5","0.5","l","",""
"animation","91","231823","0.0-5.0-2.42","63d842d3e9626bd5fe5c17b1","bdp_lott","Mon Mar 27 2023 15:59:25 GMT-0700 (Pacific Daylight Time)","398293","red","green","","","","","","","","","","","183","","","","","","[{""stimulus"":""img/red_wl/1.jpg"",""time"":57},{""stimulus"":""img/red_wl/2.jpg"",""time"":119},{""stimulus"":""img/red_wl/3.jpg"",""time"":180},{""stimulus"":""img/red_wl/4.jpg"",""time"":243},{""stimulus"":""img/red_wl/5.jpg"",""time"":304},{""stimulus"":""img/red_wl/6.jpg"",""time"":366},{""stimulus"":""img/red_wl/7.jpg"",""time"":428},{""stimulus"":""img/red_wl/8.jpg"",""time"":490},{""stimulus"":""img/red_wl/9.jpg"",""time"":551},{""stimulus"":""img/red_wl/10.jpg"",""time"":613},{""stimulus"":""img/red_wl/11.jpg"",""time"":674}]","[]"
"image-keyboard-response","92","231972","0.0-5.0-1.43","63d842d3e9626bd5fe5c17b1","bdp_lott","Mon Mar 27 2023 15:59:25 GMT-0700 (Pacific Daylight Time)","398293","red","green","","","","choice","","","148","","img/red_wl/choose11.jpg","2","182","red","0.5","0.5","0.5","w","",""
"animation","93","232703","0.0-5.0-2.43","63d842d3e9626bd5fe5c17b1","bdp_lott","Mon Mar 27 2023 15:59:25 GMT-0700 (Pacific Daylight Time)","398293","red","green","","","","","","","","","","","182","","","","","","[{""stimulus"":""img/red_ww/1.jpg"",""time"":52},{""stimulus"":""img/red_ww/2.jpg"",""time"":113},{""stimulus"":""img/red_ww/3.jpg"",""time"":175},{""stimulus"":""img/red_ww/4.jpg"",""time"":237},{""stimulus"":""img/red_ww/5.jpg"",""time"":299},{""stimulus"":""img/red_ww/6.jpg"",""time"":360},{""stimulus"":""img/red_ww/7.jpg"",""time"":422},{""stimulus"":""img/red_ww/8.jpg"",""time"":484},{""stimulus"":""img/red_ww/9.jpg"",""time"":547},{""stimulus"":""img/red_ww/10.jpg"",""time"":608},{""stimulus"":""img/red_ww/11.jpg"",""time"":671}]","[]"
"image-keyboard-response","94","232777","0.0-5.0-1.44","63d842d3e9626bd5fe5c17b1","bdp_lott","Mon Mar 27 2023 15:59:25 GMT-0700 (Pacific Daylight Time)","398293","red","green","","","","choice","","","73","","img/red_ww/choose11.jpg","2","181","red","0.5","0.5","0.5","l","",""
"animation","95","233518","0.0-5.0-2.44","63d842d3e9626bd5fe5c17b1","bdp_lott","Mon Mar 27 2023 15:59:25 GMT-0700 (Pacific Daylight Time)","398293","red","green","","","","","","","","","","","181","","","","","","[{""stimulus"":""img/red_wl/1.jpg"",""time"":65},{""stimulus"":""img/red_wl/2.jpg"",""time"":126},{""stimulus"":""img/red_wl/3.jpg"",""time"":187},{""stimulus"":""img/red_wl/4.jpg"",""time"":249},{""stimulus"":""img/red_wl/5.jpg"",""time"":311},{""stimulus"":""img/red_wl/6.jpg"",""time"":373},{""stimulus"":""img/red_wl/7.jpg"",""time"":434},{""stimulus"":""img/red_wl/8.jpg"",""time"":495},{""stimulus"":""img/red_wl/9.jpg"",""time"":557},{""stimulus"":""img/red_wl/10.jpg"",""time"":619},{""stimulus"":""img/red_wl/11.jpg"",""time"":679}]","[]"
"image-keyboard-response","96","233628","0.0-5.0-1.45","63d842d3e9626bd5fe5c17b1","bdp_lott","Mon Mar 27 2023 15:59:25 GMT-0700 (Pacific Daylight Time)","398293","red","green","","","","choice","","","109","","img/red_wl/choose11.jpg","2","180","red","0.5","0.5","0.5","l","",""
"animation","97","234365","0.0-5.0-2.45","63d842d3e9626bd5fe5c17b1","bdp_lott","Mon Mar 27 2023 15:59:25 GMT-0700 (Pacific Daylight Time)","398293","red","green","","","","","","","","","","","180","","","","","","[{""stimulus"":""img/red_wl/1.jpg"",""time"":59},{""stimulus"":""img/red_wl/2.jpg"",""time"":120},{""stimulus"":""img/red_wl/3.jpg"",""time"":182},{""stimulus"":""img/red_wl/4.jpg"",""time"":243},{""stimulus"":""img/red_wl/5.jpg"",""time"":305},{""stimulus"":""img/red_wl/6.jpg"",""time"":366},{""stimulus"":""img/red_wl/7.jpg"",""time"":428},{""stimulus"":""img/red_wl/8.jpg"",""time"":489},{""stimulus"":""img/red_wl/9.jpg"",""time"":551},{""stimulus"":""img/red_wl/10.jpg"",""time"":614},{""stimulus"":""img/red_wl/11.jpg"",""time"":675}]","[]"
"image-keyboard-response","98","234411","0.0-5.0-1.46","63d842d3e9626bd5fe5c17b1","bdp_lott","Mon Mar 27 2023 15:59:25 GMT-0700 (Pacific Daylight Time)","398293","red","green","","","","choice","","","46","","img/red_wl/choose11.jpg","2","179","red","0.5","0.5","0.5","l","",""
"animation","99","235152","0.0-5.0-2.46","63d842d3e9626bd5fe5c17b1","bdp_lott","Mon Mar 27 2023 15:59:25 GMT-0700 (Pacific Daylight Time)","398293","red","green","","","","","","","","","","","179","","","","","","[{""stimulus"":""img/red_wl/1.jpg"",""time"":62},{""stimulus"":""img/red_wl/2.jpg"",""time"":124},{""stimulus"":""img/red_wl/3.jpg"",""time"":185},{""stimulus"":""img/red_wl/4.jpg"",""time"":246},{""stimulus"":""img/red_wl/5.jpg"",""time"":309},{""stimulus"":""img/red_wl/6.jpg"",""time"":371},{""stimulus"":""img/red_wl/7.jpg"",""time"":433},{""stimulus"":""img/red_wl/8.jpg"",""time"":495},{""stimulus"":""img/red_wl/9.jpg"",""time"":556},{""stimulus"":""img/red_wl/10.jpg"",""time"":618},{""stimulus"":""img/red_wl/11.jpg"",""time"":679}]","[]"
"image-keyboard-response","100","235222","0.0-5.0-1.47","63d842d3e9626bd5fe5c17b1","bdp_lott","Mon Mar 27 2023 15:59:25 GMT-0700 (Pacific Daylight Time)","398293","red","green","","","","choice","","","70","","img/red_wl/choose11.jpg","1","178","green","0.5","0.5","0.5","l","",""
"animation","101","235954","0.0-5.0-2.47","63d842d3e9626bd5fe5c17b1","bdp_lott","Mon Mar 27 2023 15:59:25 GMT-0700 (Pacific Daylight Time)","398293","red","green","","","","","","","","","","","178","","","","","","[{""stimulus"":""img/green_ll/1.jpg"",""time"":52},{""stimulus"":""img/green_ll/2.jpg"",""time"":114},{""stimulus"":""img/green_ll/3.jpg"",""time"":175},{""stimulus"":""img/green_ll/4.jpg"",""time"":237},{""stimulus"":""img/green_ll/5.jpg"",""time"":298},{""stimulus"":""img/green_ll/6.jpg"",""time"":359},{""stimulus"":""img/green_ll/7.jpg"",""time"":421},{""stimulus"":""img/green_ll/8.jpg"",""time"":483},{""stimulus"":""img/green_ll/9.jpg"",""time"":545},{""stimulus"":""img/green_ll/10.jpg"",""time"":607},{""stimulus"":""img/green_ll/11.jpg"",""time"":668}]","[]"
"image-keyboard-response","102","236391","0.0-5.0-1.48","63d842d3e9626bd5fe5c17b1","bdp_lott","Mon Mar 27 2023 15:59:25 GMT-0700 (Pacific Daylight Time)","398293","red","green","","","","choice","","","437","","img/green_ll/choose11.jpg","1","177","green","0.5","0.5","0.5","l","",""
"animation","103","237126","0.0-5.0-2.48","63d842d3e9626bd5fe5c17b1","bdp_lott","Mon Mar 27 2023 15:59:25 GMT-0700 (Pacific Daylight Time)","398293","red","green","","","","","","","","","","","177","","","","","","[{""stimulus"":""img/green_ll/1.jpg"",""time"":58},{""stimulus"":""img/green_ll/2.jpg"",""time"":120},{""stimulus"":""img/green_ll/3.jpg"",""time"":181},{""stimulus"":""img/green_ll/4.jpg"",""time"":242},{""stimulus"":""img/green_ll/5.jpg"",""time"":303},{""stimulus"":""img/green_ll/6.jpg"",""time"":365},{""stimulus"":""img/green_ll/7.jpg"",""time"":427},{""stimulus"":""img/green_ll/8.jpg"",""time"":488},{""stimulus"":""img/green_ll/9.jpg"",""time"":550},{""stimulus"":""img/green_ll/10.jpg"",""time"":612},{""stimulus"":""img/green_ll/11.jpg"",""time"":673}]","[]"
"image-keyboard-response","104","237223","0.0-5.0-1.49","63d842d3e9626bd5fe5c17b1","bdp_lott","Mon Mar 27 2023 15:59:25 GMT-0700 (Pacific Daylight Time)","398293","red","green","","","","choice","","","97","","img/green_ll/choose11.jpg","1","176","green","0.5","0.5","0.5","w","",""
"animation","105","237961","0.0-5.0-2.49","63d842d3e9626bd5fe5c17b1","bdp_lott","Mon Mar 27 2023 15:59:25 GMT-0700 (Pacific Daylight Time)","398293","red","green","","","","","","","","","","","176","","","","","","[{""stimulus"":""img/green_wl/1.jpg"",""time"":59},{""stimulus"":""img/green_wl/2.jpg"",""time"":119},{""stimulus"":""img/green_wl/3.jpg"",""time"":182},{""stimulus"":""img/green_wl/4.jpg"",""time"":244},{""stimulus"":""img/green_wl/5.jpg"",""time"":305},{""stimulus"":""img/green_wl/6.jpg"",""time"":367},{""stimulus"":""img/green_wl/7.jpg"",""time"":429},{""stimulus"":""img/green_wl/8.jpg"",""time"":491},{""stimulus"":""img/green_wl/9.jpg"",""time"":552},{""stimulus"":""img/green_wl/10.jpg"",""time"":613},{""stimulus"":""img/green_wl/11.jpg"",""time"":676}]","[]"
"image-keyboard-response","106","238046","0.0-5.0-1.50","63d842d3e9626bd5fe5c17b1","bdp_lott","Mon Mar 27 2023 15:59:25 GMT-0700 (Pacific Daylight Time)","398293","red","green","","","","choice","","","85","","img/green_wl/choose11.jpg","1","175","green","0.5","0.5","0.5","l","",""
"animation","107","238779","0.0-5.0-2.50","63d842d3e9626bd5fe5c17b1","bdp_lott","Mon Mar 27 2023 15:59:25 GMT-0700 (Pacific Daylight Time)","398293","red","green","","","","","","","","","","","175","","","","","","[{""stimulus"":""img/green_ll/1.jpg"",""time"":53},{""stimulus"":""img/green_ll/2.jpg"",""time"":115},{""stimulus"":""img/green_ll/3.jpg"",""time"":177},{""stimulus"":""img/green_ll/4.jpg"",""time"":238},{""stimulus"":""img/green_ll/5.jpg"",""time"":299},{""stimulus"":""img/green_ll/6.jpg"",""time"":362},{""stimulus"":""img/green_ll/7.jpg"",""time"":424},{""stimulus"":""img/green_ll/8.jpg"",""time"":485},{""stimulus"":""img/green_ll/9.jpg"",""time"":546},{""stimulus"":""img/green_ll/10.jpg"",""time"":608},{""stimulus"":""img/green_ll/11.jpg"",""time"":670}]","[]"
"image-keyboard-response","108","238909","0.0-5.0-1.51","63d842d3e9626bd5fe5c17b1","bdp_lott","Mon Mar 27 2023 15:59:25 GMT-0700 (Pacific Daylight Time)","398293","red","green","","","","choice","","","130","","img/green_ll/choose11.jpg","1","174","green","0.5","0.5","0.5","l","",""
"animation","109","239643","0.0-5.0-2.51","63d842d3e9626bd5fe5c17b1","bdp_lott","Mon Mar 27 2023 15:59:25 GMT-0700 (Pacific Daylight Time)","398293","red","green","","","","","","","","","","","174","","","","","","[{""stimulus"":""img/green_ll/1.jpg"",""time"":55},{""stimulus"":""img/green_ll/2.jpg"",""time"":116},{""stimulus"":""img/green_ll/3.jpg"",""time"":178},{""stimulus"":""img/green_ll/4.jpg"",""time"":239},{""stimulus"":""img/green_ll/5.jpg"",""time"":302},{""stimulus"":""img/green_ll/6.jpg"",""time"":363},{""stimulus"":""img/green_ll/7.jpg"",""time"":425},{""stimulus"":""img/green_ll/8.jpg"",""time"":487},{""stimulus"":""img/green_ll/9.jpg"",""time"":548},{""stimulus"":""img/green_ll/10.jpg"",""time"":611},{""stimulus"":""img/green_ll/11.jpg"",""time"":672}]","[]"
"image-keyboard-response","110","239695","0.0-5.0-1.52","63d842d3e9626bd5fe5c17b1","bdp_lott","Mon Mar 27 2023 15:59:25 GMT-0700 (Pacific Daylight Time)","398293","red","green","","","","choice","","","52","","img/green_ll/choose11.jpg","1","173","green","0.5","0.5","0.5","w","",""
"animation","111","240427","0.0-5.0-2.52","63d842d3e9626bd5fe5c17b1","bdp_lott","Mon Mar 27 2023 15:59:25 GMT-0700 (Pacific Daylight Time)","398293","red","green","","","","","","","","","","","173","","","","","","[{""stimulus"":""img/green_wl/1.jpg"",""time"":56},{""stimulus"":""img/green_wl/2.jpg"",""time"":117},{""stimulus"":""img/green_wl/3.jpg"",""time"":178},{""stimulus"":""img/green_wl/4.jpg"",""time"":240},{""stimulus"":""img/green_wl/5.jpg"",""time"":301},{""stimulus"":""img/green_wl/6.jpg"",""time"":363},{""stimulus"":""img/green_wl/7.jpg"",""time"":425},{""stimulus"":""img/green_wl/8.jpg"",""time"":486},{""stimulus"":""img/green_wl/9.jpg"",""time"":548},{""stimulus"":""img/green_wl/10.jpg"",""time"":610},{""stimulus"":""img/green_wl/11.jpg"",""time"":671}]","[]"
"image-keyboard-response","112","240517","0.0-5.0-1.53","63d842d3e9626bd5fe5c17b1","bdp_lott","Mon Mar 27 2023 15:59:25 GMT-0700 (Pacific Daylight Time)","398293","red","green","","","","choice","","","90","","img/green_wl/choose11.jpg","2","172","red","0.5","0.5","0.5","l","",""
"animation","113","241261","0.0-5.0-2.53","63d842d3e9626bd5fe5c17b1","bdp_lott","Mon Mar 27 2023 15:59:25 GMT-0700 (Pacific Daylight Time)","398293","red","green","","","","","","","","","","","172","","","","","","[{""stimulus"":""img/red_wl/1.jpg"",""time"":64},{""stimulus"":""img/red_wl/2.jpg"",""time"":126},{""stimulus"":""img/red_wl/3.jpg"",""time"":188},{""stimulus"":""img/red_wl/4.jpg"",""time"":250},{""stimulus"":""img/red_wl/5.jpg"",""time"":312},{""stimulus"":""img/red_wl/6.jpg"",""time"":374},{""stimulus"":""img/red_wl/7.jpg"",""time"":435},{""stimulus"":""img/red_wl/8.jpg"",""time"":497},{""stimulus"":""img/red_wl/9.jpg"",""time"":558},{""stimulus"":""img/red_wl/10.jpg"",""time"":620},{""stimulus"":""img/red_wl/11.jpg"",""time"":682}]","[]"
"image-keyboard-response","114","241312","0.0-5.0-1.54","63d842d3e9626bd5fe5c17b1","bdp_lott","Mon Mar 27 2023 15:59:25 GMT-0700 (Pacific Daylight Time)","398293","red","green","","","","choice","","","51","","img/red_wl/choose11.jpg","2","171","red","0.5","0.5","0.5","w","",""
"animation","115","242047","0.0-5.0-2.54","63d842d3e9626bd5fe5c17b1","bdp_lott","Mon Mar 27 2023 15:59:25 GMT-0700 (Pacific Daylight Time)","398293","red","green","","","","","","","","","","","171","","","","","","[{""stimulus"":""img/red_ww/1.jpg"",""time"":56},{""stimulus"":""img/red_ww/2.jpg"",""time"":117},{""stimulus"":""img/red_ww/3.jpg"",""time"":179},{""stimulus"":""img/red_ww/4.jpg"",""time"":240},{""stimulus"":""img/red_ww/5.jpg"",""time"":302},{""stimulus"":""img/red_ww/6.jpg"",""time"":364},{""stimulus"":""img/red_ww/7.jpg"",""time"":425},{""stimulus"":""img/red_ww/8.jpg"",""time"":487},{""stimulus"":""img/red_ww/9.jpg"",""time"":549},{""stimulus"":""img/red_ww/10.jpg"",""time"":610},{""stimulus"":""img/red_ww/11.jpg"",""time"":672}]","[]"
"image-keyboard-response","116","242150","0.0-5.0-1.55","63d842d3e9626bd5fe5c17b1","bdp_lott","Mon Mar 27 2023 15:59:25 GMT-0700 (Pacific Daylight Time)","398293","red","green","","","","choice","","","103","","img/red_ww/choose11.jpg","1","170","green","0.5","0.5","0.5","l","",""
"animation","117","242883","0.0-5.0-2.55","63d842d3e9626bd5fe5c17b1","bdp_lott","Mon Mar 27 2023 15:59:25 GMT-0700 (Pacific Daylight Time)","398293","red","green","","","","","","","","","","","170","","","","","","[{""stimulus"":""img/green_lw/1.jpg"",""time"":52},{""stimulus"":""img/green_lw/2.jpg"",""time"":114},{""stimulus"":""img/green_lw/3.jpg"",""time"":176},{""stimulus"":""img/green_lw/4.jpg"",""time"":238},{""stimulus"":""img/green_lw/5.jpg"",""time"":300},{""stimulus"":""img/green_lw/6.jpg"",""time"":362},{""stimulus"":""img/green_lw/7.jpg"",""time"":424},{""stimulus"":""img/green_lw/8.jpg"",""time"":486},{""stimulus"":""img/green_lw/9.jpg"",""time"":548},{""stimulus"":""img/green_lw/10.jpg"",""time"":609},{""stimulus"":""img/green_lw/11.jpg"",""time"":671}]","[]"
"image-keyboard-response","118","243029","0.0-5.0-1.56","63d842d3e9626bd5fe5c17b1","bdp_lott","Mon Mar 27 2023 15:59:25 GMT-0700 (Pacific Daylight Time)","398293","red","green","","","","choice","","","144","","img/green_lw/choose11.jpg","2","169","red","0.5","0.5","0.5","l","",""
"animation","119","243763","0.0-5.0-2.56","63d842d3e9626bd5fe5c17b1","bdp_lott","Mon Mar 27 2023 15:59:25 GMT-0700 (Pacific Daylight Time)","398293","red","green","","","","","","","","","","","169","","","","","","[{""stimulus"":""img/red_ll/1.jpg"",""time"":56},{""stimulus"":""img/red_ll/2.jpg"",""time"":117},{""stimulus"":""img/red_ll/3.jpg"",""time"":178},{""stimulus"":""img/red_ll/4.jpg"",""time"":240},{""stimulus"":""img/red_ll/5.jpg"",""time"":302},{""stimulus"":""img/red_ll/6.jpg"",""time"":364},{""stimulus"":""img/red_ll/7.jpg"",""time"":426},{""stimulus"":""img/red_ll/8.jpg"",""time"":487},{""stimulus"":""img/red_ll/9.jpg"",""time"":549},{""stimulus"":""img/red_ll/10.jpg"",""time"":610},{""stimulus"":""img/red_ll/11.jpg"",""time"":672}]","[]"
"image-keyboard-response","120","243842","0.0-5.0-1.57","63d842d3e9626bd5fe5c17b1","bdp_lott","Mon Mar 27 2023 15:59:25 GMT-0700 (Pacific Daylight Time)","398293","red","green","","","","choice","","","79","","img/red_ll/choose11.jpg","1","168","green","0.5","0.5","0.5","l","",""
"animation","121","244580","0.0-5.0-2.57","63d842d3e9626bd5fe5c17b1","bdp_lott","Mon Mar 27 2023 15:59:25 GMT-0700 (Pacific Daylight Time)","398293","red","green","","","","","","","","","","","168","","","","","","[{""stimulus"":""img/green_ll/1.jpg"",""time"":60},{""stimulus"":""img/green_ll/2.jpg"",""time"":121},{""stimulus"":""img/green_ll/3.jpg"",""time"":182},{""stimulus"":""img/green_ll/4.jpg"",""time"":244},{""stimulus"":""img/green_ll/5.jpg"",""time"":306},{""stimulus"":""img/green_ll/6.jpg"",""time"":369},{""stimulus"":""img/green_ll/7.jpg"",""time"":430},{""stimulus"":""img/green_ll/8.jpg"",""time"":492},{""stimulus"":""img/green_ll/9.jpg"",""time"":554},{""stimulus"":""img/green_ll/10.jpg"",""time"":615},{""stimulus"":""img/green_ll/11.jpg"",""time"":677}]","[]"
"image-keyboard-response","122","244609","0.0-5.0-1.58","63d842d3e9626bd5fe5c17b1","bdp_lott","Mon Mar 27 2023 15:59:25 GMT-0700 (Pacific Daylight Time)","398293","red","green","","","","choice","","","28","","img/green_ll/choose11.jpg","2","167","red","0.5","0.5","0.5","w","",""
"animation","123","245350","0.0-5.0-2.58","63d842d3e9626bd5fe5c17b1","bdp_lott","Mon Mar 27 2023 15:59:25 GMT-0700 (Pacific Daylight Time)","398293","red","green","","","","","","","","","","","167","","","","","","[{""stimulus"":""img/red_lw/1.jpg"",""time"":64},{""stimulus"":""img/red_lw/2.jpg"",""time"":126},{""stimulus"":""img/red_lw/3.jpg"",""time"":187},{""stimulus"":""img/red_lw/4.jpg"",""time"":249},{""stimulus"":""img/red_lw/5.jpg"",""time"":310},{""stimulus"":""img/red_lw/6.jpg"",""time"":371},{""stimulus"":""img/red_lw/7.jpg"",""time"":433},{""stimulus"":""img/red_lw/8.jpg"",""time"":495},{""stimulus"":""img/red_lw/9.jpg"",""time"":556},{""stimulus"":""img/red_lw/10.jpg"",""time"":617},{""stimulus"":""img/red_lw/11.jpg"",""time"":679}]","[]"
"image-keyboard-response","124","245508","0.0-5.0-1.59","63d842d3e9626bd5fe5c17b1","bdp_lott","Mon Mar 27 2023 15:59:25 GMT-0700 (Pacific Daylight Time)","398293","red","green","","","","choice","","","158","","img/red_lw/choose11.jpg","1","166","green","0.5","0.5","0.5","l","",""
"animation","125","246242","0.0-5.0-2.59","63d842d3e9626bd5fe5c17b1","bdp_lott","Mon Mar 27 2023 15:59:25 GMT-0700 (Pacific Daylight Time)","398293","red","green","","","","","","","","","","","166","","","","","","[{""stimulus"":""img/green_lw/1.jpg"",""time"":55},{""stimulus"":""img/green_lw/2.jpg"",""time"":117},{""stimulus"":""img/green_lw/3.jpg"",""time"":179},{""stimulus"":""img/green_lw/4.jpg"",""time"":240},{""stimulus"":""img/green_lw/5.jpg"",""time"":302},{""stimulus"":""img/green_lw/6.jpg"",""time"":363},{""stimulus"":""img/green_lw/7.jpg"",""time"":425},{""stimulus"":""img/green_lw/8.jpg"",""time"":487},{""stimulus"":""img/green_lw/9.jpg"",""time"":547},{""stimulus"":""img/green_lw/10.jpg"",""time"":610},{""stimulus"":""img/green_lw/11.jpg"",""time"":672}]","[]"
"image-keyboard-response","126","246455","0.0-5.0-1.60","63d842d3e9626bd5fe5c17b1","bdp_lott","Mon Mar 27 2023 15:59:25 GMT-0700 (Pacific Daylight Time)","398293","red","green","","","","choice","","","212","","img/green_lw/choose11.jpg","2","165","red","0.5","0.5","0.5","w","",""
"animation","127","247200","0.0-5.0-2.60","63d842d3e9626bd5fe5c17b1","bdp_lott","Mon Mar 27 2023 15:59:25 GMT-0700 (Pacific Daylight Time)","398293","red","green","","","","","","","","","","","165","","","","","","[{""stimulus"":""img/red_lw/1.jpg"",""time"":65},{""stimulus"":""img/red_lw/2.jpg"",""time"":127},{""stimulus"":""img/red_lw/3.jpg"",""time"":188},{""stimulus"":""img/red_lw/4.jpg"",""time"":250},{""stimulus"":""img/red_lw/5.jpg"",""time"":312},{""stimulus"":""img/red_lw/6.jpg"",""time"":374},{""stimulus"":""img/red_lw/7.jpg"",""time"":435},{""stimulus"":""img/red_lw/8.jpg"",""time"":497},{""stimulus"":""img/red_lw/9.jpg"",""time"":559},{""stimulus"":""img/red_lw/10.jpg"",""time"":621},{""stimulus"":""img/red_lw/11.jpg"",""time"":683}]","[]"
"image-keyboard-response","128","247232","0.0-5.0-1.61","63d842d3e9626bd5fe5c17b1","bdp_lott","Mon Mar 27 2023 15:59:25 GMT-0700 (Pacific Daylight Time)","398293","red","green","","","","choice","","","32","","img/red_lw/choose11.jpg","2","164","red","0.5","0.5","0.5","w","",""
"animation","129","247974","0.0-5.0-2.61","63d842d3e9626bd5fe5c17b1","bdp_lott","Mon Mar 27 2023 15:59:25 GMT-0700 (Pacific Daylight Time)","398293","red","green","","","","","","","","","","","164","","","","","","[{""stimulus"":""img/red_lw/1.jpg"",""time"":60},{""stimulus"":""img/red_lw/2.jpg"",""time"":123},{""stimulus"":""img/red_lw/3.jpg"",""time"":184},{""stimulus"":""img/red_lw/4.jpg"",""time"":246},{""stimulus"":""img/red_lw/5.jpg"",""time"":308},{""stimulus"":""img/red_lw/6.jpg"",""time"":370},{""stimulus"":""img/red_lw/7.jpg"",""time"":432},{""stimulus"":""img/red_lw/8.jpg"",""time"":494},{""stimulus"":""img/red_lw/9.jpg"",""time"":556},{""stimulus"":""img/red_lw/10.jpg"",""time"":618},{""stimulus"":""img/red_lw/11.jpg"",""time"":680}]","[]"
"image-keyboard-response","130","248075","0.0-5.0-1.62","63d842d3e9626bd5fe5c17b1","bdp_lott","Mon Mar 27 2023 15:59:25 GMT-0700 (Pacific Daylight Time)","398293","red","green","","","","choice","","","101","","img/red_lw/choose11.jpg","2","163","red","0.5","0.5","0.5","w","",""
"animation","131","248808","0.0-5.0-2.62","63d842d3e9626bd5fe5c17b1","bdp_lott","Mon Mar 27 2023 15:59:25 GMT-0700 (Pacific Daylight Time)","398293","red","green","","","","","","","","","","","163","","","","","","[{""stimulus"":""img/red_lw/1.jpg"",""time"":54},{""stimulus"":""img/red_lw/2.jpg"",""time"":115},{""stimulus"":""img/red_lw/3.jpg"",""time"":177},{""stimulus"":""img/red_lw/4.jpg"",""time"":238},{""stimulus"":""img/red_lw/5.jpg"",""time"":301},{""stimulus"":""img/red_lw/6.jpg"",""time"":362},{""stimulus"":""img/red_lw/7.jpg"",""time"":424},{""stimulus"":""img/red_lw/8.jpg"",""time"":485},{""stimulus"":""img/red_lw/9.jpg"",""time"":547},{""stimulus"":""img/red_lw/10.jpg"",""time"":609},{""stimulus"":""img/red_lw/11.jpg"",""time"":670}]","[]"
"image-keyboard-response","132","248835","0.0-5.0-1.63","63d842d3e9626bd5fe5c17b1","bdp_lott","Mon Mar 27 2023 15:59:25 GMT-0700 (Pacific Daylight Time)","398293","red","green","","","","choice","","","27","","img/red_lw/choose11.jpg","2","162","red","0.5","0.5","0.5","l","",""
"animation","133","249562","0.0-5.0-2.63","63d842d3e9626bd5fe5c17b1","bdp_lott","Mon Mar 27 2023 15:59:25 GMT-0700 (Pacific Daylight Time)","398293","red","green","","","","","","","","","","","162","","","","","","[{""stimulus"":""img/red_ll/1.jpg"",""time"":50},{""stimulus"":""img/red_ll/2.jpg"",""time"":111},{""stimulus"":""img/red_ll/3.jpg"",""time"":173},{""stimulus"":""img/red_ll/4.jpg"",""time"":234},{""stimulus"":""img/red_ll/5.jpg"",""time"":295},{""stimulus"":""img/red_ll/6.jpg"",""time"":357},{""stimulus"":""img/red_ll/7.jpg"",""time"":418},{""stimulus"":""img/red_ll/8.jpg"",""time"":481},{""stimulus"":""img/red_ll/9.jpg"",""time"":542},{""stimulus"":""img/red_ll/10.jpg"",""time"":604},{""stimulus"":""img/red_ll/11.jpg"",""time"":665}]","[]"
"image-keyboard-response","134","249763","0.0-5.0-1.64","63d842d3e9626bd5fe5c17b1","bdp_lott","Mon Mar 27 2023 15:59:25 GMT-0700 (Pacific Daylight Time)","398293","red","green","","","","choice","","","200","","img/red_ll/choose11.jpg","2","161","red","0.5","0.5","0.5","l","",""
"animation","135","250504","0.0-5.0-2.64","63d842d3e9626bd5fe5c17b1","bdp_lott","Mon Mar 27 2023 15:59:25 GMT-0700 (Pacific Daylight Time)","398293","red","green","","","","","","","","","","","161","","","","","","[{""stimulus"":""img/red_ll/1.jpg"",""time"":61},{""stimulus"":""img/red_ll/2.jpg"",""time"":122},{""stimulus"":""img/red_ll/3.jpg"",""time"":184},{""stimulus"":""img/red_ll/4.jpg"",""time"":246},{""stimulus"":""img/red_ll/5.jpg"",""time"":308},{""stimulus"":""img/red_ll/6.jpg"",""time"":370},{""stimulus"":""img/red_ll/7.jpg"",""time"":432},{""stimulus"":""img/red_ll/8.jpg"",""time"":494},{""stimulus"":""img/red_ll/9.jpg"",""time"":556},{""stimulus"":""img/red_ll/10.jpg"",""time"":618},{""stimulus"":""img/red_ll/11.jpg"",""time"":680}]","[]"
"image-keyboard-response","136","250594","0.0-5.0-1.65","63d842d3e9626bd5fe5c17b1","bdp_lott","Mon Mar 27 2023 15:59:25 GMT-0700 (Pacific Daylight Time)","398293","red","green","","","","choice","","","90","","img/red_ll/choose11.jpg","2","160","red","0.5","0.5","0.5","l","",""
"animation","137","251337","0.0-5.0-2.65","63d842d3e9626bd5fe5c17b1","bdp_lott","Mon Mar 27 2023 15:59:25 GMT-0700 (Pacific Daylight Time)","398293","red","green","","","","","","","","","","","160","","","","","","[{""stimulus"":""img/red_ll/1.jpg"",""time"":64},{""stimulus"":""img/red_ll/2.jpg"",""time"":127},{""stimulus"":""img/red_ll/3.jpg"",""time"":189},{""stimulus"":""img/red_ll/4.jpg"",""time"":250},{""stimulus"":""img/red_ll/5.jpg"",""time"":312},{""stimulus"":""img/red_ll/6.jpg"",""time"":374},{""stimulus"":""img/red_ll/7.jpg"",""time"":436},{""stimulus"":""img/red_ll/8.jpg"",""time"":497},{""stimulus"":""img/red_ll/9.jpg"",""time"":558},{""stimulus"":""img/red_ll/10.jpg"",""time"":620},{""stimulus"":""img/red_ll/11.jpg"",""time"":682}]","[]"
"image-keyboard-response","138","251408","0.0-5.0-1.66","63d842d3e9626bd5fe5c17b1","bdp_lott","Mon Mar 27 2023 15:59:25 GMT-0700 (Pacific Daylight Time)","398293","red","green","","","","choice","","","71","","img/red_ll/choose11.jpg","2","159","red","0.5","0.5","0.5","l","",""
"animation","139","252138","0.0-5.0-2.66","63d842d3e9626bd5fe5c17b1","bdp_lott","Mon Mar 27 2023 15:59:25 GMT-0700 (Pacific Daylight Time)","398293","red","green","","","","","","","","","","","159","","","","","","[{""stimulus"":""img/red_ll/1.jpg"",""time"":51},{""stimulus"":""img/red_ll/2.jpg"",""time"":111},{""stimulus"":""img/red_ll/3.jpg"",""time"":173},{""stimulus"":""img/red_ll/4.jpg"",""time"":235},{""stimulus"":""img/red_ll/5.jpg"",""time"":297},{""stimulus"":""img/red_ll/6.jpg"",""time"":358},{""stimulus"":""img/red_ll/7.jpg"",""time"":419},{""stimulus"":""img/red_ll/8.jpg"",""time"":482},{""stimulus"":""img/red_ll/9.jpg"",""time"":543},{""stimulus"":""img/red_ll/10.jpg"",""time"":606},{""stimulus"":""img/red_ll/11.jpg"",""time"":667}]","[]"
"image-keyboard-response","140","252253","0.0-5.0-1.67","63d842d3e9626bd5fe5c17b1","bdp_lott","Mon Mar 27 2023 15:59:25 GMT-0700 (Pacific Daylight Time)","398293","red","green","","","","choice","","","114","","img/red_ll/choose11.jpg","2","158","red","0.5","0.5","0.5","w","",""
"animation","141","252987","0.0-5.0-2.67","63d842d3e9626bd5fe5c17b1","bdp_lott","Mon Mar 27 2023 15:59:25 GMT-0700 (Pacific Daylight Time)","398293","red","green","","","","","","","","","","","158","","","","","","[{""stimulus"":""img/red_lw/1.jpg"",""time"":55},{""stimulus"":""img/red_lw/2.jpg"",""time"":117},{""stimulus"":""img/red_lw/3.jpg"",""time"":178},{""stimulus"":""img/red_lw/4.jpg"",""time"":240},{""stimulus"":""img/red_lw/5.jpg"",""time"":302},{""stimulus"":""img/red_lw/6.jpg"",""time"":364},{""stimulus"":""img/red_lw/7.jpg"",""time"":426},{""stimulus"":""img/red_lw/8.jpg"",""time"":487},{""stimulus"":""img/red_lw/9.jpg"",""time"":549},{""stimulus"":""img/red_lw/10.jpg"",""time"":610},{""stimulus"":""img/red_lw/11.jpg"",""time"":672}]","[]"
"image-keyboard-response","142","253076","0.0-5.0-1.68","63d842d3e9626bd5fe5c17b1","bdp_lott","Mon Mar 27 2023 15:59:25 GMT-0700 (Pacific Daylight Time)","398293","red","green","","","","choice","","","89","","img/red_lw/choose11.jpg","2","157","red","0.5","0.5","0.5","l","",""
"animation","143","253819","0.0-5.0-2.68","63d842d3e9626bd5fe5c17b1","bdp_lott","Mon Mar 27 2023 15:59:25 GMT-0700 (Pacific Daylight Time)","398293","red","green","","","","","","","","","","","157","","","","","","[{""stimulus"":""img/red_ll/1.jpg"",""time"":65},{""stimulus"":""img/red_ll/2.jpg"",""time"":126},{""stimulus"":""img/red_ll/3.jpg"",""time"":188},{""stimulus"":""img/red_ll/4.jpg"",""time"":250},{""stimulus"":""img/red_ll/5.jpg"",""time"":311},{""stimulus"":""img/red_ll/6.jpg"",""time"":374},{""stimulus"":""img/red_ll/7.jpg"",""time"":435},{""stimulus"":""img/red_ll/8.jpg"",""time"":497},{""stimulus"":""img/red_ll/9.jpg"",""time"":558},{""stimulus"":""img/red_ll/10.jpg"",""time"":620},{""stimulus"":""img/red_ll/11.jpg"",""time"":682}]","[]"
"image-keyboard-response","144","253968","0.0-5.0-1.69","63d842d3e9626bd5fe5c17b1","bdp_lott","Mon Mar 27 2023 15:59:25 GMT-0700 (Pacific Daylight Time)","398293","red","green","","","","choice","","","149","","img/red_ll/choose11.jpg","2","156","red","0.5","0.5","0.5","w","",""
"animation","145","254697","0.0-5.0-2.69","63d842d3e9626bd5fe5c17b1","bdp_lott","Mon Mar 27 2023 15:59:25 GMT-0700 (Pacific Daylight Time)","398293","red","green","","","","","","","","","","","156","","","","","","[{""stimulus"":""img/red_lw/1.jpg"",""time"":53},{""stimulus"":""img/red_lw/2.jpg"",""time"":114},{""stimulus"":""img/red_lw/3.jpg"",""time"":175},{""stimulus"":""img/red_lw/4.jpg"",""time"":237},{""stimulus"":""img/red_lw/5.jpg"",""time"":298},{""stimulus"":""img/red_lw/6.jpg"",""time"":359},{""stimulus"":""img/red_lw/7.jpg"",""time"":421},{""stimulus"":""img/red_lw/8.jpg"",""time"":483},{""stimulus"":""img/red_lw/9.jpg"",""time"":545},{""stimulus"":""img/red_lw/10.jpg"",""time"":607},{""stimulus"":""img/red_lw/11.jpg"",""time"":668}]","[]"
"image-keyboard-response","146","254722","0.0-5.0-1.70","63d842d3e9626bd5fe5c17b1","bdp_lott","Mon Mar 27 2023 15:59:25 GMT-0700 (Pacific Daylight Time)","398293","red","green","","","","choice","","","25","","img/red_lw/choose11.jpg","2","155","red","0.5","0.5","0.5","w","",""
"animation","147","255454","0.0-5.0-2.70","63d842d3e9626bd5fe5c17b1","bdp_lott","Mon Mar 27 2023 15:59:25 GMT-0700 (Pacific Daylight Time)","398293","red","green","","","","","","","","","","","155","","","","","","[{""stimulus"":""img/red_lw/1.jpg"",""time"":52},{""stimulus"":""img/red_lw/2.jpg"",""time"":115},{""stimulus"":""img/red_lw/3.jpg"",""time"":177},{""stimulus"":""img/red_lw/4.jpg"",""time"":239},{""stimulus"":""img/red_lw/5.jpg"",""time"":300},{""stimulus"":""img/red_lw/6.jpg"",""time"":361},{""stimulus"":""img/red_lw/7.jpg"",""time"":422},{""stimulus"":""img/red_lw/8.jpg"",""time"":485},{""stimulus"":""img/red_lw/9.jpg"",""time"":546},{""stimulus"":""img/red_lw/10.jpg"",""time"":608},{""stimulus"":""img/red_lw/11.jpg"",""time"":671}]","[]"
"image-keyboard-response","148","255643","0.0-5.0-1.71","63d842d3e9626bd5fe5c17b1","bdp_lott","Mon Mar 27 2023 15:59:25 GMT-0700 (Pacific Daylight Time)","398293","red","green","","","","choice","","","189","","img/red_lw/choose11.jpg","2","154","red","0.5","0.5","0.5","w","",""
"animation","149","256378","0.0-5.0-2.71","63d842d3e9626bd5fe5c17b1","bdp_lott","Mon Mar 27 2023 15:59:25 GMT-0700 (Pacific Daylight Time)","398293","red","green","","","","","","","","","","","154","","","","","","[{""stimulus"":""img/red_lw/1.jpg"",""time"":57},{""stimulus"":""img/red_lw/2.jpg"",""time"":120},{""stimulus"":""img/red_lw/3.jpg"",""time"":180},{""stimulus"":""img/red_lw/4.jpg"",""time"":242},{""stimulus"":""img/red_lw/5.jpg"",""time"":303},{""stimulus"":""img/red_lw/6.jpg"",""time"":365},{""stimulus"":""img/red_lw/7.jpg"",""time"":427},{""stimulus"":""img/red_lw/8.jpg"",""time"":488},{""stimulus"":""img/red_lw/9.jpg"",""time"":549},{""stimulus"":""img/red_lw/10.jpg"",""time"":611},{""stimulus"":""img/red_lw/11.jpg"",""time"":673}]","[]"
"image-keyboard-response","150","256882","0.0-5.0-1.72","63d842d3e9626bd5fe5c17b1","bdp_lott","Mon Mar 27 2023 15:59:25 GMT-0700 (Pacific Daylight Time)","398293","red","green","","","","choice","","","504","","img/red_lw/choose11.jpg","2","153","red","0.5","0.5","0.5","w","",""
"animation","151","257610","0.0-5.0-2.72","63d842d3e9626bd5fe5c17b1","bdp_lott","Mon Mar 27 2023 15:59:25 GMT-0700 (Pacific Daylight Time)","398293","red","green","","","","","","","","","","","153","","","","","","[{""stimulus"":""img/red_lw/1.jpg"",""time"":51},{""stimulus"":""img/red_lw/2.jpg"",""time"":112},{""stimulus"":""img/red_lw/3.jpg"",""time"":174},{""stimulus"":""img/red_lw/4.jpg"",""time"":235},{""stimulus"":""img/red_lw/5.jpg"",""time"":297},{""stimulus"":""img/red_lw/6.jpg"",""time"":359},{""stimulus"":""img/red_lw/7.jpg"",""time"":420},{""stimulus"":""img/red_lw/8.jpg"",""time"":482},{""stimulus"":""img/red_lw/9.jpg"",""time"":543},{""stimulus"":""img/red_lw/10.jpg"",""time"":605},{""stimulus"":""img/red_lw/11.jpg"",""time"":666}]","[]"
"image-keyboard-response","152","257671","0.0-5.0-1.73","63d842d3e9626bd5fe5c17b1","bdp_lott","Mon Mar 27 2023 15:59:25 GMT-0700 (Pacific Daylight Time)","398293","red","green","","","","choice","","","61","","img/red_lw/choose11.jpg","2","152","red","0.5","0.5","0.5","w","",""
"animation","153","258412","0.0-5.0-2.73","63d842d3e9626bd5fe5c17b1","bdp_lott","Mon Mar 27 2023 15:59:25 GMT-0700 (Pacific Daylight Time)","398293","red","green","","","","","","","","","","","152","","","","","","[{""stimulus"":""img/red_lw/1.jpg"",""time"":64},{""stimulus"":""img/red_lw/2.jpg"",""time"":125},{""stimulus"":""img/red_lw/3.jpg"",""time"":187},{""stimulus"":""img/red_lw/4.jpg"",""time"":248},{""stimulus"":""img/red_lw/5.jpg"",""time"":310},{""stimulus"":""img/red_lw/6.jpg"",""time"":371},{""stimulus"":""img/red_lw/7.jpg"",""time"":432},{""stimulus"":""img/red_lw/8.jpg"",""time"":494},{""stimulus"":""img/red_lw/9.jpg"",""time"":556},{""stimulus"":""img/red_lw/10.jpg"",""time"":618},{""stimulus"":""img/red_lw/11.jpg"",""time"":680}]","[]"
"image-keyboard-response","154","258428","0.0-5.0-1.74","63d842d3e9626bd5fe5c17b1","bdp_lott","Mon Mar 27 2023 15:59:25 GMT-0700 (Pacific Daylight Time)","398293","red","green","","","","choice","","","16","","img/red_lw/choose11.jpg","2","151","red","0.5","0.5","0.5","w","",""
"animation","155","259168","0.0-5.0-2.74","63d842d3e9626bd5fe5c17b1","bdp_lott","Mon Mar 27 2023 15:59:25 GMT-0700 (Pacific Daylight Time)","398293","red","green","","","","","","","","","","","151","","","","","","[{""stimulus"":""img/red_lw/1.jpg"",""time"":60},{""stimulus"":""img/red_lw/2.jpg"",""time"":122},{""stimulus"":""img/red_lw/3.jpg"",""time"":184},{""stimulus"":""img/red_lw/4.jpg"",""time"":246},{""stimulus"":""img/red_lw/5.jpg"",""time"":307},{""stimulus"":""img/red_lw/6.jpg"",""time"":370},{""stimulus"":""img/red_lw/7.jpg"",""time"":431},{""stimulus"":""img/red_lw/8.jpg"",""time"":492},{""stimulus"":""img/red_lw/9.jpg"",""time"":554},{""stimulus"":""img/red_lw/10.jpg"",""time"":616},{""stimulus"":""img/red_lw/11.jpg"",""time"":677}]","[]"
"image-keyboard-response","156","259213","0.0-5.0-1.75","63d842d3e9626bd5fe5c17b1","bdp_lott","Mon Mar 27 2023 15:59:25 GMT-0700 (Pacific Daylight Time)","398293","red","green","","","","choice","","","45","","img/red_lw/choose11.jpg","2","150","red","0.5","0.5","0.5","w","",""
"animation","157","259955","0.0-5.0-2.75","63d842d3e9626bd5fe5c17b1","bdp_lott","Mon Mar 27 2023 15:59:25 GMT-0700 (Pacific Daylight Time)","398293","red","green","","","","","","","","","","","150","","","","","","[{""stimulus"":""img/red_lw/1.jpg"",""time"":63},{""stimulus"":""img/red_lw/2.jpg"",""time"":125},{""stimulus"":""img/red_lw/3.jpg"",""time"":186},{""stimulus"":""img/red_lw/4.jpg"",""time"":248},{""stimulus"":""img/red_lw/5.jpg"",""time"":309},{""stimulus"":""img/red_lw/6.jpg"",""time"":370},{""stimulus"":""img/red_lw/7.jpg"",""time"":432},{""stimulus"":""img/red_lw/8.jpg"",""time"":495},{""stimulus"":""img/red_lw/9.jpg"",""time"":556},{""stimulus"":""img/red_lw/10.jpg"",""time"":618},{""stimulus"":""img/red_lw/11.jpg"",""time"":680}]","[]"
"image-keyboard-response","158","260405","0.0-5.0-1.76","63d842d3e9626bd5fe5c17b1","bdp_lott","Mon Mar 27 2023 15:59:25 GMT-0700 (Pacific Daylight Time)","398293","red","green","","","","choice","","","450","","img/red_lw/choose11.jpg","2","149","red","0.5","0.1","0.5","w","",""
"animation","159","261139","0.0-5.0-2.76","63d842d3e9626bd5fe5c17b1","bdp_lott","Mon Mar 27 2023 15:59:25 GMT-0700 (Pacific Daylight Time)","398293","red","green","","","","","","","","","","","149","","","","","","[{""stimulus"":""img/red_lw/1.jpg"",""time"":57},{""stimulus"":""img/red_lw/2.jpg"",""time"":119},{""stimulus"":""img/red_lw/3.jpg"",""time"":180},{""stimulus"":""img/red_lw/4.jpg"",""time"":242},{""stimulus"":""img/red_lw/5.jpg"",""time"":304},{""stimulus"":""img/red_lw/6.jpg"",""time"":365},{""stimulus"":""img/red_lw/7.jpg"",""time"":427},{""stimulus"":""img/red_lw/8.jpg"",""time"":488},{""stimulus"":""img/red_lw/9.jpg"",""time"":549},{""stimulus"":""img/red_lw/10.jpg"",""time"":611},{""stimulus"":""img/red_lw/11.jpg"",""time"":672}]","[]"
"image-keyboard-response","160","261141","0.0-5.0-1.77","63d842d3e9626bd5fe5c17b1","bdp_lott","Mon Mar 27 2023 15:59:25 GMT-0700 (Pacific Daylight Time)","398293","red","green","","","","choice","","","2","","img/red_lw/choose11.jpg","2","148","red","0.5","0.1","0.5","l","",""
"animation","161","261881","0.0-5.0-2.77","63d842d3e9626bd5fe5c17b1","bdp_lott","Mon Mar 27 2023 15:59:25 GMT-0700 (Pacific Daylight Time)","398293","red","green","","","","","","","","","","","148","","","","","","[{""stimulus"":""img/red_ll/1.jpg"",""time"":60},{""stimulus"":""img/red_ll/2.jpg"",""time"":121},{""stimulus"":""img/red_ll/3.jpg"",""time"":183},{""stimulus"":""img/red_ll/4.jpg"",""time"":246},{""stimulus"":""img/red_ll/5.jpg"",""time"":307},{""stimulus"":""img/red_ll/6.jpg"",""time"":368},{""stimulus"":""img/red_ll/7.jpg"",""time"":430},{""stimulus"":""img/red_ll/8.jpg"",""time"":493},{""stimulus"":""img/red_ll/9.jpg"",""time"":554},{""stimulus"":""img/red_ll/10.jpg"",""time"":616},{""stimulus"":""img/red_ll/11.jpg"",""time"":677}]","[]"
"image-keyboard-response","162","261915","0.0-5.0-1.78","63d842d3e9626bd5fe5c17b1","bdp_lott","Mon Mar 27 2023 15:59:25 GMT-0700 (Pacific Daylight Time)","398293","red","green","","","","choice","","","34","","img/red_ll/choose11.jpg","2","147","red","0.5","0.1","0.5","l","",""
"animation","163","262652","0.0-5.0-2.78","63d842d3e9626bd5fe5c17b1","bdp_lott","Mon Mar 27 2023 15:59:25 GMT-0700 (Pacific Daylight Time)","398293","red","green","","","","","","","","","","","147","","","","","","[{""stimulus"":""img/red_ll/1.jpg"",""time"":57},{""stimulus"":""img/red_ll/2.jpg"",""time"":119},{""stimulus"":""img/red_ll/3.jpg"",""time"":181},{""stimulus"":""img/red_ll/4.jpg"",""time"":243},{""stimulus"":""img/red_ll/5.jpg"",""time"":305},{""stimulus"":""img/red_ll/6.jpg"",""time"":368},{""stimulus"":""img/red_ll/7.jpg"",""time"":428},{""stimulus"":""img/red_ll/8.jpg"",""time"":490},{""stimulus"":""img/red_ll/9.jpg"",""time"":553},{""stimulus"":""img/red_ll/10.jpg"",""time"":614},{""stimulus"":""img/red_ll/11.jpg"",""time"":676}]","[]"
"image-keyboard-response","164","263048","0.0-5.0-1.79","63d842d3e9626bd5fe5c17b1","bdp_lott","Mon Mar 27 2023 15:59:25 GMT-0700 (Pacific Daylight Time)","398293","red","green","","","","choice","","","396","","img/red_ll/choose11.jpg","2","146","red","0.5","0.1","0.5","l","",""
"animation","165","263779","0.0-5.0-2.79","63d842d3e9626bd5fe5c17b1","bdp_lott","Mon Mar 27 2023 15:59:25 GMT-0700 (Pacific Daylight Time)","398293","red","green","","","","","","","","","","","146","","","","","","[{""stimulus"":""img/red_ll/1.jpg"",""time"":52},{""stimulus"":""img/red_ll/2.jpg"",""time"":113},{""stimulus"":""img/red_ll/3.jpg"",""time"":175},{""stimulus"":""img/red_ll/4.jpg"",""time"":237},{""stimulus"":""img/red_ll/5.jpg"",""time"":300},{""stimulus"":""img/red_ll/6.jpg"",""time"":361},{""stimulus"":""img/red_ll/7.jpg"",""time"":423},{""stimulus"":""img/red_ll/8.jpg"",""time"":485},{""stimulus"":""img/red_ll/9.jpg"",""time"":546},{""stimulus"":""img/red_ll/10.jpg"",""time"":609},{""stimulus"":""img/red_ll/11.jpg"",""time"":670}]","[]"
"image-keyboard-response","166","264137","0.0-5.0-1.80","63d842d3e9626bd5fe5c17b1","bdp_lott","Mon Mar 27 2023 15:59:25 GMT-0700 (Pacific Daylight Time)","398293","red","green","","","","choice","","","358","","img/red_ll/choose11.jpg","2","145","red","0.5","0.1","0.5","l","",""
"animation","167","264873","0.0-5.0-2.80","63d842d3e9626bd5fe5c17b1","bdp_lott","Mon Mar 27 2023 15:59:25 GMT-0700 (Pacific Daylight Time)","398293","red","green","","","","","","","","","","","145","","","","","","[{""stimulus"":""img/red_ll/1.jpg"",""time"":59},{""stimulus"":""img/red_ll/2.jpg"",""time"":120},{""stimulus"":""img/red_ll/3.jpg"",""time"":182},{""stimulus"":""img/red_ll/4.jpg"",""time"":244},{""stimulus"":""img/red_ll/5.jpg"",""time"":305},{""stimulus"":""img/red_ll/6.jpg"",""time"":367},{""stimulus"":""img/red_ll/7.jpg"",""time"":428},{""stimulus"":""img/red_ll/8.jpg"",""time"":490},{""stimulus"":""img/red_ll/9.jpg"",""time"":552},{""stimulus"":""img/red_ll/10.jpg"",""time"":613},{""stimulus"":""img/red_ll/11.jpg"",""time"":675}]","[]"
"image-keyboard-response","168","264933","0.0-5.0-1.81","63d842d3e9626bd5fe5c17b1","bdp_lott","Mon Mar 27 2023 15:59:25 GMT-0700 (Pacific Daylight Time)","398293","red","green","","","","choice","","","60","","img/red_ll/choose11.jpg","2","144","red","0.5","0.1","0.5","w","",""
"animation","169","265677","0.0-5.0-2.81","63d842d3e9626bd5fe5c17b1","bdp_lott","Mon Mar 27 2023 15:59:25 GMT-0700 (Pacific Daylight Time)","398293","red","green","","","","","","","","","","","144","","","","","","[{""stimulus"":""img/red_lw/1.jpg"",""time"":64},{""stimulus"":""img/red_lw/2.jpg"",""time"":126},{""stimulus"":""img/red_lw/3.jpg"",""time"":188},{""stimulus"":""img/red_lw/4.jpg"",""time"":249},{""stimulus"":""img/red_lw/5.jpg"",""time"":311},{""stimulus"":""img/red_lw/6.jpg"",""time"":373},{""stimulus"":""img/red_lw/7.jpg"",""time"":435},{""stimulus"":""img/red_lw/8.jpg"",""time"":497},{""stimulus"":""img/red_lw/9.jpg"",""time"":559},{""stimulus"":""img/red_lw/10.jpg"",""time"":620},{""stimulus"":""img/red_lw/11.jpg"",""time"":683}]","[]"
"image-keyboard-response","170","266058","0.0-5.0-1.82","63d842d3e9626bd5fe5c17b1","bdp_lott","Mon Mar 27 2023 15:59:25 GMT-0700 (Pacific Daylight Time)","398293","red","green","","","","choice","","","381","","img/red_lw/choose11.jpg","2","143","red","0.5","0.1","0.5","w","",""
"animation","171","266786","0.0-5.0-2.82","63d842d3e9626bd5fe5c17b1","bdp_lott","Mon Mar 27 2023 15:59:25 GMT-0700 (Pacific Daylight Time)","398293","red","green","","","","","","","","","","","143","","","","","","[{""stimulus"":""img/red_lw/1.jpg"",""time"":51},{""stimulus"":""img/red_lw/2.jpg"",""time"":112},{""stimulus"":""img/red_lw/3.jpg"",""time"":174},{""stimulus"":""img/red_lw/4.jpg"",""time"":236},{""stimulus"":""img/red_lw/5.jpg"",""time"":297},{""stimulus"":""img/red_lw/6.jpg"",""time"":359},{""stimulus"":""img/red_lw/7.jpg"",""time"":420},{""stimulus"":""img/red_lw/8.jpg"",""time"":481},{""stimulus"":""img/red_lw/9.jpg"",""time"":543},{""stimulus"":""img/red_lw/10.jpg"",""time"":604},{""stimulus"":""img/red_lw/11.jpg"",""time"":666}]","[]"
"image-keyboard-response","172","267184","0.0-5.0-1.83","63d842d3e9626bd5fe5c17b1","bdp_lott","Mon Mar 27 2023 15:59:25 GMT-0700 (Pacific Daylight Time)","398293","red","green","","","","choice","","","398","","img/red_lw/choose11.jpg","2","142","red","0.5","0.1","0.5","w","",""
"animation","173","267926","0.0-5.0-2.83","63d842d3e9626bd5fe5c17b1","bdp_lott","Mon Mar 27 2023 15:59:25 GMT-0700 (Pacific Daylight Time)","398293","red","green","","","","","","","","","","","142","","","","","","[{""stimulus"":""img/red_lw/1.jpg"",""time"":64},{""stimulus"":""img/red_lw/2.jpg"",""time"":127},{""stimulus"":""img/red_lw/3.jpg"",""time"":188},{""stimulus"":""img/red_lw/4.jpg"",""time"":249},{""stimulus"":""img/red_lw/5.jpg"",""time"":312},{""stimulus"":""img/red_lw/6.jpg"",""time"":373},{""stimulus"":""img/red_lw/7.jpg"",""time"":435},{""stimulus"":""img/red_lw/8.jpg"",""time"":496},{""stimulus"":""img/red_lw/9.jpg"",""time"":557},{""stimulus"":""img/red_lw/10.jpg"",""time"":619},{""stimulus"":""img/red_lw/11.jpg"",""time"":681}]","[]"
"image-keyboard-response","174","267976","0.0-5.0-1.84","63d842d3e9626bd5fe5c17b1","bdp_lott","Mon Mar 27 2023 15:59:25 GMT-0700 (Pacific Daylight Time)","398293","red","green","","","","choice","","","50","","img/red_lw/choose11.jpg","2","141","red","0.5","0.1","0.5","l","",""
"animation","175","268712","0.0-5.0-2.84","63d842d3e9626bd5fe5c17b1","bdp_lott","Mon Mar 27 2023 15:59:25 GMT-0700 (Pacific Daylight Time)","398293","red","green","","","","","","","","","","","141","","","","","","[{""stimulus"":""img/red_ll/1.jpg"",""time"":58},{""stimulus"":""img/red_ll/2.jpg"",""time"":119},{""stimulus"":""img/red_ll/3.jpg"",""time"":181},{""stimulus"":""img/red_ll/4.jpg"",""time"":243},{""stimulus"":""img/red_ll/5.jpg"",""time"":304},{""stimulus"":""img/red_ll/6.jpg"",""time"":366},{""stimulus"":""img/red_ll/7.jpg"",""time"":428},{""stimulus"":""img/red_ll/8.jpg"",""time"":490},{""stimulus"":""img/red_ll/9.jpg"",""time"":551},{""stimulus"":""img/red_ll/10.jpg"",""time"":614},{""stimulus"":""img/red_ll/11.jpg"",""time"":674}]","[]"
"image-keyboard-response","176","269177","0.0-5.0-1.85","63d842d3e9626bd5fe5c17b1","bdp_lott","Mon Mar 27 2023 15:59:25 GMT-0700 (Pacific Daylight Time)","398293","red","green","","","","choice","","","465","","img/red_ll/choose11.jpg","2","140","red","0.5","0.1","0.5","l","",""
"animation","177","269912","0.0-5.0-2.85","63d842d3e9626bd5fe5c17b1","bdp_lott","Mon Mar 27 2023 15:59:25 GMT-0700 (Pacific Daylight Time)","398293","red","green","","","","","","","","","","","140","","","","","","[{""stimulus"":""img/red_ll/1.jpg"",""time"":57},{""stimulus"":""img/red_ll/2.jpg"",""time"":118},{""stimulus"":""img/red_ll/3.jpg"",""time"":179},{""stimulus"":""img/red_ll/4.jpg"",""time"":242},{""stimulus"":""img/red_ll/5.jpg"",""time"":302},{""stimulus"":""img/red_ll/6.jpg"",""time"":364},{""stimulus"":""img/red_ll/7.jpg"",""time"":426},{""stimulus"":""img/red_ll/8.jpg"",""time"":487},{""stimulus"":""img/red_ll/9.jpg"",""time"":550},{""stimulus"":""img/red_ll/10.jpg"",""time"":611},{""stimulus"":""img/red_ll/11.jpg"",""time"":674}]","[]"
"image-keyboard-response","178","269935","0.0-5.0-1.86","63d842d3e9626bd5fe5c17b1","bdp_lott","Mon Mar 27 2023 15:59:25 GMT-0700 (Pacific Daylight Time)","398293","red","green","","","","choice","","","23","","img/red_ll/choose11.jpg","2","139","red","0.5","0.1","0.5","w","",""
"animation","179","270668","0.0-5.0-2.86","63d842d3e9626bd5fe5c17b1","bdp_lott","Mon Mar 27 2023 15:59:25 GMT-0700 (Pacific Daylight Time)","398293","red","green","","","","","","","","","","","139","","","","","","[{""stimulus"":""img/red_lw/1.jpg"",""time"":54},{""stimulus"":""img/red_lw/2.jpg"",""time"":116},{""stimulus"":""img/red_lw/3.jpg"",""time"":177},{""stimulus"":""img/red_lw/4.jpg"",""time"":239},{""stimulus"":""img/red_lw/5.jpg"",""time"":301},{""stimulus"":""img/red_lw/6.jpg"",""time"":363},{""stimulus"":""img/red_lw/7.jpg"",""time"":425},{""stimulus"":""img/red_lw/8.jpg"",""time"":487},{""stimulus"":""img/red_lw/9.jpg"",""time"":548},{""stimulus"":""img/red_lw/10.jpg"",""time"":609},{""stimulus"":""img/red_lw/11.jpg"",""time"":671}]","[]"
"image-keyboard-response","180","271049","0.0-5.0-1.87","63d842d3e9626bd5fe5c17b1","bdp_lott","Mon Mar 27 2023 15:59:25 GMT-0700 (Pacific Daylight Time)","398293","red","green","","","","choice","","","380","","img/red_lw/choose11.jpg","2","138","red","0.5","0.1","0.5","w","",""
"animation","181","271779","0.0-5.0-2.87","63d842d3e9626bd5fe5c17b1","bdp_lott","Mon Mar 27 2023 15:59:25 GMT-0700 (Pacific Daylight Time)","398293","red","green","","","","","","","","","","","138","","","","","","[{""stimulus"":""img/red_lw/1.jpg"",""time"":52},{""stimulus"":""img/red_lw/2.jpg"",""time"":112},{""stimulus"":""img/red_lw/3.jpg"",""time"":174},{""stimulus"":""img/red_lw/4.jpg"",""time"":236},{""stimulus"":""img/red_lw/5.jpg"",""time"":297},{""stimulus"":""img/red_lw/6.jpg"",""time"":359},{""stimulus"":""img/red_lw/7.jpg"",""time"":421},{""stimulus"":""img/red_lw/8.jpg"",""time"":483},{""stimulus"":""img/red_lw/9.jpg"",""time"":544},{""stimulus"":""img/red_lw/10.jpg"",""time"":605},{""stimulus"":""img/red_lw/11.jpg"",""time"":668}]","[]"
"image-keyboard-response","182","271802","0.0-5.0-1.88","63d842d3e9626bd5fe5c17b1","bdp_lott","Mon Mar 27 2023 15:59:25 GMT-0700 (Pacific Daylight Time)","398293","red","green","","","","choice","","","23","","img/red_lw/choose11.jpg","2","137","red","0.5","0.1","0.5","w","",""
"animation","183","272535","0.0-5.0-2.88","63d842d3e9626bd5fe5c17b1","bdp_lott","Mon Mar 27 2023 15:59:25 GMT-0700 (Pacific Daylight Time)","398293","red","green","","","","","","","","","","","137","","","","","","[{""stimulus"":""img/red_lw/1.jpg"",""time"":54},{""stimulus"":""img/red_lw/2.jpg"",""time"":115},{""stimulus"":""img/red_lw/3.jpg"",""time"":177},{""stimulus"":""img/red_lw/4.jpg"",""time"":239},{""stimulus"":""img/red_lw/5.jpg"",""time"":301},{""stimulus"":""img/red_lw/6.jpg"",""time"":363},{""stimulus"":""img/red_lw/7.jpg"",""time"":424},{""stimulus"":""img/red_lw/8.jpg"",""time"":486},{""stimulus"":""img/red_lw/9.jpg"",""time"":547},{""stimulus"":""img/red_lw/10.jpg"",""time"":609},{""stimulus"":""img/red_lw/11.jpg"",""time"":671}]","[]"
"image-keyboard-response","184","272627","0.0-5.0-1.89","63d842d3e9626bd5fe5c17b1","bdp_lott","Mon Mar 27 2023 15:59:25 GMT-0700 (Pacific Daylight Time)","398293","red","green","","","","choice","","","92","","img/red_lw/choose11.jpg","2","136","red","0.5","0.1","0.5","w","",""
"animation","185","273366","0.0-5.0-2.89","63d842d3e9626bd5fe5c17b1","bdp_lott","Mon Mar 27 2023 15:59:25 GMT-0700 (Pacific Daylight Time)","398293","red","green","","","","","","","","","","","136","","","","","","[{""stimulus"":""img/red_lw/1.jpg"",""time"":62},{""stimulus"":""img/red_lw/2.jpg"",""time"":123},{""stimulus"":""img/red_lw/3.jpg"",""time"":185},{""stimulus"":""img/red_lw/4.jpg"",""time"":247},{""stimulus"":""img/red_lw/5.jpg"",""time"":307},{""stimulus"":""img/red_lw/6.jpg"",""time"":368},{""stimulus"":""img/red_lw/7.jpg"",""time"":430},{""stimulus"":""img/red_lw/8.jpg"",""time"":493},{""stimulus"":""img/red_lw/9.jpg"",""time"":554},{""stimulus"":""img/red_lw/10.jpg"",""time"":615},{""stimulus"":""img/red_lw/11.jpg"",""time"":677}]","[]"
"image-keyboard-response","186","273414","0.0-5.0-1.90","63d842d3e9626bd5fe5c17b1","bdp_lott","Mon Mar 27 2023 15:59:25 GMT-0700 (Pacific Daylight Time)","398293","red","green","","","","choice","","","48","","img/red_lw/choose11.jpg","2","135","red","0.5","0.1","0.5","l","",""
"animation","187","274151","0.0-5.0-2.90","63d842d3e9626bd5fe5c17b1","bdp_lott","Mon Mar 27 2023 15:59:25 GMT-0700 (Pacific Daylight Time)","398293","red","green","","","","","","","","","","","135","","","","","","[{""stimulus"":""img/red_ll/1.jpg"",""time"":59},{""stimulus"":""img/red_ll/2.jpg"",""time"":121},{""stimulus"":""img/red_ll/3.jpg"",""time"":182},{""stimulus"":""img/red_ll/4.jpg"",""time"":244},{""stimulus"":""img/red_ll/5.jpg"",""time"":305},{""stimulus"":""img/red_ll/6.jpg"",""time"":366},{""stimulus"":""img/red_ll/7.jpg"",""time"":428},{""stimulus"":""img/red_ll/8.jpg"",""time"":490},{""stimulus"":""img/red_ll/9.jpg"",""time"":551},{""stimulus"":""img/red_ll/10.jpg"",""time"":613},{""stimulus"":""img/red_ll/11.jpg"",""time"":675}]","[]"
"image-keyboard-response","188","274276","0.0-5.0-1.91","63d842d3e9626bd5fe5c17b1","bdp_lott","Mon Mar 27 2023 15:59:25 GMT-0700 (Pacific Daylight Time)","398293","red","green","","","","choice","","","125","","img/red_ll/choose11.jpg","2","134","red","0.5","0.1","0.5","l","",""
"animation","189","275015","0.0-5.0-2.91","63d842d3e9626bd5fe5c17b1","bdp_lott","Mon Mar 27 2023 15:59:25 GMT-0700 (Pacific Daylight Time)","398293","red","green","","","","","","","","","","","134","","","","","","[{""stimulus"":""img/red_ll/1.jpg"",""time"":59},{""stimulus"":""img/red_ll/2.jpg"",""time"":121},{""stimulus"":""img/red_ll/3.jpg"",""time"":183},{""stimulus"":""img/red_ll/4.jpg"",""time"":244},{""stimulus"":""img/red_ll/5.jpg"",""time"":307},{""stimulus"":""img/red_ll/6.jpg"",""time"":368},{""stimulus"":""img/red_ll/7.jpg"",""time"":429},{""stimulus"":""img/red_ll/8.jpg"",""time"":491},{""stimulus"":""img/red_ll/9.jpg"",""time"":553},{""stimulus"":""img/red_ll/10.jpg"",""time"":615},{""stimulus"":""img/red_ll/11.jpg"",""time"":677}]","[]"
"image-keyboard-response","190","275299","0.0-5.0-1.92","63d842d3e9626bd5fe5c17b1","bdp_lott","Mon Mar 27 2023 15:59:25 GMT-0700 (Pacific Daylight Time)","398293","red","green","","","","choice","","","283","","img/red_ll/choose11.jpg","2","133","red","0.5","0.1","0.5","w","",""
