"trial_type","trial_index","time_elapsed","internal_node_id","subject_id","task","startTime","totalTime","fairMachine","unfairMachine","view_history","rt","event","trial","time","trialtype","success","stimulus","key_press","roundsLeft","chosen","pFairMachWin","pUnfairMachWin","pTrialWin","outcome","animation_sequence","responses","numBlurs"
"pavlovia","0","4","0.0-0.0","63ee5e103b44d07673cc8bd6","bdp_lott","Sun Apr 09 2023 16:18:14 GMT-0700 (Pacific Daylight Time)","199224","red","green","","","","","","","","","","","","","","","","","",""
"instructions","1","2612","0.0-1.0","63ee5e103b44d07673cc8bd6","bdp_lott","Sun Apr 09 2023 16:18:14 GMT-0700 (Pacific Daylight Time)","199224","red","green","[{""page_index"":0,""viewing_time"":2608}]","2608","","","","","","","","","","","","","","","",""
"","","","","63ee5e103b44d07673cc8bd6","bdp_lott","Sun Apr 09 2023 16:18:14 GMT-0700 (Pacific Daylight Time)","199224","red","green","","","fullscreenenter","2","5517","fullscreenenter","","","","","","","","","","","",""
"","","","","63ee5e103b44d07673cc8bd6","bdp_lott","Sun Apr 09 2023 16:18:14 GMT-0700 (Pacific Daylight Time)","199224","red","green","","","fullscreenexit","2","6051","fullscreenexit","","","","","","","","","","","",""
"fullscreen","2","6502","0.0-2.0","63ee5e103b44d07673cc8bd6","bdp_lott","Sun Apr 09 2023 16:18:14 GMT-0700 (Pacific Daylight Time)","199224","red","green","","","","","","","true","","","","","","","","","","",""
"image-keyboard-response","3","9400","0.0-3.0-0.0","63ee5e103b44d07673cc8bd6","bdp_lott","Sun Apr 09 2023 16:18:14 GMT-0700 (Pacific Daylight Time)","199224","red","green","","2896","","","","fullscreenfail","","","32","","","","","","","","",""
"instructions","4","14855","0.0-4.0","63ee5e103b44d07673cc8bd6","bdp_lott","Sun Apr 09 2023 16:18:14 GMT-0700 (Pacific Daylight Time)","199224","red","green","[{""page_index"":0,""viewing_time"":5191}]","5191","","","","","","","","","","","","","","","",""
"image-keyboard-response","5","16742","0.0-5.0-1.0","63ee5e103b44d07673cc8bd6","bdp_lott","Sun Apr 09 2023 16:18:14 GMT-0700 (Pacific Daylight Time)","199224","red","green","","1886","","","","choice","","img/red_ll/initchoose11.jpg","1","225","green","0.5","0.5","0.5","l","","",""
"animation","6","17343","0.0-5.0-2.0","63ee5e103b44d07673cc8bd6","bdp_lott","Sun Apr 09 2023 16:18:14 GMT-0700 (Pacific Daylight Time)","199224","red","green","","","","","","","","","","225","","","","","","[{""stimulus"":""img/green_ll/1.jpg"",""time"":64},{""stimulus"":""img/green_ll/2.jpg"",""time"":101},{""stimulus"":""img/green_ll/3.jpg"",""time"":151},{""stimulus"":""img/green_ll/4.jpg"",""time"":207},{""stimulus"":""img/green_ll/5.jpg"",""time"":251},{""stimulus"":""img/green_ll/6.jpg"",""time"":301},{""stimulus"":""img/green_ll/7.jpg"",""time"":351},{""stimulus"":""img/green_ll/8.jpg"",""time"":401},{""stimulus"":""img/green_ll/9.jpg"",""time"":452},{""stimulus"":""img/green_ll/10.jpg"",""time"":503},{""stimulus"":""img/green_ll/11.jpg"",""time"":551}]","[]",""
"image-keyboard-response","7","17470","0.0-5.0-1.1","63ee5e103b44d07673cc8bd6","bdp_lott","Sun Apr 09 2023 16:18:14 GMT-0700 (Pacific Daylight Time)","199224","red","green","","127","","","","choice","","img/green_ll/choose11.jpg","2","224","red","0.5","0.5","0.5","l","","",""
"animation","8","18071","0.0-5.0-2.1","63ee5e103b44d07673cc8bd6","bdp_lott","Sun Apr 09 2023 16:18:14 GMT-0700 (Pacific Daylight Time)","199224","red","green","","","","","","","","","","224","","","","","","[{""stimulus"":""img/red_ll/1.jpg"",""time"":59},{""stimulus"":""img/red_ll/2.jpg"",""time"":105},{""stimulus"":""img/red_ll/3.jpg"",""time"":151},{""stimulus"":""img/red_ll/4.jpg"",""time"":213},{""stimulus"":""img/red_ll/5.jpg"",""time"":250},{""stimulus"":""img/red_ll/6.jpg"",""time"":301},{""stimulus"":""img/red_ll/7.jpg"",""time"":357},{""stimulus"":""img/red_ll/8.jpg"",""time"":405},{""stimulus"":""img/red_ll/9.jpg"",""time"":453},{""stimulus"":""img/red_ll/10.jpg"",""time"":501},{""stimulus"":""img/red_ll/11.jpg"",""time"":563}]","[]",""
"image-keyboard-response","9","18411","0.0-5.0-1.2","63ee5e103b44d07673cc8bd6","bdp_lott","Sun Apr 09 2023 16:18:14 GMT-0700 (Pacific Daylight Time)","199224","red","green","","339","","","","choice","","img/red_ll/choose11.jpg","1","223","green","0.5","0.5","0.5","w","","",""
"animation","10","19011","0.0-5.0-2.2","63ee5e103b44d07673cc8bd6","bdp_lott","Sun Apr 09 2023 16:18:14 GMT-0700 (Pacific Daylight Time)","199224","red","green","","","","","","","","","","223","","","","","","[{""stimulus"":""img/green_wl/1.jpg"",""time"":64},{""stimulus"":""img/green_wl/2.jpg"",""time"":106},{""stimulus"":""img/green_wl/3.jpg"",""time"":155},{""stimulus"":""img/green_wl/4.jpg"",""time"":200},{""stimulus"":""img/green_wl/5.jpg"",""time"":253},{""stimulus"":""img/green_wl/6.jpg"",""time"":315},{""stimulus"":""img/green_wl/7.jpg"",""time"":362},{""stimulus"":""img/green_wl/8.jpg"",""time"":401},{""stimulus"":""img/green_wl/9.jpg"",""time"":452},{""stimulus"":""img/green_wl/10.jpg"",""time"":501},{""stimulus"":""img/green_wl/11.jpg"",""time"":565}]","[]",""
"image-keyboard-response","11","19351","0.0-5.0-1.3","63ee5e103b44d07673cc8bd6","bdp_lott","Sun Apr 09 2023 16:18:14 GMT-0700 (Pacific Daylight Time)","199224","red","green","","339","","","","choice","","img/green_wl/choose11.jpg","1","222","green","0.5","0.5","0.5","w","","",""
"animation","12","19951","0.0-5.0-2.3","63ee5e103b44d07673cc8bd6","bdp_lott","Sun Apr 09 2023 16:18:14 GMT-0700 (Pacific Daylight Time)","199224","red","green","","","","","","","","","","222","","","","","","[{""stimulus"":""img/green_wl/1.jpg"",""time"":52},{""stimulus"":""img/green_wl/2.jpg"",""time"":100},{""stimulus"":""img/green_wl/3.jpg"",""time"":152},{""stimulus"":""img/green_wl/4.jpg"",""time"":201},{""stimulus"":""img/green_wl/5.jpg"",""time"":251},{""stimulus"":""img/green_wl/6.jpg"",""time"":301},{""stimulus"":""img/green_wl/7.jpg"",""time"":351},{""stimulus"":""img/green_wl/8.jpg"",""time"":411},{""stimulus"":""img/green_wl/9.jpg"",""time"":451},{""stimulus"":""img/green_wl/10.jpg"",""time"":505},{""stimulus"":""img/green_wl/11.jpg"",""time"":552}]","[]",""
"image-keyboard-response","13","20430","0.0-5.0-1.4","63ee5e103b44d07673cc8bd6","bdp_lott","Sun Apr 09 2023 16:18:14 GMT-0700 (Pacific Daylight Time)","199224","red","green","","478","","","","choice","","img/green_wl/choose11.jpg","2","221","red","0.5","0.5","0.5","w","","",""
"animation","14","21032","0.0-5.0-2.4","63ee5e103b44d07673cc8bd6","bdp_lott","Sun Apr 09 2023 16:18:14 GMT-0700 (Pacific Daylight Time)","199224","red","green","","","","","","","","","","221","","","","","","[{""stimulus"":""img/red_ww/1.jpg"",""time"":66},{""stimulus"":""img/red_ww/2.jpg"",""time"":101},{""stimulus"":""img/red_ww/3.jpg"",""time"":160},{""stimulus"":""img/red_ww/4.jpg"",""time"":202},{""stimulus"":""img/red_ww/5.jpg"",""time"":252},{""stimulus"":""img/red_ww/6.jpg"",""time"":302},{""stimulus"":""img/red_ww/7.jpg"",""time"":351},{""stimulus"":""img/red_ww/8.jpg"",""time"":402},{""stimulus"":""img/red_ww/9.jpg"",""time"":452},{""stimulus"":""img/red_ww/10.jpg"",""time"":501},{""stimulus"":""img/red_ww/11.jpg"",""time"":551}]","[]",""
"image-keyboard-response","15","22120","0.0-5.0-1.5","63ee5e103b44d07673cc8bd6","bdp_lott","Sun Apr 09 2023 16:18:14 GMT-0700 (Pacific Daylight Time)","199224","red","green","","1088","","","","choice","","img/red_ww/choose11.jpg","2","220","red","0.5","0.5","0.5","l","","",""
"animation","16","22721","0.0-5.0-2.5","63ee5e103b44d07673cc8bd6","bdp_lott","Sun Apr 09 2023 16:18:14 GMT-0700 (Pacific Daylight Time)","199224","red","green","","","","","","","","","","220","","","","","","[{""stimulus"":""img/red_wl/1.jpg"",""time"":51},{""stimulus"":""img/red_wl/2.jpg"",""time"":114},{""stimulus"":""img/red_wl/3.jpg"",""time"":152},{""stimulus"":""img/red_wl/4.jpg"",""time"":201},{""stimulus"":""img/red_wl/5.jpg"",""time"":251},{""stimulus"":""img/red_wl/6.jpg"",""time"":302},{""stimulus"":""img/red_wl/7.jpg"",""time"":367},{""stimulus"":""img/red_wl/8.jpg"",""time"":402},{""stimulus"":""img/red_wl/9.jpg"",""time"":452},{""stimulus"":""img/red_wl/10.jpg"",""time"":501},{""stimulus"":""img/red_wl/11.jpg"",""time"":552}]","[]",""
"image-keyboard-response","17","23471","0.0-5.0-1.6","63ee5e103b44d07673cc8bd6","bdp_lott","Sun Apr 09 2023 16:18:14 GMT-0700 (Pacific Daylight Time)","199224","red","green","","750","","","","choice","","img/red_wl/choose11.jpg","2","219","red","0.5","0.5","0.5","l","","",""
"animation","18","24072","0.0-5.0-2.6","63ee5e103b44d07673cc8bd6","bdp_lott","Sun Apr 09 2023 16:18:14 GMT-0700 (Pacific Daylight Time)","199224","red","green","","","","","","","","","","219","","","","","","[{""stimulus"":""img/red_wl/1.jpg"",""time"":55},{""stimulus"":""img/red_wl/2.jpg"",""time"":102},{""stimulus"":""img/red_wl/3.jpg"",""time"":151},{""stimulus"":""img/red_wl/4.jpg"",""time"":201},{""stimulus"":""img/red_wl/5.jpg"",""time"":251},{""stimulus"":""img/red_wl/6.jpg"",""time"":306},{""stimulus"":""img/red_wl/7.jpg"",""time"":353},{""stimulus"":""img/red_wl/8.jpg"",""time"":401},{""stimulus"":""img/red_wl/9.jpg"",""time"":464},{""stimulus"":""img/red_wl/10.jpg"",""time"":501},{""stimulus"":""img/red_wl/11.jpg"",""time"":551}]","[]",""
"image-keyboard-response","19","24425","0.0-5.0-1.7","63ee5e103b44d07673cc8bd6","bdp_lott","Sun Apr 09 2023 16:18:14 GMT-0700 (Pacific Daylight Time)","199224","red","green","","352","","","","choice","","img/red_wl/choose11.jpg","2","218","red","0.5","0.5","0.5","l","","",""
"animation","20","25036","0.0-5.0-2.7","63ee5e103b44d07673cc8bd6","bdp_lott","Sun Apr 09 2023 16:18:14 GMT-0700 (Pacific Daylight Time)","199224","red","green","","","","","","","","","","218","","","","","","[{""stimulus"":""img/red_wl/1.jpg"",""time"":60},{""stimulus"":""img/red_wl/2.jpg"",""time"":107},{""stimulus"":""img/red_wl/3.jpg"",""time"":154},{""stimulus"":""img/red_wl/4.jpg"",""time"":202},{""stimulus"":""img/red_wl/5.jpg"",""time"":266},{""stimulus"":""img/red_wl/6.jpg"",""time"":302},{""stimulus"":""img/red_wl/7.jpg"",""time"":351},{""stimulus"":""img/red_wl/8.jpg"",""time"":408},{""stimulus"":""img/red_wl/9.jpg"",""time"":452},{""stimulus"":""img/red_wl/10.jpg"",""time"":502},{""stimulus"":""img/red_wl/11.jpg"",""time"":551}]","[]",""
"image-keyboard-response","21","25336","0.0-5.0-1.8","63ee5e103b44d07673cc8bd6","bdp_lott","Sun Apr 09 2023 16:18:14 GMT-0700 (Pacific Daylight Time)","199224","red","green","","300","","","","choice","","img/red_wl/choose11.jpg","2","217","red","0.5","0.5","0.5","l","","",""
"animation","22","25938","0.0-5.0-2.8","63ee5e103b44d07673cc8bd6","bdp_lott","Sun Apr 09 2023 16:18:14 GMT-0700 (Pacific Daylight Time)","199224","red","green","","","","","","","","","","217","","","","","","[{""stimulus"":""img/red_wl/1.jpg"",""time"":61},{""stimulus"":""img/red_wl/2.jpg"",""time"":107},{""stimulus"":""img/red_wl/3.jpg"",""time"":152},{""stimulus"":""img/red_wl/4.jpg"",""time"":201},{""stimulus"":""img/red_wl/5.jpg"",""time"":250},{""stimulus"":""img/red_wl/6.jpg"",""time"":301},{""stimulus"":""img/red_wl/7.jpg"",""time"":351},{""stimulus"":""img/red_wl/8.jpg"",""time"":400},{""stimulus"":""img/red_wl/9.jpg"",""time"":453},{""stimulus"":""img/red_wl/10.jpg"",""time"":515},{""stimulus"":""img/red_wl/11.jpg"",""time"":551}]","[]",""
"image-keyboard-response","23","26308","0.0-5.0-1.9","63ee5e103b44d07673cc8bd6","bdp_lott","Sun Apr 09 2023 16:18:14 GMT-0700 (Pacific Daylight Time)","199224","red","green","","368","","","","choice","","img/red_wl/choose11.jpg","1","216","green","0.5","0.5","0.5","l","","",""
"animation","24","26908","0.0-5.0-2.9","63ee5e103b44d07673cc8bd6","bdp_lott","Sun Apr 09 2023 16:18:14 GMT-0700 (Pacific Daylight Time)","199224","red","green","","","","","","","","","","216","","","","","","[{""stimulus"":""img/green_ll/1.jpg"",""time"":63},{""stimulus"":""img/green_ll/2.jpg"",""time"":110},{""stimulus"":""img/green_ll/3.jpg"",""time"":151},{""stimulus"":""img/green_ll/4.jpg"",""time"":201},{""stimulus"":""img/green_ll/5.jpg"",""time"":251},{""stimulus"":""img/green_ll/6.jpg"",""time"":300},{""stimulus"":""img/green_ll/7.jpg"",""time"":351},{""stimulus"":""img/green_ll/8.jpg"",""time"":402},{""stimulus"":""img/green_ll/9.jpg"",""time"":451},{""stimulus"":""img/green_ll/10.jpg"",""time"":500},{""stimulus"":""img/green_ll/11.jpg"",""time"":551}]","[]",""
"image-keyboard-response","25","27068","0.0-5.0-1.10","63ee5e103b44d07673cc8bd6","bdp_lott","Sun Apr 09 2023 16:18:14 GMT-0700 (Pacific Daylight Time)","199224","red","green","","159","","","","choice","","img/green_ll/choose11.jpg","2","215","red","0.5","0.5","0.5","l","","",""
"animation","26","27671","0.0-5.0-2.10","63ee5e103b44d07673cc8bd6","bdp_lott","Sun Apr 09 2023 16:18:14 GMT-0700 (Pacific Daylight Time)","199224","red","green","","","","","","","","","","215","","","","","","[{""stimulus"":""img/red_ll/1.jpg"",""time"":56},{""stimulus"":""img/red_ll/2.jpg"",""time"":102},{""stimulus"":""img/red_ll/3.jpg"",""time"":152},{""stimulus"":""img/red_ll/4.jpg"",""time"":202},{""stimulus"":""img/red_ll/5.jpg"",""time"":251},{""stimulus"":""img/red_ll/6.jpg"",""time"":302},{""stimulus"":""img/red_ll/7.jpg"",""time"":351},{""stimulus"":""img/red_ll/8.jpg"",""time"":416},{""stimulus"":""img/red_ll/9.jpg"",""time"":463},{""stimulus"":""img/red_ll/10.jpg"",""time"":501},{""stimulus"":""img/red_ll/11.jpg"",""time"":557}]","[]",""
"image-keyboard-response","27","28064","0.0-5.0-1.11","63ee5e103b44d07673cc8bd6","bdp_lott","Sun Apr 09 2023 16:18:14 GMT-0700 (Pacific Daylight Time)","199224","red","green","","393","","","","choice","","img/red_ll/choose11.jpg","2","214","red","0.5","0.5","0.5","l","","",""
"animation","28","28664","0.0-5.0-2.11","63ee5e103b44d07673cc8bd6","bdp_lott","Sun Apr 09 2023 16:18:14 GMT-0700 (Pacific Daylight Time)","199224","red","green","","","","","","","","","","214","","","","","","[{""stimulus"":""img/red_ll/1.jpg"",""time"":62},{""stimulus"":""img/red_ll/2.jpg"",""time"":108},{""stimulus"":""img/red_ll/3.jpg"",""time"":151},{""stimulus"":""img/red_ll/4.jpg"",""time"":202},{""stimulus"":""img/red_ll/5.jpg"",""time"":251},{""stimulus"":""img/red_ll/6.jpg"",""time"":301},{""stimulus"":""img/red_ll/7.jpg"",""time"":358},{""stimulus"":""img/red_ll/8.jpg"",""time"":402},{""stimulus"":""img/red_ll/9.jpg"",""time"":451},{""stimulus"":""img/red_ll/10.jpg"",""time"":515},{""stimulus"":""img/red_ll/11.jpg"",""time"":552}]","[]",""
"image-keyboard-response","29","28973","0.0-5.0-1.12","63ee5e103b44d07673cc8bd6","bdp_lott","Sun Apr 09 2023 16:18:14 GMT-0700 (Pacific Daylight Time)","199224","red","green","","308","","","","choice","","img/red_ll/choose11.jpg","2","213","red","0.5","0.5","0.5","w","","",""
"animation","30","29574","0.0-5.0-2.12","63ee5e103b44d07673cc8bd6","bdp_lott","Sun Apr 09 2023 16:18:14 GMT-0700 (Pacific Daylight Time)","199224","red","green","","","","","","","","","","213","","","","","","[{""stimulus"":""img/red_lw/1.jpg"",""time"":51},{""stimulus"":""img/red_lw/2.jpg"",""time"":102},{""stimulus"":""img/red_lw/3.jpg"",""time"":152},{""stimulus"":""img/red_lw/4.jpg"",""time"":202},{""stimulus"":""img/red_lw/5.jpg"",""time"":251},{""stimulus"":""img/red_lw/6.jpg"",""time"":301},{""stimulus"":""img/red_lw/7.jpg"",""time"":351},{""stimulus"":""img/red_lw/8.jpg"",""time"":402},{""stimulus"":""img/red_lw/9.jpg"",""time"":451},{""stimulus"":""img/red_lw/10.jpg"",""time"":502},{""stimulus"":""img/red_lw/11.jpg"",""time"":551}]","[]",""
"image-keyboard-response","31","29802","0.0-5.0-1.13","63ee5e103b44d07673cc8bd6","bdp_lott","Sun Apr 09 2023 16:18:14 GMT-0700 (Pacific Daylight Time)","199224","red","green","","228","","","","choice","","img/red_lw/choose11.jpg","1","212","green","0.5","0.5","0.5","w","","",""
"animation","32","30403","0.0-5.0-2.13","63ee5e103b44d07673cc8bd6","bdp_lott","Sun Apr 09 2023 16:18:14 GMT-0700 (Pacific Daylight Time)","199224","red","green","","","","","","","","","","212","","","","","","[{""stimulus"":""img/green_ww/1.jpg"",""time"":51},{""stimulus"":""img/green_ww/2.jpg"",""time"":101},{""stimulus"":""img/green_ww/3.jpg"",""time"":152},{""stimulus"":""img/green_ww/4.jpg"",""time"":202},{""stimulus"":""img/green_ww/5.jpg"",""time"":252},{""stimulus"":""img/green_ww/6.jpg"",""time"":302},{""stimulus"":""img/green_ww/7.jpg"",""time"":351},{""stimulus"":""img/green_ww/8.jpg"",""time"":401},{""stimulus"":""img/green_ww/9.jpg"",""time"":452},{""stimulus"":""img/green_ww/10.jpg"",""time"":501},{""stimulus"":""img/green_ww/11.jpg"",""time"":551}]","[]",""
"image-keyboard-response","33","30559","0.0-5.0-1.14","63ee5e103b44d07673cc8bd6","bdp_lott","Sun Apr 09 2023 16:18:14 GMT-0700 (Pacific Daylight Time)","199224","red","green","","156","","","","choice","","img/green_ww/choose11.jpg","1","211","green","0.5","0.5","0.5","l","","",""
"animation","34","31160","0.0-5.0-2.14","63ee5e103b44d07673cc8bd6","bdp_lott","Sun Apr 09 2023 16:18:14 GMT-0700 (Pacific Daylight Time)","199224","red","green","","","","","","","","","","211","","","","","","[{""stimulus"":""img/green_lw/1.jpg"",""time"":51},{""stimulus"":""img/green_lw/2.jpg"",""time"":101},{""stimulus"":""img/green_lw/3.jpg"",""time"":152},{""stimulus"":""img/green_lw/4.jpg"",""time"":203},{""stimulus"":""img/green_lw/5.jpg"",""time"":252},{""stimulus"":""img/green_lw/6.jpg"",""time"":301},{""stimulus"":""img/green_lw/7.jpg"",""time"":352},{""stimulus"":""img/green_lw/8.jpg"",""time"":402},{""stimulus"":""img/green_lw/9.jpg"",""time"":452},{""stimulus"":""img/green_lw/10.jpg"",""time"":501},{""stimulus"":""img/green_lw/11.jpg"",""time"":552}]","[]",""
"image-keyboard-response","35","31404","0.0-5.0-1.15","63ee5e103b44d07673cc8bd6","bdp_lott","Sun Apr 09 2023 16:18:14 GMT-0700 (Pacific Daylight Time)","199224","red","green","","243","","","","choice","","img/green_lw/choose11.jpg","1","210","green","0.5","0.5","0.5","w","","",""
"animation","36","32004","0.0-5.0-2.15","63ee5e103b44d07673cc8bd6","bdp_lott","Sun Apr 09 2023 16:18:14 GMT-0700 (Pacific Daylight Time)","199224","red","green","","","","","","","","","","210","","","","","","[{""stimulus"":""img/green_ww/1.jpg"",""time"":51},{""stimulus"":""img/green_ww/2.jpg"",""time"":101},{""stimulus"":""img/green_ww/3.jpg"",""time"":151},{""stimulus"":""img/green_ww/4.jpg"",""time"":200},{""stimulus"":""img/green_ww/5.jpg"",""time"":250},{""stimulus"":""img/green_ww/6.jpg"",""time"":301},{""stimulus"":""img/green_ww/7.jpg"",""time"":351},{""stimulus"":""img/green_ww/8.jpg"",""time"":402},{""stimulus"":""img/green_ww/9.jpg"",""time"":452},{""stimulus"":""img/green_ww/10.jpg"",""time"":501},{""stimulus"":""img/green_ww/11.jpg"",""time"":552}]","[]",""
"image-keyboard-response","37","32578","0.0-5.0-1.16","63ee5e103b44d07673cc8bd6","bdp_lott","Sun Apr 09 2023 16:18:14 GMT-0700 (Pacific Daylight Time)","199224","red","green","","573","","","","choice","","img/green_ww/choose11.jpg","2","209","red","0.5","0.5","0.5","w","","",""
"animation","38","33179","0.0-5.0-2.16","63ee5e103b44d07673cc8bd6","bdp_lott","Sun Apr 09 2023 16:18:14 GMT-0700 (Pacific Daylight Time)","199224","red","green","","","","","","","","","","209","","","","","","[{""stimulus"":""img/red_ww/1.jpg"",""time"":52},{""stimulus"":""img/red_ww/2.jpg"",""time"":101},{""stimulus"":""img/red_ww/3.jpg"",""time"":151},{""stimulus"":""img/red_ww/4.jpg"",""time"":201},{""stimulus"":""img/red_ww/5.jpg"",""time"":251},{""stimulus"":""img/red_ww/6.jpg"",""time"":301},{""stimulus"":""img/red_ww/7.jpg"",""time"":352},{""stimulus"":""img/red_ww/8.jpg"",""time"":402},{""stimulus"":""img/red_ww/9.jpg"",""time"":451},{""stimulus"":""img/red_ww/10.jpg"",""time"":502},{""stimulus"":""img/red_ww/11.jpg"",""time"":551}]","[]",""
"image-keyboard-response","39","33517","0.0-5.0-1.17","63ee5e103b44d07673cc8bd6","bdp_lott","Sun Apr 09 2023 16:18:14 GMT-0700 (Pacific Daylight Time)","199224","red","green","","338","","","","choice","","img/red_ww/choose11.jpg","2","208","red","0.5","0.5","0.5","w","","",""
"animation","40","34118","0.0-5.0-2.17","63ee5e103b44d07673cc8bd6","bdp_lott","Sun Apr 09 2023 16:18:14 GMT-0700 (Pacific Daylight Time)","199224","red","green","","","","","","","","","","208","","","","","","[{""stimulus"":""img/red_ww/1.jpg"",""time"":51},{""stimulus"":""img/red_ww/2.jpg"",""time"":101},{""stimulus"":""img/red_ww/3.jpg"",""time"":150},{""stimulus"":""img/red_ww/4.jpg"",""time"":202},{""stimulus"":""img/red_ww/5.jpg"",""time"":250},{""stimulus"":""img/red_ww/6.jpg"",""time"":301},{""stimulus"":""img/red_ww/7.jpg"",""time"":351},{""stimulus"":""img/red_ww/8.jpg"",""time"":400},{""stimulus"":""img/red_ww/9.jpg"",""time"":450},{""stimulus"":""img/red_ww/10.jpg"",""time"":502},{""stimulus"":""img/red_ww/11.jpg"",""time"":552}]","[]",""
"image-keyboard-response","41","34426","0.0-5.0-1.18","63ee5e103b44d07673cc8bd6","bdp_lott","Sun Apr 09 2023 16:18:14 GMT-0700 (Pacific Daylight Time)","199224","red","green","","307","","","","choice","","img/red_ww/choose11.jpg","2","207","red","0.5","0.5","0.5","l","","",""
"animation","42","35028","0.0-5.0-2.18","63ee5e103b44d07673cc8bd6","bdp_lott","Sun Apr 09 2023 16:18:14 GMT-0700 (Pacific Daylight Time)","199224","red","green","","","","","","","","","","207","","","","","","[{""stimulus"":""img/red_wl/1.jpg"",""time"":51},{""stimulus"":""img/red_wl/2.jpg"",""time"":100},{""stimulus"":""img/red_wl/3.jpg"",""time"":151},{""stimulus"":""img/red_wl/4.jpg"",""time"":201},{""stimulus"":""img/red_wl/5.jpg"",""time"":254},{""stimulus"":""img/red_wl/6.jpg"",""time"":301},{""stimulus"":""img/red_wl/7.jpg"",""time"":351},{""stimulus"":""img/red_wl/8.jpg"",""time"":401},{""stimulus"":""img/red_wl/9.jpg"",""time"":451},{""stimulus"":""img/red_wl/10.jpg"",""time"":501},{""stimulus"":""img/red_wl/11.jpg"",""time"":550}]","[]",""
"image-keyboard-response","43","35381","0.0-5.0-1.19","63ee5e103b44d07673cc8bd6","bdp_lott","Sun Apr 09 2023 16:18:14 GMT-0700 (Pacific Daylight Time)","199224","red","green","","352","","","","choice","","img/red_wl/choose11.jpg","2","206","red","0.5","0.5","0.5","l","","",""
"animation","44","35983","0.0-5.0-2.19","63ee5e103b44d07673cc8bd6","bdp_lott","Sun Apr 09 2023 16:18:14 GMT-0700 (Pacific Daylight Time)","199224","red","green","","","","","","","","","","206","","","","","","[{""stimulus"":""img/red_wl/1.jpg"",""time"":51},{""stimulus"":""img/red_wl/2.jpg"",""time"":101},{""stimulus"":""img/red_wl/3.jpg"",""time"":151},{""stimulus"":""img/red_wl/4.jpg"",""time"":201},{""stimulus"":""img/red_wl/5.jpg"",""time"":251},{""stimulus"":""img/red_wl/6.jpg"",""time"":301},{""stimulus"":""img/red_wl/7.jpg"",""time"":351},{""stimulus"":""img/red_wl/8.jpg"",""time"":401},{""stimulus"":""img/red_wl/9.jpg"",""time"":451},{""stimulus"":""img/red_wl/10.jpg"",""time"":501},{""stimulus"":""img/red_wl/11.jpg"",""time"":552}]","[]",""
"image-keyboard-response","45","36282","0.0-5.0-1.20","63ee5e103b44d07673cc8bd6","bdp_lott","Sun Apr 09 2023 16:18:14 GMT-0700 (Pacific Daylight Time)","199224","red","green","","299","","","","choice","","img/red_wl/choose11.jpg","2","205","red","0.5","0.5","0.5","w","","",""
"animation","46","36884","0.0-5.0-2.20","63ee5e103b44d07673cc8bd6","bdp_lott","Sun Apr 09 2023 16:18:14 GMT-0700 (Pacific Daylight Time)","199224","red","green","","","","","","","","","","205","","","","","","[{""stimulus"":""img/red_ww/1.jpg"",""time"":51},{""stimulus"":""img/red_ww/2.jpg"",""time"":101},{""stimulus"":""img/red_ww/3.jpg"",""time"":151},{""stimulus"":""img/red_ww/4.jpg"",""time"":202},{""stimulus"":""img/red_ww/5.jpg"",""time"":251},{""stimulus"":""img/red_ww/6.jpg"",""time"":302},{""stimulus"":""img/red_ww/7.jpg"",""time"":351},{""stimulus"":""img/red_ww/8.jpg"",""time"":402},{""stimulus"":""img/red_ww/9.jpg"",""time"":452},{""stimulus"":""img/red_ww/10.jpg"",""time"":501},{""stimulus"":""img/red_ww/11.jpg"",""time"":552}]","[]",""
"image-keyboard-response","47","37021","0.0-5.0-1.21","63ee5e103b44d07673cc8bd6","bdp_lott","Sun Apr 09 2023 16:18:14 GMT-0700 (Pacific Daylight Time)","199224","red","green","","136","","","","choice","","img/red_ww/choose11.jpg","1","204","green","0.5","0.5","0.5","l","","",""
"animation","48","37622","0.0-5.0-2.21","63ee5e103b44d07673cc8bd6","bdp_lott","Sun Apr 09 2023 16:18:14 GMT-0700 (Pacific Daylight Time)","199224","red","green","","","","","","","","","","204","","","","","","[{""stimulus"":""img/green_lw/1.jpg"",""time"":50},{""stimulus"":""img/green_lw/2.jpg"",""time"":101},{""stimulus"":""img/green_lw/3.jpg"",""time"":151},{""stimulus"":""img/green_lw/4.jpg"",""time"":201},{""stimulus"":""img/green_lw/5.jpg"",""time"":251},{""stimulus"":""img/green_lw/6.jpg"",""time"":301},{""stimulus"":""img/green_lw/7.jpg"",""time"":350},{""stimulus"":""img/green_lw/8.jpg"",""time"":400},{""stimulus"":""img/green_lw/9.jpg"",""time"":451},{""stimulus"":""img/green_lw/10.jpg"",""time"":500},{""stimulus"":""img/green_lw/11.jpg"",""time"":552}]","[]",""
"image-keyboard-response","49","37787","0.0-5.0-1.22","63ee5e103b44d07673cc8bd6","bdp_lott","Sun Apr 09 2023 16:18:14 GMT-0700 (Pacific Daylight Time)","199224","red","green","","164","","","","choice","","img/green_lw/choose11.jpg","2","203","red","0.5","0.5","0.5","w","","",""
"animation","50","38387","0.0-5.0-2.22","63ee5e103b44d07673cc8bd6","bdp_lott","Sun Apr 09 2023 16:18:14 GMT-0700 (Pacific Daylight Time)","199224","red","green","","","","","","","","","","203","","","","","","[{""stimulus"":""img/red_lw/1.jpg"",""time"":51},{""stimulus"":""img/red_lw/2.jpg"",""time"":100},{""stimulus"":""img/red_lw/3.jpg"",""time"":151},{""stimulus"":""img/red_lw/4.jpg"",""time"":201},{""stimulus"":""img/red_lw/5.jpg"",""time"":251},{""stimulus"":""img/red_lw/6.jpg"",""time"":302},{""stimulus"":""img/red_lw/7.jpg"",""time"":351},{""stimulus"":""img/red_lw/8.jpg"",""time"":402},{""stimulus"":""img/red_lw/9.jpg"",""time"":452},{""stimulus"":""img/red_lw/10.jpg"",""time"":501},{""stimulus"":""img/red_lw/11.jpg"",""time"":552}]","[]",""
"image-keyboard-response","51","38587","0.0-5.0-1.23","63ee5e103b44d07673cc8bd6","bdp_lott","Sun Apr 09 2023 16:18:14 GMT-0700 (Pacific Daylight Time)","199224","red","green","","199","","","","choice","","img/red_lw/choose11.jpg","2","202","red","0.5","0.5","0.5","l","","",""
"animation","52","39188","0.0-5.0-2.23","63ee5e103b44d07673cc8bd6","bdp_lott","Sun Apr 09 2023 16:18:14 GMT-0700 (Pacific Daylight Time)","199224","red","green","","","","","","","","","","202","","","","","","[{""stimulus"":""img/red_ll/1.jpg"",""time"":52},{""stimulus"":""img/red_ll/2.jpg"",""time"":101},{""stimulus"":""img/red_ll/3.jpg"",""time"":151},{""stimulus"":""img/red_ll/4.jpg"",""time"":201},{""stimulus"":""img/red_ll/5.jpg"",""time"":250},{""stimulus"":""img/red_ll/6.jpg"",""time"":301},{""stimulus"":""img/red_ll/7.jpg"",""time"":351},{""stimulus"":""img/red_ll/8.jpg"",""time"":401},{""stimulus"":""img/red_ll/9.jpg"",""time"":450},{""stimulus"":""img/red_ll/10.jpg"",""time"":501},{""stimulus"":""img/red_ll/11.jpg"",""time"":550}]","[]",""
"image-keyboard-response","53","39409","0.0-5.0-1.24","63ee5e103b44d07673cc8bd6","bdp_lott","Sun Apr 09 2023 16:18:14 GMT-0700 (Pacific Daylight Time)","199224","red","green","","221","","","","choice","","img/red_ll/choose11.jpg","1","201","green","0.5","0.5","0.5","w","","",""
"animation","54","40010","0.0-5.0-2.24","63ee5e103b44d07673cc8bd6","bdp_lott","Sun Apr 09 2023 16:18:14 GMT-0700 (Pacific Daylight Time)","199224","red","green","","","","","","","","","","201","","","","","","[{""stimulus"":""img/green_wl/1.jpg"",""time"":50},{""stimulus"":""img/green_wl/2.jpg"",""time"":100},{""stimulus"":""img/green_wl/3.jpg"",""time"":151},{""stimulus"":""img/green_wl/4.jpg"",""time"":201},{""stimulus"":""img/green_wl/5.jpg"",""time"":250},{""stimulus"":""img/green_wl/6.jpg"",""time"":301},{""stimulus"":""img/green_wl/7.jpg"",""time"":351},{""stimulus"":""img/green_wl/8.jpg"",""time"":401},{""stimulus"":""img/green_wl/9.jpg"",""time"":451},{""stimulus"":""img/green_wl/10.jpg"",""time"":501},{""stimulus"":""img/green_wl/11.jpg"",""time"":551}]","[]",""
"image-keyboard-response","55","40217","0.0-5.0-1.25","63ee5e103b44d07673cc8bd6","bdp_lott","Sun Apr 09 2023 16:18:14 GMT-0700 (Pacific Daylight Time)","199224","red","green","","207","","","","choice","","img/green_wl/choose11.jpg","2","200","red","0.5","0.5","0.5","w","","",""
"animation","56","40819","0.0-5.0-2.25","63ee5e103b44d07673cc8bd6","bdp_lott","Sun Apr 09 2023 16:18:14 GMT-0700 (Pacific Daylight Time)","199224","red","green","","","","","","","","","","200","","","","","","[{""stimulus"":""img/red_ww/1.jpg"",""time"":52},{""stimulus"":""img/red_ww/2.jpg"",""time"":102},{""stimulus"":""img/red_ww/3.jpg"",""time"":152},{""stimulus"":""img/red_ww/4.jpg"",""time"":201},{""stimulus"":""img/red_ww/5.jpg"",""time"":252},{""stimulus"":""img/red_ww/6.jpg"",""time"":302},{""stimulus"":""img/red_ww/7.jpg"",""time"":351},{""stimulus"":""img/red_ww/8.jpg"",""time"":402},{""stimulus"":""img/red_ww/9.jpg"",""time"":452},{""stimulus"":""img/red_ww/10.jpg"",""time"":502},{""stimulus"":""img/red_ww/11.jpg"",""time"":551}]","[]",""
"image-keyboard-response","57","41019","0.0-5.0-1.26","63ee5e103b44d07673cc8bd6","bdp_lott","Sun Apr 09 2023 16:18:14 GMT-0700 (Pacific Daylight Time)","199224","red","green","","200","","","","choice","","img/red_ww/choose11.jpg","2","199","red","0.5","0.5","0.5","l","","",""
"animation","58","41619","0.0-5.0-2.26","63ee5e103b44d07673cc8bd6","bdp_lott","Sun Apr 09 2023 16:18:14 GMT-0700 (Pacific Daylight Time)","199224","red","green","","","","","","","","","","199","","","","","","[{""stimulus"":""img/red_wl/1.jpg"",""time"":50},{""stimulus"":""img/red_wl/2.jpg"",""time"":101},{""stimulus"":""img/red_wl/3.jpg"",""time"":151},{""stimulus"":""img/red_wl/4.jpg"",""time"":200},{""stimulus"":""img/red_wl/5.jpg"",""time"":251},{""stimulus"":""img/red_wl/6.jpg"",""time"":301},{""stimulus"":""img/red_wl/7.jpg"",""time"":351},{""stimulus"":""img/red_wl/8.jpg"",""time"":401},{""stimulus"":""img/red_wl/9.jpg"",""time"":451},{""stimulus"":""img/red_wl/10.jpg"",""time"":501},{""stimulus"":""img/red_wl/11.jpg"",""time"":551}]","[]",""
"image-keyboard-response","59","41810","0.0-5.0-1.27","63ee5e103b44d07673cc8bd6","bdp_lott","Sun Apr 09 2023 16:18:14 GMT-0700 (Pacific Daylight Time)","199224","red","green","","190","","","","choice","","img/red_wl/choose11.jpg","2","198","red","0.5","0.5","0.5","l","","",""
"animation","60","42411","0.0-5.0-2.27","63ee5e103b44d07673cc8bd6","bdp_lott","Sun Apr 09 2023 16:18:14 GMT-0700 (Pacific Daylight Time)","199224","red","green","","","","","","","","","","198","","","","","","[{""stimulus"":""img/red_wl/1.jpg"",""time"":51},{""stimulus"":""img/red_wl/2.jpg"",""time"":101},{""stimulus"":""img/red_wl/3.jpg"",""time"":151},{""stimulus"":""img/red_wl/4.jpg"",""time"":201},{""stimulus"":""img/red_wl/5.jpg"",""time"":251},{""stimulus"":""img/red_wl/6.jpg"",""time"":302},{""stimulus"":""img/red_wl/7.jpg"",""time"":351},{""stimulus"":""img/red_wl/8.jpg"",""time"":402},{""stimulus"":""img/red_wl/9.jpg"",""time"":451},{""stimulus"":""img/red_wl/10.jpg"",""time"":501},{""stimulus"":""img/red_wl/11.jpg"",""time"":552}]","[]",""
"image-keyboard-response","61","42604","0.0-5.0-1.28","63ee5e103b44d07673cc8bd6","bdp_lott","Sun Apr 09 2023 16:18:14 GMT-0700 (Pacific Daylight Time)","199224","red","green","","193","","","","choice","","img/red_wl/choose11.jpg","1","197","green","0.5","0.5","0.5","w","","",""
"animation","62","43205","0.0-5.0-2.28","63ee5e103b44d07673cc8bd6","bdp_lott","Sun Apr 09 2023 16:18:14 GMT-0700 (Pacific Daylight Time)","199224","red","green","","","","","","","","","","197","","","","","","[{""stimulus"":""img/green_wl/1.jpg"",""time"":51},{""stimulus"":""img/green_wl/2.jpg"",""time"":101},{""stimulus"":""img/green_wl/3.jpg"",""time"":151},{""stimulus"":""img/green_wl/4.jpg"",""time"":201},{""stimulus"":""img/green_wl/5.jpg"",""time"":251},{""stimulus"":""img/green_wl/6.jpg"",""time"":301},{""stimulus"":""img/green_wl/7.jpg"",""time"":351},{""stimulus"":""img/green_wl/8.jpg"",""time"":402},{""stimulus"":""img/green_wl/9.jpg"",""time"":450},{""stimulus"":""img/green_wl/10.jpg"",""time"":500},{""stimulus"":""img/green_wl/11.jpg"",""time"":550}]","[]",""
"image-keyboard-response","63","43237","0.0-5.0-1.29","63ee5e103b44d07673cc8bd6","bdp_lott","Sun Apr 09 2023 16:18:14 GMT-0700 (Pacific Daylight Time)","199224","red","green","","32","","","","choice","","img/green_wl/choose11.jpg","1","196","green","0.5","0.5","0.5","l","","",""
"animation","64","43837","0.0-5.0-2.29","63ee5e103b44d07673cc8bd6","bdp_lott","Sun Apr 09 2023 16:18:14 GMT-0700 (Pacific Daylight Time)","199224","red","green","","","","","","","","","","196","","","","","","[{""stimulus"":""img/green_ll/1.jpg"",""time"":50},{""stimulus"":""img/green_ll/2.jpg"",""time"":101},{""stimulus"":""img/green_ll/3.jpg"",""time"":151},{""stimulus"":""img/green_ll/4.jpg"",""time"":201},{""stimulus"":""img/green_ll/5.jpg"",""time"":251},{""stimulus"":""img/green_ll/6.jpg"",""time"":301},{""stimulus"":""img/green_ll/7.jpg"",""time"":351},{""stimulus"":""img/green_ll/8.jpg"",""time"":401},{""stimulus"":""img/green_ll/9.jpg"",""time"":451},{""stimulus"":""img/green_ll/10.jpg"",""time"":501},{""stimulus"":""img/green_ll/11.jpg"",""time"":551}]","[]",""
"image-keyboard-response","65","43896","0.0-5.0-1.30","63ee5e103b44d07673cc8bd6","bdp_lott","Sun Apr 09 2023 16:18:14 GMT-0700 (Pacific Daylight Time)","199224","red","green","","59","","","","choice","","img/green_ll/choose11.jpg","1","195","green","0.5","0.5","0.5","l","","",""
"animation","66","44497","0.0-5.0-2.30","63ee5e103b44d07673cc8bd6","bdp_lott","Sun Apr 09 2023 16:18:14 GMT-0700 (Pacific Daylight Time)","199224","red","green","","","","","","","","","","195","","","","","","[{""stimulus"":""img/green_ll/1.jpg"",""time"":51},{""stimulus"":""img/green_ll/2.jpg"",""time"":101},{""stimulus"":""img/green_ll/3.jpg"",""time"":151},{""stimulus"":""img/green_ll/4.jpg"",""time"":201},{""stimulus"":""img/green_ll/5.jpg"",""time"":251},{""stimulus"":""img/green_ll/6.jpg"",""time"":301},{""stimulus"":""img/green_ll/7.jpg"",""time"":351},{""stimulus"":""img/green_ll/8.jpg"",""time"":401},{""stimulus"":""img/green_ll/9.jpg"",""time"":452},{""stimulus"":""img/green_ll/10.jpg"",""time"":501},{""stimulus"":""img/green_ll/11.jpg"",""time"":550}]","[]",""
"image-keyboard-response","67","45008","0.0-5.0-1.31","63ee5e103b44d07673cc8bd6","bdp_lott","Sun Apr 09 2023 16:18:14 GMT-0700 (Pacific Daylight Time)","199224","red","green","","511","","","","choice","","img/green_ll/choose11.jpg","2","194","red","0.5","0.5","0.5","l","","",""
"animation","68","45609","0.0-5.0-2.31","63ee5e103b44d07673cc8bd6","bdp_lott","Sun Apr 09 2023 16:18:14 GMT-0700 (Pacific Daylight Time)","199224","red","green","","","","","","","","","","194","","","","","","[{""stimulus"":""img/red_ll/1.jpg"",""time"":52},{""stimulus"":""img/red_ll/2.jpg"",""time"":101},{""stimulus"":""img/red_ll/3.jpg"",""time"":151},{""stimulus"":""img/red_ll/4.jpg"",""time"":201},{""stimulus"":""img/red_ll/5.jpg"",""time"":251},{""stimulus"":""img/red_ll/6.jpg"",""time"":301},{""stimulus"":""img/red_ll/7.jpg"",""time"":351},{""stimulus"":""img/red_ll/8.jpg"",""time"":401},{""stimulus"":""img/red_ll/9.jpg"",""time"":451},{""stimulus"":""img/red_ll/10.jpg"",""time"":500},{""stimulus"":""img/red_ll/11.jpg"",""time"":551}]","[]",""
"image-keyboard-response","69","45780","0.0-5.0-1.32","63ee5e103b44d07673cc8bd6","bdp_lott","Sun Apr 09 2023 16:18:14 GMT-0700 (Pacific Daylight Time)","199224","red","green","","171","","","","choice","","img/red_ll/choose11.jpg","2","193","red","0.5","0.5","0.5","l","","",""
"animation","70","46381","0.0-5.0-2.32","63ee5e103b44d07673cc8bd6","bdp_lott","Sun Apr 09 2023 16:18:14 GMT-0700 (Pacific Daylight Time)","199224","red","green","","","","","","","","","","193","","","","","","[{""stimulus"":""img/red_ll/1.jpg"",""time"":51},{""stimulus"":""img/red_ll/2.jpg"",""time"":100},{""stimulus"":""img/red_ll/3.jpg"",""time"":151},{""stimulus"":""img/red_ll/4.jpg"",""time"":200},{""stimulus"":""img/red_ll/5.jpg"",""time"":251},{""stimulus"":""img/red_ll/6.jpg"",""time"":301},{""stimulus"":""img/red_ll/7.jpg"",""time"":351},{""stimulus"":""img/red_ll/8.jpg"",""time"":401},{""stimulus"":""img/red_ll/9.jpg"",""time"":450},{""stimulus"":""img/red_ll/10.jpg"",""time"":500},{""stimulus"":""img/red_ll/11.jpg"",""time"":550}]","[]",""
"image-keyboard-response","71","46540","0.0-5.0-1.33","63ee5e103b44d07673cc8bd6","bdp_lott","Sun Apr 09 2023 16:18:14 GMT-0700 (Pacific Daylight Time)","199224","red","green","","159","","","","choice","","img/red_ll/choose11.jpg","2","192","red","0.5","0.5","0.5","w","","",""
"animation","72","47140","0.0-5.0-2.33","63ee5e103b44d07673cc8bd6","bdp_lott","Sun Apr 09 2023 16:18:14 GMT-0700 (Pacific Daylight Time)","199224","red","green","","","","","","","","","","192","","","","","","[{""stimulus"":""img/red_lw/1.jpg"",""time"":52},{""stimulus"":""img/red_lw/2.jpg"",""time"":100},{""stimulus"":""img/red_lw/3.jpg"",""time"":150},{""stimulus"":""img/red_lw/4.jpg"",""time"":201},{""stimulus"":""img/red_lw/5.jpg"",""time"":251},{""stimulus"":""img/red_lw/6.jpg"",""time"":301},{""stimulus"":""img/red_lw/7.jpg"",""time"":351},{""stimulus"":""img/red_lw/8.jpg"",""time"":401},{""stimulus"":""img/red_lw/9.jpg"",""time"":451},{""stimulus"":""img/red_lw/10.jpg"",""time"":501},{""stimulus"":""img/red_lw/11.jpg"",""time"":559}]","[]",""
"image-keyboard-response","73","47153","0.0-5.0-1.34","63ee5e103b44d07673cc8bd6","bdp_lott","Sun Apr 09 2023 16:18:14 GMT-0700 (Pacific Daylight Time)","199224","red","green","","12","","","","choice","","img/red_lw/choose11.jpg","2","191","red","0.5","0.5","0.5","w","","",""
"animation","74","47754","0.0-5.0-2.34","63ee5e103b44d07673cc8bd6","bdp_lott","Sun Apr 09 2023 16:18:14 GMT-0700 (Pacific Daylight Time)","199224","red","green","","","","","","","","","","191","","","","","","[{""stimulus"":""img/red_lw/1.jpg"",""time"":51},{""stimulus"":""img/red_lw/2.jpg"",""time"":102},{""stimulus"":""img/red_lw/3.jpg"",""time"":153},{""stimulus"":""img/red_lw/4.jpg"",""time"":201},{""stimulus"":""img/red_lw/5.jpg"",""time"":252},{""stimulus"":""img/red_lw/6.jpg"",""time"":302},{""stimulus"":""img/red_lw/7.jpg"",""time"":352},{""stimulus"":""img/red_lw/8.jpg"",""time"":403},{""stimulus"":""img/red_lw/9.jpg"",""time"":451},{""stimulus"":""img/red_lw/10.jpg"",""time"":502},{""stimulus"":""img/red_lw/11.jpg"",""time"":553}]","[]",""
"image-keyboard-response","75","47936","0.0-5.0-1.35","63ee5e103b44d07673cc8bd6","bdp_lott","Sun Apr 09 2023 16:18:14 GMT-0700 (Pacific Daylight Time)","199224","red","green","","180","","","","choice","","img/red_lw/choose11.jpg","2","190","red","0.5","0.5","0.5","w","","",""
"animation","76","48537","0.0-5.0-2.35","63ee5e103b44d07673cc8bd6","bdp_lott","Sun Apr 09 2023 16:18:14 GMT-0700 (Pacific Daylight Time)","199224","red","green","","","","","","","","","","190","","","","","","[{""stimulus"":""img/red_lw/1.jpg"",""time"":51},{""stimulus"":""img/red_lw/2.jpg"",""time"":100},{""stimulus"":""img/red_lw/3.jpg"",""time"":151},{""stimulus"":""img/red_lw/4.jpg"",""time"":200},{""stimulus"":""img/red_lw/5.jpg"",""time"":250},{""stimulus"":""img/red_lw/6.jpg"",""time"":300},{""stimulus"":""img/red_lw/7.jpg"",""time"":352},{""stimulus"":""img/red_lw/8.jpg"",""time"":401},{""stimulus"":""img/red_lw/9.jpg"",""time"":450},{""stimulus"":""img/red_lw/10.jpg"",""time"":500},{""stimulus"":""img/red_lw/11.jpg"",""time"":551}]","[]",""
"image-keyboard-response","77","48759","0.0-5.0-1.36","63ee5e103b44d07673cc8bd6","bdp_lott","Sun Apr 09 2023 16:18:14 GMT-0700 (Pacific Daylight Time)","199224","red","green","","222","","","","choice","","img/red_lw/choose11.jpg","2","189","red","0.5","0.5","0.5","w","","",""
"animation","78","49361","0.0-5.0-2.36","63ee5e103b44d07673cc8bd6","bdp_lott","Sun Apr 09 2023 16:18:14 GMT-0700 (Pacific Daylight Time)","199224","red","green","","","","","","","","","","189","","","","","","[{""stimulus"":""img/red_lw/1.jpg"",""time"":51},{""stimulus"":""img/red_lw/2.jpg"",""time"":101},{""stimulus"":""img/red_lw/3.jpg"",""time"":151},{""stimulus"":""img/red_lw/4.jpg"",""time"":201},{""stimulus"":""img/red_lw/5.jpg"",""time"":251},{""stimulus"":""img/red_lw/6.jpg"",""time"":301},{""stimulus"":""img/red_lw/7.jpg"",""time"":351},{""stimulus"":""img/red_lw/8.jpg"",""time"":401},{""stimulus"":""img/red_lw/9.jpg"",""time"":451},{""stimulus"":""img/red_lw/10.jpg"",""time"":501},{""stimulus"":""img/red_lw/11.jpg"",""time"":551}]","[]",""
"image-keyboard-response","79","49500","0.0-5.0-1.37","63ee5e103b44d07673cc8bd6","bdp_lott","Sun Apr 09 2023 16:18:14 GMT-0700 (Pacific Daylight Time)","199224","red","green","","139","","","","choice","","img/red_lw/choose11.jpg","1","188","green","0.5","0.5","0.5","l","","",""
"animation","80","50101","0.0-5.0-2.37","63ee5e103b44d07673cc8bd6","bdp_lott","Sun Apr 09 2023 16:18:14 GMT-0700 (Pacific Daylight Time)","199224","red","green","","","","","","","","","","188","","","","","","[{""stimulus"":""img/green_lw/1.jpg"",""time"":51},{""stimulus"":""img/green_lw/2.jpg"",""time"":102},{""stimulus"":""img/green_lw/3.jpg"",""time"":151},{""stimulus"":""img/green_lw/4.jpg"",""time"":201},{""stimulus"":""img/green_lw/5.jpg"",""time"":251},{""stimulus"":""img/green_lw/6.jpg"",""time"":301},{""stimulus"":""img/green_lw/7.jpg"",""time"":351},{""stimulus"":""img/green_lw/8.jpg"",""time"":400},{""stimulus"":""img/green_lw/9.jpg"",""time"":451},{""stimulus"":""img/green_lw/10.jpg"",""time"":501},{""stimulus"":""img/green_lw/11.jpg"",""time"":551}]","[]",""
"image-keyboard-response","81","50222","0.0-5.0-1.38","63ee5e103b44d07673cc8bd6","bdp_lott","Sun Apr 09 2023 16:18:14 GMT-0700 (Pacific Daylight Time)","199224","red","green","","121","","","","choice","","img/green_lw/choose11.jpg","1","187","green","0.5","0.5","0.5","l","","",""
"animation","82","50824","0.0-5.0-2.38","63ee5e103b44d07673cc8bd6","bdp_lott","Sun Apr 09 2023 16:18:14 GMT-0700 (Pacific Daylight Time)","199224","red","green","","","","","","","","","","187","","","","","","[{""stimulus"":""img/green_lw/1.jpg"",""time"":51},{""stimulus"":""img/green_lw/2.jpg"",""time"":104},{""stimulus"":""img/green_lw/3.jpg"",""time"":151},{""stimulus"":""img/green_lw/4.jpg"",""time"":201},{""stimulus"":""img/green_lw/5.jpg"",""time"":252},{""stimulus"":""img/green_lw/6.jpg"",""time"":302},{""stimulus"":""img/green_lw/7.jpg"",""time"":351},{""stimulus"":""img/green_lw/8.jpg"",""time"":402},{""stimulus"":""img/green_lw/9.jpg"",""time"":452},{""stimulus"":""img/green_lw/10.jpg"",""time"":502},{""stimulus"":""img/green_lw/11.jpg"",""time"":551}]","[]",""
"image-keyboard-response","83","51058","0.0-5.0-1.39","63ee5e103b44d07673cc8bd6","bdp_lott","Sun Apr 09 2023 16:18:14 GMT-0700 (Pacific Daylight Time)","199224","red","green","","234","","","","choice","","img/green_lw/choose11.jpg","1","186","green","0.5","0.5","0.5","w","","",""
"animation","84","51659","0.0-5.0-2.39","63ee5e103b44d07673cc8bd6","bdp_lott","Sun Apr 09 2023 16:18:14 GMT-0700 (Pacific Daylight Time)","199224","red","green","","","","","","","","","","186","","","","","","[{""stimulus"":""img/green_ww/1.jpg"",""time"":50},{""stimulus"":""img/green_ww/2.jpg"",""time"":100},{""stimulus"":""img/green_ww/3.jpg"",""time"":151},{""stimulus"":""img/green_ww/4.jpg"",""time"":200},{""stimulus"":""img/green_ww/5.jpg"",""time"":251},{""stimulus"":""img/green_ww/6.jpg"",""time"":302},{""stimulus"":""img/green_ww/7.jpg"",""time"":351},{""stimulus"":""img/green_ww/8.jpg"",""time"":400},{""stimulus"":""img/green_ww/9.jpg"",""time"":451},{""stimulus"":""img/green_ww/10.jpg"",""time"":501},{""stimulus"":""img/green_ww/11.jpg"",""time"":551}]","[]",""
"image-keyboard-response","85","51917","0.0-5.0-1.40","63ee5e103b44d07673cc8bd6","bdp_lott","Sun Apr 09 2023 16:18:14 GMT-0700 (Pacific Daylight Time)","199224","red","green","","258","","","","choice","","img/green_ww/choose11.jpg","2","185","red","0.5","0.5","0.5","l","","",""
"animation","86","52518","0.0-5.0-2.40","63ee5e103b44d07673cc8bd6","bdp_lott","Sun Apr 09 2023 16:18:14 GMT-0700 (Pacific Daylight Time)","199224","red","green","","","","","","","","","","185","","","","","","[{""stimulus"":""img/red_wl/1.jpg"",""time"":51},{""stimulus"":""img/red_wl/2.jpg"",""time"":101},{""stimulus"":""img/red_wl/3.jpg"",""time"":151},{""stimulus"":""img/red_wl/4.jpg"",""time"":201},{""stimulus"":""img/red_wl/5.jpg"",""time"":251},{""stimulus"":""img/red_wl/6.jpg"",""time"":302},{""stimulus"":""img/red_wl/7.jpg"",""time"":352},{""stimulus"":""img/red_wl/8.jpg"",""time"":402},{""stimulus"":""img/red_wl/9.jpg"",""time"":452},{""stimulus"":""img/red_wl/10.jpg"",""time"":501},{""stimulus"":""img/red_wl/11.jpg"",""time"":552}]","[]",""
"image-keyboard-response","87","52761","0.0-5.0-1.41","63ee5e103b44d07673cc8bd6","bdp_lott","Sun Apr 09 2023 16:18:14 GMT-0700 (Pacific Daylight Time)","199224","red","green","","243","","","","choice","","img/red_wl/choose11.jpg","1","184","green","0.5","0.5","0.5","w","","",""
"animation","88","53362","0.0-5.0-2.41","63ee5e103b44d07673cc8bd6","bdp_lott","Sun Apr 09 2023 16:18:14 GMT-0700 (Pacific Daylight Time)","199224","red","green","","","","","","","","","","184","","","","","","[{""stimulus"":""img/green_wl/1.jpg"",""time"":51},{""stimulus"":""img/green_wl/2.jpg"",""time"":101},{""stimulus"":""img/green_wl/3.jpg"",""time"":152},{""stimulus"":""img/green_wl/4.jpg"",""time"":201},{""stimulus"":""img/green_wl/5.jpg"",""time"":251},{""stimulus"":""img/green_wl/6.jpg"",""time"":300},{""stimulus"":""img/green_wl/7.jpg"",""time"":351},{""stimulus"":""img/green_wl/8.jpg"",""time"":401},{""stimulus"":""img/green_wl/9.jpg"",""time"":451},{""stimulus"":""img/green_wl/10.jpg"",""time"":501},{""stimulus"":""img/green_wl/11.jpg"",""time"":550}]","[]",""
"image-keyboard-response","89","53580","0.0-5.0-1.42","63ee5e103b44d07673cc8bd6","bdp_lott","Sun Apr 09 2023 16:18:14 GMT-0700 (Pacific Daylight Time)","199224","red","green","","217","","","","choice","","img/green_wl/choose11.jpg","1","183","green","0.5","0.5","0.5","w","","",""
"animation","90","54180","0.0-5.0-2.42","63ee5e103b44d07673cc8bd6","bdp_lott","Sun Apr 09 2023 16:18:14 GMT-0700 (Pacific Daylight Time)","199224","red","green","","","","","","","","","","183","","","","","","[{""stimulus"":""img/green_wl/1.jpg"",""time"":51},{""stimulus"":""img/green_wl/2.jpg"",""time"":101},{""stimulus"":""img/green_wl/3.jpg"",""time"":151},{""stimulus"":""img/green_wl/4.jpg"",""time"":201},{""stimulus"":""img/green_wl/5.jpg"",""time"":251},{""stimulus"":""img/green_wl/6.jpg"",""time"":301},{""stimulus"":""img/green_wl/7.jpg"",""time"":351},{""stimulus"":""img/green_wl/8.jpg"",""time"":401},{""stimulus"":""img/green_wl/9.jpg"",""time"":451},{""stimulus"":""img/green_wl/10.jpg"",""time"":501},{""stimulus"":""img/green_wl/11.jpg"",""time"":550}]","[]",""
"image-keyboard-response","91","54534","0.0-5.0-1.43","63ee5e103b44d07673cc8bd6","bdp_lott","Sun Apr 09 2023 16:18:14 GMT-0700 (Pacific Daylight Time)","199224","red","green","","353","","","","choice","","img/green_wl/choose11.jpg","1","182","green","0.5","0.5","0.5","l","","",""
"animation","92","55136","0.0-5.0-2.43","63ee5e103b44d07673cc8bd6","bdp_lott","Sun Apr 09 2023 16:18:14 GMT-0700 (Pacific Daylight Time)","199224","red","green","","","","","","","","","","182","","","","","","[{""stimulus"":""img/green_ll/1.jpg"",""time"":51},{""stimulus"":""img/green_ll/2.jpg"",""time"":101},{""stimulus"":""img/green_ll/3.jpg"",""time"":151},{""stimulus"":""img/green_ll/4.jpg"",""time"":201},{""stimulus"":""img/green_ll/5.jpg"",""time"":250},{""stimulus"":""img/green_ll/6.jpg"",""time"":302},{""stimulus"":""img/green_ll/7.jpg"",""time"":351},{""stimulus"":""img/green_ll/8.jpg"",""time"":402},{""stimulus"":""img/green_ll/9.jpg"",""time"":450},{""stimulus"":""img/green_ll/10.jpg"",""time"":501},{""stimulus"":""img/green_ll/11.jpg"",""time"":551}]","[]",""
"image-keyboard-response","93","55610","0.0-5.0-1.44","63ee5e103b44d07673cc8bd6","bdp_lott","Sun Apr 09 2023 16:18:14 GMT-0700 (Pacific Daylight Time)","199224","red","green","","474","","","","choice","","img/green_ll/choose11.jpg","2","181","red","0.5","0.5","0.5","l","","",""
"animation","94","56211","0.0-5.0-2.44","63ee5e103b44d07673cc8bd6","bdp_lott","Sun Apr 09 2023 16:18:14 GMT-0700 (Pacific Daylight Time)","199224","red","green","","","","","","","","","","181","","","","","","[{""stimulus"":""img/red_ll/1.jpg"",""time"":51},{""stimulus"":""img/red_ll/2.jpg"",""time"":103},{""stimulus"":""img/red_ll/3.jpg"",""time"":151},{""stimulus"":""img/red_ll/4.jpg"",""time"":201},{""stimulus"":""img/red_ll/5.jpg"",""time"":251},{""stimulus"":""img/red_ll/6.jpg"",""time"":302},{""stimulus"":""img/red_ll/7.jpg"",""time"":351},{""stimulus"":""img/red_ll/8.jpg"",""time"":402},{""stimulus"":""img/red_ll/9.jpg"",""time"":451},{""stimulus"":""img/red_ll/10.jpg"",""time"":500},{""stimulus"":""img/red_ll/11.jpg"",""time"":551}]","[]",""
"image-keyboard-response","95","56497","0.0-5.0-1.45","63ee5e103b44d07673cc8bd6","bdp_lott","Sun Apr 09 2023 16:18:14 GMT-0700 (Pacific Daylight Time)","199224","red","green","","286","","","","choice","","img/red_ll/choose11.jpg","2","180","red","0.5","0.5","0.5","w","","",""
"animation","96","57098","0.0-5.0-2.45","63ee5e103b44d07673cc8bd6","bdp_lott","Sun Apr 09 2023 16:18:14 GMT-0700 (Pacific Daylight Time)","199224","red","green","","","","","","","","","","180","","","","","","[{""stimulus"":""img/red_lw/1.jpg"",""time"":50},{""stimulus"":""img/red_lw/2.jpg"",""time"":101},{""stimulus"":""img/red_lw/3.jpg"",""time"":150},{""stimulus"":""img/red_lw/4.jpg"",""time"":201},{""stimulus"":""img/red_lw/5.jpg"",""time"":251},{""stimulus"":""img/red_lw/6.jpg"",""time"":302},{""stimulus"":""img/red_lw/7.jpg"",""time"":351},{""stimulus"":""img/red_lw/8.jpg"",""time"":401},{""stimulus"":""img/red_lw/9.jpg"",""time"":450},{""stimulus"":""img/red_lw/10.jpg"",""time"":501},{""stimulus"":""img/red_lw/11.jpg"",""time"":550}]","[]",""
"image-keyboard-response","97","57281","0.0-5.0-1.46","63ee5e103b44d07673cc8bd6","bdp_lott","Sun Apr 09 2023 16:18:14 GMT-0700 (Pacific Daylight Time)","199224","red","green","","182","","","","choice","","img/red_lw/choose11.jpg","2","179","red","0.5","0.5","0.5","w","","",""
"animation","98","57882","0.0-5.0-2.46","63ee5e103b44d07673cc8bd6","bdp_lott","Sun Apr 09 2023 16:18:14 GMT-0700 (Pacific Daylight Time)","199224","red","green","","","","","","","","","","179","","","","","","[{""stimulus"":""img/red_lw/1.jpg"",""time"":52},{""stimulus"":""img/red_lw/2.jpg"",""time"":101},{""stimulus"":""img/red_lw/3.jpg"",""time"":151},{""stimulus"":""img/red_lw/4.jpg"",""time"":201},{""stimulus"":""img/red_lw/5.jpg"",""time"":251},{""stimulus"":""img/red_lw/6.jpg"",""time"":302},{""stimulus"":""img/red_lw/7.jpg"",""time"":352},{""stimulus"":""img/red_lw/8.jpg"",""time"":401},{""stimulus"":""img/red_lw/9.jpg"",""time"":451},{""stimulus"":""img/red_lw/10.jpg"",""time"":501},{""stimulus"":""img/red_lw/11.jpg"",""time"":551}]","[]",""
"image-keyboard-response","99","58145","0.0-5.0-1.47","63ee5e103b44d07673cc8bd6","bdp_lott","Sun Apr 09 2023 16:18:14 GMT-0700 (Pacific Daylight Time)","199224","red","green","","263","","","","choice","","img/red_lw/choose11.jpg","2","178","red","0.5","0.5","0.5","w","","",""
"animation","100","58746","0.0-5.0-2.47","63ee5e103b44d07673cc8bd6","bdp_lott","Sun Apr 09 2023 16:18:14 GMT-0700 (Pacific Daylight Time)","199224","red","green","","","","","","","","","","178","","","","","","[{""stimulus"":""img/red_lw/1.jpg"",""time"":51},{""stimulus"":""img/red_lw/2.jpg"",""time"":101},{""stimulus"":""img/red_lw/3.jpg"",""time"":152},{""stimulus"":""img/red_lw/4.jpg"",""time"":201},{""stimulus"":""img/red_lw/5.jpg"",""time"":251},{""stimulus"":""img/red_lw/6.jpg"",""time"":301},{""stimulus"":""img/red_lw/7.jpg"",""time"":351},{""stimulus"":""img/red_lw/8.jpg"",""time"":401},{""stimulus"":""img/red_lw/9.jpg"",""time"":451},{""stimulus"":""img/red_lw/10.jpg"",""time"":501},{""stimulus"":""img/red_lw/11.jpg"",""time"":551}]","[]",""
"image-keyboard-response","101","59162","0.0-5.0-1.48","63ee5e103b44d07673cc8bd6","bdp_lott","Sun Apr 09 2023 16:18:14 GMT-0700 (Pacific Daylight Time)","199224","red","green","","416","","","","choice","","img/red_lw/choose11.jpg","2","177","red","0.5","0.5","0.5","w","","",""
"animation","102","59762","0.0-5.0-2.48","63ee5e103b44d07673cc8bd6","bdp_lott","Sun Apr 09 2023 16:18:14 GMT-0700 (Pacific Daylight Time)","199224","red","green","","","","","","","","","","177","","","","","","[{""stimulus"":""img/red_lw/1.jpg"",""time"":52},{""stimulus"":""img/red_lw/2.jpg"",""time"":102},{""stimulus"":""img/red_lw/3.jpg"",""time"":152},{""stimulus"":""img/red_lw/4.jpg"",""time"":201},{""stimulus"":""img/red_lw/5.jpg"",""time"":251},{""stimulus"":""img/red_lw/6.jpg"",""time"":301},{""stimulus"":""img/red_lw/7.jpg"",""time"":351},{""stimulus"":""img/red_lw/8.jpg"",""time"":401},{""stimulus"":""img/red_lw/9.jpg"",""time"":451},{""stimulus"":""img/red_lw/10.jpg"",""time"":501},{""stimulus"":""img/red_lw/11.jpg"",""time"":551}]","[]",""
"image-keyboard-response","103","60122","0.0-5.0-1.49","63ee5e103b44d07673cc8bd6","bdp_lott","Sun Apr 09 2023 16:18:14 GMT-0700 (Pacific Daylight Time)","199224","red","green","","359","","","","choice","","img/red_lw/choose11.jpg","1","176","green","0.5","0.5","0.5","l","","",""
"animation","104","60723","0.0-5.0-2.49","63ee5e103b44d07673cc8bd6","bdp_lott","Sun Apr 09 2023 16:18:14 GMT-0700 (Pacific Daylight Time)","199224","red","green","","","","","","","","","","176","","","","","","[{""stimulus"":""img/green_lw/1.jpg"",""time"":50},{""stimulus"":""img/green_lw/2.jpg"",""time"":101},{""stimulus"":""img/green_lw/3.jpg"",""time"":151},{""stimulus"":""img/green_lw/4.jpg"",""time"":201},{""stimulus"":""img/green_lw/5.jpg"",""time"":251},{""stimulus"":""img/green_lw/6.jpg"",""time"":300},{""stimulus"":""img/green_lw/7.jpg"",""time"":352},{""stimulus"":""img/green_lw/8.jpg"",""time"":401},{""stimulus"":""img/green_lw/9.jpg"",""time"":451},{""stimulus"":""img/green_lw/10.jpg"",""time"":501},{""stimulus"":""img/green_lw/11.jpg"",""time"":552}]","[]",""
"image-keyboard-response","105","60928","0.0-5.0-1.50","63ee5e103b44d07673cc8bd6","bdp_lott","Sun Apr 09 2023 16:18:14 GMT-0700 (Pacific Daylight Time)","199224","red","green","","204","","","","choice","","img/green_lw/choose11.jpg","1","175","green","0.5","0.5","0.5","w","","",""
"animation","106","61529","0.0-5.0-2.50","63ee5e103b44d07673cc8bd6","bdp_lott","Sun Apr 09 2023 16:18:14 GMT-0700 (Pacific Daylight Time)","199224","red","green","","","","","","","","","","175","","","","","","[{""stimulus"":""img/green_ww/1.jpg"",""time"":51},{""stimulus"":""img/green_ww/2.jpg"",""time"":101},{""stimulus"":""img/green_ww/3.jpg"",""time"":151},{""stimulus"":""img/green_ww/4.jpg"",""time"":202},{""stimulus"":""img/green_ww/5.jpg"",""time"":251},{""stimulus"":""img/green_ww/6.jpg"",""time"":300},{""stimulus"":""img/green_ww/7.jpg"",""time"":351},{""stimulus"":""img/green_ww/8.jpg"",""time"":402},{""stimulus"":""img/green_ww/9.jpg"",""time"":450},{""stimulus"":""img/green_ww/10.jpg"",""time"":500},{""stimulus"":""img/green_ww/11.jpg"",""time"":550}]","[]",""
"image-keyboard-response","107","61799","0.0-5.0-1.51","63ee5e103b44d07673cc8bd6","bdp_lott","Sun Apr 09 2023 16:18:14 GMT-0700 (Pacific Daylight Time)","199224","red","green","","269","","","","choice","","img/green_ww/choose11.jpg","1","174","green","0.5","0.5","0.5","l","","",""
"animation","108","62400","0.0-5.0-2.51","63ee5e103b44d07673cc8bd6","bdp_lott","Sun Apr 09 2023 16:18:14 GMT-0700 (Pacific Daylight Time)","199224","red","green","","","","","","","","","","174","","","","","","[{""stimulus"":""img/green_lw/1.jpg"",""time"":51},{""stimulus"":""img/green_lw/2.jpg"",""time"":101},{""stimulus"":""img/green_lw/3.jpg"",""time"":165},{""stimulus"":""img/green_lw/4.jpg"",""time"":201},{""stimulus"":""img/green_lw/5.jpg"",""time"":251},{""stimulus"":""img/green_lw/6.jpg"",""time"":301},{""stimulus"":""img/green_lw/7.jpg"",""time"":351},{""stimulus"":""img/green_lw/8.jpg"",""time"":400},{""stimulus"":""img/green_lw/9.jpg"",""time"":451},{""stimulus"":""img/green_lw/10.jpg"",""time"":500},{""stimulus"":""img/green_lw/11.jpg"",""time"":550}]","[]",""
"image-keyboard-response","109","62599","0.0-5.0-1.52","63ee5e103b44d07673cc8bd6","bdp_lott","Sun Apr 09 2023 16:18:14 GMT-0700 (Pacific Daylight Time)","199224","red","green","","198","","","","choice","","img/green_lw/choose11.jpg","1","173","green","0.5","0.5","0.5","l","","",""
"animation","110","63200","0.0-5.0-2.52","63ee5e103b44d07673cc8bd6","bdp_lott","Sun Apr 09 2023 16:18:14 GMT-0700 (Pacific Daylight Time)","199224","red","green","","","","","","","","","","173","","","","","","[{""stimulus"":""img/green_lw/1.jpg"",""time"":51},{""stimulus"":""img/green_lw/2.jpg"",""time"":101},{""stimulus"":""img/green_lw/3.jpg"",""time"":152},{""stimulus"":""img/green_lw/4.jpg"",""time"":201},{""stimulus"":""img/green_lw/5.jpg"",""time"":251},{""stimulus"":""img/green_lw/6.jpg"",""time"":301},{""stimulus"":""img/green_lw/7.jpg"",""time"":351},{""stimulus"":""img/green_lw/8.jpg"",""time"":409},{""stimulus"":""img/green_lw/9.jpg"",""time"":451},{""stimulus"":""img/green_lw/10.jpg"",""time"":502},{""stimulus"":""img/green_lw/11.jpg"",""time"":551}]","[]",""
"image-keyboard-response","111","63472","0.0-5.0-1.53","63ee5e103b44d07673cc8bd6","bdp_lott","Sun Apr 09 2023 16:18:14 GMT-0700 (Pacific Daylight Time)","199224","red","green","","272","","","","choice","","img/green_lw/choose11.jpg","1","172","green","0.5","0.5","0.5","w","","",""
"animation","112","64072","0.0-5.0-2.53","63ee5e103b44d07673cc8bd6","bdp_lott","Sun Apr 09 2023 16:18:14 GMT-0700 (Pacific Daylight Time)","199224","red","green","","","","","","","","","","172","","","","","","[{""stimulus"":""img/green_ww/1.jpg"",""time"":51},{""stimulus"":""img/green_ww/2.jpg"",""time"":102},{""stimulus"":""img/green_ww/3.jpg"",""time"":150},{""stimulus"":""img/green_ww/4.jpg"",""time"":201},{""stimulus"":""img/green_ww/5.jpg"",""time"":251},{""stimulus"":""img/green_ww/6.jpg"",""time"":301},{""stimulus"":""img/green_ww/7.jpg"",""time"":350},{""stimulus"":""img/green_ww/8.jpg"",""time"":401},{""stimulus"":""img/green_ww/9.jpg"",""time"":451},{""stimulus"":""img/green_ww/10.jpg"",""time"":501},{""stimulus"":""img/green_ww/11.jpg"",""time"":550}]","[]",""
"image-keyboard-response","113","64447","0.0-5.0-1.54","63ee5e103b44d07673cc8bd6","bdp_lott","Sun Apr 09 2023 16:18:14 GMT-0700 (Pacific Daylight Time)","199224","red","green","","374","","","","choice","","img/green_ww/choose11.jpg","2","171","red","0.5","0.5","0.5","l","","",""
"animation","114","65048","0.0-5.0-2.54","63ee5e103b44d07673cc8bd6","bdp_lott","Sun Apr 09 2023 16:18:14 GMT-0700 (Pacific Daylight Time)","199224","red","green","","","","","","","","","","171","","","","","","[{""stimulus"":""img/red_wl/1.jpg"",""time"":52},{""stimulus"":""img/red_wl/2.jpg"",""time"":102},{""stimulus"":""img/red_wl/3.jpg"",""time"":151},{""stimulus"":""img/red_wl/4.jpg"",""time"":202},{""stimulus"":""img/red_wl/5.jpg"",""time"":251},{""stimulus"":""img/red_wl/6.jpg"",""time"":302},{""stimulus"":""img/red_wl/7.jpg"",""time"":352},{""stimulus"":""img/red_wl/8.jpg"",""time"":402},{""stimulus"":""img/red_wl/9.jpg"",""time"":451},{""stimulus"":""img/red_wl/10.jpg"",""time"":501},{""stimulus"":""img/red_wl/11.jpg"",""time"":552}]","[]",""
"image-keyboard-response","115","65347","0.0-5.0-1.55","63ee5e103b44d07673cc8bd6","bdp_lott","Sun Apr 09 2023 16:18:14 GMT-0700 (Pacific Daylight Time)","199224","red","green","","298","","","","choice","","img/red_wl/choose11.jpg","2","170","red","0.5","0.5","0.5","l","","",""
"animation","116","65949","0.0-5.0-2.55","63ee5e103b44d07673cc8bd6","bdp_lott","Sun Apr 09 2023 16:18:14 GMT-0700 (Pacific Daylight Time)","199224","red","green","","","","","","","","","","170","","","","","","[{""stimulus"":""img/red_wl/1.jpg"",""time"":52},{""stimulus"":""img/red_wl/2.jpg"",""time"":101},{""stimulus"":""img/red_wl/3.jpg"",""time"":151},{""stimulus"":""img/red_wl/4.jpg"",""time"":201},{""stimulus"":""img/red_wl/5.jpg"",""time"":251},{""stimulus"":""img/red_wl/6.jpg"",""time"":301},{""stimulus"":""img/red_wl/7.jpg"",""time"":351},{""stimulus"":""img/red_wl/8.jpg"",""time"":401},{""stimulus"":""img/red_wl/9.jpg"",""time"":452},{""stimulus"":""img/red_wl/10.jpg"",""time"":501},{""stimulus"":""img/red_wl/11.jpg"",""time"":551}]","[]",""
"image-keyboard-response","117","66254","0.0-5.0-1.56","63ee5e103b44d07673cc8bd6","bdp_lott","Sun Apr 09 2023 16:18:14 GMT-0700 (Pacific Daylight Time)","199224","red","green","","305","","","","choice","","img/red_wl/choose11.jpg","2","169","red","0.5","0.5","0.5","w","","",""
"animation","118","66855","0.0-5.0-2.56","63ee5e103b44d07673cc8bd6","bdp_lott","Sun Apr 09 2023 16:18:14 GMT-0700 (Pacific Daylight Time)","199224","red","green","","","","","","","","","","169","","","","","","[{""stimulus"":""img/red_ww/1.jpg"",""time"":51},{""stimulus"":""img/red_ww/2.jpg"",""time"":102},{""stimulus"":""img/red_ww/3.jpg"",""time"":151},{""stimulus"":""img/red_ww/4.jpg"",""time"":201},{""stimulus"":""img/red_ww/5.jpg"",""time"":252},{""stimulus"":""img/red_ww/6.jpg"",""time"":301},{""stimulus"":""img/red_ww/7.jpg"",""time"":351},{""stimulus"":""img/red_ww/8.jpg"",""time"":402},{""stimulus"":""img/red_ww/9.jpg"",""time"":452},{""stimulus"":""img/red_ww/10.jpg"",""time"":501},{""stimulus"":""img/red_ww/11.jpg"",""time"":551}]","[]",""
"image-keyboard-response","119","67060","0.0-5.0-1.57","63ee5e103b44d07673cc8bd6","bdp_lott","Sun Apr 09 2023 16:18:14 GMT-0700 (Pacific Daylight Time)","199224","red","green","","205","","","","choice","","img/red_ww/choose11.jpg","2","168","red","0.5","0.5","0.5","w","","",""
"animation","120","67662","0.0-5.0-2.57","63ee5e103b44d07673cc8bd6","bdp_lott","Sun Apr 09 2023 16:18:14 GMT-0700 (Pacific Daylight Time)","199224","red","green","","","","","","","","","","168","","","","","","[{""stimulus"":""img/red_ww/1.jpg"",""time"":50},{""stimulus"":""img/red_ww/2.jpg"",""time"":101},{""stimulus"":""img/red_ww/3.jpg"",""time"":151},{""stimulus"":""img/red_ww/4.jpg"",""time"":200},{""stimulus"":""img/red_ww/5.jpg"",""time"":252},{""stimulus"":""img/red_ww/6.jpg"",""time"":301},{""stimulus"":""img/red_ww/7.jpg"",""time"":351},{""stimulus"":""img/red_ww/8.jpg"",""time"":401},{""stimulus"":""img/red_ww/9.jpg"",""time"":450},{""stimulus"":""img/red_ww/10.jpg"",""time"":500},{""stimulus"":""img/red_ww/11.jpg"",""time"":550}]","[]",""
"image-keyboard-response","121","67933","0.0-5.0-1.58","63ee5e103b44d07673cc8bd6","bdp_lott","Sun Apr 09 2023 16:18:14 GMT-0700 (Pacific Daylight Time)","199224","red","green","","271","","","","choice","","img/red_ww/choose11.jpg","2","167","red","0.5","0.5","0.5","w","","",""
"animation","122","68534","0.0-5.0-2.58","63ee5e103b44d07673cc8bd6","bdp_lott","Sun Apr 09 2023 16:18:14 GMT-0700 (Pacific Daylight Time)","199224","red","green","","","","","","","","","","167","","","","","","[{""stimulus"":""img/red_ww/1.jpg"",""time"":52},{""stimulus"":""img/red_ww/2.jpg"",""time"":101},{""stimulus"":""img/red_ww/3.jpg"",""time"":152},{""stimulus"":""img/red_ww/4.jpg"",""time"":201},{""stimulus"":""img/red_ww/5.jpg"",""time"":251},{""stimulus"":""img/red_ww/6.jpg"",""time"":302},{""stimulus"":""img/red_ww/7.jpg"",""time"":351},{""stimulus"":""img/red_ww/8.jpg"",""time"":401},{""stimulus"":""img/red_ww/9.jpg"",""time"":451},{""stimulus"":""img/red_ww/10.jpg"",""time"":501},{""stimulus"":""img/red_ww/11.jpg"",""time"":551}]","[]",""
"image-keyboard-response","123","68781","0.0-5.0-1.59","63ee5e103b44d07673cc8bd6","bdp_lott","Sun Apr 09 2023 16:18:14 GMT-0700 (Pacific Daylight Time)","199224","red","green","","247","","","","choice","","img/red_ww/choose11.jpg","1","166","green","0.5","0.5","0.5","l","","",""
"animation","124","69381","0.0-5.0-2.59","63ee5e103b44d07673cc8bd6","bdp_lott","Sun Apr 09 2023 16:18:14 GMT-0700 (Pacific Daylight Time)","199224","red","green","","","","","","","","","","166","","","","","","[{""stimulus"":""img/green_lw/1.jpg"",""time"":51},{""stimulus"":""img/green_lw/2.jpg"",""time"":102},{""stimulus"":""img/green_lw/3.jpg"",""time"":152},{""stimulus"":""img/green_lw/4.jpg"",""time"":201},{""stimulus"":""img/green_lw/5.jpg"",""time"":251},{""stimulus"":""img/green_lw/6.jpg"",""time"":302},{""stimulus"":""img/green_lw/7.jpg"",""time"":351},{""stimulus"":""img/green_lw/8.jpg"",""time"":402},{""stimulus"":""img/green_lw/9.jpg"",""time"":451},{""stimulus"":""img/green_lw/10.jpg"",""time"":500},{""stimulus"":""img/green_lw/11.jpg"",""time"":551}]","[]",""
"image-keyboard-response","125","69611","0.0-5.0-1.60","63ee5e103b44d07673cc8bd6","bdp_lott","Sun Apr 09 2023 16:18:14 GMT-0700 (Pacific Daylight Time)","199224","red","green","","229","","","","choice","","img/green_lw/choose11.jpg","1","165","green","0.5","0.5","0.5","w","","",""
"animation","126","70212","0.0-5.0-2.60","63ee5e103b44d07673cc8bd6","bdp_lott","Sun Apr 09 2023 16:18:14 GMT-0700 (Pacific Daylight Time)","199224","red","green","","","","","","","","","","165","","","","","","[{""stimulus"":""img/green_ww/1.jpg"",""time"":51},{""stimulus"":""img/green_ww/2.jpg"",""time"":101},{""stimulus"":""img/green_ww/3.jpg"",""time"":152},{""stimulus"":""img/green_ww/4.jpg"",""time"":202},{""stimulus"":""img/green_ww/5.jpg"",""time"":251},{""stimulus"":""img/green_ww/6.jpg"",""time"":302},{""stimulus"":""img/green_ww/7.jpg"",""time"":350},{""stimulus"":""img/green_ww/8.jpg"",""time"":401},{""stimulus"":""img/green_ww/9.jpg"",""time"":451},{""stimulus"":""img/green_ww/10.jpg"",""time"":500},{""stimulus"":""img/green_ww/11.jpg"",""time"":551}]","[]",""
"image-keyboard-response","127","70403","0.0-5.0-1.61","63ee5e103b44d07673cc8bd6","bdp_lott","Sun Apr 09 2023 16:18:14 GMT-0700 (Pacific Daylight Time)","199224","red","green","","190","","","","choice","","img/green_ww/choose11.jpg","1","164","green","0.5","0.5","0.5","l","","",""
"animation","128","71004","0.0-5.0-2.61","63ee5e103b44d07673cc8bd6","bdp_lott","Sun Apr 09 2023 16:18:14 GMT-0700 (Pacific Daylight Time)","199224","red","green","","","","","","","","","","164","","","","","","[{""stimulus"":""img/green_lw/1.jpg"",""time"":50},{""stimulus"":""img/green_lw/2.jpg"",""time"":100},{""stimulus"":""img/green_lw/3.jpg"",""time"":150},{""stimulus"":""img/green_lw/4.jpg"",""time"":200},{""stimulus"":""img/green_lw/5.jpg"",""time"":250},{""stimulus"":""img/green_lw/6.jpg"",""time"":302},{""stimulus"":""img/green_lw/7.jpg"",""time"":350},{""stimulus"":""img/green_lw/8.jpg"",""time"":401},{""stimulus"":""img/green_lw/9.jpg"",""time"":451},{""stimulus"":""img/green_lw/10.jpg"",""time"":501},{""stimulus"":""img/green_lw/11.jpg"",""time"":551}]","[]",""
"image-keyboard-response","129","71335","0.0-5.0-1.62","63ee5e103b44d07673cc8bd6","bdp_lott","Sun Apr 09 2023 16:18:14 GMT-0700 (Pacific Daylight Time)","199224","red","green","","331","","","","choice","","img/green_lw/choose11.jpg","1","163","green","0.5","0.5","0.5","l","","",""
"animation","130","71936","0.0-5.0-2.62","63ee5e103b44d07673cc8bd6","bdp_lott","Sun Apr 09 2023 16:18:14 GMT-0700 (Pacific Daylight Time)","199224","red","green","","","","","","","","","","163","","","","","","[{""stimulus"":""img/green_lw/1.jpg"",""time"":51},{""stimulus"":""img/green_lw/2.jpg"",""time"":100},{""stimulus"":""img/green_lw/3.jpg"",""time"":151},{""stimulus"":""img/green_lw/4.jpg"",""time"":200},{""stimulus"":""img/green_lw/5.jpg"",""time"":251},{""stimulus"":""img/green_lw/6.jpg"",""time"":302},{""stimulus"":""img/green_lw/7.jpg"",""time"":351},{""stimulus"":""img/green_lw/8.jpg"",""time"":400},{""stimulus"":""img/green_lw/9.jpg"",""time"":451},{""stimulus"":""img/green_lw/10.jpg"",""time"":501},{""stimulus"":""img/green_lw/11.jpg"",""time"":551}]","[]",""
"image-keyboard-response","131","72245","0.0-5.0-1.63","63ee5e103b44d07673cc8bd6","bdp_lott","Sun Apr 09 2023 16:18:14 GMT-0700 (Pacific Daylight Time)","199224","red","green","","309","","","","choice","","img/green_lw/choose11.jpg","1","162","green","0.5","0.5","0.5","l","","",""
"animation","132","72847","0.0-5.0-2.63","63ee5e103b44d07673cc8bd6","bdp_lott","Sun Apr 09 2023 16:18:14 GMT-0700 (Pacific Daylight Time)","199224","red","green","","","","","","","","","","162","","","","","","[{""stimulus"":""img/green_lw/1.jpg"",""time"":51},{""stimulus"":""img/green_lw/2.jpg"",""time"":101},{""stimulus"":""img/green_lw/3.jpg"",""time"":151},{""stimulus"":""img/green_lw/4.jpg"",""time"":201},{""stimulus"":""img/green_lw/5.jpg"",""time"":252},{""stimulus"":""img/green_lw/6.jpg"",""time"":302},{""stimulus"":""img/green_lw/7.jpg"",""time"":351},{""stimulus"":""img/green_lw/8.jpg"",""time"":402},{""stimulus"":""img/green_lw/9.jpg"",""time"":452},{""stimulus"":""img/green_lw/10.jpg"",""time"":502},{""stimulus"":""img/green_lw/11.jpg"",""time"":551}]","[]",""
"image-keyboard-response","133","73122","0.0-5.0-1.64","63ee5e103b44d07673cc8bd6","bdp_lott","Sun Apr 09 2023 16:18:14 GMT-0700 (Pacific Daylight Time)","199224","red","green","","275","","","","choice","","img/green_lw/choose11.jpg","1","161","green","0.5","0.5","0.5","w","","",""
"animation","134","73722","0.0-5.0-2.64","63ee5e103b44d07673cc8bd6","bdp_lott","Sun Apr 09 2023 16:18:14 GMT-0700 (Pacific Daylight Time)","199224","red","green","","","","","","","","","","161","","","","","","[{""stimulus"":""img/green_ww/1.jpg"",""time"":63},{""stimulus"":""img/green_ww/2.jpg"",""time"":100},{""stimulus"":""img/green_ww/3.jpg"",""time"":151},{""stimulus"":""img/green_ww/4.jpg"",""time"":201},{""stimulus"":""img/green_ww/5.jpg"",""time"":252},{""stimulus"":""img/green_ww/6.jpg"",""time"":301},{""stimulus"":""img/green_ww/7.jpg"",""time"":351},{""stimulus"":""img/green_ww/8.jpg"",""time"":401},{""stimulus"":""img/green_ww/9.jpg"",""time"":451},{""stimulus"":""img/green_ww/10.jpg"",""time"":500},{""stimulus"":""img/green_ww/11.jpg"",""time"":550}]","[]",""
"image-keyboard-response","135","74144","0.0-5.0-1.65","63ee5e103b44d07673cc8bd6","bdp_lott","Sun Apr 09 2023 16:18:14 GMT-0700 (Pacific Daylight Time)","199224","red","green","","421","","","","choice","","img/green_ww/choose11.jpg","1","160","green","0.5","0.5","0.5","l","","",""
"animation","136","74745","0.0-5.0-2.65","63ee5e103b44d07673cc8bd6","bdp_lott","Sun Apr 09 2023 16:18:14 GMT-0700 (Pacific Daylight Time)","199224","red","green","","","","","","","","","","160","","","","","","[{""stimulus"":""img/green_lw/1.jpg"",""time"":51},{""stimulus"":""img/green_lw/2.jpg"",""time"":101},{""stimulus"":""img/green_lw/3.jpg"",""time"":151},{""stimulus"":""img/green_lw/4.jpg"",""time"":202},{""stimulus"":""img/green_lw/5.jpg"",""time"":251},{""stimulus"":""img/green_lw/6.jpg"",""time"":301},{""stimulus"":""img/green_lw/7.jpg"",""time"":351},{""stimulus"":""img/green_lw/8.jpg"",""time"":402},{""stimulus"":""img/green_lw/9.jpg"",""time"":451},{""stimulus"":""img/green_lw/10.jpg"",""time"":500},{""stimulus"":""img/green_lw/11.jpg"",""time"":551}]","[]",""
"image-keyboard-response","137","75008","0.0-5.0-1.66","63ee5e103b44d07673cc8bd6","bdp_lott","Sun Apr 09 2023 16:18:14 GMT-0700 (Pacific Daylight Time)","199224","red","green","","262","","","","choice","","img/green_lw/choose11.jpg","1","159","green","0.5","0.5","0.5","w","","",""
"animation","138","75610","0.0-5.0-2.66","63ee5e103b44d07673cc8bd6","bdp_lott","Sun Apr 09 2023 16:18:14 GMT-0700 (Pacific Daylight Time)","199224","red","green","","","","","","","","","","159","","","","","","[{""stimulus"":""img/green_ww/1.jpg"",""time"":51},{""stimulus"":""img/green_ww/2.jpg"",""time"":100},{""stimulus"":""img/green_ww/3.jpg"",""time"":150},{""stimulus"":""img/green_ww/4.jpg"",""time"":201},{""stimulus"":""img/green_ww/5.jpg"",""time"":251},{""stimulus"":""img/green_ww/6.jpg"",""time"":300},{""stimulus"":""img/green_ww/7.jpg"",""time"":350},{""stimulus"":""img/green_ww/8.jpg"",""time"":400},{""stimulus"":""img/green_ww/9.jpg"",""time"":450},{""stimulus"":""img/green_ww/10.jpg"",""time"":500},{""stimulus"":""img/green_ww/11.jpg"",""time"":551}]","[]",""
"image-keyboard-response","139","76302","0.0-5.0-1.67","63ee5e103b44d07673cc8bd6","bdp_lott","Sun Apr 09 2023 16:18:14 GMT-0700 (Pacific Daylight Time)","199224","red","green","","691","","","","choice","","img/green_ww/choose11.jpg","2","158","red","0.5","0.5","0.5","w","","",""
"animation","140","76903","0.0-5.0-2.67","63ee5e103b44d07673cc8bd6","bdp_lott","Sun Apr 09 2023 16:18:14 GMT-0700 (Pacific Daylight Time)","199224","red","green","","","","","","","","","","158","","","","","","[{""stimulus"":""img/red_ww/1.jpg"",""time"":50},{""stimulus"":""img/red_ww/2.jpg"",""time"":101},{""stimulus"":""img/red_ww/3.jpg"",""time"":151},{""stimulus"":""img/red_ww/4.jpg"",""time"":201},{""stimulus"":""img/red_ww/5.jpg"",""time"":251},{""stimulus"":""img/red_ww/6.jpg"",""time"":301},{""stimulus"":""img/red_ww/7.jpg"",""time"":351},{""stimulus"":""img/red_ww/8.jpg"",""time"":401},{""stimulus"":""img/red_ww/9.jpg"",""time"":450},{""stimulus"":""img/red_ww/10.jpg"",""time"":500},{""stimulus"":""img/red_ww/11.jpg"",""time"":551}]","[]",""
"image-keyboard-response","141","77068","0.0-5.0-1.68","63ee5e103b44d07673cc8bd6","bdp_lott","Sun Apr 09 2023 16:18:14 GMT-0700 (Pacific Daylight Time)","199224","red","green","","165","","","","choice","","img/red_ww/choose11.jpg","2","157","red","0.5","0.5","0.5","w","","",""
"animation","142","77669","0.0-5.0-2.68","63ee5e103b44d07673cc8bd6","bdp_lott","Sun Apr 09 2023 16:18:14 GMT-0700 (Pacific Daylight Time)","199224","red","green","","","","","","","","","","157","","","","","","[{""stimulus"":""img/red_ww/1.jpg"",""time"":51},{""stimulus"":""img/red_ww/2.jpg"",""time"":102},{""stimulus"":""img/red_ww/3.jpg"",""time"":152},{""stimulus"":""img/red_ww/4.jpg"",""time"":201},{""stimulus"":""img/red_ww/5.jpg"",""time"":251},{""stimulus"":""img/red_ww/6.jpg"",""time"":302},{""stimulus"":""img/red_ww/7.jpg"",""time"":352},{""stimulus"":""img/red_ww/8.jpg"",""time"":401},{""stimulus"":""img/red_ww/9.jpg"",""time"":451},{""stimulus"":""img/red_ww/10.jpg"",""time"":502},{""stimulus"":""img/red_ww/11.jpg"",""time"":551}]","[]",""
"image-keyboard-response","143","77846","0.0-5.0-1.69","63ee5e103b44d07673cc8bd6","bdp_lott","Sun Apr 09 2023 16:18:14 GMT-0700 (Pacific Daylight Time)","199224","red","green","","176","","","","choice","","img/red_ww/choose11.jpg","2","156","red","0.5","0.5","0.5","l","","",""
"animation","144","78447","0.0-5.0-2.69","63ee5e103b44d07673cc8bd6","bdp_lott","Sun Apr 09 2023 16:18:14 GMT-0700 (Pacific Daylight Time)","199224","red","green","","","","","","","","","","156","","","","","","[{""stimulus"":""img/red_wl/1.jpg"",""time"":52},{""stimulus"":""img/red_wl/2.jpg"",""time"":101},{""stimulus"":""img/red_wl/3.jpg"",""time"":151},{""stimulus"":""img/red_wl/4.jpg"",""time"":201},{""stimulus"":""img/red_wl/5.jpg"",""time"":251},{""stimulus"":""img/red_wl/6.jpg"",""time"":301},{""stimulus"":""img/red_wl/7.jpg"",""time"":351},{""stimulus"":""img/red_wl/8.jpg"",""time"":401},{""stimulus"":""img/red_wl/9.jpg"",""time"":452},{""stimulus"":""img/red_wl/10.jpg"",""time"":501},{""stimulus"":""img/red_wl/11.jpg"",""time"":552}]","[]",""
"image-keyboard-response","145","78773","0.0-5.0-1.70","63ee5e103b44d07673cc8bd6","bdp_lott","Sun Apr 09 2023 16:18:14 GMT-0700 (Pacific Daylight Time)","199224","red","green","","326","","","","choice","","img/red_wl/choose11.jpg","2","155","red","0.5","0.5","0.5","w","","",""
"animation","146","79374","0.0-5.0-2.70","63ee5e103b44d07673cc8bd6","bdp_lott","Sun Apr 09 2023 16:18:14 GMT-0700 (Pacific Daylight Time)","199224","red","green","","","","","","","","","","155","","","","","","[{""stimulus"":""img/red_ww/1.jpg"",""time"":51},{""stimulus"":""img/red_ww/2.jpg"",""time"":101},{""stimulus"":""img/red_ww/3.jpg"",""time"":151},{""stimulus"":""img/red_ww/4.jpg"",""time"":201},{""stimulus"":""img/red_ww/5.jpg"",""time"":251},{""stimulus"":""img/red_ww/6.jpg"",""time"":301},{""stimulus"":""img/red_ww/7.jpg"",""time"":351},{""stimulus"":""img/red_ww/8.jpg"",""time"":401},{""stimulus"":""img/red_ww/9.jpg"",""time"":451},{""stimulus"":""img/red_ww/10.jpg"",""time"":500},{""stimulus"":""img/red_ww/11.jpg"",""time"":552}]","[]",""
"image-keyboard-response","147","79557","0.0-5.0-1.71","63ee5e103b44d07673cc8bd6","bdp_lott","Sun Apr 09 2023 16:18:14 GMT-0700 (Pacific Daylight Time)","199224","red","green","","183","","","","choice","","img/red_ww/choose11.jpg","2","154","red","0.5","0.5","0.5","w","","",""
"animation","148","80158","0.0-5.0-2.71","63ee5e103b44d07673cc8bd6","bdp_lott","Sun Apr 09 2023 16:18:14 GMT-0700 (Pacific Daylight Time)","199224","red","green","","","","","","","","","","154","","","","","","[{""stimulus"":""img/red_ww/1.jpg"",""time"":51},{""stimulus"":""img/red_ww/2.jpg"",""time"":102},{""stimulus"":""img/red_ww/3.jpg"",""time"":151},{""stimulus"":""img/red_ww/4.jpg"",""time"":201},{""stimulus"":""img/red_ww/5.jpg"",""time"":251},{""stimulus"":""img/red_ww/6.jpg"",""time"":302},{""stimulus"":""img/red_ww/7.jpg"",""time"":351},{""stimulus"":""img/red_ww/8.jpg"",""time"":401},{""stimulus"":""img/red_ww/9.jpg"",""time"":451},{""stimulus"":""img/red_ww/10.jpg"",""time"":501},{""stimulus"":""img/red_ww/11.jpg"",""time"":551}]","[]",""
"image-keyboard-response","149","80379","0.0-5.0-1.72","63ee5e103b44d07673cc8bd6","bdp_lott","Sun Apr 09 2023 16:18:14 GMT-0700 (Pacific Daylight Time)","199224","red","green","","221","","","","choice","","img/red_ww/choose11.jpg","2","153","red","0.5","0.5","0.5","l","","",""
"animation","150","80980","0.0-5.0-2.72","63ee5e103b44d07673cc8bd6","bdp_lott","Sun Apr 09 2023 16:18:14 GMT-0700 (Pacific Daylight Time)","199224","red","green","","","","","","","","","","153","","","","","","[{""stimulus"":""img/red_wl/1.jpg"",""time"":51},{""stimulus"":""img/red_wl/2.jpg"",""time"":101},{""stimulus"":""img/red_wl/3.jpg"",""time"":151},{""stimulus"":""img/red_wl/4.jpg"",""time"":201},{""stimulus"":""img/red_wl/5.jpg"",""time"":251},{""stimulus"":""img/red_wl/6.jpg"",""time"":301},{""stimulus"":""img/red_wl/7.jpg"",""time"":353},{""stimulus"":""img/red_wl/8.jpg"",""time"":401},{""stimulus"":""img/red_wl/9.jpg"",""time"":452},{""stimulus"":""img/red_wl/10.jpg"",""time"":502},{""stimulus"":""img/red_wl/11.jpg"",""time"":551}]","[]",""
"image-keyboard-response","151","81187","0.0-5.0-1.73","63ee5e103b44d07673cc8bd6","bdp_lott","Sun Apr 09 2023 16:18:14 GMT-0700 (Pacific Daylight Time)","199224","red","green","","207","","","","choice","","img/red_wl/choose11.jpg","2","152","red","0.5","0.5","0.5","l","","",""
"animation","152","81788","0.0-5.0-2.73","63ee5e103b44d07673cc8bd6","bdp_lott","Sun Apr 09 2023 16:18:14 GMT-0700 (Pacific Daylight Time)","199224","red","green","","","","","","","","","","152","","","","","","[{""stimulus"":""img/red_wl/1.jpg"",""time"":50},{""stimulus"":""img/red_wl/2.jpg"",""time"":100},{""stimulus"":""img/red_wl/3.jpg"",""time"":152},{""stimulus"":""img/red_wl/4.jpg"",""time"":200},{""stimulus"":""img/red_wl/5.jpg"",""time"":252},{""stimulus"":""img/red_wl/6.jpg"",""time"":302},{""stimulus"":""img/red_wl/7.jpg"",""time"":352},{""stimulus"":""img/red_wl/8.jpg"",""time"":401},{""stimulus"":""img/red_wl/9.jpg"",""time"":451},{""stimulus"":""img/red_wl/10.jpg"",""time"":501},{""stimulus"":""img/red_wl/11.jpg"",""time"":551}]","[]",""
"image-keyboard-response","153","81867","0.0-5.0-1.74","63ee5e103b44d07673cc8bd6","bdp_lott","Sun Apr 09 2023 16:18:14 GMT-0700 (Pacific Daylight Time)","199224","red","green","","79","","","","choice","","img/red_wl/choose11.jpg","2","151","red","0.5","0.5","0.5","l","","",""
"animation","154","82468","0.0-5.0-2.74","63ee5e103b44d07673cc8bd6","bdp_lott","Sun Apr 09 2023 16:18:14 GMT-0700 (Pacific Daylight Time)","199224","red","green","","","","","","","","","","151","","","","","","[{""stimulus"":""img/red_wl/1.jpg"",""time"":51},{""stimulus"":""img/red_wl/2.jpg"",""time"":102},{""stimulus"":""img/red_wl/3.jpg"",""time"":152},{""stimulus"":""img/red_wl/4.jpg"",""time"":202},{""stimulus"":""img/red_wl/5.jpg"",""time"":251},{""stimulus"":""img/red_wl/6.jpg"",""time"":301},{""stimulus"":""img/red_wl/7.jpg"",""time"":351},{""stimulus"":""img/red_wl/8.jpg"",""time"":402},{""stimulus"":""img/red_wl/9.jpg"",""time"":452},{""stimulus"":""img/red_wl/10.jpg"",""time"":501},{""stimulus"":""img/red_wl/11.jpg"",""time"":555}]","[]",""
"image-keyboard-response","155","82485","0.0-5.0-1.75","63ee5e103b44d07673cc8bd6","bdp_lott","Sun Apr 09 2023 16:18:14 GMT-0700 (Pacific Daylight Time)","199224","red","green","","16","","","","choice","","img/red_wl/choose11.jpg","2","150","red","0.5","0.5","0.5","w","","",""
"animation","156","83086","0.0-5.0-2.75","63ee5e103b44d07673cc8bd6","bdp_lott","Sun Apr 09 2023 16:18:14 GMT-0700 (Pacific Daylight Time)","199224","red","green","","","","","","","","","","150","","","","","","[{""stimulus"":""img/red_ww/1.jpg"",""time"":51},{""stimulus"":""img/red_ww/2.jpg"",""time"":101},{""stimulus"":""img/red_ww/3.jpg"",""time"":151},{""stimulus"":""img/red_ww/4.jpg"",""time"":201},{""stimulus"":""img/red_ww/5.jpg"",""time"":251},{""stimulus"":""img/red_ww/6.jpg"",""time"":302},{""stimulus"":""img/red_ww/7.jpg"",""time"":351},{""stimulus"":""img/red_ww/8.jpg"",""time"":402},{""stimulus"":""img/red_ww/9.jpg"",""time"":452},{""stimulus"":""img/red_ww/10.jpg"",""time"":501},{""stimulus"":""img/red_ww/11.jpg"",""time"":551}]","[]",""
"image-keyboard-response","157","83137","0.0-5.0-1.76","63ee5e103b44d07673cc8bd6","bdp_lott","Sun Apr 09 2023 16:18:14 GMT-0700 (Pacific Daylight Time)","199224","red","green","","50","","","","choice","","img/red_ww/choose11.jpg","2","149","red","0.5","0.1","0.5","l","","",""
"animation","158","83737","0.0-5.0-2.76","63ee5e103b44d07673cc8bd6","bdp_lott","Sun Apr 09 2023 16:18:14 GMT-0700 (Pacific Daylight Time)","199224","red","green","","","","","","","","","","149","","","","","","[{""stimulus"":""img/red_wl/1.jpg"",""time"":51},{""stimulus"":""img/red_wl/2.jpg"",""time"":100},{""stimulus"":""img/red_wl/3.jpg"",""time"":150},{""stimulus"":""img/red_wl/4.jpg"",""time"":200},{""stimulus"":""img/red_wl/5.jpg"",""time"":250},{""stimulus"":""img/red_wl/6.jpg"",""time"":301},{""stimulus"":""img/red_wl/7.jpg"",""time"":350},{""stimulus"":""img/red_wl/8.jpg"",""time"":401},{""stimulus"":""img/red_wl/9.jpg"",""time"":450},{""stimulus"":""img/red_wl/10.jpg"",""time"":501},{""stimulus"":""img/red_wl/11.jpg"",""time"":551}]","[]",""
"image-keyboard-response","159","83770","0.0-5.0-1.77","63ee5e103b44d07673cc8bd6","bdp_lott","Sun Apr 09 2023 16:18:14 GMT-0700 (Pacific Daylight Time)","199224","red","green","","32","","","","choice","","img/red_wl/choose11.jpg","2","148","red","0.5","0.1","0.5","l","","",""
"animation","160","84372","0.0-5.0-2.77","63ee5e103b44d07673cc8bd6","bdp_lott","Sun Apr 09 2023 16:18:14 GMT-0700 (Pacific Daylight Time)","199224","red","green","","","","","","","","","","148","","","","","","[{""stimulus"":""img/red_wl/1.jpg"",""time"":50},{""stimulus"":""img/red_wl/2.jpg"",""time"":101},{""stimulus"":""img/red_wl/3.jpg"",""time"":150},{""stimulus"":""img/red_wl/4.jpg"",""time"":201},{""stimulus"":""img/red_wl/5.jpg"",""time"":250},{""stimulus"":""img/red_wl/6.jpg"",""time"":301},{""stimulus"":""img/red_wl/7.jpg"",""time"":356},{""stimulus"":""img/red_wl/8.jpg"",""time"":401},{""stimulus"":""img/red_wl/9.jpg"",""time"":450},{""stimulus"":""img/red_wl/10.jpg"",""time"":500},{""stimulus"":""img/red_wl/11.jpg"",""time"":550}]","[]",""
"image-keyboard-response","161","84842","0.0-5.0-1.78","63ee5e103b44d07673cc8bd6","bdp_lott","Sun Apr 09 2023 16:18:14 GMT-0700 (Pacific Daylight Time)","199224","red","green","","470","","","","choice","","img/red_wl/choose11.jpg","1","147","green","0.5","0.1","0.1","l","","",""
"animation","162","85443","0.0-5.0-2.78","63ee5e103b44d07673cc8bd6","bdp_lott","Sun Apr 09 2023 16:18:14 GMT-0700 (Pacific Daylight Time)","199224","red","green","","","","","","","","","","147","","","","","","[{""stimulus"":""img/green_ll/1.jpg"",""time"":51},{""stimulus"":""img/green_ll/2.jpg"",""time"":103},{""stimulus"":""img/green_ll/3.jpg"",""time"":152},{""stimulus"":""img/green_ll/4.jpg"",""time"":201},{""stimulus"":""img/green_ll/5.jpg"",""time"":251},{""stimulus"":""img/green_ll/6.jpg"",""time"":301},{""stimulus"":""img/green_ll/7.jpg"",""time"":352},{""stimulus"":""img/green_ll/8.jpg"",""time"":401},{""stimulus"":""img/green_ll/9.jpg"",""time"":451},{""stimulus"":""img/green_ll/10.jpg"",""time"":501},{""stimulus"":""img/green_ll/11.jpg"",""time"":551}]","[]",""
"image-keyboard-response","163","85462","0.0-5.0-1.79","63ee5e103b44d07673cc8bd6","bdp_lott","Sun Apr 09 2023 16:18:14 GMT-0700 (Pacific Daylight Time)","199224","red","green","","19","","","","choice","","img/green_ll/choose11.jpg","2","146","red","0.5","0.1","0.5","l","","",""
"animation","164","86064","0.0-5.0-2.79","63ee5e103b44d07673cc8bd6","bdp_lott","Sun Apr 09 2023 16:18:14 GMT-0700 (Pacific Daylight Time)","199224","red","green","","","","","","","","","","146","","","","","","[{""stimulus"":""img/red_ll/1.jpg"",""time"":51},{""stimulus"":""img/red_ll/2.jpg"",""time"":101},{""stimulus"":""img/red_ll/3.jpg"",""time"":151},{""stimulus"":""img/red_ll/4.jpg"",""time"":201},{""stimulus"":""img/red_ll/5.jpg"",""time"":251},{""stimulus"":""img/red_ll/6.jpg"",""time"":301},{""stimulus"":""img/red_ll/7.jpg"",""time"":351},{""stimulus"":""img/red_ll/8.jpg"",""time"":401},{""stimulus"":""img/red_ll/9.jpg"",""time"":451},{""stimulus"":""img/red_ll/10.jpg"",""time"":503},{""stimulus"":""img/red_ll/11.jpg"",""time"":552}]","[]",""
"image-keyboard-response","165","86325","0.0-5.0-1.80","63ee5e103b44d07673cc8bd6","bdp_lott","Sun Apr 09 2023 16:18:14 GMT-0700 (Pacific Daylight Time)","199224","red","green","","261","","","","choice","","img/red_ll/choose11.jpg","2","145","red","0.5","0.1","0.5","l","","",""
"animation","166","86926","0.0-5.0-2.80","63ee5e103b44d07673cc8bd6","bdp_lott","Sun Apr 09 2023 16:18:14 GMT-0700 (Pacific Daylight Time)","199224","red","green","","","","","","","","","","145","","","","","","[{""stimulus"":""img/red_ll/1.jpg"",""time"":51},{""stimulus"":""img/red_ll/2.jpg"",""time"":101},{""stimulus"":""img/red_ll/3.jpg"",""time"":152},{""stimulus"":""img/red_ll/4.jpg"",""time"":201},{""stimulus"":""img/red_ll/5.jpg"",""time"":251},{""stimulus"":""img/red_ll/6.jpg"",""time"":301},{""stimulus"":""img/red_ll/7.jpg"",""time"":351},{""stimulus"":""img/red_ll/8.jpg"",""time"":401},{""stimulus"":""img/red_ll/9.jpg"",""time"":451},{""stimulus"":""img/red_ll/10.jpg"",""time"":501},{""stimulus"":""img/red_ll/11.jpg"",""time"":552}]","[]",""
"image-keyboard-response","167","87381","0.0-5.0-1.81","63ee5e103b44d07673cc8bd6","bdp_lott","Sun Apr 09 2023 16:18:14 GMT-0700 (Pacific Daylight Time)","199224","red","green","","454","","","","choice","","img/red_ll/choose11.jpg","2","144","red","0.5","0.1","0.5","l","","",""
"animation","168","87982","0.0-5.0-2.81","63ee5e103b44d07673cc8bd6","bdp_lott","Sun Apr 09 2023 16:18:14 GMT-0700 (Pacific Daylight Time)","199224","red","green","","","","","","","","","","144","","","","","","[{""stimulus"":""img/red_ll/1.jpg"",""time"":51},{""stimulus"":""img/red_ll/2.jpg"",""time"":102},{""stimulus"":""img/red_ll/3.jpg"",""time"":151},{""stimulus"":""img/red_ll/4.jpg"",""time"":201},{""stimulus"":""img/red_ll/5.jpg"",""time"":251},{""stimulus"":""img/red_ll/6.jpg"",""time"":302},{""stimulus"":""img/red_ll/7.jpg"",""time"":351},{""stimulus"":""img/red_ll/8.jpg"",""time"":402},{""stimulus"":""img/red_ll/9.jpg"",""time"":451},{""stimulus"":""img/red_ll/10.jpg"",""time"":502},{""stimulus"":""img/red_ll/11.jpg"",""time"":551}]","[]",""
"image-keyboard-response","169","88042","0.0-5.0-1.82","63ee5e103b44d07673cc8bd6","bdp_lott","Sun Apr 09 2023 16:18:14 GMT-0700 (Pacific Daylight Time)","199224","red","green","","59","","","","choice","","img/red_ll/choose11.jpg","1","143","green","0.5","0.1","0.1","l","","",""
"animation","170","88643","0.0-5.0-2.82","63ee5e103b44d07673cc8bd6","bdp_lott","Sun Apr 09 2023 16:18:14 GMT-0700 (Pacific Daylight Time)","199224","red","green","","","","","","","","","","143","","","","","","[{""stimulus"":""img/green_ll/1.jpg"",""time"":51},{""stimulus"":""img/green_ll/2.jpg"",""time"":102},{""stimulus"":""img/green_ll/3.jpg"",""time"":151},{""stimulus"":""img/green_ll/4.jpg"",""time"":201},{""stimulus"":""img/green_ll/5.jpg"",""time"":251},{""stimulus"":""img/green_ll/6.jpg"",""time"":301},{""stimulus"":""img/green_ll/7.jpg"",""time"":351},{""stimulus"":""img/green_ll/8.jpg"",""time"":401},{""stimulus"":""img/green_ll/9.jpg"",""time"":450},{""stimulus"":""img/green_ll/10.jpg"",""time"":502},{""stimulus"":""img/green_ll/11.jpg"",""time"":551}]","[]",""
"image-keyboard-response","171","88668","0.0-5.0-1.83","63ee5e103b44d07673cc8bd6","bdp_lott","Sun Apr 09 2023 16:18:14 GMT-0700 (Pacific Daylight Time)","199224","red","green","","24","","","","choice","","img/green_ll/choose11.jpg","1","142","green","0.5","0.1","0.1","l","","",""
"animation","172","89269","0.0-5.0-2.83","63ee5e103b44d07673cc8bd6","bdp_lott","Sun Apr 09 2023 16:18:14 GMT-0700 (Pacific Daylight Time)","199224","red","green","","","","","","","","","","142","","","","","","[{""stimulus"":""img/green_ll/1.jpg"",""time"":51},{""stimulus"":""img/green_ll/2.jpg"",""time"":101},{""stimulus"":""img/green_ll/3.jpg"",""time"":151},{""stimulus"":""img/green_ll/4.jpg"",""time"":201},{""stimulus"":""img/green_ll/5.jpg"",""time"":251},{""stimulus"":""img/green_ll/6.jpg"",""time"":301},{""stimulus"":""img/green_ll/7.jpg"",""time"":351},{""stimulus"":""img/green_ll/8.jpg"",""time"":401},{""stimulus"":""img/green_ll/9.jpg"",""time"":451},{""stimulus"":""img/green_ll/10.jpg"",""time"":501},{""stimulus"":""img/green_ll/11.jpg"",""time"":551}]","[]",""
"image-keyboard-response","173","89374","0.0-5.0-1.84","63ee5e103b44d07673cc8bd6","bdp_lott","Sun Apr 09 2023 16:18:14 GMT-0700 (Pacific Daylight Time)","199224","red","green","","104","","","","choice","","img/green_ll/choose11.jpg","1","141","green","0.5","0.1","0.1","l","","",""
"animation","174","89975","0.0-5.0-2.84","63ee5e103b44d07673cc8bd6","bdp_lott","Sun Apr 09 2023 16:18:14 GMT-0700 (Pacific Daylight Time)","199224","red","green","","","","","","","","","","141","","","","","","[{""stimulus"":""img/green_ll/1.jpg"",""time"":51},{""stimulus"":""img/green_ll/2.jpg"",""time"":101},{""stimulus"":""img/green_ll/3.jpg"",""time"":151},{""stimulus"":""img/green_ll/4.jpg"",""time"":202},{""stimulus"":""img/green_ll/5.jpg"",""time"":254},{""stimulus"":""img/green_ll/6.jpg"",""time"":302},{""stimulus"":""img/green_ll/7.jpg"",""time"":352},{""stimulus"":""img/green_ll/8.jpg"",""time"":408},{""stimulus"":""img/green_ll/9.jpg"",""time"":451},{""stimulus"":""img/green_ll/10.jpg"",""time"":502},{""stimulus"":""img/green_ll/11.jpg"",""time"":551}]","[]",""
"image-keyboard-response","175","90029","0.0-5.0-1.85","63ee5e103b44d07673cc8bd6","bdp_lott","Sun Apr 09 2023 16:18:14 GMT-0700 (Pacific Daylight Time)","199224","red","green","","54","","","","choice","","img/green_ll/choose11.jpg","2","140","red","0.5","0.1","0.5","l","","",""
"animation","176","90631","0.0-5.0-2.85","63ee5e103b44d07673cc8bd6","bdp_lott","Sun Apr 09 2023 16:18:14 GMT-0700 (Pacific Daylight Time)","199224","red","green","","","","","","","","","","140","","","","","","[{""stimulus"":""img/red_ll/1.jpg"",""time"":52},{""stimulus"":""img/red_ll/2.jpg"",""time"":102},{""stimulus"":""img/red_ll/3.jpg"",""time"":152},{""stimulus"":""img/red_ll/4.jpg"",""time"":203},{""stimulus"":""img/red_ll/5.jpg"",""time"":251},{""stimulus"":""img/red_ll/6.jpg"",""time"":302},{""stimulus"":""img/red_ll/7.jpg"",""time"":352},{""stimulus"":""img/red_ll/8.jpg"",""time"":401},{""stimulus"":""img/red_ll/9.jpg"",""time"":452},{""stimulus"":""img/red_ll/10.jpg"",""time"":501},{""stimulus"":""img/red_ll/11.jpg"",""time"":552}]","[]",""
"image-keyboard-response","177","90644","0.0-5.0-1.86","63ee5e103b44d07673cc8bd6","bdp_lott","Sun Apr 09 2023 16:18:14 GMT-0700 (Pacific Daylight Time)","199224","red","green","","13","","","","choice","","img/red_ll/choose11.jpg","2","139","red","0.5","0.1","0.5","l","","",""
"animation","178","91244","0.0-5.0-2.86","63ee5e103b44d07673cc8bd6","bdp_lott","Sun Apr 09 2023 16:18:14 GMT-0700 (Pacific Daylight Time)","199224","red","green","","","","","","","","","","139","","","","","","[{""stimulus"":""img/red_ll/1.jpg"",""time"":51},{""stimulus"":""img/red_ll/2.jpg"",""time"":101},{""stimulus"":""img/red_ll/3.jpg"",""time"":152},{""stimulus"":""img/red_ll/4.jpg"",""time"":201},{""stimulus"":""img/red_ll/5.jpg"",""time"":252},{""stimulus"":""img/red_ll/6.jpg"",""time"":301},{""stimulus"":""img/red_ll/7.jpg"",""time"":352},{""stimulus"":""img/red_ll/8.jpg"",""time"":401},{""stimulus"":""img/red_ll/9.jpg"",""time"":452},{""stimulus"":""img/red_ll/10.jpg"",""time"":502},{""stimulus"":""img/red_ll/11.jpg"",""time"":552}]","[]",""
"image-keyboard-response","179","91332","0.0-5.0-1.87","63ee5e103b44d07673cc8bd6","bdp_lott","Sun Apr 09 2023 16:18:14 GMT-0700 (Pacific Daylight Time)","199224","red","green","","87","","","","choice","","img/red_ll/choose11.jpg","2","138","red","0.5","0.1","0.5","w","","",""
"animation","180","91933","0.0-5.0-2.87","63ee5e103b44d07673cc8bd6","bdp_lott","Sun Apr 09 2023 16:18:14 GMT-0700 (Pacific Daylight Time)","199224","red","green","","","","","","","","","","138","","","","","","[{""stimulus"":""img/red_lw/1.jpg"",""time"":51},{""stimulus"":""img/red_lw/2.jpg"",""time"":102},{""stimulus"":""img/red_lw/3.jpg"",""time"":151},{""stimulus"":""img/red_lw/4.jpg"",""time"":201},{""stimulus"":""img/red_lw/5.jpg"",""time"":252},{""stimulus"":""img/red_lw/6.jpg"",""time"":301},{""stimulus"":""img/red_lw/7.jpg"",""time"":351},{""stimulus"":""img/red_lw/8.jpg"",""time"":401},{""stimulus"":""img/red_lw/9.jpg"",""time"":452},{""stimulus"":""img/red_lw/10.jpg"",""time"":502},{""stimulus"":""img/red_lw/11.jpg"",""time"":551}]","[]",""
"image-keyboard-response","181","91955","0.0-5.0-1.88","63ee5e103b44d07673cc8bd6","bdp_lott","Sun Apr 09 2023 16:18:14 GMT-0700 (Pacific Daylight Time)","199224","red","green","","22","","","","choice","","img/red_lw/choose11.jpg","2","137","red","0.5","0.1","0.5","w","","",""
"animation","182","92557","0.0-5.0-2.88","63ee5e103b44d07673cc8bd6","bdp_lott","Sun Apr 09 2023 16:18:14 GMT-0700 (Pacific Daylight Time)","199224","red","green","","","","","","","","","","137","","","","","","[{""stimulus"":""img/red_lw/1.jpg"",""time"":51},{""stimulus"":""img/red_lw/2.jpg"",""time"":101},{""stimulus"":""img/red_lw/3.jpg"",""time"":151},{""stimulus"":""img/red_lw/4.jpg"",""time"":202},{""stimulus"":""img/red_lw/5.jpg"",""time"":252},{""stimulus"":""img/red_lw/6.jpg"",""time"":301},{""stimulus"":""img/red_lw/7.jpg"",""time"":352},{""stimulus"":""img/red_lw/8.jpg"",""time"":401},{""stimulus"":""img/red_lw/9.jpg"",""time"":452},{""stimulus"":""img/red_lw/10.jpg"",""time"":502},{""stimulus"":""img/red_lw/11.jpg"",""time"":551}]","[]",""
"image-keyboard-response","183","92710","0.0-5.0-1.89","63ee5e103b44d07673cc8bd6","bdp_lott","Sun Apr 09 2023 16:18:14 GMT-0700 (Pacific Daylight Time)","199224","red","green","","153","","","","choice","","img/red_lw/choose11.jpg","1","136","green","0.5","0.1","0.1","l","","",""
"animation","184","93311","0.0-5.0-2.89","63ee5e103b44d07673cc8bd6","bdp_lott","Sun Apr 09 2023 16:18:14 GMT-0700 (Pacific Daylight Time)","199224","red","green","","","","","","","","","","136","","","","","","[{""stimulus"":""img/green_lw/1.jpg"",""time"":52},{""stimulus"":""img/green_lw/2.jpg"",""time"":101},{""stimulus"":""img/green_lw/3.jpg"",""time"":151},{""stimulus"":""img/green_lw/4.jpg"",""time"":201},{""stimulus"":""img/green_lw/5.jpg"",""time"":251},{""stimulus"":""img/green_lw/6.jpg"",""time"":301},{""stimulus"":""img/green_lw/7.jpg"",""time"":352},{""stimulus"":""img/green_lw/8.jpg"",""time"":401},{""stimulus"":""img/green_lw/9.jpg"",""time"":451},{""stimulus"":""img/green_lw/10.jpg"",""time"":501},{""stimulus"":""img/green_lw/11.jpg"",""time"":551}]","[]",""
"image-keyboard-response","185","93334","0.0-5.0-1.90","63ee5e103b44d07673cc8bd6","bdp_lott","Sun Apr 09 2023 16:18:14 GMT-0700 (Pacific Daylight Time)","199224","red","green","","22","","","","choice","","img/green_lw/choose11.jpg","1","135","green","0.5","0.1","0.1","l","","",""
"animation","186","93935","0.0-5.0-2.90","63ee5e103b44d07673cc8bd6","bdp_lott","Sun Apr 09 2023 16:18:14 GMT-0700 (Pacific Daylight Time)","199224","red","green","","","","","","","","","","135","","","","","","[{""stimulus"":""img/green_lw/1.jpg"",""time"":51},{""stimulus"":""img/green_lw/2.jpg"",""time"":101},{""stimulus"":""img/green_lw/3.jpg"",""time"":151},{""stimulus"":""img/green_lw/4.jpg"",""time"":201},{""stimulus"":""img/green_lw/5.jpg"",""time"":251},{""stimulus"":""img/green_lw/6.jpg"",""time"":302},{""stimulus"":""img/green_lw/7.jpg"",""time"":351},{""stimulus"":""img/green_lw/8.jpg"",""time"":402},{""stimulus"":""img/green_lw/9.jpg"",""time"":451},{""stimulus"":""img/green_lw/10.jpg"",""time"":501},{""stimulus"":""img/green_lw/11.jpg"",""time"":551}]","[]",""
"image-keyboard-response","187","93968","0.0-5.0-1.91","63ee5e103b44d07673cc8bd6","bdp_lott","Sun Apr 09 2023 16:18:14 GMT-0700 (Pacific Daylight Time)","199224","red","green","","32","","","","choice","","img/green_lw/choose11.jpg","1","134","green","0.5","0.1","0.1","l","","",""
"animation","188","94569","0.0-5.0-2.91","63ee5e103b44d07673cc8bd6","bdp_lott","Sun Apr 09 2023 16:18:14 GMT-0700 (Pacific Daylight Time)","199224","red","green","","","","","","","","","","134","","","","","","[{""stimulus"":""img/green_lw/1.jpg"",""time"":50},{""stimulus"":""img/green_lw/2.jpg"",""time"":102},{""stimulus"":""img/green_lw/3.jpg"",""time"":151},{""stimulus"":""img/green_lw/4.jpg"",""time"":201},{""stimulus"":""img/green_lw/5.jpg"",""time"":250},{""stimulus"":""img/green_lw/6.jpg"",""time"":302},{""stimulus"":""img/green_lw/7.jpg"",""time"":350},{""stimulus"":""img/green_lw/8.jpg"",""time"":400},{""stimulus"":""img/green_lw/9.jpg"",""time"":451},{""stimulus"":""img/green_lw/10.jpg"",""time"":500},{""stimulus"":""img/green_lw/11.jpg"",""time"":550}]","[]",""
"image-keyboard-response","189","94630","0.0-5.0-1.92","63ee5e103b44d07673cc8bd6","bdp_lott","Sun Apr 09 2023 16:18:14 GMT-0700 (Pacific Daylight Time)","199224","red","green","","61","","","","choice","","img/green_lw/choose11.jpg","1","133","green","0.5","0.1","0.1","l","","",""
"animation","190","95230","0.0-5.0-2.92","63ee5e103b44d07673cc8bd6","bdp_lott","Sun Apr 09 2023 16:18:14 GMT-0700 (Pacific Daylight Time)","199224","red","green","","","","","","","","","","133","","","","","","[{""stimulus"":""img/green_lw/1.jpg"",""time"":50},{""stimulus"":""img/green_lw/2.jpg"",""time"":101},{""stimulus"":""img/green_lw/3.jpg"",""time"":152},{""stimulus"":""img/green_lw/4.jpg"",""time"":200},{""stimulus"":""img/green_lw/5.jpg"",""time"":252},{""stimulus"":""img/green_lw/6.jpg"",""time"":301},{""stimulus"":""img/green_lw/7.jpg"",""time"":351},{""stimulus"":""img/green_lw/8.jpg"",""time"":401},{""stimulus"":""img/green_lw/9.jpg"",""time"":452},{""stimulus"":""img/green_lw/10.jpg"",""time"":500},{""stimulus"":""img/green_lw/11.jpg"",""time"":551}]","[]",""
"image-keyboard-response","191","95295","0.0-5.0-1.93","63ee5e103b44d07673cc8bd6","bdp_lott","Sun Apr 09 2023 16:18:14 GMT-0700 (Pacific Daylight Time)","199224","red","green","","64","","","","choice","","img/green_lw/choose11.jpg","1","132","green","0.5","0.1","0.1","l","","",""
