"event","trial","time","trialtype","subject_id","task","startTime","totalTime","fairMachine","unfairMachine","trial_type","trial_index","time_elapsed","internal_node_id","view_history","rt","success","stimulus","key_press","roundsLeft","chosen","pFairMachWin","pUnfairMachWin","pTrialWin","outcome","animation_sequence","responses"
"focus","0","0","focusevent","63f58712a2c1bd62fa7bb352","bdp_lott","Mon Apr 03 2023 18:15:13 GMT-0600 (Mountain Daylight Time)","286232","green","red","","","","","","","","","","","","","","","","",""
"","","","","63f58712a2c1bd62fa7bb352","bdp_lott","Mon Apr 03 2023 18:15:13 GMT-0600 (Mountain Daylight Time)","286232","green","red","pavlovia","0","11","0.0-0.0","","","","","","","","","","","","",""
"","","","","63f58712a2c1bd62fa7bb352","bdp_lott","Mon Apr 03 2023 18:15:13 GMT-0600 (Mountain Daylight Time)","286232","green","red","instructions","1","6312","0.0-1.0","[{""page_index"":0,""viewing_time"":6301}]","6301","","","","","","","","","","",""
"fullscreenexit","2","8939","fullscreenexit","63f58712a2c1bd62fa7bb352","bdp_lott","Mon Apr 03 2023 18:15:13 GMT-0600 (Mountain Daylight Time)","286232","green","red","","","","","","","","","","","","","","","","",""
"","","","","63f58712a2c1bd62fa7bb352","bdp_lott","Mon Apr 03 2023 18:15:13 GMT-0600 (Mountain Daylight Time)","286232","green","red","fullscreen","2","9737","0.0-2.0","","","true","","","","","","","","","",""
"","","","fullscreenfail","63f58712a2c1bd62fa7bb352","bdp_lott","Mon Apr 03 2023 18:15:13 GMT-0600 (Mountain Daylight Time)","286232","green","red","image-keyboard-response","3","14137","0.0-3.0-0.0","","4399","","","32","","","","","","","",""
"","","","","63f58712a2c1bd62fa7bb352","bdp_lott","Mon Apr 03 2023 18:15:13 GMT-0600 (Mountain Daylight Time)","286232","green","red","instructions","4","48869","0.0-4.0","[{""page_index"":0,""viewing_time"":34480}]","34480","","","","","","","","","","",""
"","","","choice","63f58712a2c1bd62fa7bb352","bdp_lott","Mon Apr 03 2023 18:15:13 GMT-0600 (Mountain Daylight Time)","286232","green","red","image-keyboard-response","5","51620","0.0-5.0-1.0","","2750","","img/red_ll/initchoose11.jpg","1","225","green","0.5","0.5","0.5","w","",""
"","","","","63f58712a2c1bd62fa7bb352","bdp_lott","Mon Apr 03 2023 18:15:13 GMT-0600 (Mountain Daylight Time)","286232","green","red","animation","6","52225","0.0-5.0-2.0","","","","","","225","","","","","","[{""stimulus"":""img/green_wl/1.jpg"",""time"":51},{""stimulus"":""img/green_wl/2.jpg"",""time"":101},{""stimulus"":""img/green_wl/3.jpg"",""time"":152},{""stimulus"":""img/green_wl/4.jpg"",""time"":202},{""stimulus"":""img/green_wl/5.jpg"",""time"":254},{""stimulus"":""img/green_wl/6.jpg"",""time"":304},{""stimulus"":""img/green_wl/7.jpg"",""time"":353},{""stimulus"":""img/green_wl/8.jpg"",""time"":404},{""stimulus"":""img/green_wl/9.jpg"",""time"":454},{""stimulus"":""img/green_wl/10.jpg"",""time"":504},{""stimulus"":""img/green_wl/11.jpg"",""time"":555}]","[]"
"","","","choice","63f58712a2c1bd62fa7bb352","bdp_lott","Mon Apr 03 2023 18:15:13 GMT-0600 (Mountain Daylight Time)","286232","green","red","image-keyboard-response","7","55749","0.0-5.0-1.1","","3523","","img/green_wl/choose11.jpg","1","224","green","0.5","0.5","0.5","w","",""
"","","","","63f58712a2c1bd62fa7bb352","bdp_lott","Mon Apr 03 2023 18:15:13 GMT-0600 (Mountain Daylight Time)","286232","green","red","animation","8","56353","0.0-5.0-2.1","","","","","","224","","","","","","[{""stimulus"":""img/green_wl/1.jpg"",""time"":51},{""stimulus"":""img/green_wl/2.jpg"",""time"":101},{""stimulus"":""img/green_wl/3.jpg"",""time"":150},{""stimulus"":""img/green_wl/4.jpg"",""time"":201},{""stimulus"":""img/green_wl/5.jpg"",""time"":251},{""stimulus"":""img/green_wl/6.jpg"",""time"":302},{""stimulus"":""img/green_wl/7.jpg"",""time"":352},{""stimulus"":""img/green_wl/8.jpg"",""time"":402},{""stimulus"":""img/green_wl/9.jpg"",""time"":452},{""stimulus"":""img/green_wl/10.jpg"",""time"":503},{""stimulus"":""img/green_wl/11.jpg"",""time"":554}]","[]"
"","","","choice","63f58712a2c1bd62fa7bb352","bdp_lott","Mon Apr 03 2023 18:15:13 GMT-0600 (Mountain Daylight Time)","286232","green","red","image-keyboard-response","9","57549","0.0-5.0-1.2","","1196","","img/green_wl/choose11.jpg","1","223","green","0.5","0.5","0.5","l","",""
"","","","","63f58712a2c1bd62fa7bb352","bdp_lott","Mon Apr 03 2023 18:15:13 GMT-0600 (Mountain Daylight Time)","286232","green","red","animation","10","58154","0.0-5.0-2.2","","","","","","223","","","","","","[{""stimulus"":""img/green_ll/1.jpg"",""time"":52},{""stimulus"":""img/green_ll/2.jpg"",""time"":101},{""stimulus"":""img/green_ll/3.jpg"",""time"":151},{""stimulus"":""img/green_ll/4.jpg"",""time"":201},{""stimulus"":""img/green_ll/5.jpg"",""time"":251},{""stimulus"":""img/green_ll/6.jpg"",""time"":303},{""stimulus"":""img/green_ll/7.jpg"",""time"":354},{""stimulus"":""img/green_ll/8.jpg"",""time"":404},{""stimulus"":""img/green_ll/9.jpg"",""time"":454},{""stimulus"":""img/green_ll/10.jpg"",""time"":505},{""stimulus"":""img/green_ll/11.jpg"",""time"":555}]","[]"
"","","","choice","63f58712a2c1bd62fa7bb352","bdp_lott","Mon Apr 03 2023 18:15:13 GMT-0600 (Mountain Daylight Time)","286232","green","red","image-keyboard-response","11","59374","0.0-5.0-1.3","","1220","","img/green_ll/choose11.jpg","2","222","red","0.5","0.5","0.5","w","",""
"","","","","63f58712a2c1bd62fa7bb352","bdp_lott","Mon Apr 03 2023 18:15:13 GMT-0600 (Mountain Daylight Time)","286232","green","red","animation","12","59975","0.0-5.0-2.3","","","","","","222","","","","","","[{""stimulus"":""img/red_lw/1.jpg"",""time"":51},{""stimulus"":""img/red_lw/2.jpg"",""time"":100},{""stimulus"":""img/red_lw/3.jpg"",""time"":151},{""stimulus"":""img/red_lw/4.jpg"",""time"":201},{""stimulus"":""img/red_lw/5.jpg"",""time"":250},{""stimulus"":""img/red_lw/6.jpg"",""time"":300},{""stimulus"":""img/red_lw/7.jpg"",""time"":351},{""stimulus"":""img/red_lw/8.jpg"",""time"":401},{""stimulus"":""img/red_lw/9.jpg"",""time"":451},{""stimulus"":""img/red_lw/10.jpg"",""time"":501},{""stimulus"":""img/red_lw/11.jpg"",""time"":551}]","[]"
"","","","choice","63f58712a2c1bd62fa7bb352","bdp_lott","Mon Apr 03 2023 18:15:13 GMT-0600 (Mountain Daylight Time)","286232","green","red","image-keyboard-response","13","61022","0.0-5.0-1.4","","1047","","img/red_lw/choose11.jpg","2","221","red","0.5","0.5","0.5","w","",""
"","","","","63f58712a2c1bd62fa7bb352","bdp_lott","Mon Apr 03 2023 18:15:13 GMT-0600 (Mountain Daylight Time)","286232","green","red","animation","14","61629","0.0-5.0-2.4","","","","","","221","","","","","","[{""stimulus"":""img/red_lw/1.jpg"",""time"":51},{""stimulus"":""img/red_lw/2.jpg"",""time"":101},{""stimulus"":""img/red_lw/3.jpg"",""time"":152},{""stimulus"":""img/red_lw/4.jpg"",""time"":203},{""stimulus"":""img/red_lw/5.jpg"",""time"":253},{""stimulus"":""img/red_lw/6.jpg"",""time"":304},{""stimulus"":""img/red_lw/7.jpg"",""time"":354},{""stimulus"":""img/red_lw/8.jpg"",""time"":404},{""stimulus"":""img/red_lw/9.jpg"",""time"":455},{""stimulus"":""img/red_lw/10.jpg"",""time"":505},{""stimulus"":""img/red_lw/11.jpg"",""time"":555}]","[]"
"","","","choice","63f58712a2c1bd62fa7bb352","bdp_lott","Mon Apr 03 2023 18:15:13 GMT-0600 (Mountain Daylight Time)","286232","green","red","image-keyboard-response","15","62422","0.0-5.0-1.5","","793","","img/red_lw/choose11.jpg","2","220","red","0.5","0.5","0.5","l","",""
"","","","","63f58712a2c1bd62fa7bb352","bdp_lott","Mon Apr 03 2023 18:15:13 GMT-0600 (Mountain Daylight Time)","286232","green","red","animation","16","63025","0.0-5.0-2.5","","","","","","220","","","","","","[{""stimulus"":""img/red_ll/1.jpg"",""time"":50},{""stimulus"":""img/red_ll/2.jpg"",""time"":100},{""stimulus"":""img/red_ll/3.jpg"",""time"":151},{""stimulus"":""img/red_ll/4.jpg"",""time"":201},{""stimulus"":""img/red_ll/5.jpg"",""time"":251},{""stimulus"":""img/red_ll/6.jpg"",""time"":301},{""stimulus"":""img/red_ll/7.jpg"",""time"":351},{""stimulus"":""img/red_ll/8.jpg"",""time"":403},{""stimulus"":""img/red_ll/9.jpg"",""time"":453},{""stimulus"":""img/red_ll/10.jpg"",""time"":503},{""stimulus"":""img/red_ll/11.jpg"",""time"":552}]","[]"
"","","","choice","63f58712a2c1bd62fa7bb352","bdp_lott","Mon Apr 03 2023 18:15:13 GMT-0600 (Mountain Daylight Time)","286232","green","red","image-keyboard-response","17","63670","0.0-5.0-1.6","","645","","img/red_ll/choose11.jpg","2","219","red","0.5","0.5","0.5","l","",""
"","","","","63f58712a2c1bd62fa7bb352","bdp_lott","Mon Apr 03 2023 18:15:13 GMT-0600 (Mountain Daylight Time)","286232","green","red","animation","18","64275","0.0-5.0-2.6","","","","","","219","","","","","","[{""stimulus"":""img/red_ll/1.jpg"",""time"":51},{""stimulus"":""img/red_ll/2.jpg"",""time"":101},{""stimulus"":""img/red_ll/3.jpg"",""time"":151},{""stimulus"":""img/red_ll/4.jpg"",""time"":202},{""stimulus"":""img/red_ll/5.jpg"",""time"":252},{""stimulus"":""img/red_ll/6.jpg"",""time"":303},{""stimulus"":""img/red_ll/7.jpg"",""time"":354},{""stimulus"":""img/red_ll/8.jpg"",""time"":404},{""stimulus"":""img/red_ll/9.jpg"",""time"":454},{""stimulus"":""img/red_ll/10.jpg"",""time"":505},{""stimulus"":""img/red_ll/11.jpg"",""time"":555}]","[]"
"","","","choice","63f58712a2c1bd62fa7bb352","bdp_lott","Mon Apr 03 2023 18:15:13 GMT-0600 (Mountain Daylight Time)","286232","green","red","image-keyboard-response","19","64807","0.0-5.0-1.7","","532","","img/red_ll/choose11.jpg","1","218","green","0.5","0.5","0.5","l","",""
"","","","","63f58712a2c1bd62fa7bb352","bdp_lott","Mon Apr 03 2023 18:15:13 GMT-0600 (Mountain Daylight Time)","286232","green","red","animation","20","65411","0.0-5.0-2.7","","","","","","218","","","","","","[{""stimulus"":""img/green_ll/1.jpg"",""time"":51},{""stimulus"":""img/green_ll/2.jpg"",""time"":101},{""stimulus"":""img/green_ll/3.jpg"",""time"":151},{""stimulus"":""img/green_ll/4.jpg"",""time"":201},{""stimulus"":""img/green_ll/5.jpg"",""time"":253},{""stimulus"":""img/green_ll/6.jpg"",""time"":303},{""stimulus"":""img/green_ll/7.jpg"",""time"":353},{""stimulus"":""img/green_ll/8.jpg"",""time"":403},{""stimulus"":""img/green_ll/9.jpg"",""time"":454},{""stimulus"":""img/green_ll/10.jpg"",""time"":504},{""stimulus"":""img/green_ll/11.jpg"",""time"":554}]","[]"
"","","","choice","63f58712a2c1bd62fa7bb352","bdp_lott","Mon Apr 03 2023 18:15:13 GMT-0600 (Mountain Daylight Time)","286232","green","red","image-keyboard-response","21","66487","0.0-5.0-1.8","","1074","","img/green_ll/choose11.jpg","2","217","red","0.5","0.5","0.5","w","",""
"","","","","63f58712a2c1bd62fa7bb352","bdp_lott","Mon Apr 03 2023 18:15:13 GMT-0600 (Mountain Daylight Time)","286232","green","red","animation","22","67092","0.0-5.0-2.8","","","","","","217","","","","","","[{""stimulus"":""img/red_lw/1.jpg"",""time"":52},{""stimulus"":""img/red_lw/2.jpg"",""time"":102},{""stimulus"":""img/red_lw/3.jpg"",""time"":152},{""stimulus"":""img/red_lw/4.jpg"",""time"":202},{""stimulus"":""img/red_lw/5.jpg"",""time"":253},{""stimulus"":""img/red_lw/6.jpg"",""time"":305},{""stimulus"":""img/red_lw/7.jpg"",""time"":355},{""stimulus"":""img/red_lw/8.jpg"",""time"":405},{""stimulus"":""img/red_lw/9.jpg"",""time"":455},{""stimulus"":""img/red_lw/10.jpg"",""time"":505},{""stimulus"":""img/red_lw/11.jpg"",""time"":555}]","[]"
"","","","choice","63f58712a2c1bd62fa7bb352","bdp_lott","Mon Apr 03 2023 18:15:13 GMT-0600 (Mountain Daylight Time)","286232","green","red","image-keyboard-response","23","68079","0.0-5.0-1.9","","986","","img/red_lw/choose11.jpg","1","216","green","0.5","0.5","0.5","l","",""
"","","","","63f58712a2c1bd62fa7bb352","bdp_lott","Mon Apr 03 2023 18:15:13 GMT-0600 (Mountain Daylight Time)","286232","green","red","animation","24","68682","0.0-5.0-2.9","","","","","","216","","","","","","[{""stimulus"":""img/green_lw/1.jpg"",""time"":51},{""stimulus"":""img/green_lw/2.jpg"",""time"":101},{""stimulus"":""img/green_lw/3.jpg"",""time"":151},{""stimulus"":""img/green_lw/4.jpg"",""time"":202},{""stimulus"":""img/green_lw/5.jpg"",""time"":253},{""stimulus"":""img/green_lw/6.jpg"",""time"":303},{""stimulus"":""img/green_lw/7.jpg"",""time"":353},{""stimulus"":""img/green_lw/8.jpg"",""time"":403},{""stimulus"":""img/green_lw/9.jpg"",""time"":454},{""stimulus"":""img/green_lw/10.jpg"",""time"":503},{""stimulus"":""img/green_lw/11.jpg"",""time"":553}]","[]"
"","","","choice","63f58712a2c1bd62fa7bb352","bdp_lott","Mon Apr 03 2023 18:15:13 GMT-0600 (Mountain Daylight Time)","286232","green","red","image-keyboard-response","25","69423","0.0-5.0-1.10","","741","","img/green_lw/choose11.jpg","2","215","red","0.5","0.5","0.5","l","",""
"","","","","63f58712a2c1bd62fa7bb352","bdp_lott","Mon Apr 03 2023 18:15:13 GMT-0600 (Mountain Daylight Time)","286232","green","red","animation","26","70027","0.0-5.0-2.10","","","","","","215","","","","","","[{""stimulus"":""img/red_ll/1.jpg"",""time"":51},{""stimulus"":""img/red_ll/2.jpg"",""time"":101},{""stimulus"":""img/red_ll/3.jpg"",""time"":150},{""stimulus"":""img/red_ll/4.jpg"",""time"":201},{""stimulus"":""img/red_ll/5.jpg"",""time"":252},{""stimulus"":""img/red_ll/6.jpg"",""time"":302},{""stimulus"":""img/red_ll/7.jpg"",""time"":353},{""stimulus"":""img/red_ll/8.jpg"",""time"":403},{""stimulus"":""img/red_ll/9.jpg"",""time"":453},{""stimulus"":""img/red_ll/10.jpg"",""time"":503},{""stimulus"":""img/red_ll/11.jpg"",""time"":554}]","[]"
"","","","choice","63f58712a2c1bd62fa7bb352","bdp_lott","Mon Apr 03 2023 18:15:13 GMT-0600 (Mountain Daylight Time)","286232","green","red","image-keyboard-response","27","70527","0.0-5.0-1.11","","500","","img/red_ll/choose11.jpg","1","214","green","0.5","0.5","0.5","w","",""
"","","","","63f58712a2c1bd62fa7bb352","bdp_lott","Mon Apr 03 2023 18:15:13 GMT-0600 (Mountain Daylight Time)","286232","green","red","animation","28","71130","0.0-5.0-2.11","","","","","","214","","","","","","[{""stimulus"":""img/green_wl/1.jpg"",""time"":52},{""stimulus"":""img/green_wl/2.jpg"",""time"":101},{""stimulus"":""img/green_wl/3.jpg"",""time"":151},{""stimulus"":""img/green_wl/4.jpg"",""time"":201},{""stimulus"":""img/green_wl/5.jpg"",""time"":251},{""stimulus"":""img/green_wl/6.jpg"",""time"":302},{""stimulus"":""img/green_wl/7.jpg"",""time"":352},{""stimulus"":""img/green_wl/8.jpg"",""time"":401},{""stimulus"":""img/green_wl/9.jpg"",""time"":452},{""stimulus"":""img/green_wl/10.jpg"",""time"":502},{""stimulus"":""img/green_wl/11.jpg"",""time"":553}]","[]"
"","","","choice","63f58712a2c1bd62fa7bb352","bdp_lott","Mon Apr 03 2023 18:15:13 GMT-0600 (Mountain Daylight Time)","286232","green","red","image-keyboard-response","29","72159","0.0-5.0-1.12","","1028","","img/green_wl/choose11.jpg","2","213","red","0.5","0.5","0.5","l","",""
"","","","","63f58712a2c1bd62fa7bb352","bdp_lott","Mon Apr 03 2023 18:15:13 GMT-0600 (Mountain Daylight Time)","286232","green","red","animation","30","72764","0.0-5.0-2.12","","","","","","213","","","","","","[{""stimulus"":""img/red_wl/1.jpg"",""time"":52},{""stimulus"":""img/red_wl/2.jpg"",""time"":102},{""stimulus"":""img/red_wl/3.jpg"",""time"":152},{""stimulus"":""img/red_wl/4.jpg"",""time"":203},{""stimulus"":""img/red_wl/5.jpg"",""time"":253},{""stimulus"":""img/red_wl/6.jpg"",""time"":303},{""stimulus"":""img/red_wl/7.jpg"",""time"":353},{""stimulus"":""img/red_wl/8.jpg"",""time"":404},{""stimulus"":""img/red_wl/9.jpg"",""time"":454},{""stimulus"":""img/red_wl/10.jpg"",""time"":503},{""stimulus"":""img/red_wl/11.jpg"",""time"":554}]","[]"
"","","","choice","63f58712a2c1bd62fa7bb352","bdp_lott","Mon Apr 03 2023 18:15:13 GMT-0600 (Mountain Daylight Time)","286232","green","red","image-keyboard-response","31","73423","0.0-5.0-1.13","","659","","img/red_wl/choose11.jpg","1","212","green","0.5","0.5","0.5","w","",""
"","","","","63f58712a2c1bd62fa7bb352","bdp_lott","Mon Apr 03 2023 18:15:13 GMT-0600 (Mountain Daylight Time)","286232","green","red","animation","32","74028","0.0-5.0-2.13","","","","","","212","","","","","","[{""stimulus"":""img/green_wl/1.jpg"",""time"":52},{""stimulus"":""img/green_wl/2.jpg"",""time"":102},{""stimulus"":""img/green_wl/3.jpg"",""time"":152},{""stimulus"":""img/green_wl/4.jpg"",""time"":203},{""stimulus"":""img/green_wl/5.jpg"",""time"":252},{""stimulus"":""img/green_wl/6.jpg"",""time"":302},{""stimulus"":""img/green_wl/7.jpg"",""time"":353},{""stimulus"":""img/green_wl/8.jpg"",""time"":404},{""stimulus"":""img/green_wl/9.jpg"",""time"":455},{""stimulus"":""img/green_wl/10.jpg"",""time"":506},{""stimulus"":""img/green_wl/11.jpg"",""time"":556}]","[]"
"","","","choice","63f58712a2c1bd62fa7bb352","bdp_lott","Mon Apr 03 2023 18:15:13 GMT-0600 (Mountain Daylight Time)","286232","green","red","image-keyboard-response","33","75383","0.0-5.0-1.14","","1354","","img/green_wl/choose11.jpg","2","211","red","0.5","0.5","0.5","w","",""
"","","","","63f58712a2c1bd62fa7bb352","bdp_lott","Mon Apr 03 2023 18:15:13 GMT-0600 (Mountain Daylight Time)","286232","green","red","animation","34","75987","0.0-5.0-2.14","","","","","","211","","","","","","[{""stimulus"":""img/red_ww/1.jpg"",""time"":52},{""stimulus"":""img/red_ww/2.jpg"",""time"":102},{""stimulus"":""img/red_ww/3.jpg"",""time"":152},{""stimulus"":""img/red_ww/4.jpg"",""time"":202},{""stimulus"":""img/red_ww/5.jpg"",""time"":252},{""stimulus"":""img/red_ww/6.jpg"",""time"":301},{""stimulus"":""img/red_ww/7.jpg"",""time"":352},{""stimulus"":""img/red_ww/8.jpg"",""time"":402},{""stimulus"":""img/red_ww/9.jpg"",""time"":453},{""stimulus"":""img/red_ww/10.jpg"",""time"":502},{""stimulus"":""img/red_ww/11.jpg"",""time"":553}]","[]"
"","","","choice","63f58712a2c1bd62fa7bb352","bdp_lott","Mon Apr 03 2023 18:15:13 GMT-0600 (Mountain Daylight Time)","286232","green","red","image-keyboard-response","35","76695","0.0-5.0-1.15","","708","","img/red_ww/choose11.jpg","1","210","green","0.5","0.5","0.5","l","",""
"","","","","63f58712a2c1bd62fa7bb352","bdp_lott","Mon Apr 03 2023 18:15:13 GMT-0600 (Mountain Daylight Time)","286232","green","red","animation","36","77301","0.0-5.0-2.15","","","","","","210","","","","","","[{""stimulus"":""img/green_lw/1.jpg"",""time"":50},{""stimulus"":""img/green_lw/2.jpg"",""time"":100},{""stimulus"":""img/green_lw/3.jpg"",""time"":151},{""stimulus"":""img/green_lw/4.jpg"",""time"":200},{""stimulus"":""img/green_lw/5.jpg"",""time"":250},{""stimulus"":""img/green_lw/6.jpg"",""time"":300},{""stimulus"":""img/green_lw/7.jpg"",""time"":350},{""stimulus"":""img/green_lw/8.jpg"",""time"":402},{""stimulus"":""img/green_lw/9.jpg"",""time"":453},{""stimulus"":""img/green_lw/10.jpg"",""time"":503},{""stimulus"":""img/green_lw/11.jpg"",""time"":555}]","[]"
"","","","choice","63f58712a2c1bd62fa7bb352","bdp_lott","Mon Apr 03 2023 18:15:13 GMT-0600 (Mountain Daylight Time)","286232","green","red","image-keyboard-response","37","78296","0.0-5.0-1.16","","994","","img/green_lw/choose11.jpg","2","209","red","0.5","0.5","0.5","w","",""
"","","","","63f58712a2c1bd62fa7bb352","bdp_lott","Mon Apr 03 2023 18:15:13 GMT-0600 (Mountain Daylight Time)","286232","green","red","animation","38","78901","0.0-5.0-2.16","","","","","","209","","","","","","[{""stimulus"":""img/red_lw/1.jpg"",""time"":50},{""stimulus"":""img/red_lw/2.jpg"",""time"":100},{""stimulus"":""img/red_lw/3.jpg"",""time"":150},{""stimulus"":""img/red_lw/4.jpg"",""time"":201},{""stimulus"":""img/red_lw/5.jpg"",""time"":251},{""stimulus"":""img/red_lw/6.jpg"",""time"":302},{""stimulus"":""img/red_lw/7.jpg"",""time"":354},{""stimulus"":""img/red_lw/8.jpg"",""time"":404},{""stimulus"":""img/red_lw/9.jpg"",""time"":454},{""stimulus"":""img/red_lw/10.jpg"",""time"":504},{""stimulus"":""img/red_lw/11.jpg"",""time"":555}]","[]"
"","","","choice","63f58712a2c1bd62fa7bb352","bdp_lott","Mon Apr 03 2023 18:15:13 GMT-0600 (Mountain Daylight Time)","286232","green","red","image-keyboard-response","39","79656","0.0-5.0-1.17","","755","","img/red_lw/choose11.jpg","1","208","green","0.5","0.5","0.5","w","",""
"","","","","63f58712a2c1bd62fa7bb352","bdp_lott","Mon Apr 03 2023 18:15:13 GMT-0600 (Mountain Daylight Time)","286232","green","red","animation","40","80260","0.0-5.0-2.17","","","","","","208","","","","","","[{""stimulus"":""img/green_ww/1.jpg"",""time"":51},{""stimulus"":""img/green_ww/2.jpg"",""time"":101},{""stimulus"":""img/green_ww/3.jpg"",""time"":152},{""stimulus"":""img/green_ww/4.jpg"",""time"":202},{""stimulus"":""img/green_ww/5.jpg"",""time"":252},{""stimulus"":""img/green_ww/6.jpg"",""time"":303},{""stimulus"":""img/green_ww/7.jpg"",""time"":353},{""stimulus"":""img/green_ww/8.jpg"",""time"":404},{""stimulus"":""img/green_ww/9.jpg"",""time"":454},{""stimulus"":""img/green_ww/10.jpg"",""time"":504},{""stimulus"":""img/green_ww/11.jpg"",""time"":554}]","[]"
"","","","choice","63f58712a2c1bd62fa7bb352","bdp_lott","Mon Apr 03 2023 18:15:13 GMT-0600 (Mountain Daylight Time)","286232","green","red","image-keyboard-response","41","81681","0.0-5.0-1.18","","1419","","img/green_ww/choose11.jpg","2","207","red","0.5","0.5","0.5","w","",""
"","","","","63f58712a2c1bd62fa7bb352","bdp_lott","Mon Apr 03 2023 18:15:13 GMT-0600 (Mountain Daylight Time)","286232","green","red","animation","42","82286","0.0-5.0-2.18","","","","","","207","","","","","","[{""stimulus"":""img/red_ww/1.jpg"",""time"":51},{""stimulus"":""img/red_ww/2.jpg"",""time"":101},{""stimulus"":""img/red_ww/3.jpg"",""time"":151},{""stimulus"":""img/red_ww/4.jpg"",""time"":201},{""stimulus"":""img/red_ww/5.jpg"",""time"":252},{""stimulus"":""img/red_ww/6.jpg"",""time"":302},{""stimulus"":""img/red_ww/7.jpg"",""time"":352},{""stimulus"":""img/red_ww/8.jpg"",""time"":402},{""stimulus"":""img/red_ww/9.jpg"",""time"":453},{""stimulus"":""img/red_ww/10.jpg"",""time"":505},{""stimulus"":""img/red_ww/11.jpg"",""time"":555}]","[]"
"","","","choice","63f58712a2c1bd62fa7bb352","bdp_lott","Mon Apr 03 2023 18:15:13 GMT-0600 (Mountain Daylight Time)","286232","green","red","image-keyboard-response","43","83120","0.0-5.0-1.19","","834","","img/red_ww/choose11.jpg","1","206","green","0.5","0.5","0.5","w","",""
"","","","","63f58712a2c1bd62fa7bb352","bdp_lott","Mon Apr 03 2023 18:15:13 GMT-0600 (Mountain Daylight Time)","286232","green","red","animation","44","83724","0.0-5.0-2.19","","","","","","206","","","","","","[{""stimulus"":""img/green_ww/1.jpg"",""time"":50},{""stimulus"":""img/green_ww/2.jpg"",""time"":100},{""stimulus"":""img/green_ww/3.jpg"",""time"":150},{""stimulus"":""img/green_ww/4.jpg"",""time"":202},{""stimulus"":""img/green_ww/5.jpg"",""time"":252},{""stimulus"":""img/green_ww/6.jpg"",""time"":303},{""stimulus"":""img/green_ww/7.jpg"",""time"":354},{""stimulus"":""img/green_ww/8.jpg"",""time"":403},{""stimulus"":""img/green_ww/9.jpg"",""time"":454},{""stimulus"":""img/green_ww/10.jpg"",""time"":504},{""stimulus"":""img/green_ww/11.jpg"",""time"":554}]","[]"
"","","","choice","63f58712a2c1bd62fa7bb352","bdp_lott","Mon Apr 03 2023 18:15:13 GMT-0600 (Mountain Daylight Time)","286232","green","red","image-keyboard-response","45","84424","0.0-5.0-1.20","","700","","img/green_ww/choose11.jpg","2","205","red","0.5","0.5","0.5","l","",""
"","","","","63f58712a2c1bd62fa7bb352","bdp_lott","Mon Apr 03 2023 18:15:13 GMT-0600 (Mountain Daylight Time)","286232","green","red","animation","46","85029","0.0-5.0-2.20","","","","","","205","","","","","","[{""stimulus"":""img/red_wl/1.jpg"",""time"":51},{""stimulus"":""img/red_wl/2.jpg"",""time"":102},{""stimulus"":""img/red_wl/3.jpg"",""time"":152},{""stimulus"":""img/red_wl/4.jpg"",""time"":203},{""stimulus"":""img/red_wl/5.jpg"",""time"":252},{""stimulus"":""img/red_wl/6.jpg"",""time"":303},{""stimulus"":""img/red_wl/7.jpg"",""time"":353},{""stimulus"":""img/red_wl/8.jpg"",""time"":403},{""stimulus"":""img/red_wl/9.jpg"",""time"":455},{""stimulus"":""img/red_wl/10.jpg"",""time"":505},{""stimulus"":""img/red_wl/11.jpg"",""time"":555}]","[]"
"","","","choice","63f58712a2c1bd62fa7bb352","bdp_lott","Mon Apr 03 2023 18:15:13 GMT-0600 (Mountain Daylight Time)","286232","green","red","image-keyboard-response","47","85673","0.0-5.0-1.21","","644","","img/red_wl/choose11.jpg","1","204","green","0.5","0.5","0.5","l","",""
"","","","","63f58712a2c1bd62fa7bb352","bdp_lott","Mon Apr 03 2023 18:15:13 GMT-0600 (Mountain Daylight Time)","286232","green","red","animation","48","86276","0.0-5.0-2.21","","","","","","204","","","","","","[{""stimulus"":""img/green_ll/1.jpg"",""time"":51},{""stimulus"":""img/green_ll/2.jpg"",""time"":101},{""stimulus"":""img/green_ll/3.jpg"",""time"":151},{""stimulus"":""img/green_ll/4.jpg"",""time"":202},{""stimulus"":""img/green_ll/5.jpg"",""time"":252},{""stimulus"":""img/green_ll/6.jpg"",""time"":302},{""stimulus"":""img/green_ll/7.jpg"",""time"":352},{""stimulus"":""img/green_ll/8.jpg"",""time"":402},{""stimulus"":""img/green_ll/9.jpg"",""time"":452},{""stimulus"":""img/green_ll/10.jpg"",""time"":502},{""stimulus"":""img/green_ll/11.jpg"",""time"":553}]","[]"
"","","","choice","63f58712a2c1bd62fa7bb352","bdp_lott","Mon Apr 03 2023 18:15:13 GMT-0600 (Mountain Daylight Time)","286232","green","red","image-keyboard-response","49","87193","0.0-5.0-1.22","","916","","img/green_ll/choose11.jpg","2","203","red","0.5","0.5","0.5","l","",""
"","","","","63f58712a2c1bd62fa7bb352","bdp_lott","Mon Apr 03 2023 18:15:13 GMT-0600 (Mountain Daylight Time)","286232","green","red","animation","50","87795","0.0-5.0-2.22","","","","","","203","","","","","","[{""stimulus"":""img/red_ll/1.jpg"",""time"":52},{""stimulus"":""img/red_ll/2.jpg"",""time"":101},{""stimulus"":""img/red_ll/3.jpg"",""time"":152},{""stimulus"":""img/red_ll/4.jpg"",""time"":202},{""stimulus"":""img/red_ll/5.jpg"",""time"":252},{""stimulus"":""img/red_ll/6.jpg"",""time"":302},{""stimulus"":""img/red_ll/7.jpg"",""time"":352},{""stimulus"":""img/red_ll/8.jpg"",""time"":402},{""stimulus"":""img/red_ll/9.jpg"",""time"":452},{""stimulus"":""img/red_ll/10.jpg"",""time"":502},{""stimulus"":""img/red_ll/11.jpg"",""time"":552}]","[]"
"","","","choice","63f58712a2c1bd62fa7bb352","bdp_lott","Mon Apr 03 2023 18:15:13 GMT-0600 (Mountain Daylight Time)","286232","green","red","image-keyboard-response","51","88625","0.0-5.0-1.23","","829","","img/red_ll/choose11.jpg","1","202","green","0.5","0.5","0.5","w","",""
"","","","","63f58712a2c1bd62fa7bb352","bdp_lott","Mon Apr 03 2023 18:15:13 GMT-0600 (Mountain Daylight Time)","286232","green","red","animation","52","89227","0.0-5.0-2.23","","","","","","202","","","","","","[{""stimulus"":""img/green_wl/1.jpg"",""time"":51},{""stimulus"":""img/green_wl/2.jpg"",""time"":101},{""stimulus"":""img/green_wl/3.jpg"",""time"":151},{""stimulus"":""img/green_wl/4.jpg"",""time"":201},{""stimulus"":""img/green_wl/5.jpg"",""time"":250},{""stimulus"":""img/green_wl/6.jpg"",""time"":302},{""stimulus"":""img/green_wl/7.jpg"",""time"":351},{""stimulus"":""img/green_wl/8.jpg"",""time"":402},{""stimulus"":""img/green_wl/9.jpg"",""time"":452},{""stimulus"":""img/green_wl/10.jpg"",""time"":502},{""stimulus"":""img/green_wl/11.jpg"",""time"":552}]","[]"
"","","","choice","63f58712a2c1bd62fa7bb352","bdp_lott","Mon Apr 03 2023 18:15:13 GMT-0600 (Mountain Daylight Time)","286232","green","red","image-keyboard-response","53","91793","0.0-5.0-1.24","","2566","","img/green_wl/choose11.jpg","2","201","red","0.5","0.5","0.5","l","",""
"","","","","63f58712a2c1bd62fa7bb352","bdp_lott","Mon Apr 03 2023 18:15:13 GMT-0600 (Mountain Daylight Time)","286232","green","red","animation","54","92398","0.0-5.0-2.24","","","","","","201","","","","","","[{""stimulus"":""img/red_wl/1.jpg"",""time"":51},{""stimulus"":""img/red_wl/2.jpg"",""time"":100},{""stimulus"":""img/red_wl/3.jpg"",""time"":150},{""stimulus"":""img/red_wl/4.jpg"",""time"":201},{""stimulus"":""img/red_wl/5.jpg"",""time"":252},{""stimulus"":""img/red_wl/6.jpg"",""time"":302},{""stimulus"":""img/red_wl/7.jpg"",""time"":353},{""stimulus"":""img/red_wl/8.jpg"",""time"":402},{""stimulus"":""img/red_wl/9.jpg"",""time"":454},{""stimulus"":""img/red_wl/10.jpg"",""time"":504},{""stimulus"":""img/red_wl/11.jpg"",""time"":554}]","[]"
"","","","choice","63f58712a2c1bd62fa7bb352","bdp_lott","Mon Apr 03 2023 18:15:13 GMT-0600 (Mountain Daylight Time)","286232","green","red","image-keyboard-response","55","92962","0.0-5.0-1.25","","564","","img/red_wl/choose11.jpg","1","200","green","0.5","0.5","0.5","l","",""
"","","","","63f58712a2c1bd62fa7bb352","bdp_lott","Mon Apr 03 2023 18:15:13 GMT-0600 (Mountain Daylight Time)","286232","green","red","animation","56","93564","0.0-5.0-2.25","","","","","","200","","","","","","[{""stimulus"":""img/green_ll/1.jpg"",""time"":50},{""stimulus"":""img/green_ll/2.jpg"",""time"":100},{""stimulus"":""img/green_ll/3.jpg"",""time"":150},{""stimulus"":""img/green_ll/4.jpg"",""time"":200},{""stimulus"":""img/green_ll/5.jpg"",""time"":250},{""stimulus"":""img/green_ll/6.jpg"",""time"":300},{""stimulus"":""img/green_ll/7.jpg"",""time"":350},{""stimulus"":""img/green_ll/8.jpg"",""time"":402},{""stimulus"":""img/green_ll/9.jpg"",""time"":451},{""stimulus"":""img/green_ll/10.jpg"",""time"":502},{""stimulus"":""img/green_ll/11.jpg"",""time"":553}]","[]"
"","","","choice","63f58712a2c1bd62fa7bb352","bdp_lott","Mon Apr 03 2023 18:15:13 GMT-0600 (Mountain Daylight Time)","286232","green","red","image-keyboard-response","57","94226","0.0-5.0-1.26","","661","","img/green_ll/choose11.jpg","2","199","red","0.5","0.5","0.5","l","",""
"","","","","63f58712a2c1bd62fa7bb352","bdp_lott","Mon Apr 03 2023 18:15:13 GMT-0600 (Mountain Daylight Time)","286232","green","red","animation","58","94830","0.0-5.0-2.26","","","","","","199","","","","","","[{""stimulus"":""img/red_ll/1.jpg"",""time"":50},{""stimulus"":""img/red_ll/2.jpg"",""time"":100},{""stimulus"":""img/red_ll/3.jpg"",""time"":150},{""stimulus"":""img/red_ll/4.jpg"",""time"":202},{""stimulus"":""img/red_ll/5.jpg"",""time"":253},{""stimulus"":""img/red_ll/6.jpg"",""time"":303},{""stimulus"":""img/red_ll/7.jpg"",""time"":354},{""stimulus"":""img/red_ll/8.jpg"",""time"":404},{""stimulus"":""img/red_ll/9.jpg"",""time"":454},{""stimulus"":""img/red_ll/10.jpg"",""time"":504},{""stimulus"":""img/red_ll/11.jpg"",""time"":554}]","[]"
"","","","choice","63f58712a2c1bd62fa7bb352","bdp_lott","Mon Apr 03 2023 18:15:13 GMT-0600 (Mountain Daylight Time)","286232","green","red","image-keyboard-response","59","95362","0.0-5.0-1.27","","531","","img/red_ll/choose11.jpg","1","198","green","0.5","0.5","0.5","w","",""
"","","","","63f58712a2c1bd62fa7bb352","bdp_lott","Mon Apr 03 2023 18:15:13 GMT-0600 (Mountain Daylight Time)","286232","green","red","animation","60","95966","0.0-5.0-2.27","","","","","","198","","","","","","[{""stimulus"":""img/green_wl/1.jpg"",""time"":51},{""stimulus"":""img/green_wl/2.jpg"",""time"":100},{""stimulus"":""img/green_wl/3.jpg"",""time"":151},{""stimulus"":""img/green_wl/4.jpg"",""time"":201},{""stimulus"":""img/green_wl/5.jpg"",""time"":251},{""stimulus"":""img/green_wl/6.jpg"",""time"":301},{""stimulus"":""img/green_wl/7.jpg"",""time"":351},{""stimulus"":""img/green_wl/8.jpg"",""time"":401},{""stimulus"":""img/green_wl/9.jpg"",""time"":452},{""stimulus"":""img/green_wl/10.jpg"",""time"":502},{""stimulus"":""img/green_wl/11.jpg"",""time"":552}]","[]"
"","","","choice","63f58712a2c1bd62fa7bb352","bdp_lott","Mon Apr 03 2023 18:15:13 GMT-0600 (Mountain Daylight Time)","286232","green","red","image-keyboard-response","61","96794","0.0-5.0-1.28","","827","","img/green_wl/choose11.jpg","1","197","green","0.5","0.5","0.5","w","",""
"","","","","63f58712a2c1bd62fa7bb352","bdp_lott","Mon Apr 03 2023 18:15:13 GMT-0600 (Mountain Daylight Time)","286232","green","red","animation","62","97399","0.0-5.0-2.28","","","","","","197","","","","","","[{""stimulus"":""img/green_wl/1.jpg"",""time"":50},{""stimulus"":""img/green_wl/2.jpg"",""time"":100},{""stimulus"":""img/green_wl/3.jpg"",""time"":151},{""stimulus"":""img/green_wl/4.jpg"",""time"":202},{""stimulus"":""img/green_wl/5.jpg"",""time"":252},{""stimulus"":""img/green_wl/6.jpg"",""time"":302},{""stimulus"":""img/green_wl/7.jpg"",""time"":352},{""stimulus"":""img/green_wl/8.jpg"",""time"":402},{""stimulus"":""img/green_wl/9.jpg"",""time"":452},{""stimulus"":""img/green_wl/10.jpg"",""time"":504},{""stimulus"":""img/green_wl/11.jpg"",""time"":554}]","[]"
"","","","choice","63f58712a2c1bd62fa7bb352","bdp_lott","Mon Apr 03 2023 18:15:13 GMT-0600 (Mountain Daylight Time)","286232","green","red","image-keyboard-response","63","98066","0.0-5.0-1.29","","667","","img/green_wl/choose11.jpg","1","196","green","0.5","0.5","0.5","w","",""
"","","","","63f58712a2c1bd62fa7bb352","bdp_lott","Mon Apr 03 2023 18:15:13 GMT-0600 (Mountain Daylight Time)","286232","green","red","animation","64","98668","0.0-5.0-2.29","","","","","","196","","","","","","[{""stimulus"":""img/green_wl/1.jpg"",""time"":51},{""stimulus"":""img/green_wl/2.jpg"",""time"":100},{""stimulus"":""img/green_wl/3.jpg"",""time"":151},{""stimulus"":""img/green_wl/4.jpg"",""time"":200},{""stimulus"":""img/green_wl/5.jpg"",""time"":251},{""stimulus"":""img/green_wl/6.jpg"",""time"":300},{""stimulus"":""img/green_wl/7.jpg"",""time"":351},{""stimulus"":""img/green_wl/8.jpg"",""time"":401},{""stimulus"":""img/green_wl/9.jpg"",""time"":451},{""stimulus"":""img/green_wl/10.jpg"",""time"":501},{""stimulus"":""img/green_wl/11.jpg"",""time"":552}]","[]"
"","","","choice","63f58712a2c1bd62fa7bb352","bdp_lott","Mon Apr 03 2023 18:15:13 GMT-0600 (Mountain Daylight Time)","286232","green","red","image-keyboard-response","65","99338","0.0-5.0-1.30","","670","","img/green_wl/choose11.jpg","1","195","green","0.5","0.5","0.5","w","",""
"","","","","63f58712a2c1bd62fa7bb352","bdp_lott","Mon Apr 03 2023 18:15:13 GMT-0600 (Mountain Daylight Time)","286232","green","red","animation","66","99944","0.0-5.0-2.30","","","","","","195","","","","","","[{""stimulus"":""img/green_wl/1.jpg"",""time"":51},{""stimulus"":""img/green_wl/2.jpg"",""time"":102},{""stimulus"":""img/green_wl/3.jpg"",""time"":152},{""stimulus"":""img/green_wl/4.jpg"",""time"":203},{""stimulus"":""img/green_wl/5.jpg"",""time"":253},{""stimulus"":""img/green_wl/6.jpg"",""time"":303},{""stimulus"":""img/green_wl/7.jpg"",""time"":353},{""stimulus"":""img/green_wl/8.jpg"",""time"":404},{""stimulus"":""img/green_wl/9.jpg"",""time"":454},{""stimulus"":""img/green_wl/10.jpg"",""time"":503},{""stimulus"":""img/green_wl/11.jpg"",""time"":554}]","[]"
"","","","choice","63f58712a2c1bd62fa7bb352","bdp_lott","Mon Apr 03 2023 18:15:13 GMT-0600 (Mountain Daylight Time)","286232","green","red","image-keyboard-response","67","100754","0.0-5.0-1.31","","810","","img/green_wl/choose11.jpg","1","194","green","0.5","0.5","0.5","l","",""
"","","","","63f58712a2c1bd62fa7bb352","bdp_lott","Mon Apr 03 2023 18:15:13 GMT-0600 (Mountain Daylight Time)","286232","green","red","animation","68","101358","0.0-5.0-2.31","","","","","","194","","","","","","[{""stimulus"":""img/green_ll/1.jpg"",""time"":51},{""stimulus"":""img/green_ll/2.jpg"",""time"":101},{""stimulus"":""img/green_ll/3.jpg"",""time"":152},{""stimulus"":""img/green_ll/4.jpg"",""time"":203},{""stimulus"":""img/green_ll/5.jpg"",""time"":252},{""stimulus"":""img/green_ll/6.jpg"",""time"":303},{""stimulus"":""img/green_ll/7.jpg"",""time"":353},{""stimulus"":""img/green_ll/8.jpg"",""time"":403},{""stimulus"":""img/green_ll/9.jpg"",""time"":453},{""stimulus"":""img/green_ll/10.jpg"",""time"":505},{""stimulus"":""img/green_ll/11.jpg"",""time"":555}]","[]"
"","","","choice","63f58712a2c1bd62fa7bb352","bdp_lott","Mon Apr 03 2023 18:15:13 GMT-0600 (Mountain Daylight Time)","286232","green","red","image-keyboard-response","69","101851","0.0-5.0-1.32","","492","","img/green_ll/choose11.jpg","1","193","green","0.5","0.5","0.5","l","",""
"","","","","63f58712a2c1bd62fa7bb352","bdp_lott","Mon Apr 03 2023 18:15:13 GMT-0600 (Mountain Daylight Time)","286232","green","red","animation","70","102454","0.0-5.0-2.32","","","","","","193","","","","","","[{""stimulus"":""img/green_ll/1.jpg"",""time"":50},{""stimulus"":""img/green_ll/2.jpg"",""time"":100},{""stimulus"":""img/green_ll/3.jpg"",""time"":151},{""stimulus"":""img/green_ll/4.jpg"",""time"":201},{""stimulus"":""img/green_ll/5.jpg"",""time"":251},{""stimulus"":""img/green_ll/6.jpg"",""time"":301},{""stimulus"":""img/green_ll/7.jpg"",""time"":352},{""stimulus"":""img/green_ll/8.jpg"",""time"":402},{""stimulus"":""img/green_ll/9.jpg"",""time"":453},{""stimulus"":""img/green_ll/10.jpg"",""time"":503},{""stimulus"":""img/green_ll/11.jpg"",""time"":553}]","[]"
"","","","choice","63f58712a2c1bd62fa7bb352","bdp_lott","Mon Apr 03 2023 18:15:13 GMT-0600 (Mountain Daylight Time)","286232","green","red","image-keyboard-response","71","102803","0.0-5.0-1.33","","348","","img/green_ll/choose11.jpg","1","192","green","0.5","0.5","0.5","l","",""
"","","","","63f58712a2c1bd62fa7bb352","bdp_lott","Mon Apr 03 2023 18:15:13 GMT-0600 (Mountain Daylight Time)","286232","green","red","animation","72","103408","0.0-5.0-2.33","","","","","","192","","","","","","[{""stimulus"":""img/green_ll/1.jpg"",""time"":50},{""stimulus"":""img/green_ll/2.jpg"",""time"":100},{""stimulus"":""img/green_ll/3.jpg"",""time"":151},{""stimulus"":""img/green_ll/4.jpg"",""time"":200},{""stimulus"":""img/green_ll/5.jpg"",""time"":250},{""stimulus"":""img/green_ll/6.jpg"",""time"":303},{""stimulus"":""img/green_ll/7.jpg"",""time"":353},{""stimulus"":""img/green_ll/8.jpg"",""time"":402},{""stimulus"":""img/green_ll/9.jpg"",""time"":452},{""stimulus"":""img/green_ll/10.jpg"",""time"":502},{""stimulus"":""img/green_ll/11.jpg"",""time"":554}]","[]"
"","","","choice","63f58712a2c1bd62fa7bb352","bdp_lott","Mon Apr 03 2023 18:15:13 GMT-0600 (Mountain Daylight Time)","286232","green","red","image-keyboard-response","73","103795","0.0-5.0-1.34","","387","","img/green_ll/choose11.jpg","1","191","green","0.5","0.5","0.5","l","",""
"","","","","63f58712a2c1bd62fa7bb352","bdp_lott","Mon Apr 03 2023 18:15:13 GMT-0600 (Mountain Daylight Time)","286232","green","red","animation","74","104397","0.0-5.0-2.34","","","","","","191","","","","","","[{""stimulus"":""img/green_ll/1.jpg"",""time"":51},{""stimulus"":""img/green_ll/2.jpg"",""time"":101},{""stimulus"":""img/green_ll/3.jpg"",""time"":152},{""stimulus"":""img/green_ll/4.jpg"",""time"":202},{""stimulus"":""img/green_ll/5.jpg"",""time"":252},{""stimulus"":""img/green_ll/6.jpg"",""time"":302},{""stimulus"":""img/green_ll/7.jpg"",""time"":352},{""stimulus"":""img/green_ll/8.jpg"",""time"":402},{""stimulus"":""img/green_ll/9.jpg"",""time"":452},{""stimulus"":""img/green_ll/10.jpg"",""time"":502},{""stimulus"":""img/green_ll/11.jpg"",""time"":552}]","[]"
"","","","choice","63f58712a2c1bd62fa7bb352","bdp_lott","Mon Apr 03 2023 18:15:13 GMT-0600 (Mountain Daylight Time)","286232","green","red","image-keyboard-response","75","104843","0.0-5.0-1.35","","446","","img/green_ll/choose11.jpg","1","190","green","0.5","0.5","0.5","w","",""
"","","","","63f58712a2c1bd62fa7bb352","bdp_lott","Mon Apr 03 2023 18:15:13 GMT-0600 (Mountain Daylight Time)","286232","green","red","animation","76","105448","0.0-5.0-2.35","","","","","","190","","","","","","[{""stimulus"":""img/green_wl/1.jpg"",""time"":51},{""stimulus"":""img/green_wl/2.jpg"",""time"":100},{""stimulus"":""img/green_wl/3.jpg"",""time"":151},{""stimulus"":""img/green_wl/4.jpg"",""time"":201},{""stimulus"":""img/green_wl/5.jpg"",""time"":251},{""stimulus"":""img/green_wl/6.jpg"",""time"":302},{""stimulus"":""img/green_wl/7.jpg"",""time"":352},{""stimulus"":""img/green_wl/8.jpg"",""time"":403},{""stimulus"":""img/green_wl/9.jpg"",""time"":454},{""stimulus"":""img/green_wl/10.jpg"",""time"":504},{""stimulus"":""img/green_wl/11.jpg"",""time"":553}]","[]"
"","","","choice","63f58712a2c1bd62fa7bb352","bdp_lott","Mon Apr 03 2023 18:15:13 GMT-0600 (Mountain Daylight Time)","286232","green","red","image-keyboard-response","77","105763","0.0-5.0-1.36","","315","","img/green_wl/choose11.jpg","2","189","red","0.5","0.5","0.5","l","",""
"","","","","63f58712a2c1bd62fa7bb352","bdp_lott","Mon Apr 03 2023 18:15:13 GMT-0600 (Mountain Daylight Time)","286232","green","red","animation","78","106369","0.0-5.0-2.36","","","","","","189","","","","","","[{""stimulus"":""img/red_wl/1.jpg"",""time"":52},{""stimulus"":""img/red_wl/2.jpg"",""time"":101},{""stimulus"":""img/red_wl/3.jpg"",""time"":153},{""stimulus"":""img/red_wl/4.jpg"",""time"":202},{""stimulus"":""img/red_wl/5.jpg"",""time"":254},{""stimulus"":""img/red_wl/6.jpg"",""time"":303},{""stimulus"":""img/red_wl/7.jpg"",""time"":354},{""stimulus"":""img/red_wl/8.jpg"",""time"":404},{""stimulus"":""img/red_wl/9.jpg"",""time"":455},{""stimulus"":""img/red_wl/10.jpg"",""time"":506},{""stimulus"":""img/red_wl/11.jpg"",""time"":555}]","[]"
"","","","choice","63f58712a2c1bd62fa7bb352","bdp_lott","Mon Apr 03 2023 18:15:13 GMT-0600 (Mountain Daylight Time)","286232","green","red","image-keyboard-response","79","106875","0.0-5.0-1.37","","506","","img/red_wl/choose11.jpg","2","188","red","0.5","0.5","0.5","l","",""
"","","","","63f58712a2c1bd62fa7bb352","bdp_lott","Mon Apr 03 2023 18:15:13 GMT-0600 (Mountain Daylight Time)","286232","green","red","animation","80","107478","0.0-5.0-2.37","","","","","","188","","","","","","[{""stimulus"":""img/red_wl/1.jpg"",""time"":51},{""stimulus"":""img/red_wl/2.jpg"",""time"":101},{""stimulus"":""img/red_wl/3.jpg"",""time"":151},{""stimulus"":""img/red_wl/4.jpg"",""time"":201},{""stimulus"":""img/red_wl/5.jpg"",""time"":251},{""stimulus"":""img/red_wl/6.jpg"",""time"":301},{""stimulus"":""img/red_wl/7.jpg"",""time"":351},{""stimulus"":""img/red_wl/8.jpg"",""time"":401},{""stimulus"":""img/red_wl/9.jpg"",""time"":452},{""stimulus"":""img/red_wl/10.jpg"",""time"":502},{""stimulus"":""img/red_wl/11.jpg"",""time"":552}]","[]"
"","","","choice","63f58712a2c1bd62fa7bb352","bdp_lott","Mon Apr 03 2023 18:15:13 GMT-0600 (Mountain Daylight Time)","286232","green","red","image-keyboard-response","81","107780","0.0-5.0-1.38","","302","","img/red_wl/choose11.jpg","2","187","red","0.5","0.5","0.5","l","",""
"","","","","63f58712a2c1bd62fa7bb352","bdp_lott","Mon Apr 03 2023 18:15:13 GMT-0600 (Mountain Daylight Time)","286232","green","red","animation","82","108383","0.0-5.0-2.38","","","","","","187","","","","","","[{""stimulus"":""img/red_wl/1.jpg"",""time"":50},{""stimulus"":""img/red_wl/2.jpg"",""time"":99},{""stimulus"":""img/red_wl/3.jpg"",""time"":150},{""stimulus"":""img/red_wl/4.jpg"",""time"":200},{""stimulus"":""img/red_wl/5.jpg"",""time"":250},{""stimulus"":""img/red_wl/6.jpg"",""time"":300},{""stimulus"":""img/red_wl/7.jpg"",""time"":350},{""stimulus"":""img/red_wl/8.jpg"",""time"":401},{""stimulus"":""img/red_wl/9.jpg"",""time"":451},{""stimulus"":""img/red_wl/10.jpg"",""time"":503},{""stimulus"":""img/red_wl/11.jpg"",""time"":554}]","[]"
"","","","choice","63f58712a2c1bd62fa7bb352","bdp_lott","Mon Apr 03 2023 18:15:13 GMT-0600 (Mountain Daylight Time)","286232","green","red","image-keyboard-response","83","108731","0.0-5.0-1.39","","348","","img/red_wl/choose11.jpg","1","186","green","0.5","0.5","0.5","w","",""
"","","","","63f58712a2c1bd62fa7bb352","bdp_lott","Mon Apr 03 2023 18:15:13 GMT-0600 (Mountain Daylight Time)","286232","green","red","animation","84","109336","0.0-5.0-2.39","","","","","","186","","","","","","[{""stimulus"":""img/green_wl/1.jpg"",""time"":52},{""stimulus"":""img/green_wl/2.jpg"",""time"":102},{""stimulus"":""img/green_wl/3.jpg"",""time"":152},{""stimulus"":""img/green_wl/4.jpg"",""time"":202},{""stimulus"":""img/green_wl/5.jpg"",""time"":252},{""stimulus"":""img/green_wl/6.jpg"",""time"":302},{""stimulus"":""img/green_wl/7.jpg"",""time"":352},{""stimulus"":""img/green_wl/8.jpg"",""time"":403},{""stimulus"":""img/green_wl/9.jpg"",""time"":454},{""stimulus"":""img/green_wl/10.jpg"",""time"":504},{""stimulus"":""img/green_wl/11.jpg"",""time"":554}]","[]"
"","","","choice","63f58712a2c1bd62fa7bb352","bdp_lott","Mon Apr 03 2023 18:15:13 GMT-0600 (Mountain Daylight Time)","286232","green","red","image-keyboard-response","85","109884","0.0-5.0-1.40","","548","","img/green_wl/choose11.jpg","1","185","green","0.5","0.5","0.5","l","",""
"","","","","63f58712a2c1bd62fa7bb352","bdp_lott","Mon Apr 03 2023 18:15:13 GMT-0600 (Mountain Daylight Time)","286232","green","red","animation","86","110486","0.0-5.0-2.40","","","","","","185","","","","","","[{""stimulus"":""img/green_ll/1.jpg"",""time"":51},{""stimulus"":""img/green_ll/2.jpg"",""time"":100},{""stimulus"":""img/green_ll/3.jpg"",""time"":150},{""stimulus"":""img/green_ll/4.jpg"",""time"":200},{""stimulus"":""img/green_ll/5.jpg"",""time"":251},{""stimulus"":""img/green_ll/6.jpg"",""time"":302},{""stimulus"":""img/green_ll/7.jpg"",""time"":353},{""stimulus"":""img/green_ll/8.jpg"",""time"":402},{""stimulus"":""img/green_ll/9.jpg"",""time"":453},{""stimulus"":""img/green_ll/10.jpg"",""time"":502},{""stimulus"":""img/green_ll/11.jpg"",""time"":553}]","[]"
"","","","choice","63f58712a2c1bd62fa7bb352","bdp_lott","Mon Apr 03 2023 18:15:13 GMT-0600 (Mountain Daylight Time)","286232","green","red","image-keyboard-response","87","110947","0.0-5.0-1.41","","461","","img/green_ll/choose11.jpg","1","184","green","0.5","0.5","0.5","l","",""
"","","","","63f58712a2c1bd62fa7bb352","bdp_lott","Mon Apr 03 2023 18:15:13 GMT-0600 (Mountain Daylight Time)","286232","green","red","animation","88","111554","0.0-5.0-2.41","","","","","","184","","","","","","[{""stimulus"":""img/green_ll/1.jpg"",""time"":52},{""stimulus"":""img/green_ll/2.jpg"",""time"":102},{""stimulus"":""img/green_ll/3.jpg"",""time"":153},{""stimulus"":""img/green_ll/4.jpg"",""time"":204},{""stimulus"":""img/green_ll/5.jpg"",""time"":254},{""stimulus"":""img/green_ll/6.jpg"",""time"":304},{""stimulus"":""img/green_ll/7.jpg"",""time"":355},{""stimulus"":""img/green_ll/8.jpg"",""time"":406},{""stimulus"":""img/green_ll/9.jpg"",""time"":456},{""stimulus"":""img/green_ll/10.jpg"",""time"":506},{""stimulus"":""img/green_ll/11.jpg"",""time"":556}]","[]"
"","","","choice","63f58712a2c1bd62fa7bb352","bdp_lott","Mon Apr 03 2023 18:15:13 GMT-0600 (Mountain Daylight Time)","286232","green","red","image-keyboard-response","89","111995","0.0-5.0-1.42","","441","","img/green_ll/choose11.jpg","1","183","green","0.5","0.5","0.5","w","",""
"","","","","63f58712a2c1bd62fa7bb352","bdp_lott","Mon Apr 03 2023 18:15:13 GMT-0600 (Mountain Daylight Time)","286232","green","red","animation","90","112601","0.0-5.0-2.42","","","","","","183","","","","","","[{""stimulus"":""img/green_wl/1.jpg"",""time"":52},{""stimulus"":""img/green_wl/2.jpg"",""time"":103},{""stimulus"":""img/green_wl/3.jpg"",""time"":154},{""stimulus"":""img/green_wl/4.jpg"",""time"":205},{""stimulus"":""img/green_wl/5.jpg"",""time"":255},{""stimulus"":""img/green_wl/6.jpg"",""time"":305},{""stimulus"":""img/green_wl/7.jpg"",""time"":355},{""stimulus"":""img/green_wl/8.jpg"",""time"":406},{""stimulus"":""img/green_wl/9.jpg"",""time"":455},{""stimulus"":""img/green_wl/10.jpg"",""time"":505},{""stimulus"":""img/green_wl/11.jpg"",""time"":555}]","[]"
"","","","choice","63f58712a2c1bd62fa7bb352","bdp_lott","Mon Apr 03 2023 18:15:13 GMT-0600 (Mountain Daylight Time)","286232","green","red","image-keyboard-response","91","112996","0.0-5.0-1.43","","395","","img/green_wl/choose11.jpg","1","182","green","0.5","0.5","0.5","w","",""
"","","","","63f58712a2c1bd62fa7bb352","bdp_lott","Mon Apr 03 2023 18:15:13 GMT-0600 (Mountain Daylight Time)","286232","green","red","animation","92","113600","0.0-5.0-2.43","","","","","","182","","","","","","[{""stimulus"":""img/green_wl/1.jpg"",""time"":51},{""stimulus"":""img/green_wl/2.jpg"",""time"":100},{""stimulus"":""img/green_wl/3.jpg"",""time"":152},{""stimulus"":""img/green_wl/4.jpg"",""time"":202},{""stimulus"":""img/green_wl/5.jpg"",""time"":252},{""stimulus"":""img/green_wl/6.jpg"",""time"":304},{""stimulus"":""img/green_wl/7.jpg"",""time"":354},{""stimulus"":""img/green_wl/8.jpg"",""time"":404},{""stimulus"":""img/green_wl/9.jpg"",""time"":454},{""stimulus"":""img/green_wl/10.jpg"",""time"":504},{""stimulus"":""img/green_wl/11.jpg"",""time"":554}]","[]"
"","","","choice","63f58712a2c1bd62fa7bb352","bdp_lott","Mon Apr 03 2023 18:15:13 GMT-0600 (Mountain Daylight Time)","286232","green","red","image-keyboard-response","93","114108","0.0-5.0-1.44","","507","","img/green_wl/choose11.jpg","1","181","green","0.5","0.5","0.5","l","",""
"","","","","63f58712a2c1bd62fa7bb352","bdp_lott","Mon Apr 03 2023 18:15:13 GMT-0600 (Mountain Daylight Time)","286232","green","red","animation","94","114712","0.0-5.0-2.44","","","","","","181","","","","","","[{""stimulus"":""img/green_ll/1.jpg"",""time"":50},{""stimulus"":""img/green_ll/2.jpg"",""time"":100},{""stimulus"":""img/green_ll/3.jpg"",""time"":151},{""stimulus"":""img/green_ll/4.jpg"",""time"":201},{""stimulus"":""img/green_ll/5.jpg"",""time"":252},{""stimulus"":""img/green_ll/6.jpg"",""time"":302},{""stimulus"":""img/green_ll/7.jpg"",""time"":352},{""stimulus"":""img/green_ll/8.jpg"",""time"":402},{""stimulus"":""img/green_ll/9.jpg"",""time"":453},{""stimulus"":""img/green_ll/10.jpg"",""time"":503},{""stimulus"":""img/green_ll/11.jpg"",""time"":553}]","[]"
"","","","choice","63f58712a2c1bd62fa7bb352","bdp_lott","Mon Apr 03 2023 18:15:13 GMT-0600 (Mountain Daylight Time)","286232","green","red","image-keyboard-response","95","115164","0.0-5.0-1.45","","452","","img/green_ll/choose11.jpg","1","180","green","0.5","0.5","0.5","l","",""
"","","","","63f58712a2c1bd62fa7bb352","bdp_lott","Mon Apr 03 2023 18:15:13 GMT-0600 (Mountain Daylight Time)","286232","green","red","animation","96","115768","0.0-5.0-2.45","","","","","","180","","","","","","[{""stimulus"":""img/green_ll/1.jpg"",""time"":51},{""stimulus"":""img/green_ll/2.jpg"",""time"":102},{""stimulus"":""img/green_ll/3.jpg"",""time"":153},{""stimulus"":""img/green_ll/4.jpg"",""time"":203},{""stimulus"":""img/green_ll/5.jpg"",""time"":253},{""stimulus"":""img/green_ll/6.jpg"",""time"":303},{""stimulus"":""img/green_ll/7.jpg"",""time"":354},{""stimulus"":""img/green_ll/8.jpg"",""time"":404},{""stimulus"":""img/green_ll/9.jpg"",""time"":454},{""stimulus"":""img/green_ll/10.jpg"",""time"":504},{""stimulus"":""img/green_ll/11.jpg"",""time"":555}]","[]"
"","","","choice","63f58712a2c1bd62fa7bb352","bdp_lott","Mon Apr 03 2023 18:15:13 GMT-0600 (Mountain Daylight Time)","286232","green","red","image-keyboard-response","97","116204","0.0-5.0-1.46","","436","","img/green_ll/choose11.jpg","1","179","green","0.5","0.5","0.5","l","",""
"","","","","63f58712a2c1bd62fa7bb352","bdp_lott","Mon Apr 03 2023 18:15:13 GMT-0600 (Mountain Daylight Time)","286232","green","red","animation","98","116810","0.0-5.0-2.46","","","","","","179","","","","","","[{""stimulus"":""img/green_ll/1.jpg"",""time"":51},{""stimulus"":""img/green_ll/2.jpg"",""time"":101},{""stimulus"":""img/green_ll/3.jpg"",""time"":151},{""stimulus"":""img/green_ll/4.jpg"",""time"":200},{""stimulus"":""img/green_ll/5.jpg"",""time"":252},{""stimulus"":""img/green_ll/6.jpg"",""time"":302},{""stimulus"":""img/green_ll/7.jpg"",""time"":352},{""stimulus"":""img/green_ll/8.jpg"",""time"":404},{""stimulus"":""img/green_ll/9.jpg"",""time"":454},{""stimulus"":""img/green_ll/10.jpg"",""time"":504},{""stimulus"":""img/green_ll/11.jpg"",""time"":555}]","[]"
"","","","choice","63f58712a2c1bd62fa7bb352","bdp_lott","Mon Apr 03 2023 18:15:13 GMT-0600 (Mountain Daylight Time)","286232","green","red","image-keyboard-response","99","117245","0.0-5.0-1.47","","435","","img/green_ll/choose11.jpg","1","178","green","0.5","0.5","0.5","w","",""
"","","","","63f58712a2c1bd62fa7bb352","bdp_lott","Mon Apr 03 2023 18:15:13 GMT-0600 (Mountain Daylight Time)","286232","green","red","animation","100","117850","0.0-5.0-2.47","","","","","","178","","","","","","[{""stimulus"":""img/green_wl/1.jpg"",""time"":50},{""stimulus"":""img/green_wl/2.jpg"",""time"":100},{""stimulus"":""img/green_wl/3.jpg"",""time"":149},{""stimulus"":""img/green_wl/4.jpg"",""time"":200},{""stimulus"":""img/green_wl/5.jpg"",""time"":251},{""stimulus"":""img/green_wl/6.jpg"",""time"":301},{""stimulus"":""img/green_wl/7.jpg"",""time"":352},{""stimulus"":""img/green_wl/8.jpg"",""time"":403},{""stimulus"":""img/green_wl/9.jpg"",""time"":453},{""stimulus"":""img/green_wl/10.jpg"",""time"":504},{""stimulus"":""img/green_wl/11.jpg"",""time"":553}]","[]"
"","","","choice","63f58712a2c1bd62fa7bb352","bdp_lott","Mon Apr 03 2023 18:15:13 GMT-0600 (Mountain Daylight Time)","286232","green","red","image-keyboard-response","101","118269","0.0-5.0-1.48","","418","","img/green_wl/choose11.jpg","1","177","green","0.5","0.5","0.5","l","",""
"","","","","63f58712a2c1bd62fa7bb352","bdp_lott","Mon Apr 03 2023 18:15:13 GMT-0600 (Mountain Daylight Time)","286232","green","red","animation","102","118874","0.0-5.0-2.48","","","","","","177","","","","","","[{""stimulus"":""img/green_ll/1.jpg"",""time"":50},{""stimulus"":""img/green_ll/2.jpg"",""time"":100},{""stimulus"":""img/green_ll/3.jpg"",""time"":150},{""stimulus"":""img/green_ll/4.jpg"",""time"":200},{""stimulus"":""img/green_ll/5.jpg"",""time"":250},{""stimulus"":""img/green_ll/6.jpg"",""time"":300},{""stimulus"":""img/green_ll/7.jpg"",""time"":351},{""stimulus"":""img/green_ll/8.jpg"",""time"":401},{""stimulus"":""img/green_ll/9.jpg"",""time"":451},{""stimulus"":""img/green_ll/10.jpg"",""time"":502},{""stimulus"":""img/green_ll/11.jpg"",""time"":554}]","[]"
"","","","choice","63f58712a2c1bd62fa7bb352","bdp_lott","Mon Apr 03 2023 18:15:13 GMT-0600 (Mountain Daylight Time)","286232","green","red","image-keyboard-response","103","119340","0.0-5.0-1.49","","466","","img/green_ll/choose11.jpg","1","176","green","0.5","0.5","0.5","w","",""
"","","","","63f58712a2c1bd62fa7bb352","bdp_lott","Mon Apr 03 2023 18:15:13 GMT-0600 (Mountain Daylight Time)","286232","green","red","animation","104","119944","0.0-5.0-2.49","","","","","","176","","","","","","[{""stimulus"":""img/green_wl/1.jpg"",""time"":51},{""stimulus"":""img/green_wl/2.jpg"",""time"":100},{""stimulus"":""img/green_wl/3.jpg"",""time"":150},{""stimulus"":""img/green_wl/4.jpg"",""time"":200},{""stimulus"":""img/green_wl/5.jpg"",""time"":250},{""stimulus"":""img/green_wl/6.jpg"",""time"":301},{""stimulus"":""img/green_wl/7.jpg"",""time"":350},{""stimulus"":""img/green_wl/8.jpg"",""time"":400},{""stimulus"":""img/green_wl/9.jpg"",""time"":451},{""stimulus"":""img/green_wl/10.jpg"",""time"":502},{""stimulus"":""img/green_wl/11.jpg"",""time"":552}]","[]"
"","","","choice","63f58712a2c1bd62fa7bb352","bdp_lott","Mon Apr 03 2023 18:15:13 GMT-0600 (Mountain Daylight Time)","286232","green","red","image-keyboard-response","105","120621","0.0-5.0-1.50","","677","","img/green_wl/choose11.jpg","1","175","green","0.5","0.5","0.5","w","",""
"","","","","63f58712a2c1bd62fa7bb352","bdp_lott","Mon Apr 03 2023 18:15:13 GMT-0600 (Mountain Daylight Time)","286232","green","red","animation","106","121225","0.0-5.0-2.50","","","","","","175","","","","","","[{""stimulus"":""img/green_wl/1.jpg"",""time"":51},{""stimulus"":""img/green_wl/2.jpg"",""time"":100},{""stimulus"":""img/green_wl/3.jpg"",""time"":152},{""stimulus"":""img/green_wl/4.jpg"",""time"":202},{""stimulus"":""img/green_wl/5.jpg"",""time"":252},{""stimulus"":""img/green_wl/6.jpg"",""time"":303},{""stimulus"":""img/green_wl/7.jpg"",""time"":353},{""stimulus"":""img/green_wl/8.jpg"",""time"":404},{""stimulus"":""img/green_wl/9.jpg"",""time"":453},{""stimulus"":""img/green_wl/10.jpg"",""time"":504},{""stimulus"":""img/green_wl/11.jpg"",""time"":554}]","[]"
"","","","choice","63f58712a2c1bd62fa7bb352","bdp_lott","Mon Apr 03 2023 18:15:13 GMT-0600 (Mountain Daylight Time)","286232","green","red","image-keyboard-response","107","121685","0.0-5.0-1.51","","460","","img/green_wl/choose11.jpg","1","174","green","0.5","0.5","0.5","w","",""
"","","","","63f58712a2c1bd62fa7bb352","bdp_lott","Mon Apr 03 2023 18:15:13 GMT-0600 (Mountain Daylight Time)","286232","green","red","animation","108","122294","0.0-5.0-2.51","","","","","","174","","","","","","[{""stimulus"":""img/green_wl/1.jpg"",""time"":52},{""stimulus"":""img/green_wl/2.jpg"",""time"":102},{""stimulus"":""img/green_wl/3.jpg"",""time"":153},{""stimulus"":""img/green_wl/4.jpg"",""time"":204},{""stimulus"":""img/green_wl/5.jpg"",""time"":255},{""stimulus"":""img/green_wl/6.jpg"",""time"":306},{""stimulus"":""img/green_wl/7.jpg"",""time"":357},{""stimulus"":""img/green_wl/8.jpg"",""time"":409},{""stimulus"":""img/green_wl/9.jpg"",""time"":458},{""stimulus"":""img/green_wl/10.jpg"",""time"":508},{""stimulus"":""img/green_wl/11.jpg"",""time"":558}]","[]"
"","","","choice","63f58712a2c1bd62fa7bb352","bdp_lott","Mon Apr 03 2023 18:15:13 GMT-0600 (Mountain Daylight Time)","286232","green","red","image-keyboard-response","109","122782","0.0-5.0-1.52","","487","","img/green_wl/choose11.jpg","1","173","green","0.5","0.5","0.5","w","",""
"","","","","63f58712a2c1bd62fa7bb352","bdp_lott","Mon Apr 03 2023 18:15:13 GMT-0600 (Mountain Daylight Time)","286232","green","red","animation","110","123388","0.0-5.0-2.52","","","","","","173","","","","","","[{""stimulus"":""img/green_wl/1.jpg"",""time"":50},{""stimulus"":""img/green_wl/2.jpg"",""time"":101},{""stimulus"":""img/green_wl/3.jpg"",""time"":151},{""stimulus"":""img/green_wl/4.jpg"",""time"":202},{""stimulus"":""img/green_wl/5.jpg"",""time"":252},{""stimulus"":""img/green_wl/6.jpg"",""time"":303},{""stimulus"":""img/green_wl/7.jpg"",""time"":352},{""stimulus"":""img/green_wl/8.jpg"",""time"":403},{""stimulus"":""img/green_wl/9.jpg"",""time"":454},{""stimulus"":""img/green_wl/10.jpg"",""time"":504},{""stimulus"":""img/green_wl/11.jpg"",""time"":555}]","[]"
"","","","choice","63f58712a2c1bd62fa7bb352","bdp_lott","Mon Apr 03 2023 18:15:13 GMT-0600 (Mountain Daylight Time)","286232","green","red","image-keyboard-response","111","123853","0.0-5.0-1.53","","465","","img/green_wl/choose11.jpg","1","172","green","0.5","0.5","0.5","w","",""
"","","","","63f58712a2c1bd62fa7bb352","bdp_lott","Mon Apr 03 2023 18:15:13 GMT-0600 (Mountain Daylight Time)","286232","green","red","animation","112","124455","0.0-5.0-2.53","","","","","","172","","","","","","[{""stimulus"":""img/green_wl/1.jpg"",""time"":51},{""stimulus"":""img/green_wl/2.jpg"",""time"":101},{""stimulus"":""img/green_wl/3.jpg"",""time"":151},{""stimulus"":""img/green_wl/4.jpg"",""time"":201},{""stimulus"":""img/green_wl/5.jpg"",""time"":252},{""stimulus"":""img/green_wl/6.jpg"",""time"":303},{""stimulus"":""img/green_wl/7.jpg"",""time"":353},{""stimulus"":""img/green_wl/8.jpg"",""time"":403},{""stimulus"":""img/green_wl/9.jpg"",""time"":453},{""stimulus"":""img/green_wl/10.jpg"",""time"":503},{""stimulus"":""img/green_wl/11.jpg"",""time"":553}]","[]"
"","","","choice","63f58712a2c1bd62fa7bb352","bdp_lott","Mon Apr 03 2023 18:15:13 GMT-0600 (Mountain Daylight Time)","286232","green","red","image-keyboard-response","113","124926","0.0-5.0-1.54","","470","","img/green_wl/choose11.jpg","1","171","green","0.5","0.5","0.5","l","",""
"","","","","63f58712a2c1bd62fa7bb352","bdp_lott","Mon Apr 03 2023 18:15:13 GMT-0600 (Mountain Daylight Time)","286232","green","red","animation","114","125525","0.0-5.0-2.54","","","","","","171","","","","","","[{""stimulus"":""img/green_ll/1.jpg"",""time"":49},{""stimulus"":""img/green_ll/2.jpg"",""time"":99},{""stimulus"":""img/green_ll/3.jpg"",""time"":149},{""stimulus"":""img/green_ll/4.jpg"",""time"":199},{""stimulus"":""img/green_ll/5.jpg"",""time"":249},{""stimulus"":""img/green_ll/6.jpg"",""time"":299},{""stimulus"":""img/green_ll/7.jpg"",""time"":349},{""stimulus"":""img/green_ll/8.jpg"",""time"":399},{""stimulus"":""img/green_ll/9.jpg"",""time"":450},{""stimulus"":""img/green_ll/10.jpg"",""time"":499},{""stimulus"":""img/green_ll/11.jpg"",""time"":549}]","[]"
"","","","choice","63f58712a2c1bd62fa7bb352","bdp_lott","Mon Apr 03 2023 18:15:13 GMT-0600 (Mountain Daylight Time)","286232","green","red","image-keyboard-response","115","126054","0.0-5.0-1.55","","527","","img/green_ll/choose11.jpg","1","170","green","0.5","0.5","0.5","w","",""
"","","","","63f58712a2c1bd62fa7bb352","bdp_lott","Mon Apr 03 2023 18:15:13 GMT-0600 (Mountain Daylight Time)","286232","green","red","animation","116","126654","0.0-5.0-2.55","","","","","","170","","","","","","[{""stimulus"":""img/green_wl/1.jpg"",""time"":50},{""stimulus"":""img/green_wl/2.jpg"",""time"":100},{""stimulus"":""img/green_wl/3.jpg"",""time"":150},{""stimulus"":""img/green_wl/4.jpg"",""time"":200},{""stimulus"":""img/green_wl/5.jpg"",""time"":251},{""stimulus"":""img/green_wl/6.jpg"",""time"":300},{""stimulus"":""img/green_wl/7.jpg"",""time"":351},{""stimulus"":""img/green_wl/8.jpg"",""time"":401},{""stimulus"":""img/green_wl/9.jpg"",""time"":451},{""stimulus"":""img/green_wl/10.jpg"",""time"":500},{""stimulus"":""img/green_wl/11.jpg"",""time"":551}]","[]"
"","","","choice","63f58712a2c1bd62fa7bb352","bdp_lott","Mon Apr 03 2023 18:15:13 GMT-0600 (Mountain Daylight Time)","286232","green","red","image-keyboard-response","117","127069","0.0-5.0-1.56","","415","","img/green_wl/choose11.jpg","1","169","green","0.5","0.5","0.5","w","",""
"","","","","63f58712a2c1bd62fa7bb352","bdp_lott","Mon Apr 03 2023 18:15:13 GMT-0600 (Mountain Daylight Time)","286232","green","red","animation","118","127675","0.0-5.0-2.56","","","","","","169","","","","","","[{""stimulus"":""img/green_wl/1.jpg"",""time"":53},{""stimulus"":""img/green_wl/2.jpg"",""time"":103},{""stimulus"":""img/green_wl/3.jpg"",""time"":153},{""stimulus"":""img/green_wl/4.jpg"",""time"":203},{""stimulus"":""img/green_wl/5.jpg"",""time"":254},{""stimulus"":""img/green_wl/6.jpg"",""time"":304},{""stimulus"":""img/green_wl/7.jpg"",""time"":355},{""stimulus"":""img/green_wl/8.jpg"",""time"":405},{""stimulus"":""img/green_wl/9.jpg"",""time"":456},{""stimulus"":""img/green_wl/10.jpg"",""time"":506},{""stimulus"":""img/green_wl/11.jpg"",""time"":557}]","[]"
"","","","choice","63f58712a2c1bd62fa7bb352","bdp_lott","Mon Apr 03 2023 18:15:13 GMT-0600 (Mountain Daylight Time)","286232","green","red","image-keyboard-response","119","128157","0.0-5.0-1.57","","481","","img/green_wl/choose11.jpg","1","168","green","0.5","0.5","0.5","w","",""
"","","","","63f58712a2c1bd62fa7bb352","bdp_lott","Mon Apr 03 2023 18:15:13 GMT-0600 (Mountain Daylight Time)","286232","green","red","animation","120","128762","0.0-5.0-2.57","","","","","","168","","","","","","[{""stimulus"":""img/green_wl/1.jpg"",""time"":51},{""stimulus"":""img/green_wl/2.jpg"",""time"":101},{""stimulus"":""img/green_wl/3.jpg"",""time"":151},{""stimulus"":""img/green_wl/4.jpg"",""time"":202},{""stimulus"":""img/green_wl/5.jpg"",""time"":252},{""stimulus"":""img/green_wl/6.jpg"",""time"":302},{""stimulus"":""img/green_wl/7.jpg"",""time"":352},{""stimulus"":""img/green_wl/8.jpg"",""time"":403},{""stimulus"":""img/green_wl/9.jpg"",""time"":454},{""stimulus"":""img/green_wl/10.jpg"",""time"":504},{""stimulus"":""img/green_wl/11.jpg"",""time"":554}]","[]"
"","","","choice","63f58712a2c1bd62fa7bb352","bdp_lott","Mon Apr 03 2023 18:15:13 GMT-0600 (Mountain Daylight Time)","286232","green","red","image-keyboard-response","121","129197","0.0-5.0-1.58","","435","","img/green_wl/choose11.jpg","1","167","green","0.5","0.5","0.5","l","",""
"","","","","63f58712a2c1bd62fa7bb352","bdp_lott","Mon Apr 03 2023 18:15:13 GMT-0600 (Mountain Daylight Time)","286232","green","red","animation","122","129801","0.0-5.0-2.58","","","","","","167","","","","","","[{""stimulus"":""img/green_ll/1.jpg"",""time"":51},{""stimulus"":""img/green_ll/2.jpg"",""time"":100},{""stimulus"":""img/green_ll/3.jpg"",""time"":152},{""stimulus"":""img/green_ll/4.jpg"",""time"":202},{""stimulus"":""img/green_ll/5.jpg"",""time"":252},{""stimulus"":""img/green_ll/6.jpg"",""time"":302},{""stimulus"":""img/green_ll/7.jpg"",""time"":352},{""stimulus"":""img/green_ll/8.jpg"",""time"":402},{""stimulus"":""img/green_ll/9.jpg"",""time"":453},{""stimulus"":""img/green_ll/10.jpg"",""time"":502},{""stimulus"":""img/green_ll/11.jpg"",""time"":553}]","[]"
"","","","choice","63f58712a2c1bd62fa7bb352","bdp_lott","Mon Apr 03 2023 18:15:13 GMT-0600 (Mountain Daylight Time)","286232","green","red","image-keyboard-response","123","130366","0.0-5.0-1.59","","565","","img/green_ll/choose11.jpg","1","166","green","0.5","0.5","0.5","w","",""
"","","","","63f58712a2c1bd62fa7bb352","bdp_lott","Mon Apr 03 2023 18:15:13 GMT-0600 (Mountain Daylight Time)","286232","green","red","animation","124","130968","0.0-5.0-2.59","","","","","","166","","","","","","[{""stimulus"":""img/green_wl/1.jpg"",""time"":50},{""stimulus"":""img/green_wl/2.jpg"",""time"":100},{""stimulus"":""img/green_wl/3.jpg"",""time"":151},{""stimulus"":""img/green_wl/4.jpg"",""time"":201},{""stimulus"":""img/green_wl/5.jpg"",""time"":252},{""stimulus"":""img/green_wl/6.jpg"",""time"":303},{""stimulus"":""img/green_wl/7.jpg"",""time"":352},{""stimulus"":""img/green_wl/8.jpg"",""time"":402},{""stimulus"":""img/green_wl/9.jpg"",""time"":452},{""stimulus"":""img/green_wl/10.jpg"",""time"":502},{""stimulus"":""img/green_wl/11.jpg"",""time"":552}]","[]"
"","","","choice","63f58712a2c1bd62fa7bb352","bdp_lott","Mon Apr 03 2023 18:15:13 GMT-0600 (Mountain Daylight Time)","286232","green","red","image-keyboard-response","125","131342","0.0-5.0-1.60","","373","","img/green_wl/choose11.jpg","1","165","green","0.5","0.5","0.5","l","",""
"","","","","63f58712a2c1bd62fa7bb352","bdp_lott","Mon Apr 03 2023 18:15:13 GMT-0600 (Mountain Daylight Time)","286232","green","red","animation","126","131947","0.0-5.0-2.60","","","","","","165","","","","","","[{""stimulus"":""img/green_ll/1.jpg"",""time"":50},{""stimulus"":""img/green_ll/2.jpg"",""time"":101},{""stimulus"":""img/green_ll/3.jpg"",""time"":152},{""stimulus"":""img/green_ll/4.jpg"",""time"":202},{""stimulus"":""img/green_ll/5.jpg"",""time"":253},{""stimulus"":""img/green_ll/6.jpg"",""time"":304},{""stimulus"":""img/green_ll/7.jpg"",""time"":355},{""stimulus"":""img/green_ll/8.jpg"",""time"":405},{""stimulus"":""img/green_ll/9.jpg"",""time"":455},{""stimulus"":""img/green_ll/10.jpg"",""time"":505},{""stimulus"":""img/green_ll/11.jpg"",""time"":555}]","[]"
"","","","choice","63f58712a2c1bd62fa7bb352","bdp_lott","Mon Apr 03 2023 18:15:13 GMT-0600 (Mountain Daylight Time)","286232","green","red","image-keyboard-response","127","132454","0.0-5.0-1.61","","507","","img/green_ll/choose11.jpg","1","164","green","0.5","0.5","0.5","w","",""
"","","","","63f58712a2c1bd62fa7bb352","bdp_lott","Mon Apr 03 2023 18:15:13 GMT-0600 (Mountain Daylight Time)","286232","green","red","animation","128","133057","0.0-5.0-2.61","","","","","","164","","","","","","[{""stimulus"":""img/green_wl/1.jpg"",""time"":51},{""stimulus"":""img/green_wl/2.jpg"",""time"":101},{""stimulus"":""img/green_wl/3.jpg"",""time"":151},{""stimulus"":""img/green_wl/4.jpg"",""time"":201},{""stimulus"":""img/green_wl/5.jpg"",""time"":251},{""stimulus"":""img/green_wl/6.jpg"",""time"":302},{""stimulus"":""img/green_wl/7.jpg"",""time"":352},{""stimulus"":""img/green_wl/8.jpg"",""time"":402},{""stimulus"":""img/green_wl/9.jpg"",""time"":453},{""stimulus"":""img/green_wl/10.jpg"",""time"":504},{""stimulus"":""img/green_wl/11.jpg"",""time"":554}]","[]"
"","","","choice","63f58712a2c1bd62fa7bb352","bdp_lott","Mon Apr 03 2023 18:15:13 GMT-0600 (Mountain Daylight Time)","286232","green","red","image-keyboard-response","129","133527","0.0-5.0-1.62","","469","","img/green_wl/choose11.jpg","1","163","green","0.5","0.5","0.5","l","",""
"","","","","63f58712a2c1bd62fa7bb352","bdp_lott","Mon Apr 03 2023 18:15:13 GMT-0600 (Mountain Daylight Time)","286232","green","red","animation","130","134131","0.0-5.0-2.62","","","","","","163","","","","","","[{""stimulus"":""img/green_ll/1.jpg"",""time"":50},{""stimulus"":""img/green_ll/2.jpg"",""time"":100},{""stimulus"":""img/green_ll/3.jpg"",""time"":150},{""stimulus"":""img/green_ll/4.jpg"",""time"":201},{""stimulus"":""img/green_ll/5.jpg"",""time"":252},{""stimulus"":""img/green_ll/6.jpg"",""time"":302},{""stimulus"":""img/green_ll/7.jpg"",""time"":352},{""stimulus"":""img/green_ll/8.jpg"",""time"":402},{""stimulus"":""img/green_ll/9.jpg"",""time"":453},{""stimulus"":""img/green_ll/10.jpg"",""time"":502},{""stimulus"":""img/green_ll/11.jpg"",""time"":553}]","[]"
"","","","choice","63f58712a2c1bd62fa7bb352","bdp_lott","Mon Apr 03 2023 18:15:13 GMT-0600 (Mountain Daylight Time)","286232","green","red","image-keyboard-response","131","134702","0.0-5.0-1.63","","571","","img/green_ll/choose11.jpg","1","162","green","0.5","0.5","0.5","w","",""
"","","","","63f58712a2c1bd62fa7bb352","bdp_lott","Mon Apr 03 2023 18:15:13 GMT-0600 (Mountain Daylight Time)","286232","green","red","animation","132","135309","0.0-5.0-2.63","","","","","","162","","","","","","[{""stimulus"":""img/green_wl/1.jpg"",""time"":52},{""stimulus"":""img/green_wl/2.jpg"",""time"":102},{""stimulus"":""img/green_wl/3.jpg"",""time"":153},{""stimulus"":""img/green_wl/4.jpg"",""time"":202},{""stimulus"":""img/green_wl/5.jpg"",""time"":252},{""stimulus"":""img/green_wl/6.jpg"",""time"":303},{""stimulus"":""img/green_wl/7.jpg"",""time"":353},{""stimulus"":""img/green_wl/8.jpg"",""time"":403},{""stimulus"":""img/green_wl/9.jpg"",""time"":454},{""stimulus"":""img/green_wl/10.jpg"",""time"":505},{""stimulus"":""img/green_wl/11.jpg"",""time"":556}]","[]"
"","","","choice","63f58712a2c1bd62fa7bb352","bdp_lott","Mon Apr 03 2023 18:15:13 GMT-0600 (Mountain Daylight Time)","286232","green","red","image-keyboard-response","133","135775","0.0-5.0-1.64","","466","","img/green_wl/choose11.jpg","1","161","green","0.5","0.5","0.5","w","",""
"","","","","63f58712a2c1bd62fa7bb352","bdp_lott","Mon Apr 03 2023 18:15:13 GMT-0600 (Mountain Daylight Time)","286232","green","red","animation","134","136375","0.0-5.0-2.64","","","","","","161","","","","","","[{""stimulus"":""img/green_wl/1.jpg"",""time"":50},{""stimulus"":""img/green_wl/2.jpg"",""time"":100},{""stimulus"":""img/green_wl/3.jpg"",""time"":150},{""stimulus"":""img/green_wl/4.jpg"",""time"":200},{""stimulus"":""img/green_wl/5.jpg"",""time"":250},{""stimulus"":""img/green_wl/6.jpg"",""time"":300},{""stimulus"":""img/green_wl/7.jpg"",""time"":350},{""stimulus"":""img/green_wl/8.jpg"",""time"":400},{""stimulus"":""img/green_wl/9.jpg"",""time"":450},{""stimulus"":""img/green_wl/10.jpg"",""time"":500},{""stimulus"":""img/green_wl/11.jpg"",""time"":551}]","[]"
"","","","choice","63f58712a2c1bd62fa7bb352","bdp_lott","Mon Apr 03 2023 18:15:13 GMT-0600 (Mountain Daylight Time)","286232","green","red","image-keyboard-response","135","136878","0.0-5.0-1.65","","503","","img/green_wl/choose11.jpg","1","160","green","0.5","0.5","0.5","w","",""
"","","","","63f58712a2c1bd62fa7bb352","bdp_lott","Mon Apr 03 2023 18:15:13 GMT-0600 (Mountain Daylight Time)","286232","green","red","animation","136","137483","0.0-5.0-2.65","","","","","","160","","","","","","[{""stimulus"":""img/green_wl/1.jpg"",""time"":51},{""stimulus"":""img/green_wl/2.jpg"",""time"":101},{""stimulus"":""img/green_wl/3.jpg"",""time"":152},{""stimulus"":""img/green_wl/4.jpg"",""time"":203},{""stimulus"":""img/green_wl/5.jpg"",""time"":253},{""stimulus"":""img/green_wl/6.jpg"",""time"":303},{""stimulus"":""img/green_wl/7.jpg"",""time"":353},{""stimulus"":""img/green_wl/8.jpg"",""time"":403},{""stimulus"":""img/green_wl/9.jpg"",""time"":454},{""stimulus"":""img/green_wl/10.jpg"",""time"":504},{""stimulus"":""img/green_wl/11.jpg"",""time"":555}]","[]"
"","","","choice","63f58712a2c1bd62fa7bb352","bdp_lott","Mon Apr 03 2023 18:15:13 GMT-0600 (Mountain Daylight Time)","286232","green","red","image-keyboard-response","137","137943","0.0-5.0-1.66","","460","","img/green_wl/choose11.jpg","1","159","green","0.5","0.5","0.5","w","",""
"","","","","63f58712a2c1bd62fa7bb352","bdp_lott","Mon Apr 03 2023 18:15:13 GMT-0600 (Mountain Daylight Time)","286232","green","red","animation","138","138545","0.0-5.0-2.66","","","","","","159","","","","","","[{""stimulus"":""img/green_wl/1.jpg"",""time"":49},{""stimulus"":""img/green_wl/2.jpg"",""time"":100},{""stimulus"":""img/green_wl/3.jpg"",""time"":150},{""stimulus"":""img/green_wl/4.jpg"",""time"":200},{""stimulus"":""img/green_wl/5.jpg"",""time"":251},{""stimulus"":""img/green_wl/6.jpg"",""time"":301},{""stimulus"":""img/green_wl/7.jpg"",""time"":351},{""stimulus"":""img/green_wl/8.jpg"",""time"":401},{""stimulus"":""img/green_wl/9.jpg"",""time"":451},{""stimulus"":""img/green_wl/10.jpg"",""time"":501},{""stimulus"":""img/green_wl/11.jpg"",""time"":551}]","[]"
"","","","choice","63f58712a2c1bd62fa7bb352","bdp_lott","Mon Apr 03 2023 18:15:13 GMT-0600 (Mountain Daylight Time)","286232","green","red","image-keyboard-response","139","138983","0.0-5.0-1.67","","438","","img/green_wl/choose11.jpg","1","158","green","0.5","0.5","0.5","l","",""
"","","","","63f58712a2c1bd62fa7bb352","bdp_lott","Mon Apr 03 2023 18:15:13 GMT-0600 (Mountain Daylight Time)","286232","green","red","animation","140","139586","0.0-5.0-2.67","","","","","","158","","","","","","[{""stimulus"":""img/green_ll/1.jpg"",""time"":51},{""stimulus"":""img/green_ll/2.jpg"",""time"":102},{""stimulus"":""img/green_ll/3.jpg"",""time"":153},{""stimulus"":""img/green_ll/4.jpg"",""time"":202},{""stimulus"":""img/green_ll/5.jpg"",""time"":252},{""stimulus"":""img/green_ll/6.jpg"",""time"":302},{""stimulus"":""img/green_ll/7.jpg"",""time"":353},{""stimulus"":""img/green_ll/8.jpg"",""time"":402},{""stimulus"":""img/green_ll/9.jpg"",""time"":453},{""stimulus"":""img/green_ll/10.jpg"",""time"":503},{""stimulus"":""img/green_ll/11.jpg"",""time"":553}]","[]"
"","","","choice","63f58712a2c1bd62fa7bb352","bdp_lott","Mon Apr 03 2023 18:15:13 GMT-0600 (Mountain Daylight Time)","286232","green","red","image-keyboard-response","141","139927","0.0-5.0-1.68","","341","","img/green_ll/choose11.jpg","1","157","green","0.5","0.5","0.5","l","",""
"","","","","63f58712a2c1bd62fa7bb352","bdp_lott","Mon Apr 03 2023 18:15:13 GMT-0600 (Mountain Daylight Time)","286232","green","red","animation","142","140530","0.0-5.0-2.68","","","","","","157","","","","","","[{""stimulus"":""img/green_ll/1.jpg"",""time"":52},{""stimulus"":""img/green_ll/2.jpg"",""time"":102},{""stimulus"":""img/green_ll/3.jpg"",""time"":151},{""stimulus"":""img/green_ll/4.jpg"",""time"":203},{""stimulus"":""img/green_ll/5.jpg"",""time"":253},{""stimulus"":""img/green_ll/6.jpg"",""time"":303},{""stimulus"":""img/green_ll/7.jpg"",""time"":353},{""stimulus"":""img/green_ll/8.jpg"",""time"":403},{""stimulus"":""img/green_ll/9.jpg"",""time"":453},{""stimulus"":""img/green_ll/10.jpg"",""time"":503},{""stimulus"":""img/green_ll/11.jpg"",""time"":553}]","[]"
"","","","choice","63f58712a2c1bd62fa7bb352","bdp_lott","Mon Apr 03 2023 18:15:13 GMT-0600 (Mountain Daylight Time)","286232","green","red","image-keyboard-response","143","140927","0.0-5.0-1.69","","397","","img/green_ll/choose11.jpg","1","156","green","0.5","0.5","0.5","w","",""
"","","","","63f58712a2c1bd62fa7bb352","bdp_lott","Mon Apr 03 2023 18:15:13 GMT-0600 (Mountain Daylight Time)","286232","green","red","animation","144","141532","0.0-5.0-2.69","","","","","","156","","","","","","[{""stimulus"":""img/green_wl/1.jpg"",""time"":51},{""stimulus"":""img/green_wl/2.jpg"",""time"":101},{""stimulus"":""img/green_wl/3.jpg"",""time"":153},{""stimulus"":""img/green_wl/4.jpg"",""time"":203},{""stimulus"":""img/green_wl/5.jpg"",""time"":253},{""stimulus"":""img/green_wl/6.jpg"",""time"":303},{""stimulus"":""img/green_wl/7.jpg"",""time"":353},{""stimulus"":""img/green_wl/8.jpg"",""time"":403},{""stimulus"":""img/green_wl/9.jpg"",""time"":453},{""stimulus"":""img/green_wl/10.jpg"",""time"":504},{""stimulus"":""img/green_wl/11.jpg"",""time"":554}]","[]"
"","","","choice","63f58712a2c1bd62fa7bb352","bdp_lott","Mon Apr 03 2023 18:15:13 GMT-0600 (Mountain Daylight Time)","286232","green","red","image-keyboard-response","145","142015","0.0-5.0-1.70","","483","","img/green_wl/choose11.jpg","1","155","green","0.5","0.5","0.5","l","",""
"","","","","63f58712a2c1bd62fa7bb352","bdp_lott","Mon Apr 03 2023 18:15:13 GMT-0600 (Mountain Daylight Time)","286232","green","red","animation","146","142619","0.0-5.0-2.70","","","","","","155","","","","","","[{""stimulus"":""img/green_ll/1.jpg"",""time"":51},{""stimulus"":""img/green_ll/2.jpg"",""time"":101},{""stimulus"":""img/green_ll/3.jpg"",""time"":150},{""stimulus"":""img/green_ll/4.jpg"",""time"":200},{""stimulus"":""img/green_ll/5.jpg"",""time"":251},{""stimulus"":""img/green_ll/6.jpg"",""time"":301},{""stimulus"":""img/green_ll/7.jpg"",""time"":350},{""stimulus"":""img/green_ll/8.jpg"",""time"":402},{""stimulus"":""img/green_ll/9.jpg"",""time"":453},{""stimulus"":""img/green_ll/10.jpg"",""time"":503},{""stimulus"":""img/green_ll/11.jpg"",""time"":553}]","[]"
"","","","choice","63f58712a2c1bd62fa7bb352","bdp_lott","Mon Apr 03 2023 18:15:13 GMT-0600 (Mountain Daylight Time)","286232","green","red","image-keyboard-response","147","142919","0.0-5.0-1.71","","299","","img/green_ll/choose11.jpg","1","154","green","0.5","0.5","0.5","w","",""
"","","","","63f58712a2c1bd62fa7bb352","bdp_lott","Mon Apr 03 2023 18:15:13 GMT-0600 (Mountain Daylight Time)","286232","green","red","animation","148","143523","0.0-5.0-2.71","","","","","","154","","","","","","[{""stimulus"":""img/green_wl/1.jpg"",""time"":52},{""stimulus"":""img/green_wl/2.jpg"",""time"":102},{""stimulus"":""img/green_wl/3.jpg"",""time"":152},{""stimulus"":""img/green_wl/4.jpg"",""time"":202},{""stimulus"":""img/green_wl/5.jpg"",""time"":252},{""stimulus"":""img/green_wl/6.jpg"",""time"":302},{""stimulus"":""img/green_wl/7.jpg"",""time"":352},{""stimulus"":""img/green_wl/8.jpg"",""time"":402},{""stimulus"":""img/green_wl/9.jpg"",""time"":453},{""stimulus"":""img/green_wl/10.jpg"",""time"":503},{""stimulus"":""img/green_wl/11.jpg"",""time"":554}]","[]"
"","","","choice","63f58712a2c1bd62fa7bb352","bdp_lott","Mon Apr 03 2023 18:15:13 GMT-0600 (Mountain Daylight Time)","286232","green","red","image-keyboard-response","149","143759","0.0-5.0-1.72","","235","","img/green_wl/choose11.jpg","1","153","green","0.5","0.5","0.5","l","",""
"","","","","63f58712a2c1bd62fa7bb352","bdp_lott","Mon Apr 03 2023 18:15:13 GMT-0600 (Mountain Daylight Time)","286232","green","red","animation","150","144363","0.0-5.0-2.72","","","","","","153","","","","","","[{""stimulus"":""img/green_ll/1.jpg"",""time"":51},{""stimulus"":""img/green_ll/2.jpg"",""time"":102},{""stimulus"":""img/green_ll/3.jpg"",""time"":151},{""stimulus"":""img/green_ll/4.jpg"",""time"":203},{""stimulus"":""img/green_ll/5.jpg"",""time"":253},{""stimulus"":""img/green_ll/6.jpg"",""time"":303},{""stimulus"":""img/green_ll/7.jpg"",""time"":354},{""stimulus"":""img/green_ll/8.jpg"",""time"":405},{""stimulus"":""img/green_ll/9.jpg"",""time"":455},{""stimulus"":""img/green_ll/10.jpg"",""time"":505},{""stimulus"":""img/green_ll/11.jpg"",""time"":554}]","[]"
"","","","choice","63f58712a2c1bd62fa7bb352","bdp_lott","Mon Apr 03 2023 18:15:13 GMT-0600 (Mountain Daylight Time)","286232","green","red","image-keyboard-response","151","144736","0.0-5.0-1.73","","373","","img/green_ll/choose11.jpg","1","152","green","0.5","0.5","0.5","l","",""
"","","","","63f58712a2c1bd62fa7bb352","bdp_lott","Mon Apr 03 2023 18:15:13 GMT-0600 (Mountain Daylight Time)","286232","green","red","animation","152","145342","0.0-5.0-2.73","","","","","","152","","","","","","[{""stimulus"":""img/green_ll/1.jpg"",""time"":52},{""stimulus"":""img/green_ll/2.jpg"",""time"":103},{""stimulus"":""img/green_ll/3.jpg"",""time"":153},{""stimulus"":""img/green_ll/4.jpg"",""time"":202},{""stimulus"":""img/green_ll/5.jpg"",""time"":252},{""stimulus"":""img/green_ll/6.jpg"",""time"":303},{""stimulus"":""img/green_ll/7.jpg"",""time"":354},{""stimulus"":""img/green_ll/8.jpg"",""time"":403},{""stimulus"":""img/green_ll/9.jpg"",""time"":453},{""stimulus"":""img/green_ll/10.jpg"",""time"":503},{""stimulus"":""img/green_ll/11.jpg"",""time"":554}]","[]"
"","","","choice","63f58712a2c1bd62fa7bb352","bdp_lott","Mon Apr 03 2023 18:15:13 GMT-0600 (Mountain Daylight Time)","286232","green","red","image-keyboard-response","153","145608","0.0-5.0-1.74","","266","","img/green_ll/choose11.jpg","1","151","green","0.5","0.5","0.5","l","",""
"","","","","63f58712a2c1bd62fa7bb352","bdp_lott","Mon Apr 03 2023 18:15:13 GMT-0600 (Mountain Daylight Time)","286232","green","red","animation","154","146210","0.0-5.0-2.74","","","","","","151","","","","","","[{""stimulus"":""img/green_ll/1.jpg"",""time"":50},{""stimulus"":""img/green_ll/2.jpg"",""time"":100},{""stimulus"":""img/green_ll/3.jpg"",""time"":150},{""stimulus"":""img/green_ll/4.jpg"",""time"":200},{""stimulus"":""img/green_ll/5.jpg"",""time"":250},{""stimulus"":""img/green_ll/6.jpg"",""time"":300},{""stimulus"":""img/green_ll/7.jpg"",""time"":351},{""stimulus"":""img/green_ll/8.jpg"",""time"":402},{""stimulus"":""img/green_ll/9.jpg"",""time"":452},{""stimulus"":""img/green_ll/10.jpg"",""time"":502},{""stimulus"":""img/green_ll/11.jpg"",""time"":552}]","[]"
"","","","choice","63f58712a2c1bd62fa7bb352","bdp_lott","Mon Apr 03 2023 18:15:13 GMT-0600 (Mountain Daylight Time)","286232","green","red","image-keyboard-response","155","146584","0.0-5.0-1.75","","374","","img/green_ll/choose11.jpg","1","150","green","0.5","0.5","0.5","l","",""
"","","","","63f58712a2c1bd62fa7bb352","bdp_lott","Mon Apr 03 2023 18:15:13 GMT-0600 (Mountain Daylight Time)","286232","green","red","animation","156","147190","0.0-5.0-2.75","","","","","","150","","","","","","[{""stimulus"":""img/green_ll/1.jpg"",""time"":50},{""stimulus"":""img/green_ll/2.jpg"",""time"":100},{""stimulus"":""img/green_ll/3.jpg"",""time"":151},{""stimulus"":""img/green_ll/4.jpg"",""time"":202},{""stimulus"":""img/green_ll/5.jpg"",""time"":252},{""stimulus"":""img/green_ll/6.jpg"",""time"":302},{""stimulus"":""img/green_ll/7.jpg"",""time"":352},{""stimulus"":""img/green_ll/8.jpg"",""time"":402},{""stimulus"":""img/green_ll/9.jpg"",""time"":453},{""stimulus"":""img/green_ll/10.jpg"",""time"":503},{""stimulus"":""img/green_ll/11.jpg"",""time"":555}]","[]"
"","","","choice","63f58712a2c1bd62fa7bb352","bdp_lott","Mon Apr 03 2023 18:15:13 GMT-0600 (Mountain Daylight Time)","286232","green","red","image-keyboard-response","157","147496","0.0-5.0-1.76","","306","","img/green_ll/choose11.jpg","1","149","green","0.5","0.1","0.5","w","",""
"","","","","63f58712a2c1bd62fa7bb352","bdp_lott","Mon Apr 03 2023 18:15:13 GMT-0600 (Mountain Daylight Time)","286232","green","red","animation","158","148099","0.0-5.0-2.76","","","","","","149","","","","","","[{""stimulus"":""img/green_wl/1.jpg"",""time"":50},{""stimulus"":""img/green_wl/2.jpg"",""time"":100},{""stimulus"":""img/green_wl/3.jpg"",""time"":151},{""stimulus"":""img/green_wl/4.jpg"",""time"":200},{""stimulus"":""img/green_wl/5.jpg"",""time"":252},{""stimulus"":""img/green_wl/6.jpg"",""time"":302},{""stimulus"":""img/green_wl/7.jpg"",""time"":353},{""stimulus"":""img/green_wl/8.jpg"",""time"":404},{""stimulus"":""img/green_wl/9.jpg"",""time"":454},{""stimulus"":""img/green_wl/10.jpg"",""time"":504},{""stimulus"":""img/green_wl/11.jpg"",""time"":554}]","[]"
"","","","choice","63f58712a2c1bd62fa7bb352","bdp_lott","Mon Apr 03 2023 18:15:13 GMT-0600 (Mountain Daylight Time)","286232","green","red","image-keyboard-response","159","148432","0.0-5.0-1.77","","332","","img/green_wl/choose11.jpg","1","148","green","0.5","0.1","0.5","w","",""
"","","","","63f58712a2c1bd62fa7bb352","bdp_lott","Mon Apr 03 2023 18:15:13 GMT-0600 (Mountain Daylight Time)","286232","green","red","animation","160","149038","0.0-5.0-2.77","","","","","","148","","","","","","[{""stimulus"":""img/green_wl/1.jpg"",""time"":50},{""stimulus"":""img/green_wl/2.jpg"",""time"":101},{""stimulus"":""img/green_wl/3.jpg"",""time"":151},{""stimulus"":""img/green_wl/4.jpg"",""time"":201},{""stimulus"":""img/green_wl/5.jpg"",""time"":253},{""stimulus"":""img/green_wl/6.jpg"",""time"":303},{""stimulus"":""img/green_wl/7.jpg"",""time"":353},{""stimulus"":""img/green_wl/8.jpg"",""time"":402},{""stimulus"":""img/green_wl/9.jpg"",""time"":454},{""stimulus"":""img/green_wl/10.jpg"",""time"":505},{""stimulus"":""img/green_wl/11.jpg"",""time"":556}]","[]"
"","","","choice","63f58712a2c1bd62fa7bb352","bdp_lott","Mon Apr 03 2023 18:15:13 GMT-0600 (Mountain Daylight Time)","286232","green","red","image-keyboard-response","161","149392","0.0-5.0-1.78","","354","","img/green_wl/choose11.jpg","1","147","green","0.5","0.1","0.5","w","",""
"","","","","63f58712a2c1bd62fa7bb352","bdp_lott","Mon Apr 03 2023 18:15:13 GMT-0600 (Mountain Daylight Time)","286232","green","red","animation","162","149997","0.0-5.0-2.78","","","","","","147","","","","","","[{""stimulus"":""img/green_wl/1.jpg"",""time"":52},{""stimulus"":""img/green_wl/2.jpg"",""time"":102},{""stimulus"":""img/green_wl/3.jpg"",""time"":151},{""stimulus"":""img/green_wl/4.jpg"",""time"":202},{""stimulus"":""img/green_wl/5.jpg"",""time"":254},{""stimulus"":""img/green_wl/6.jpg"",""time"":303},{""stimulus"":""img/green_wl/7.jpg"",""time"":354},{""stimulus"":""img/green_wl/8.jpg"",""time"":404},{""stimulus"":""img/green_wl/9.jpg"",""time"":455},{""stimulus"":""img/green_wl/10.jpg"",""time"":505},{""stimulus"":""img/green_wl/11.jpg"",""time"":556}]","[]"
"","","","choice","63f58712a2c1bd62fa7bb352","bdp_lott","Mon Apr 03 2023 18:15:13 GMT-0600 (Mountain Daylight Time)","286232","green","red","image-keyboard-response","163","150368","0.0-5.0-1.79","","370","","img/green_wl/choose11.jpg","1","146","green","0.5","0.1","0.5","w","",""
"","","","","63f58712a2c1bd62fa7bb352","bdp_lott","Mon Apr 03 2023 18:15:13 GMT-0600 (Mountain Daylight Time)","286232","green","red","animation","164","150971","0.0-5.0-2.79","","","","","","146","","","","","","[{""stimulus"":""img/green_wl/1.jpg"",""time"":52},{""stimulus"":""img/green_wl/2.jpg"",""time"":102},{""stimulus"":""img/green_wl/3.jpg"",""time"":152},{""stimulus"":""img/green_wl/4.jpg"",""time"":202},{""stimulus"":""img/green_wl/5.jpg"",""time"":252},{""stimulus"":""img/green_wl/6.jpg"",""time"":302},{""stimulus"":""img/green_wl/7.jpg"",""time"":352},{""stimulus"":""img/green_wl/8.jpg"",""time"":402},{""stimulus"":""img/green_wl/9.jpg"",""time"":453},{""stimulus"":""img/green_wl/10.jpg"",""time"":503},{""stimulus"":""img/green_wl/11.jpg"",""time"":553}]","[]"
"","","","choice","63f58712a2c1bd62fa7bb352","bdp_lott","Mon Apr 03 2023 18:15:13 GMT-0600 (Mountain Daylight Time)","286232","green","red","image-keyboard-response","165","151345","0.0-5.0-1.80","","373","","img/green_wl/choose11.jpg","1","145","green","0.5","0.1","0.5","w","",""
"","","","","63f58712a2c1bd62fa7bb352","bdp_lott","Mon Apr 03 2023 18:15:13 GMT-0600 (Mountain Daylight Time)","286232","green","red","animation","166","151945","0.0-5.0-2.80","","","","","","145","","","","","","[{""stimulus"":""img/green_wl/1.jpg"",""time"":49},{""stimulus"":""img/green_wl/2.jpg"",""time"":99},{""stimulus"":""img/green_wl/3.jpg"",""time"":149},{""stimulus"":""img/green_wl/4.jpg"",""time"":199},{""stimulus"":""img/green_wl/5.jpg"",""time"":250},{""stimulus"":""img/green_wl/6.jpg"",""time"":299},{""stimulus"":""img/green_wl/7.jpg"",""time"":350},{""stimulus"":""img/green_wl/8.jpg"",""time"":400},{""stimulus"":""img/green_wl/9.jpg"",""time"":450},{""stimulus"":""img/green_wl/10.jpg"",""time"":500},{""stimulus"":""img/green_wl/11.jpg"",""time"":550}]","[]"
"","","","choice","63f58712a2c1bd62fa7bb352","bdp_lott","Mon Apr 03 2023 18:15:13 GMT-0600 (Mountain Daylight Time)","286232","green","red","image-keyboard-response","167","152289","0.0-5.0-1.81","","344","","img/green_wl/choose11.jpg","1","144","green","0.5","0.1","0.5","l","",""
"","","","","63f58712a2c1bd62fa7bb352","bdp_lott","Mon Apr 03 2023 18:15:13 GMT-0600 (Mountain Daylight Time)","286232","green","red","animation","168","152893","0.0-5.0-2.81","","","","","","144","","","","","","[{""stimulus"":""img/green_ll/1.jpg"",""time"":50},{""stimulus"":""img/green_ll/2.jpg"",""time"":100},{""stimulus"":""img/green_ll/3.jpg"",""time"":150},{""stimulus"":""img/green_ll/4.jpg"",""time"":200},{""stimulus"":""img/green_ll/5.jpg"",""time"":250},{""stimulus"":""img/green_ll/6.jpg"",""time"":301},{""stimulus"":""img/green_ll/7.jpg"",""time"":353},{""stimulus"":""img/green_ll/8.jpg"",""time"":403},{""stimulus"":""img/green_ll/9.jpg"",""time"":453},{""stimulus"":""img/green_ll/10.jpg"",""time"":504},{""stimulus"":""img/green_ll/11.jpg"",""time"":553}]","[]"
"","","","choice","63f58712a2c1bd62fa7bb352","bdp_lott","Mon Apr 03 2023 18:15:13 GMT-0600 (Mountain Daylight Time)","286232","green","red","image-keyboard-response","169","153248","0.0-5.0-1.82","","354","","img/green_ll/choose11.jpg","1","143","green","0.5","0.1","0.5","w","",""
"","","","","63f58712a2c1bd62fa7bb352","bdp_lott","Mon Apr 03 2023 18:15:13 GMT-0600 (Mountain Daylight Time)","286232","green","red","animation","170","153855","0.0-5.0-2.82","","","","","","143","","","","","","[{""stimulus"":""img/green_wl/1.jpg"",""time"":51},{""stimulus"":""img/green_wl/2.jpg"",""time"":101},{""stimulus"":""img/green_wl/3.jpg"",""time"":152},{""stimulus"":""img/green_wl/4.jpg"",""time"":203},{""stimulus"":""img/green_wl/5.jpg"",""time"":253},{""stimulus"":""img/green_wl/6.jpg"",""time"":304},{""stimulus"":""img/green_wl/7.jpg"",""time"":355},{""stimulus"":""img/green_wl/8.jpg"",""time"":404},{""stimulus"":""img/green_wl/9.jpg"",""time"":455},{""stimulus"":""img/green_wl/10.jpg"",""time"":505},{""stimulus"":""img/green_wl/11.jpg"",""time"":557}]","[]"
"","","","choice","63f58712a2c1bd62fa7bb352","bdp_lott","Mon Apr 03 2023 18:15:13 GMT-0600 (Mountain Daylight Time)","286232","green","red","image-keyboard-response","171","154233","0.0-5.0-1.83","","377","","img/green_wl/choose11.jpg","1","142","green","0.5","0.1","0.5","l","",""
"","","","","63f58712a2c1bd62fa7bb352","bdp_lott","Mon Apr 03 2023 18:15:13 GMT-0600 (Mountain Daylight Time)","286232","green","red","animation","172","154836","0.0-5.0-2.83","","","","","","142","","","","","","[{""stimulus"":""img/green_ll/1.jpg"",""time"":50},{""stimulus"":""img/green_ll/2.jpg"",""time"":100},{""stimulus"":""img/green_ll/3.jpg"",""time"":150},{""stimulus"":""img/green_ll/4.jpg"",""time"":200},{""stimulus"":""img/green_ll/5.jpg"",""time"":251},{""stimulus"":""img/green_ll/6.jpg"",""time"":301},{""stimulus"":""img/green_ll/7.jpg"",""time"":351},{""stimulus"":""img/green_ll/8.jpg"",""time"":401},{""stimulus"":""img/green_ll/9.jpg"",""time"":451},{""stimulus"":""img/green_ll/10.jpg"",""time"":501},{""stimulus"":""img/green_ll/11.jpg"",""time"":552}]","[]"
"","","","choice","63f58712a2c1bd62fa7bb352","bdp_lott","Mon Apr 03 2023 18:15:13 GMT-0600 (Mountain Daylight Time)","286232","green","red","image-keyboard-response","173","155209","0.0-5.0-1.84","","372","","img/green_ll/choose11.jpg","1","141","green","0.5","0.1","0.5","l","",""
"","","","","63f58712a2c1bd62fa7bb352","bdp_lott","Mon Apr 03 2023 18:15:13 GMT-0600 (Mountain Daylight Time)","286232","green","red","animation","174","155817","0.0-5.0-2.84","","","","","","141","","","","","","[{""stimulus"":""img/green_ll/1.jpg"",""time"":51},{""stimulus"":""img/green_ll/2.jpg"",""time"":102},{""stimulus"":""img/green_ll/3.jpg"",""time"":153},{""stimulus"":""img/green_ll/4.jpg"",""time"":203},{""stimulus"":""img/green_ll/5.jpg"",""time"":254},{""stimulus"":""img/green_ll/6.jpg"",""time"":304},{""stimulus"":""img/green_ll/7.jpg"",""time"":355},{""stimulus"":""img/green_ll/8.jpg"",""time"":405},{""stimulus"":""img/green_ll/9.jpg"",""time"":456},{""stimulus"":""img/green_ll/10.jpg"",""time"":507},{""stimulus"":""img/green_ll/11.jpg"",""time"":558}]","[]"
"","","","choice","63f58712a2c1bd62fa7bb352","bdp_lott","Mon Apr 03 2023 18:15:13 GMT-0600 (Mountain Daylight Time)","286232","green","red","image-keyboard-response","175","156209","0.0-5.0-1.85","","392","","img/green_ll/choose11.jpg","1","140","green","0.5","0.1","0.5","w","",""
"","","","","63f58712a2c1bd62fa7bb352","bdp_lott","Mon Apr 03 2023 18:15:13 GMT-0600 (Mountain Daylight Time)","286232","green","red","animation","176","156812","0.0-5.0-2.85","","","","","","140","","","","","","[{""stimulus"":""img/green_wl/1.jpg"",""time"":51},{""stimulus"":""img/green_wl/2.jpg"",""time"":100},{""stimulus"":""img/green_wl/3.jpg"",""time"":151},{""stimulus"":""img/green_wl/4.jpg"",""time"":201},{""stimulus"":""img/green_wl/5.jpg"",""time"":251},{""stimulus"":""img/green_wl/6.jpg"",""time"":301},{""stimulus"":""img/green_wl/7.jpg"",""time"":352},{""stimulus"":""img/green_wl/8.jpg"",""time"":402},{""stimulus"":""img/green_wl/9.jpg"",""time"":452},{""stimulus"":""img/green_wl/10.jpg"",""time"":503},{""stimulus"":""img/green_wl/11.jpg"",""time"":553}]","[]"
"","","","choice","63f58712a2c1bd62fa7bb352","bdp_lott","Mon Apr 03 2023 18:15:13 GMT-0600 (Mountain Daylight Time)","286232","green","red","image-keyboard-response","177","157561","0.0-5.0-1.86","","749","","img/green_wl/choose11.jpg","1","139","green","0.5","0.1","0.5","w","",""
"","","","","63f58712a2c1bd62fa7bb352","bdp_lott","Mon Apr 03 2023 18:15:13 GMT-0600 (Mountain Daylight Time)","286232","green","red","animation","178","158165","0.0-5.0-2.86","","","","","","139","","","","","","[{""stimulus"":""img/green_wl/1.jpg"",""time"":50},{""stimulus"":""img/green_wl/2.jpg"",""time"":100},{""stimulus"":""img/green_wl/3.jpg"",""time"":151},{""stimulus"":""img/green_wl/4.jpg"",""time"":202},{""stimulus"":""img/green_wl/5.jpg"",""time"":252},{""stimulus"":""img/green_wl/6.jpg"",""time"":303},{""stimulus"":""img/green_wl/7.jpg"",""time"":353},{""stimulus"":""img/green_wl/8.jpg"",""time"":403},{""stimulus"":""img/green_wl/9.jpg"",""time"":453},{""stimulus"":""img/green_wl/10.jpg"",""time"":503},{""stimulus"":""img/green_wl/11.jpg"",""time"":553}]","[]"
"","","","choice","63f58712a2c1bd62fa7bb352","bdp_lott","Mon Apr 03 2023 18:15:13 GMT-0600 (Mountain Daylight Time)","286232","green","red","image-keyboard-response","179","158481","0.0-5.0-1.87","","315","","img/green_wl/choose11.jpg","1","138","green","0.5","0.1","0.5","l","",""
"","","","","63f58712a2c1bd62fa7bb352","bdp_lott","Mon Apr 03 2023 18:15:13 GMT-0600 (Mountain Daylight Time)","286232","green","red","animation","180","159086","0.0-5.0-2.87","","","","","","138","","","","","","[{""stimulus"":""img/green_ll/1.jpg"",""time"":50},{""stimulus"":""img/green_ll/2.jpg"",""time"":99},{""stimulus"":""img/green_ll/3.jpg"",""time"":150},{""stimulus"":""img/green_ll/4.jpg"",""time"":200},{""stimulus"":""img/green_ll/5.jpg"",""time"":251},{""stimulus"":""img/green_ll/6.jpg"",""time"":301},{""stimulus"":""img/green_ll/7.jpg"",""time"":352},{""stimulus"":""img/green_ll/8.jpg"",""time"":401},{""stimulus"":""img/green_ll/9.jpg"",""time"":452},{""stimulus"":""img/green_ll/10.jpg"",""time"":502},{""stimulus"":""img/green_ll/11.jpg"",""time"":554}]","[]"
"","","","choice","63f58712a2c1bd62fa7bb352","bdp_lott","Mon Apr 03 2023 18:15:13 GMT-0600 (Mountain Daylight Time)","286232","green","red","image-keyboard-response","181","159409","0.0-5.0-1.88","","323","","img/green_ll/choose11.jpg","1","137","green","0.5","0.1","0.5","w","",""
"","","","","63f58712a2c1bd62fa7bb352","bdp_lott","Mon Apr 03 2023 18:15:13 GMT-0600 (Mountain Daylight Time)","286232","green","red","animation","182","160012","0.0-5.0-2.88","","","","","","137","","","","","","[{""stimulus"":""img/green_wl/1.jpg"",""time"":51},{""stimulus"":""img/green_wl/2.jpg"",""time"":101},{""stimulus"":""img/green_wl/3.jpg"",""time"":151},{""stimulus"":""img/green_wl/4.jpg"",""time"":202},{""stimulus"":""img/green_wl/5.jpg"",""time"":252},{""stimulus"":""img/green_wl/6.jpg"",""time"":302},{""stimulus"":""img/green_wl/7.jpg"",""time"":352},{""stimulus"":""img/green_wl/8.jpg"",""time"":403},{""stimulus"":""img/green_wl/9.jpg"",""time"":453},{""stimulus"":""img/green_wl/10.jpg"",""time"":503},{""stimulus"":""img/green_wl/11.jpg"",""time"":554}]","[]"
"","","","choice","63f58712a2c1bd62fa7bb352","bdp_lott","Mon Apr 03 2023 18:15:13 GMT-0600 (Mountain Daylight Time)","286232","green","red","image-keyboard-response","183","160353","0.0-5.0-1.89","","340","","img/green_wl/choose11.jpg","1","136","green","0.5","0.1","0.5","w","",""
"","","","","63f58712a2c1bd62fa7bb352","bdp_lott","Mon Apr 03 2023 18:15:13 GMT-0600 (Mountain Daylight Time)","286232","green","red","animation","184","160960","0.0-5.0-2.89","","","","","","136","","","","","","[{""stimulus"":""img/green_wl/1.jpg"",""time"":51},{""stimulus"":""img/green_wl/2.jpg"",""time"":101},{""stimulus"":""img/green_wl/3.jpg"",""time"":152},{""stimulus"":""img/green_wl/4.jpg"",""time"":202},{""stimulus"":""img/green_wl/5.jpg"",""time"":252},{""stimulus"":""img/green_wl/6.jpg"",""time"":303},{""stimulus"":""img/green_wl/7.jpg"",""time"":354},{""stimulus"":""img/green_wl/8.jpg"",""time"":405},{""stimulus"":""img/green_wl/9.jpg"",""time"":456},{""stimulus"":""img/green_wl/10.jpg"",""time"":507},{""stimulus"":""img/green_wl/11.jpg"",""time"":557}]","[]"
"","","","choice","63f58712a2c1bd62fa7bb352","bdp_lott","Mon Apr 03 2023 18:15:13 GMT-0600 (Mountain Daylight Time)","286232","green","red","image-keyboard-response","185","161353","0.0-5.0-1.90","","393","","img/green_wl/choose11.jpg","1","135","green","0.5","0.1","0.5","l","",""
"","","","","63f58712a2c1bd62fa7bb352","bdp_lott","Mon Apr 03 2023 18:15:13 GMT-0600 (Mountain Daylight Time)","286232","green","red","animation","186","161955","0.0-5.0-2.90","","","","","","135","","","","","","[{""stimulus"":""img/green_ll/1.jpg"",""time"":51},{""stimulus"":""img/green_ll/2.jpg"",""time"":101},{""stimulus"":""img/green_ll/3.jpg"",""time"":152},{""stimulus"":""img/green_ll/4.jpg"",""time"":202},{""stimulus"":""img/green_ll/5.jpg"",""time"":252},{""stimulus"":""img/green_ll/6.jpg"",""time"":302},{""stimulus"":""img/green_ll/7.jpg"",""time"":352},{""stimulus"":""img/green_ll/8.jpg"",""time"":403},{""stimulus"":""img/green_ll/9.jpg"",""time"":452},{""stimulus"":""img/green_ll/10.jpg"",""time"":502},{""stimulus"":""img/green_ll/11.jpg"",""time"":552}]","[]"
"","","","choice","63f58712a2c1bd62fa7bb352","bdp_lott","Mon Apr 03 2023 18:15:13 GMT-0600 (Mountain Daylight Time)","286232","green","red","image-keyboard-response","187","162386","0.0-5.0-1.91","","431","","img/green_ll/choose11.jpg","1","134","green","0.5","0.1","0.5","l","",""
"","","","","63f58712a2c1bd62fa7bb352","bdp_lott","Mon Apr 03 2023 18:15:13 GMT-0600 (Mountain Daylight Time)","286232","green","red","animation","188","162986","0.0-5.0-2.91","","","","","","134","","","","","","[{""stimulus"":""img/green_ll/1.jpg"",""time"":50},{""stimulus"":""img/green_ll/2.jpg"",""time"":100},{""stimulus"":""img/green_ll/3.jpg"",""time"":150},{""stimulus"":""img/green_ll/4.jpg"",""time"":201},{""stimulus"":""img/green_ll/5.jpg"",""time"":251},{""stimulus"":""img/green_ll/6.jpg"",""time"":301},{""stimulus"":""img/green_ll/7.jpg"",""time"":351},{""stimulus"":""img/green_ll/8.jpg"",""time"":401},{""stimulus"":""img/green_ll/9.jpg"",""time"":452},{""stimulus"":""img/green_ll/10.jpg"",""time"":501},{""stimulus"":""img/green_ll/11.jpg"",""time"":551}]","[]"
"","","","choice","63f58712a2c1bd62fa7bb352","bdp_lott","Mon Apr 03 2023 18:15:13 GMT-0600 (Mountain Daylight Time)","286232","green","red","image-keyboard-response","189","163457","0.0-5.0-1.92","","470","","img/green_ll/choose11.jpg","1","133","green","0.5","0.1","0.5","l","",""
