"event","trial","time","trialtype","numBlurs","subject_id","task","startTime","totalTime","fairMachine","unfairMachine","trial_type","trial_index","time_elapsed","internal_node_id","view_history","rt","success","stimulus","key_press","roundsLeft","chosen","pFairMachWin","pUnfairMachWin","pTrialWin","outcome","animation_sequence","responses"
"blur","0","0","blurevent","1","63614ad63aec6bcf8a045124","bdp_lott","Sun Mar 26 2023 15:15:31 GMT-0400 (Eastern Daylight Time)","284553","green","red","","","","","","","","","","","","","","","","",""
"focus","0","0","focusevent","","63614ad63aec6bcf8a045124","bdp_lott","Sun Mar 26 2023 15:15:31 GMT-0400 (Eastern Daylight Time)","284553","green","red","","","","","","","","","","","","","","","","",""
"","","","","","63614ad63aec6bcf8a045124","bdp_lott","Sun Mar 26 2023 15:15:31 GMT-0400 (Eastern Daylight Time)","284553","green","red","pavlovia","0","3","0.0-0.0","","","","","","","","","","","","",""
"","","","","","63614ad63aec6bcf8a045124","bdp_lott","Sun Mar 26 2023 15:15:31 GMT-0400 (Eastern Daylight Time)","284553","green","red","instructions","1","8369","0.0-1.0","[{""page_index"":0,""viewing_time"":8366}]","8366","","","","","","","","","","",""
"fullscreenenter","2","12687","fullscreenenter","","63614ad63aec6bcf8a045124","bdp_lott","Sun Mar 26 2023 15:15:31 GMT-0400 (Eastern Daylight Time)","284553","green","red","","","","","","","","","","","","","","","","",""
"","","","","","63614ad63aec6bcf8a045124","bdp_lott","Sun Mar 26 2023 15:15:31 GMT-0400 (Eastern Daylight Time)","284553","green","red","fullscreen","2","13675","0.0-2.0","","","true","","","","","","","","","",""
"","","","","","63614ad63aec6bcf8a045124","bdp_lott","Sun Mar 26 2023 15:15:31 GMT-0400 (Eastern Daylight Time)","284553","green","red","instructions","3","28677","0.0-4.0","[{""page_index"":0,""viewing_time"":15001}]","15001","","","","","","","","","","",""
"","","","blurwarn","1","63614ad63aec6bcf8a045124","bdp_lott","Sun Mar 26 2023 15:15:31 GMT-0400 (Eastern Daylight Time)","284553","green","red","image-keyboard-response","4","45352","0.0-5.0-0.0-0.0","","16672","","","49","","","","","","","",""
"","","","choice","","63614ad63aec6bcf8a045124","bdp_lott","Sun Mar 26 2023 15:15:31 GMT-0400 (Eastern Daylight Time)","284553","green","red","image-keyboard-response","5","49319","0.0-5.0-1.0","","3709","","img/red_ll/initchoose11.jpg","1","225","green","0.5","0.5","0.5","l","",""
"","","","","","63614ad63aec6bcf8a045124","bdp_lott","Sun Mar 26 2023 15:15:31 GMT-0400 (Eastern Daylight Time)","284553","green","red","animation","6","49921","0.0-5.0-2.0","","","","","","225","","","","","","[{""stimulus"":""img/green_ll/1.jpg"",""time"":52},{""stimulus"":""img/green_ll/2.jpg"",""time"":102},{""stimulus"":""img/green_ll/3.jpg"",""time"":152},{""stimulus"":""img/green_ll/4.jpg"",""time"":202},{""stimulus"":""img/green_ll/5.jpg"",""time"":253},{""stimulus"":""img/green_ll/6.jpg"",""time"":302},{""stimulus"":""img/green_ll/7.jpg"",""time"":353},{""stimulus"":""img/green_ll/8.jpg"",""time"":403},{""stimulus"":""img/green_ll/9.jpg"",""time"":453},{""stimulus"":""img/green_ll/10.jpg"",""time"":501},{""stimulus"":""img/green_ll/11.jpg"",""time"":552}]","[]"
"","","","choice","","63614ad63aec6bcf8a045124","bdp_lott","Sun Mar 26 2023 15:15:31 GMT-0400 (Eastern Daylight Time)","284553","green","red","image-keyboard-response","7","50958","0.0-5.0-1.1","","1037","","img/green_ll/choose11.jpg","2","224","red","0.5","0.5","0.5","w","",""
"","","","","","63614ad63aec6bcf8a045124","bdp_lott","Sun Mar 26 2023 15:15:31 GMT-0400 (Eastern Daylight Time)","284553","green","red","animation","8","51559","0.0-5.0-2.1","","","","","","224","","","","","","[{""stimulus"":""img/red_lw/1.jpg"",""time"":51},{""stimulus"":""img/red_lw/2.jpg"",""time"":101},{""stimulus"":""img/red_lw/3.jpg"",""time"":151},{""stimulus"":""img/red_lw/4.jpg"",""time"":200},{""stimulus"":""img/red_lw/5.jpg"",""time"":251},{""stimulus"":""img/red_lw/6.jpg"",""time"":301},{""stimulus"":""img/red_lw/7.jpg"",""time"":350},{""stimulus"":""img/red_lw/8.jpg"",""time"":401},{""stimulus"":""img/red_lw/9.jpg"",""time"":451},{""stimulus"":""img/red_lw/10.jpg"",""time"":500},{""stimulus"":""img/red_lw/11.jpg"",""time"":551}]","[]"
"","","","choice","","63614ad63aec6bcf8a045124","bdp_lott","Sun Mar 26 2023 15:15:31 GMT-0400 (Eastern Daylight Time)","284553","green","red","image-keyboard-response","9","53279","0.0-5.0-1.2","","1720","","img/red_lw/choose11.jpg","2","223","red","0.5","0.5","0.5","l","",""
"","","","","","63614ad63aec6bcf8a045124","bdp_lott","Sun Mar 26 2023 15:15:31 GMT-0400 (Eastern Daylight Time)","284553","green","red","animation","10","53880","0.0-5.0-2.2","","","","","","223","","","","","","[{""stimulus"":""img/red_ll/1.jpg"",""time"":52},{""stimulus"":""img/red_ll/2.jpg"",""time"":100},{""stimulus"":""img/red_ll/3.jpg"",""time"":150},{""stimulus"":""img/red_ll/4.jpg"",""time"":200},{""stimulus"":""img/red_ll/5.jpg"",""time"":250},{""stimulus"":""img/red_ll/6.jpg"",""time"":301},{""stimulus"":""img/red_ll/7.jpg"",""time"":350},{""stimulus"":""img/red_ll/8.jpg"",""time"":401},{""stimulus"":""img/red_ll/9.jpg"",""time"":451},{""stimulus"":""img/red_ll/10.jpg"",""time"":501},{""stimulus"":""img/red_ll/11.jpg"",""time"":551}]","[]"
"","","","choice","","63614ad63aec6bcf8a045124","bdp_lott","Sun Mar 26 2023 15:15:31 GMT-0400 (Eastern Daylight Time)","284553","green","red","image-keyboard-response","11","54798","0.0-5.0-1.3","","917","","img/red_ll/choose11.jpg","2","222","red","0.5","0.5","0.5","l","",""
"","","","","","63614ad63aec6bcf8a045124","bdp_lott","Sun Mar 26 2023 15:15:31 GMT-0400 (Eastern Daylight Time)","284553","green","red","animation","12","55399","0.0-5.0-2.3","","","","","","222","","","","","","[{""stimulus"":""img/red_ll/1.jpg"",""time"":52},{""stimulus"":""img/red_ll/2.jpg"",""time"":101},{""stimulus"":""img/red_ll/3.jpg"",""time"":151},{""stimulus"":""img/red_ll/4.jpg"",""time"":201},{""stimulus"":""img/red_ll/5.jpg"",""time"":251},{""stimulus"":""img/red_ll/6.jpg"",""time"":301},{""stimulus"":""img/red_ll/7.jpg"",""time"":351},{""stimulus"":""img/red_ll/8.jpg"",""time"":402},{""stimulus"":""img/red_ll/9.jpg"",""time"":451},{""stimulus"":""img/red_ll/10.jpg"",""time"":501},{""stimulus"":""img/red_ll/11.jpg"",""time"":551}]","[]"
"","","","choice","","63614ad63aec6bcf8a045124","bdp_lott","Sun Mar 26 2023 15:15:31 GMT-0400 (Eastern Daylight Time)","284553","green","red","image-keyboard-response","13","56125","0.0-5.0-1.4","","725","","img/red_ll/choose11.jpg","2","221","red","0.5","0.5","0.5","w","",""
"","","","","","63614ad63aec6bcf8a045124","bdp_lott","Sun Mar 26 2023 15:15:31 GMT-0400 (Eastern Daylight Time)","284553","green","red","animation","14","56726","0.0-5.0-2.4","","","","","","221","","","","","","[{""stimulus"":""img/red_lw/1.jpg"",""time"":52},{""stimulus"":""img/red_lw/2.jpg"",""time"":102},{""stimulus"":""img/red_lw/3.jpg"",""time"":152},{""stimulus"":""img/red_lw/4.jpg"",""time"":201},{""stimulus"":""img/red_lw/5.jpg"",""time"":251},{""stimulus"":""img/red_lw/6.jpg"",""time"":302},{""stimulus"":""img/red_lw/7.jpg"",""time"":351},{""stimulus"":""img/red_lw/8.jpg"",""time"":400},{""stimulus"":""img/red_lw/9.jpg"",""time"":451},{""stimulus"":""img/red_lw/10.jpg"",""time"":501},{""stimulus"":""img/red_lw/11.jpg"",""time"":551}]","[]"
"","","","choice","","63614ad63aec6bcf8a045124","bdp_lott","Sun Mar 26 2023 15:15:31 GMT-0400 (Eastern Daylight Time)","284553","green","red","image-keyboard-response","15","57605","0.0-5.0-1.5","","878","","img/red_lw/choose11.jpg","2","220","red","0.5","0.5","0.5","l","",""
"","","","","","63614ad63aec6bcf8a045124","bdp_lott","Sun Mar 26 2023 15:15:31 GMT-0400 (Eastern Daylight Time)","284553","green","red","animation","16","58205","0.0-5.0-2.5","","","","","","220","","","","","","[{""stimulus"":""img/red_ll/1.jpg"",""time"":51},{""stimulus"":""img/red_ll/2.jpg"",""time"":101},{""stimulus"":""img/red_ll/3.jpg"",""time"":152},{""stimulus"":""img/red_ll/4.jpg"",""time"":201},{""stimulus"":""img/red_ll/5.jpg"",""time"":252},{""stimulus"":""img/red_ll/6.jpg"",""time"":301},{""stimulus"":""img/red_ll/7.jpg"",""time"":351},{""stimulus"":""img/red_ll/8.jpg"",""time"":402},{""stimulus"":""img/red_ll/9.jpg"",""time"":451},{""stimulus"":""img/red_ll/10.jpg"",""time"":502},{""stimulus"":""img/red_ll/11.jpg"",""time"":551}]","[]"
"","","","choice","","63614ad63aec6bcf8a045124","bdp_lott","Sun Mar 26 2023 15:15:31 GMT-0400 (Eastern Daylight Time)","284553","green","red","image-keyboard-response","17","58741","0.0-5.0-1.6","","535","","img/red_ll/choose11.jpg","2","219","red","0.5","0.5","0.5","w","",""
"","","","","","63614ad63aec6bcf8a045124","bdp_lott","Sun Mar 26 2023 15:15:31 GMT-0400 (Eastern Daylight Time)","284553","green","red","animation","18","59342","0.0-5.0-2.6","","","","","","219","","","","","","[{""stimulus"":""img/red_lw/1.jpg"",""time"":51},{""stimulus"":""img/red_lw/2.jpg"",""time"":102},{""stimulus"":""img/red_lw/3.jpg"",""time"":151},{""stimulus"":""img/red_lw/4.jpg"",""time"":202},{""stimulus"":""img/red_lw/5.jpg"",""time"":252},{""stimulus"":""img/red_lw/6.jpg"",""time"":301},{""stimulus"":""img/red_lw/7.jpg"",""time"":352},{""stimulus"":""img/red_lw/8.jpg"",""time"":401},{""stimulus"":""img/red_lw/9.jpg"",""time"":450},{""stimulus"":""img/red_lw/10.jpg"",""time"":501},{""stimulus"":""img/red_lw/11.jpg"",""time"":551}]","[]"
"","","","choice","","63614ad63aec6bcf8a045124","bdp_lott","Sun Mar 26 2023 15:15:31 GMT-0400 (Eastern Daylight Time)","284553","green","red","image-keyboard-response","19","60318","0.0-5.0-1.7","","975","","img/red_lw/choose11.jpg","2","218","red","0.5","0.5","0.5","l","",""
"","","","","","63614ad63aec6bcf8a045124","bdp_lott","Sun Mar 26 2023 15:15:31 GMT-0400 (Eastern Daylight Time)","284553","green","red","animation","20","60919","0.0-5.0-2.7","","","","","","218","","","","","","[{""stimulus"":""img/red_ll/1.jpg"",""time"":51},{""stimulus"":""img/red_ll/2.jpg"",""time"":101},{""stimulus"":""img/red_ll/3.jpg"",""time"":152},{""stimulus"":""img/red_ll/4.jpg"",""time"":201},{""stimulus"":""img/red_ll/5.jpg"",""time"":254},{""stimulus"":""img/red_ll/6.jpg"",""time"":300},{""stimulus"":""img/red_ll/7.jpg"",""time"":351},{""stimulus"":""img/red_ll/8.jpg"",""time"":401},{""stimulus"":""img/red_ll/9.jpg"",""time"":451},{""stimulus"":""img/red_ll/10.jpg"",""time"":502},{""stimulus"":""img/red_ll/11.jpg"",""time"":552}]","[]"
"","","","choice","","63614ad63aec6bcf8a045124","bdp_lott","Sun Mar 26 2023 15:15:31 GMT-0400 (Eastern Daylight Time)","284553","green","red","image-keyboard-response","21","61528","0.0-5.0-1.8","","608","","img/red_ll/choose11.jpg","2","217","red","0.5","0.5","0.5","l","",""
"","","","","","63614ad63aec6bcf8a045124","bdp_lott","Sun Mar 26 2023 15:15:31 GMT-0400 (Eastern Daylight Time)","284553","green","red","animation","22","62130","0.0-5.0-2.8","","","","","","217","","","","","","[{""stimulus"":""img/red_ll/1.jpg"",""time"":51},{""stimulus"":""img/red_ll/2.jpg"",""time"":103},{""stimulus"":""img/red_ll/3.jpg"",""time"":152},{""stimulus"":""img/red_ll/4.jpg"",""time"":201},{""stimulus"":""img/red_ll/5.jpg"",""time"":251},{""stimulus"":""img/red_ll/6.jpg"",""time"":301},{""stimulus"":""img/red_ll/7.jpg"",""time"":351},{""stimulus"":""img/red_ll/8.jpg"",""time"":401},{""stimulus"":""img/red_ll/9.jpg"",""time"":451},{""stimulus"":""img/red_ll/10.jpg"",""time"":501},{""stimulus"":""img/red_ll/11.jpg"",""time"":551}]","[]"
"","","","choice","","63614ad63aec6bcf8a045124","bdp_lott","Sun Mar 26 2023 15:15:31 GMT-0400 (Eastern Daylight Time)","284553","green","red","image-keyboard-response","23","62653","0.0-5.0-1.9","","523","","img/red_ll/choose11.jpg","2","216","red","0.5","0.5","0.5","w","",""
"","","","","","63614ad63aec6bcf8a045124","bdp_lott","Sun Mar 26 2023 15:15:31 GMT-0400 (Eastern Daylight Time)","284553","green","red","animation","24","63254","0.0-5.0-2.9","","","","","","216","","","","","","[{""stimulus"":""img/red_lw/1.jpg"",""time"":50},{""stimulus"":""img/red_lw/2.jpg"",""time"":101},{""stimulus"":""img/red_lw/3.jpg"",""time"":152},{""stimulus"":""img/red_lw/4.jpg"",""time"":202},{""stimulus"":""img/red_lw/5.jpg"",""time"":251},{""stimulus"":""img/red_lw/6.jpg"",""time"":301},{""stimulus"":""img/red_lw/7.jpg"",""time"":351},{""stimulus"":""img/red_lw/8.jpg"",""time"":401},{""stimulus"":""img/red_lw/9.jpg"",""time"":451},{""stimulus"":""img/red_lw/10.jpg"",""time"":501},{""stimulus"":""img/red_lw/11.jpg"",""time"":552}]","[]"
"","","","choice","","63614ad63aec6bcf8a045124","bdp_lott","Sun Mar 26 2023 15:15:31 GMT-0400 (Eastern Daylight Time)","284553","green","red","image-keyboard-response","25","63933","0.0-5.0-1.10","","678","","img/red_lw/choose11.jpg","2","215","red","0.5","0.5","0.5","w","",""
"","","","","","63614ad63aec6bcf8a045124","bdp_lott","Sun Mar 26 2023 15:15:31 GMT-0400 (Eastern Daylight Time)","284553","green","red","animation","26","64535","0.0-5.0-2.10","","","","","","215","","","","","","[{""stimulus"":""img/red_lw/1.jpg"",""time"":51},{""stimulus"":""img/red_lw/2.jpg"",""time"":101},{""stimulus"":""img/red_lw/3.jpg"",""time"":151},{""stimulus"":""img/red_lw/4.jpg"",""time"":201},{""stimulus"":""img/red_lw/5.jpg"",""time"":252},{""stimulus"":""img/red_lw/6.jpg"",""time"":303},{""stimulus"":""img/red_lw/7.jpg"",""time"":352},{""stimulus"":""img/red_lw/8.jpg"",""time"":402},{""stimulus"":""img/red_lw/9.jpg"",""time"":452},{""stimulus"":""img/red_lw/10.jpg"",""time"":501},{""stimulus"":""img/red_lw/11.jpg"",""time"":551}]","[]"
"","","","choice","","63614ad63aec6bcf8a045124","bdp_lott","Sun Mar 26 2023 15:15:31 GMT-0400 (Eastern Daylight Time)","284553","green","red","image-keyboard-response","27","65154","0.0-5.0-1.11","","619","","img/red_lw/choose11.jpg","2","214","red","0.5","0.5","0.5","w","",""
"","","","","","63614ad63aec6bcf8a045124","bdp_lott","Sun Mar 26 2023 15:15:31 GMT-0400 (Eastern Daylight Time)","284553","green","red","animation","28","65755","0.0-5.0-2.11","","","","","","214","","","","","","[{""stimulus"":""img/red_lw/1.jpg"",""time"":51},{""stimulus"":""img/red_lw/2.jpg"",""time"":103},{""stimulus"":""img/red_lw/3.jpg"",""time"":153},{""stimulus"":""img/red_lw/4.jpg"",""time"":201},{""stimulus"":""img/red_lw/5.jpg"",""time"":252},{""stimulus"":""img/red_lw/6.jpg"",""time"":302},{""stimulus"":""img/red_lw/7.jpg"",""time"":351},{""stimulus"":""img/red_lw/8.jpg"",""time"":401},{""stimulus"":""img/red_lw/9.jpg"",""time"":451},{""stimulus"":""img/red_lw/10.jpg"",""time"":503},{""stimulus"":""img/red_lw/11.jpg"",""time"":551}]","[]"
"","","","choice","","63614ad63aec6bcf8a045124","bdp_lott","Sun Mar 26 2023 15:15:31 GMT-0400 (Eastern Daylight Time)","284553","green","red","image-keyboard-response","29","66221","0.0-5.0-1.12","","465","","img/red_lw/choose11.jpg","2","213","red","0.5","0.5","0.5","l","",""
"","","","","","63614ad63aec6bcf8a045124","bdp_lott","Sun Mar 26 2023 15:15:31 GMT-0400 (Eastern Daylight Time)","284553","green","red","animation","30","66822","0.0-5.0-2.12","","","","","","213","","","","","","[{""stimulus"":""img/red_ll/1.jpg"",""time"":52},{""stimulus"":""img/red_ll/2.jpg"",""time"":100},{""stimulus"":""img/red_ll/3.jpg"",""time"":150},{""stimulus"":""img/red_ll/4.jpg"",""time"":200},{""stimulus"":""img/red_ll/5.jpg"",""time"":250},{""stimulus"":""img/red_ll/6.jpg"",""time"":300},{""stimulus"":""img/red_ll/7.jpg"",""time"":352},{""stimulus"":""img/red_ll/8.jpg"",""time"":400},{""stimulus"":""img/red_ll/9.jpg"",""time"":451},{""stimulus"":""img/red_ll/10.jpg"",""time"":502},{""stimulus"":""img/red_ll/11.jpg"",""time"":550}]","[]"
"","","","choice","","63614ad63aec6bcf8a045124","bdp_lott","Sun Mar 26 2023 15:15:31 GMT-0400 (Eastern Daylight Time)","284553","green","red","image-keyboard-response","31","68006","0.0-5.0-1.13","","1183","","img/red_ll/choose11.jpg","2","212","red","0.5","0.5","0.5","w","",""
"","","","","","63614ad63aec6bcf8a045124","bdp_lott","Sun Mar 26 2023 15:15:31 GMT-0400 (Eastern Daylight Time)","284553","green","red","animation","32","68607","0.0-5.0-2.13","","","","","","212","","","","","","[{""stimulus"":""img/red_lw/1.jpg"",""time"":52},{""stimulus"":""img/red_lw/2.jpg"",""time"":101},{""stimulus"":""img/red_lw/3.jpg"",""time"":153},{""stimulus"":""img/red_lw/4.jpg"",""time"":202},{""stimulus"":""img/red_lw/5.jpg"",""time"":251},{""stimulus"":""img/red_lw/6.jpg"",""time"":302},{""stimulus"":""img/red_lw/7.jpg"",""time"":351},{""stimulus"":""img/red_lw/8.jpg"",""time"":401},{""stimulus"":""img/red_lw/9.jpg"",""time"":451},{""stimulus"":""img/red_lw/10.jpg"",""time"":501},{""stimulus"":""img/red_lw/11.jpg"",""time"":552}]","[]"
"","","","choice","","63614ad63aec6bcf8a045124","bdp_lott","Sun Mar 26 2023 15:15:31 GMT-0400 (Eastern Daylight Time)","284553","green","red","image-keyboard-response","33","69239","0.0-5.0-1.14","","631","","img/red_lw/choose11.jpg","2","211","red","0.5","0.5","0.5","l","",""
"","","","","","63614ad63aec6bcf8a045124","bdp_lott","Sun Mar 26 2023 15:15:31 GMT-0400 (Eastern Daylight Time)","284553","green","red","animation","34","69839","0.0-5.0-2.14","","","","","","211","","","","","","[{""stimulus"":""img/red_ll/1.jpg"",""time"":51},{""stimulus"":""img/red_ll/2.jpg"",""time"":101},{""stimulus"":""img/red_ll/3.jpg"",""time"":151},{""stimulus"":""img/red_ll/4.jpg"",""time"":201},{""stimulus"":""img/red_ll/5.jpg"",""time"":252},{""stimulus"":""img/red_ll/6.jpg"",""time"":301},{""stimulus"":""img/red_ll/7.jpg"",""time"":351},{""stimulus"":""img/red_ll/8.jpg"",""time"":401},{""stimulus"":""img/red_ll/9.jpg"",""time"":451},{""stimulus"":""img/red_ll/10.jpg"",""time"":501},{""stimulus"":""img/red_ll/11.jpg"",""time"":551}]","[]"
"","","","choice","","63614ad63aec6bcf8a045124","bdp_lott","Sun Mar 26 2023 15:15:31 GMT-0400 (Eastern Daylight Time)","284553","green","red","image-keyboard-response","35","70438","0.0-5.0-1.15","","598","","img/red_ll/choose11.jpg","2","210","red","0.5","0.5","0.5","l","",""
"","","","","","63614ad63aec6bcf8a045124","bdp_lott","Sun Mar 26 2023 15:15:31 GMT-0400 (Eastern Daylight Time)","284553","green","red","animation","36","71039","0.0-5.0-2.15","","","","","","210","","","","","","[{""stimulus"":""img/red_ll/1.jpg"",""time"":51},{""stimulus"":""img/red_ll/2.jpg"",""time"":102},{""stimulus"":""img/red_ll/3.jpg"",""time"":152},{""stimulus"":""img/red_ll/4.jpg"",""time"":201},{""stimulus"":""img/red_ll/5.jpg"",""time"":252},{""stimulus"":""img/red_ll/6.jpg"",""time"":302},{""stimulus"":""img/red_ll/7.jpg"",""time"":352},{""stimulus"":""img/red_ll/8.jpg"",""time"":402},{""stimulus"":""img/red_ll/9.jpg"",""time"":452},{""stimulus"":""img/red_ll/10.jpg"",""time"":501},{""stimulus"":""img/red_ll/11.jpg"",""time"":552}]","[]"
"","","","choice","","63614ad63aec6bcf8a045124","bdp_lott","Sun Mar 26 2023 15:15:31 GMT-0400 (Eastern Daylight Time)","284553","green","red","image-keyboard-response","37","71486","0.0-5.0-1.16","","446","","img/red_ll/choose11.jpg","2","209","red","0.5","0.5","0.5","w","",""
"","","","","","63614ad63aec6bcf8a045124","bdp_lott","Sun Mar 26 2023 15:15:31 GMT-0400 (Eastern Daylight Time)","284553","green","red","animation","38","72086","0.0-5.0-2.16","","","","","","209","","","","","","[{""stimulus"":""img/red_lw/1.jpg"",""time"":51},{""stimulus"":""img/red_lw/2.jpg"",""time"":101},{""stimulus"":""img/red_lw/3.jpg"",""time"":151},{""stimulus"":""img/red_lw/4.jpg"",""time"":201},{""stimulus"":""img/red_lw/5.jpg"",""time"":250},{""stimulus"":""img/red_lw/6.jpg"",""time"":301},{""stimulus"":""img/red_lw/7.jpg"",""time"":351},{""stimulus"":""img/red_lw/8.jpg"",""time"":402},{""stimulus"":""img/red_lw/9.jpg"",""time"":450},{""stimulus"":""img/red_lw/10.jpg"",""time"":501},{""stimulus"":""img/red_lw/11.jpg"",""time"":552}]","[]"
"","","","choice","","63614ad63aec6bcf8a045124","bdp_lott","Sun Mar 26 2023 15:15:31 GMT-0400 (Eastern Daylight Time)","284553","green","red","image-keyboard-response","39","72670","0.0-5.0-1.17","","583","","img/red_lw/choose11.jpg","2","208","red","0.5","0.5","0.5","w","",""
"","","","","","63614ad63aec6bcf8a045124","bdp_lott","Sun Mar 26 2023 15:15:31 GMT-0400 (Eastern Daylight Time)","284553","green","red","animation","40","73271","0.0-5.0-2.17","","","","","","208","","","","","","[{""stimulus"":""img/red_lw/1.jpg"",""time"":51},{""stimulus"":""img/red_lw/2.jpg"",""time"":101},{""stimulus"":""img/red_lw/3.jpg"",""time"":151},{""stimulus"":""img/red_lw/4.jpg"",""time"":201},{""stimulus"":""img/red_lw/5.jpg"",""time"":251},{""stimulus"":""img/red_lw/6.jpg"",""time"":301},{""stimulus"":""img/red_lw/7.jpg"",""time"":351},{""stimulus"":""img/red_lw/8.jpg"",""time"":401},{""stimulus"":""img/red_lw/9.jpg"",""time"":453},{""stimulus"":""img/red_lw/10.jpg"",""time"":502},{""stimulus"":""img/red_lw/11.jpg"",""time"":551}]","[]"
"","","","choice","","63614ad63aec6bcf8a045124","bdp_lott","Sun Mar 26 2023 15:15:31 GMT-0400 (Eastern Daylight Time)","284553","green","red","image-keyboard-response","41","73805","0.0-5.0-1.18","","533","","img/red_lw/choose11.jpg","2","207","red","0.5","0.5","0.5","w","",""
"","","","","","63614ad63aec6bcf8a045124","bdp_lott","Sun Mar 26 2023 15:15:31 GMT-0400 (Eastern Daylight Time)","284553","green","red","animation","42","74407","0.0-5.0-2.18","","","","","","207","","","","","","[{""stimulus"":""img/red_lw/1.jpg"",""time"":51},{""stimulus"":""img/red_lw/2.jpg"",""time"":103},{""stimulus"":""img/red_lw/3.jpg"",""time"":151},{""stimulus"":""img/red_lw/4.jpg"",""time"":201},{""stimulus"":""img/red_lw/5.jpg"",""time"":252},{""stimulus"":""img/red_lw/6.jpg"",""time"":303},{""stimulus"":""img/red_lw/7.jpg"",""time"":351},{""stimulus"":""img/red_lw/8.jpg"",""time"":402},{""stimulus"":""img/red_lw/9.jpg"",""time"":453},{""stimulus"":""img/red_lw/10.jpg"",""time"":502},{""stimulus"":""img/red_lw/11.jpg"",""time"":552}]","[]"
"","","","choice","","63614ad63aec6bcf8a045124","bdp_lott","Sun Mar 26 2023 15:15:31 GMT-0400 (Eastern Daylight Time)","284553","green","red","image-keyboard-response","43","75030","0.0-5.0-1.19","","622","","img/red_lw/choose11.jpg","2","206","red","0.5","0.5","0.5","l","",""
"","","","","","63614ad63aec6bcf8a045124","bdp_lott","Sun Mar 26 2023 15:15:31 GMT-0400 (Eastern Daylight Time)","284553","green","red","animation","44","75630","0.0-5.0-2.19","","","","","","206","","","","","","[{""stimulus"":""img/red_ll/1.jpg"",""time"":50},{""stimulus"":""img/red_ll/2.jpg"",""time"":101},{""stimulus"":""img/red_ll/3.jpg"",""time"":152},{""stimulus"":""img/red_ll/4.jpg"",""time"":201},{""stimulus"":""img/red_ll/5.jpg"",""time"":251},{""stimulus"":""img/red_ll/6.jpg"",""time"":301},{""stimulus"":""img/red_ll/7.jpg"",""time"":351},{""stimulus"":""img/red_ll/8.jpg"",""time"":401},{""stimulus"":""img/red_ll/9.jpg"",""time"":451},{""stimulus"":""img/red_ll/10.jpg"",""time"":501},{""stimulus"":""img/red_ll/11.jpg"",""time"":551}]","[]"
"","","","choice","","63614ad63aec6bcf8a045124","bdp_lott","Sun Mar 26 2023 15:15:31 GMT-0400 (Eastern Daylight Time)","284553","green","red","image-keyboard-response","45","76263","0.0-5.0-1.20","","632","","img/red_ll/choose11.jpg","2","205","red","0.5","0.5","0.5","w","",""
"","","","","","63614ad63aec6bcf8a045124","bdp_lott","Sun Mar 26 2023 15:15:31 GMT-0400 (Eastern Daylight Time)","284553","green","red","animation","46","76864","0.0-5.0-2.20","","","","","","205","","","","","","[{""stimulus"":""img/red_lw/1.jpg"",""time"":52},{""stimulus"":""img/red_lw/2.jpg"",""time"":102},{""stimulus"":""img/red_lw/3.jpg"",""time"":150},{""stimulus"":""img/red_lw/4.jpg"",""time"":201},{""stimulus"":""img/red_lw/5.jpg"",""time"":251},{""stimulus"":""img/red_lw/6.jpg"",""time"":300},{""stimulus"":""img/red_lw/7.jpg"",""time"":350},{""stimulus"":""img/red_lw/8.jpg"",""time"":402},{""stimulus"":""img/red_lw/9.jpg"",""time"":451},{""stimulus"":""img/red_lw/10.jpg"",""time"":500},{""stimulus"":""img/red_lw/11.jpg"",""time"":552}]","[]"
"","","","choice","","63614ad63aec6bcf8a045124","bdp_lott","Sun Mar 26 2023 15:15:31 GMT-0400 (Eastern Daylight Time)","284553","green","red","image-keyboard-response","47","77245","0.0-5.0-1.21","","380","","img/red_lw/choose11.jpg","2","204","red","0.5","0.5","0.5","l","",""
"","","","","","63614ad63aec6bcf8a045124","bdp_lott","Sun Mar 26 2023 15:15:31 GMT-0400 (Eastern Daylight Time)","284553","green","red","animation","48","77846","0.0-5.0-2.21","","","","","","204","","","","","","[{""stimulus"":""img/red_ll/1.jpg"",""time"":52},{""stimulus"":""img/red_ll/2.jpg"",""time"":101},{""stimulus"":""img/red_ll/3.jpg"",""time"":151},{""stimulus"":""img/red_ll/4.jpg"",""time"":202},{""stimulus"":""img/red_ll/5.jpg"",""time"":251},{""stimulus"":""img/red_ll/6.jpg"",""time"":301},{""stimulus"":""img/red_ll/7.jpg"",""time"":351},{""stimulus"":""img/red_ll/8.jpg"",""time"":401},{""stimulus"":""img/red_ll/9.jpg"",""time"":452},{""stimulus"":""img/red_ll/10.jpg"",""time"":501},{""stimulus"":""img/red_ll/11.jpg"",""time"":550}]","[]"
"","","","choice","","63614ad63aec6bcf8a045124","bdp_lott","Sun Mar 26 2023 15:15:31 GMT-0400 (Eastern Daylight Time)","284553","green","red","image-keyboard-response","49","78479","0.0-5.0-1.22","","633","","img/red_ll/choose11.jpg","2","203","red","0.5","0.5","0.5","w","",""
"","","","","","63614ad63aec6bcf8a045124","bdp_lott","Sun Mar 26 2023 15:15:31 GMT-0400 (Eastern Daylight Time)","284553","green","red","animation","50","79082","0.0-5.0-2.22","","","","","","203","","","","","","[{""stimulus"":""img/red_lw/1.jpg"",""time"":51},{""stimulus"":""img/red_lw/2.jpg"",""time"":102},{""stimulus"":""img/red_lw/3.jpg"",""time"":152},{""stimulus"":""img/red_lw/4.jpg"",""time"":201},{""stimulus"":""img/red_lw/5.jpg"",""time"":251},{""stimulus"":""img/red_lw/6.jpg"",""time"":302},{""stimulus"":""img/red_lw/7.jpg"",""time"":352},{""stimulus"":""img/red_lw/8.jpg"",""time"":401},{""stimulus"":""img/red_lw/9.jpg"",""time"":452},{""stimulus"":""img/red_lw/10.jpg"",""time"":502},{""stimulus"":""img/red_lw/11.jpg"",""time"":551}]","[]"
"","","","choice","","63614ad63aec6bcf8a045124","bdp_lott","Sun Mar 26 2023 15:15:31 GMT-0400 (Eastern Daylight Time)","284553","green","red","image-keyboard-response","51","79597","0.0-5.0-1.23","","515","","img/red_lw/choose11.jpg","2","202","red","0.5","0.5","0.5","l","",""
"","","","","","63614ad63aec6bcf8a045124","bdp_lott","Sun Mar 26 2023 15:15:31 GMT-0400 (Eastern Daylight Time)","284553","green","red","animation","52","80198","0.0-5.0-2.23","","","","","","202","","","","","","[{""stimulus"":""img/red_ll/1.jpg"",""time"":51},{""stimulus"":""img/red_ll/2.jpg"",""time"":102},{""stimulus"":""img/red_ll/3.jpg"",""time"":152},{""stimulus"":""img/red_ll/4.jpg"",""time"":201},{""stimulus"":""img/red_ll/5.jpg"",""time"":252},{""stimulus"":""img/red_ll/6.jpg"",""time"":302},{""stimulus"":""img/red_ll/7.jpg"",""time"":352},{""stimulus"":""img/red_ll/8.jpg"",""time"":402},{""stimulus"":""img/red_ll/9.jpg"",""time"":452},{""stimulus"":""img/red_ll/10.jpg"",""time"":502},{""stimulus"":""img/red_ll/11.jpg"",""time"":553}]","[]"
"","","","choice","","63614ad63aec6bcf8a045124","bdp_lott","Sun Mar 26 2023 15:15:31 GMT-0400 (Eastern Daylight Time)","284553","green","red","image-keyboard-response","53","80741","0.0-5.0-1.24","","542","","img/red_ll/choose11.jpg","2","201","red","0.5","0.5","0.5","l","",""
"","","","","","63614ad63aec6bcf8a045124","bdp_lott","Sun Mar 26 2023 15:15:31 GMT-0400 (Eastern Daylight Time)","284553","green","red","animation","54","81343","0.0-5.0-2.24","","","","","","201","","","","","","[{""stimulus"":""img/red_ll/1.jpg"",""time"":51},{""stimulus"":""img/red_ll/2.jpg"",""time"":101},{""stimulus"":""img/red_ll/3.jpg"",""time"":150},{""stimulus"":""img/red_ll/4.jpg"",""time"":201},{""stimulus"":""img/red_ll/5.jpg"",""time"":265},{""stimulus"":""img/red_ll/6.jpg"",""time"":300},{""stimulus"":""img/red_ll/7.jpg"",""time"":351},{""stimulus"":""img/red_ll/8.jpg"",""time"":400},{""stimulus"":""img/red_ll/9.jpg"",""time"":451},{""stimulus"":""img/red_ll/10.jpg"",""time"":502},{""stimulus"":""img/red_ll/11.jpg"",""time"":551}]","[]"
"","","","choice","","63614ad63aec6bcf8a045124","bdp_lott","Sun Mar 26 2023 15:15:31 GMT-0400 (Eastern Daylight Time)","284553","green","red","image-keyboard-response","55","81997","0.0-5.0-1.25","","654","","img/red_ll/choose11.jpg","2","200","red","0.5","0.5","0.5","w","",""
"","","","","","63614ad63aec6bcf8a045124","bdp_lott","Sun Mar 26 2023 15:15:31 GMT-0400 (Eastern Daylight Time)","284553","green","red","animation","56","82598","0.0-5.0-2.25","","","","","","200","","","","","","[{""stimulus"":""img/red_lw/1.jpg"",""time"":51},{""stimulus"":""img/red_lw/2.jpg"",""time"":100},{""stimulus"":""img/red_lw/3.jpg"",""time"":150},{""stimulus"":""img/red_lw/4.jpg"",""time"":201},{""stimulus"":""img/red_lw/5.jpg"",""time"":250},{""stimulus"":""img/red_lw/6.jpg"",""time"":301},{""stimulus"":""img/red_lw/7.jpg"",""time"":350},{""stimulus"":""img/red_lw/8.jpg"",""time"":400},{""stimulus"":""img/red_lw/9.jpg"",""time"":450},{""stimulus"":""img/red_lw/10.jpg"",""time"":501},{""stimulus"":""img/red_lw/11.jpg"",""time"":552}]","[]"
"","","","choice","","63614ad63aec6bcf8a045124","bdp_lott","Sun Mar 26 2023 15:15:31 GMT-0400 (Eastern Daylight Time)","284553","green","red","image-keyboard-response","57","82989","0.0-5.0-1.26","","390","","img/red_lw/choose11.jpg","2","199","red","0.5","0.5","0.5","l","",""
"","","","","","63614ad63aec6bcf8a045124","bdp_lott","Sun Mar 26 2023 15:15:31 GMT-0400 (Eastern Daylight Time)","284553","green","red","animation","58","83590","0.0-5.0-2.26","","","","","","199","","","","","","[{""stimulus"":""img/red_ll/1.jpg"",""time"":51},{""stimulus"":""img/red_ll/2.jpg"",""time"":101},{""stimulus"":""img/red_ll/3.jpg"",""time"":153},{""stimulus"":""img/red_ll/4.jpg"",""time"":201},{""stimulus"":""img/red_ll/5.jpg"",""time"":251},{""stimulus"":""img/red_ll/6.jpg"",""time"":302},{""stimulus"":""img/red_ll/7.jpg"",""time"":353},{""stimulus"":""img/red_ll/8.jpg"",""time"":402},{""stimulus"":""img/red_ll/9.jpg"",""time"":452},{""stimulus"":""img/red_ll/10.jpg"",""time"":501},{""stimulus"":""img/red_ll/11.jpg"",""time"":551}]","[]"
"","","","choice","","63614ad63aec6bcf8a045124","bdp_lott","Sun Mar 26 2023 15:15:31 GMT-0400 (Eastern Daylight Time)","284553","green","red","image-keyboard-response","59","84045","0.0-5.0-1.27","","454","","img/red_ll/choose11.jpg","2","198","red","0.5","0.5","0.5","w","",""
"","","","","","63614ad63aec6bcf8a045124","bdp_lott","Sun Mar 26 2023 15:15:31 GMT-0400 (Eastern Daylight Time)","284553","green","red","animation","60","84646","0.0-5.0-2.27","","","","","","198","","","","","","[{""stimulus"":""img/red_lw/1.jpg"",""time"":53},{""stimulus"":""img/red_lw/2.jpg"",""time"":102},{""stimulus"":""img/red_lw/3.jpg"",""time"":151},{""stimulus"":""img/red_lw/4.jpg"",""time"":201},{""stimulus"":""img/red_lw/5.jpg"",""time"":252},{""stimulus"":""img/red_lw/6.jpg"",""time"":301},{""stimulus"":""img/red_lw/7.jpg"",""time"":352},{""stimulus"":""img/red_lw/8.jpg"",""time"":402},{""stimulus"":""img/red_lw/9.jpg"",""time"":452},{""stimulus"":""img/red_lw/10.jpg"",""time"":501},{""stimulus"":""img/red_lw/11.jpg"",""time"":551}]","[]"
"","","","choice","","63614ad63aec6bcf8a045124","bdp_lott","Sun Mar 26 2023 15:15:31 GMT-0400 (Eastern Daylight Time)","284553","green","red","image-keyboard-response","61","85165","0.0-5.0-1.28","","518","","img/red_lw/choose11.jpg","2","197","red","0.5","0.5","0.5","w","",""
"","","","","","63614ad63aec6bcf8a045124","bdp_lott","Sun Mar 26 2023 15:15:31 GMT-0400 (Eastern Daylight Time)","284553","green","red","animation","62","85766","0.0-5.0-2.28","","","","","","197","","","","","","[{""stimulus"":""img/red_lw/1.jpg"",""time"":51},{""stimulus"":""img/red_lw/2.jpg"",""time"":101},{""stimulus"":""img/red_lw/3.jpg"",""time"":151},{""stimulus"":""img/red_lw/4.jpg"",""time"":202},{""stimulus"":""img/red_lw/5.jpg"",""time"":251},{""stimulus"":""img/red_lw/6.jpg"",""time"":301},{""stimulus"":""img/red_lw/7.jpg"",""time"":351},{""stimulus"":""img/red_lw/8.jpg"",""time"":401},{""stimulus"":""img/red_lw/9.jpg"",""time"":451},{""stimulus"":""img/red_lw/10.jpg"",""time"":501},{""stimulus"":""img/red_lw/11.jpg"",""time"":551}]","[]"
"","","","choice","","63614ad63aec6bcf8a045124","bdp_lott","Sun Mar 26 2023 15:15:31 GMT-0400 (Eastern Daylight Time)","284553","green","red","image-keyboard-response","63","86191","0.0-5.0-1.29","","423","","img/red_lw/choose11.jpg","2","196","red","0.5","0.5","0.5","w","",""
"","","","","","63614ad63aec6bcf8a045124","bdp_lott","Sun Mar 26 2023 15:15:31 GMT-0400 (Eastern Daylight Time)","284553","green","red","animation","64","86791","0.0-5.0-2.29","","","","","","196","","","","","","[{""stimulus"":""img/red_lw/1.jpg"",""time"":52},{""stimulus"":""img/red_lw/2.jpg"",""time"":101},{""stimulus"":""img/red_lw/3.jpg"",""time"":152},{""stimulus"":""img/red_lw/4.jpg"",""time"":202},{""stimulus"":""img/red_lw/5.jpg"",""time"":252},{""stimulus"":""img/red_lw/6.jpg"",""time"":301},{""stimulus"":""img/red_lw/7.jpg"",""time"":351},{""stimulus"":""img/red_lw/8.jpg"",""time"":401},{""stimulus"":""img/red_lw/9.jpg"",""time"":452},{""stimulus"":""img/red_lw/10.jpg"",""time"":501},{""stimulus"":""img/red_lw/11.jpg"",""time"":550}]","[]"
"","","","choice","","63614ad63aec6bcf8a045124","bdp_lott","Sun Mar 26 2023 15:15:31 GMT-0400 (Eastern Daylight Time)","284553","green","red","image-keyboard-response","65","87070","0.0-5.0-1.30","","278","","img/red_lw/choose11.jpg","1","195","green","0.5","0.5","0.5","w","",""
"","","","","","63614ad63aec6bcf8a045124","bdp_lott","Sun Mar 26 2023 15:15:31 GMT-0400 (Eastern Daylight Time)","284553","green","red","animation","66","87670","0.0-5.0-2.30","","","","","","195","","","","","","[{""stimulus"":""img/green_ww/1.jpg"",""time"":51},{""stimulus"":""img/green_ww/2.jpg"",""time"":102},{""stimulus"":""img/green_ww/3.jpg"",""time"":151},{""stimulus"":""img/green_ww/4.jpg"",""time"":201},{""stimulus"":""img/green_ww/5.jpg"",""time"":250},{""stimulus"":""img/green_ww/6.jpg"",""time"":301},{""stimulus"":""img/green_ww/7.jpg"",""time"":350},{""stimulus"":""img/green_ww/8.jpg"",""time"":400},{""stimulus"":""img/green_ww/9.jpg"",""time"":451},{""stimulus"":""img/green_ww/10.jpg"",""time"":500},{""stimulus"":""img/green_ww/11.jpg"",""time"":550}]","[]"
"","","","choice","","63614ad63aec6bcf8a045124","bdp_lott","Sun Mar 26 2023 15:15:31 GMT-0400 (Eastern Daylight Time)","284553","green","red","image-keyboard-response","67","88407","0.0-5.0-1.31","","737","","img/green_ww/choose11.jpg","1","194","green","0.5","0.5","0.5","w","",""
"","","","","","63614ad63aec6bcf8a045124","bdp_lott","Sun Mar 26 2023 15:15:31 GMT-0400 (Eastern Daylight Time)","284553","green","red","animation","68","89008","0.0-5.0-2.31","","","","","","194","","","","","","[{""stimulus"":""img/green_ww/1.jpg"",""time"":52},{""stimulus"":""img/green_ww/2.jpg"",""time"":101},{""stimulus"":""img/green_ww/3.jpg"",""time"":152},{""stimulus"":""img/green_ww/4.jpg"",""time"":201},{""stimulus"":""img/green_ww/5.jpg"",""time"":251},{""stimulus"":""img/green_ww/6.jpg"",""time"":301},{""stimulus"":""img/green_ww/7.jpg"",""time"":351},{""stimulus"":""img/green_ww/8.jpg"",""time"":401},{""stimulus"":""img/green_ww/9.jpg"",""time"":452},{""stimulus"":""img/green_ww/10.jpg"",""time"":501},{""stimulus"":""img/green_ww/11.jpg"",""time"":552}]","[]"
"","","","choice","","63614ad63aec6bcf8a045124","bdp_lott","Sun Mar 26 2023 15:15:31 GMT-0400 (Eastern Daylight Time)","284553","green","red","image-keyboard-response","69","89454","0.0-5.0-1.32","","445","","img/green_ww/choose11.jpg","1","193","green","0.5","0.5","0.5","w","",""
"","","","","","63614ad63aec6bcf8a045124","bdp_lott","Sun Mar 26 2023 15:15:31 GMT-0400 (Eastern Daylight Time)","284553","green","red","animation","70","90055","0.0-5.0-2.32","","","","","","193","","","","","","[{""stimulus"":""img/green_ww/1.jpg"",""time"":50},{""stimulus"":""img/green_ww/2.jpg"",""time"":100},{""stimulus"":""img/green_ww/3.jpg"",""time"":150},{""stimulus"":""img/green_ww/4.jpg"",""time"":201},{""stimulus"":""img/green_ww/5.jpg"",""time"":251},{""stimulus"":""img/green_ww/6.jpg"",""time"":301},{""stimulus"":""img/green_ww/7.jpg"",""time"":351},{""stimulus"":""img/green_ww/8.jpg"",""time"":401},{""stimulus"":""img/green_ww/9.jpg"",""time"":452},{""stimulus"":""img/green_ww/10.jpg"",""time"":501},{""stimulus"":""img/green_ww/11.jpg"",""time"":550}]","[]"
"","","","choice","","63614ad63aec6bcf8a045124","bdp_lott","Sun Mar 26 2023 15:15:31 GMT-0400 (Eastern Daylight Time)","284553","green","red","image-keyboard-response","71","90399","0.0-5.0-1.33","","344","","img/green_ww/choose11.jpg","1","192","green","0.5","0.5","0.5","w","",""
"","","","","","63614ad63aec6bcf8a045124","bdp_lott","Sun Mar 26 2023 15:15:31 GMT-0400 (Eastern Daylight Time)","284553","green","red","animation","72","91000","0.0-5.0-2.33","","","","","","192","","","","","","[{""stimulus"":""img/green_ww/1.jpg"",""time"":51},{""stimulus"":""img/green_ww/2.jpg"",""time"":103},{""stimulus"":""img/green_ww/3.jpg"",""time"":151},{""stimulus"":""img/green_ww/4.jpg"",""time"":201},{""stimulus"":""img/green_ww/5.jpg"",""time"":252},{""stimulus"":""img/green_ww/6.jpg"",""time"":301},{""stimulus"":""img/green_ww/7.jpg"",""time"":352},{""stimulus"":""img/green_ww/8.jpg"",""time"":401},{""stimulus"":""img/green_ww/9.jpg"",""time"":451},{""stimulus"":""img/green_ww/10.jpg"",""time"":501},{""stimulus"":""img/green_ww/11.jpg"",""time"":551}]","[]"
"","","","choice","","63614ad63aec6bcf8a045124","bdp_lott","Sun Mar 26 2023 15:15:31 GMT-0400 (Eastern Daylight Time)","284553","green","red","image-keyboard-response","73","91318","0.0-5.0-1.34","","318","","img/green_ww/choose11.jpg","1","191","green","0.5","0.5","0.5","l","",""
"","","","","","63614ad63aec6bcf8a045124","bdp_lott","Sun Mar 26 2023 15:15:31 GMT-0400 (Eastern Daylight Time)","284553","green","red","animation","74","91918","0.0-5.0-2.34","","","","","","191","","","","","","[{""stimulus"":""img/green_lw/1.jpg"",""time"":51},{""stimulus"":""img/green_lw/2.jpg"",""time"":101},{""stimulus"":""img/green_lw/3.jpg"",""time"":151},{""stimulus"":""img/green_lw/4.jpg"",""time"":202},{""stimulus"":""img/green_lw/5.jpg"",""time"":251},{""stimulus"":""img/green_lw/6.jpg"",""time"":302},{""stimulus"":""img/green_lw/7.jpg"",""time"":350},{""stimulus"":""img/green_lw/8.jpg"",""time"":400},{""stimulus"":""img/green_lw/9.jpg"",""time"":450},{""stimulus"":""img/green_lw/10.jpg"",""time"":500},{""stimulus"":""img/green_lw/11.jpg"",""time"":551}]","[]"
"","","","choice","","63614ad63aec6bcf8a045124","bdp_lott","Sun Mar 26 2023 15:15:31 GMT-0400 (Eastern Daylight Time)","284553","green","red","image-keyboard-response","75","92230","0.0-5.0-1.35","","311","","img/green_lw/choose11.jpg","1","190","green","0.5","0.5","0.5","l","",""
"","","","","","63614ad63aec6bcf8a045124","bdp_lott","Sun Mar 26 2023 15:15:31 GMT-0400 (Eastern Daylight Time)","284553","green","red","animation","76","92831","0.0-5.0-2.35","","","","","","190","","","","","","[{""stimulus"":""img/green_lw/1.jpg"",""time"":51},{""stimulus"":""img/green_lw/2.jpg"",""time"":102},{""stimulus"":""img/green_lw/3.jpg"",""time"":151},{""stimulus"":""img/green_lw/4.jpg"",""time"":201},{""stimulus"":""img/green_lw/5.jpg"",""time"":251},{""stimulus"":""img/green_lw/6.jpg"",""time"":300},{""stimulus"":""img/green_lw/7.jpg"",""time"":351},{""stimulus"":""img/green_lw/8.jpg"",""time"":401},{""stimulus"":""img/green_lw/9.jpg"",""time"":451},{""stimulus"":""img/green_lw/10.jpg"",""time"":502},{""stimulus"":""img/green_lw/11.jpg"",""time"":551}]","[]"
"","","","choice","","63614ad63aec6bcf8a045124","bdp_lott","Sun Mar 26 2023 15:15:31 GMT-0400 (Eastern Daylight Time)","284553","green","red","image-keyboard-response","77","93295","0.0-5.0-1.36","","463","","img/green_lw/choose11.jpg","1","189","green","0.5","0.5","0.5","w","",""
"","","","","","63614ad63aec6bcf8a045124","bdp_lott","Sun Mar 26 2023 15:15:31 GMT-0400 (Eastern Daylight Time)","284553","green","red","animation","78","93897","0.0-5.0-2.36","","","","","","189","","","","","","[{""stimulus"":""img/green_ww/1.jpg"",""time"":51},{""stimulus"":""img/green_ww/2.jpg"",""time"":100},{""stimulus"":""img/green_ww/3.jpg"",""time"":152},{""stimulus"":""img/green_ww/4.jpg"",""time"":201},{""stimulus"":""img/green_ww/5.jpg"",""time"":250},{""stimulus"":""img/green_ww/6.jpg"",""time"":300},{""stimulus"":""img/green_ww/7.jpg"",""time"":351},{""stimulus"":""img/green_ww/8.jpg"",""time"":401},{""stimulus"":""img/green_ww/9.jpg"",""time"":451},{""stimulus"":""img/green_ww/10.jpg"",""time"":500},{""stimulus"":""img/green_ww/11.jpg"",""time"":552}]","[]"
"","","","choice","","63614ad63aec6bcf8a045124","bdp_lott","Sun Mar 26 2023 15:15:31 GMT-0400 (Eastern Daylight Time)","284553","green","red","image-keyboard-response","79","94208","0.0-5.0-1.37","","310","","img/green_ww/choose11.jpg","1","188","green","0.5","0.5","0.5","w","",""
"","","","","","63614ad63aec6bcf8a045124","bdp_lott","Sun Mar 26 2023 15:15:31 GMT-0400 (Eastern Daylight Time)","284553","green","red","animation","80","94808","0.0-5.0-2.37","","","","","","188","","","","","","[{""stimulus"":""img/green_ww/1.jpg"",""time"":52},{""stimulus"":""img/green_ww/2.jpg"",""time"":101},{""stimulus"":""img/green_ww/3.jpg"",""time"":150},{""stimulus"":""img/green_ww/4.jpg"",""time"":200},{""stimulus"":""img/green_ww/5.jpg"",""time"":252},{""stimulus"":""img/green_ww/6.jpg"",""time"":301},{""stimulus"":""img/green_ww/7.jpg"",""time"":351},{""stimulus"":""img/green_ww/8.jpg"",""time"":401},{""stimulus"":""img/green_ww/9.jpg"",""time"":451},{""stimulus"":""img/green_ww/10.jpg"",""time"":500},{""stimulus"":""img/green_ww/11.jpg"",""time"":550}]","[]"
"","","","choice","","63614ad63aec6bcf8a045124","bdp_lott","Sun Mar 26 2023 15:15:31 GMT-0400 (Eastern Daylight Time)","284553","green","red","image-keyboard-response","81","95072","0.0-5.0-1.38","","263","","img/green_ww/choose11.jpg","1","187","green","0.5","0.5","0.5","w","",""
"","","","","","63614ad63aec6bcf8a045124","bdp_lott","Sun Mar 26 2023 15:15:31 GMT-0400 (Eastern Daylight Time)","284553","green","red","animation","82","95672","0.0-5.0-2.38","","","","","","187","","","","","","[{""stimulus"":""img/green_ww/1.jpg"",""time"":51},{""stimulus"":""img/green_ww/2.jpg"",""time"":101},{""stimulus"":""img/green_ww/3.jpg"",""time"":151},{""stimulus"":""img/green_ww/4.jpg"",""time"":201},{""stimulus"":""img/green_ww/5.jpg"",""time"":251},{""stimulus"":""img/green_ww/6.jpg"",""time"":300},{""stimulus"":""img/green_ww/7.jpg"",""time"":350},{""stimulus"":""img/green_ww/8.jpg"",""time"":400},{""stimulus"":""img/green_ww/9.jpg"",""time"":451},{""stimulus"":""img/green_ww/10.jpg"",""time"":501},{""stimulus"":""img/green_ww/11.jpg"",""time"":551}]","[]"
"","","","choice","","63614ad63aec6bcf8a045124","bdp_lott","Sun Mar 26 2023 15:15:31 GMT-0400 (Eastern Daylight Time)","284553","green","red","image-keyboard-response","83","95895","0.0-5.0-1.39","","222","","img/green_ww/choose11.jpg","1","186","green","0.5","0.5","0.5","l","",""
"","","","","","63614ad63aec6bcf8a045124","bdp_lott","Sun Mar 26 2023 15:15:31 GMT-0400 (Eastern Daylight Time)","284553","green","red","animation","84","96497","0.0-5.0-2.39","","","","","","186","","","","","","[{""stimulus"":""img/green_lw/1.jpg"",""time"":51},{""stimulus"":""img/green_lw/2.jpg"",""time"":101},{""stimulus"":""img/green_lw/3.jpg"",""time"":150},{""stimulus"":""img/green_lw/4.jpg"",""time"":201},{""stimulus"":""img/green_lw/5.jpg"",""time"":251},{""stimulus"":""img/green_lw/6.jpg"",""time"":301},{""stimulus"":""img/green_lw/7.jpg"",""time"":350},{""stimulus"":""img/green_lw/8.jpg"",""time"":401},{""stimulus"":""img/green_lw/9.jpg"",""time"":451},{""stimulus"":""img/green_lw/10.jpg"",""time"":500},{""stimulus"":""img/green_lw/11.jpg"",""time"":551}]","[]"
"","","","choice","","63614ad63aec6bcf8a045124","bdp_lott","Sun Mar 26 2023 15:15:31 GMT-0400 (Eastern Daylight Time)","284553","green","red","image-keyboard-response","85","96749","0.0-5.0-1.40","","252","","img/green_lw/choose11.jpg","1","185","green","0.5","0.5","0.5","l","",""
"","","","","","63614ad63aec6bcf8a045124","bdp_lott","Sun Mar 26 2023 15:15:31 GMT-0400 (Eastern Daylight Time)","284553","green","red","animation","86","97352","0.0-5.0-2.40","","","","","","185","","","","","","[{""stimulus"":""img/green_lw/1.jpg"",""time"":51},{""stimulus"":""img/green_lw/2.jpg"",""time"":100},{""stimulus"":""img/green_lw/3.jpg"",""time"":151},{""stimulus"":""img/green_lw/4.jpg"",""time"":201},{""stimulus"":""img/green_lw/5.jpg"",""time"":250},{""stimulus"":""img/green_lw/6.jpg"",""time"":301},{""stimulus"":""img/green_lw/7.jpg"",""time"":351},{""stimulus"":""img/green_lw/8.jpg"",""time"":401},{""stimulus"":""img/green_lw/9.jpg"",""time"":450},{""stimulus"":""img/green_lw/10.jpg"",""time"":500},{""stimulus"":""img/green_lw/11.jpg"",""time"":551}]","[]"
"","","","choice","","63614ad63aec6bcf8a045124","bdp_lott","Sun Mar 26 2023 15:15:31 GMT-0400 (Eastern Daylight Time)","284553","green","red","image-keyboard-response","87","97799","0.0-5.0-1.41","","447","","img/green_lw/choose11.jpg","1","184","green","0.5","0.5","0.5","w","",""
"","","","","","63614ad63aec6bcf8a045124","bdp_lott","Sun Mar 26 2023 15:15:31 GMT-0400 (Eastern Daylight Time)","284553","green","red","animation","88","98401","0.0-5.0-2.41","","","","","","184","","","","","","[{""stimulus"":""img/green_ww/1.jpg"",""time"":51},{""stimulus"":""img/green_ww/2.jpg"",""time"":100},{""stimulus"":""img/green_ww/3.jpg"",""time"":150},{""stimulus"":""img/green_ww/4.jpg"",""time"":202},{""stimulus"":""img/green_ww/5.jpg"",""time"":251},{""stimulus"":""img/green_ww/6.jpg"",""time"":301},{""stimulus"":""img/green_ww/7.jpg"",""time"":352},{""stimulus"":""img/green_ww/8.jpg"",""time"":401},{""stimulus"":""img/green_ww/9.jpg"",""time"":451},{""stimulus"":""img/green_ww/10.jpg"",""time"":502},{""stimulus"":""img/green_ww/11.jpg"",""time"":551}]","[]"
"","","","choice","","63614ad63aec6bcf8a045124","bdp_lott","Sun Mar 26 2023 15:15:31 GMT-0400 (Eastern Daylight Time)","284553","green","red","image-keyboard-response","89","98749","0.0-5.0-1.42","","348","","img/green_ww/choose11.jpg","1","183","green","0.5","0.5","0.5","l","",""
"","","","","","63614ad63aec6bcf8a045124","bdp_lott","Sun Mar 26 2023 15:15:31 GMT-0400 (Eastern Daylight Time)","284553","green","red","animation","90","99351","0.0-5.0-2.42","","","","","","183","","","","","","[{""stimulus"":""img/green_lw/1.jpg"",""time"":51},{""stimulus"":""img/green_lw/2.jpg"",""time"":101},{""stimulus"":""img/green_lw/3.jpg"",""time"":151},{""stimulus"":""img/green_lw/4.jpg"",""time"":201},{""stimulus"":""img/green_lw/5.jpg"",""time"":251},{""stimulus"":""img/green_lw/6.jpg"",""time"":302},{""stimulus"":""img/green_lw/7.jpg"",""time"":351},{""stimulus"":""img/green_lw/8.jpg"",""time"":401},{""stimulus"":""img/green_lw/9.jpg"",""time"":451},{""stimulus"":""img/green_lw/10.jpg"",""time"":501},{""stimulus"":""img/green_lw/11.jpg"",""time"":551}]","[]"
"","","","choice","","63614ad63aec6bcf8a045124","bdp_lott","Sun Mar 26 2023 15:15:31 GMT-0400 (Eastern Daylight Time)","284553","green","red","image-keyboard-response","91","99670","0.0-5.0-1.43","","318","","img/green_lw/choose11.jpg","1","182","green","0.5","0.5","0.5","l","",""
"","","","","","63614ad63aec6bcf8a045124","bdp_lott","Sun Mar 26 2023 15:15:31 GMT-0400 (Eastern Daylight Time)","284553","green","red","animation","92","100271","0.0-5.0-2.43","","","","","","182","","","","","","[{""stimulus"":""img/green_lw/1.jpg"",""time"":51},{""stimulus"":""img/green_lw/2.jpg"",""time"":102},{""stimulus"":""img/green_lw/3.jpg"",""time"":152},{""stimulus"":""img/green_lw/4.jpg"",""time"":202},{""stimulus"":""img/green_lw/5.jpg"",""time"":252},{""stimulus"":""img/green_lw/6.jpg"",""time"":302},{""stimulus"":""img/green_lw/7.jpg"",""time"":351},{""stimulus"":""img/green_lw/8.jpg"",""time"":401},{""stimulus"":""img/green_lw/9.jpg"",""time"":452},{""stimulus"":""img/green_lw/10.jpg"",""time"":501},{""stimulus"":""img/green_lw/11.jpg"",""time"":551}]","[]"
"","","","choice","","63614ad63aec6bcf8a045124","bdp_lott","Sun Mar 26 2023 15:15:31 GMT-0400 (Eastern Daylight Time)","284553","green","red","image-keyboard-response","93","100760","0.0-5.0-1.44","","488","","img/green_lw/choose11.jpg","1","181","green","0.5","0.5","0.5","l","",""
"","","","","","63614ad63aec6bcf8a045124","bdp_lott","Sun Mar 26 2023 15:15:31 GMT-0400 (Eastern Daylight Time)","284553","green","red","animation","94","101361","0.0-5.0-2.44","","","","","","181","","","","","","[{""stimulus"":""img/green_lw/1.jpg"",""time"":52},{""stimulus"":""img/green_lw/2.jpg"",""time"":101},{""stimulus"":""img/green_lw/3.jpg"",""time"":150},{""stimulus"":""img/green_lw/4.jpg"",""time"":201},{""stimulus"":""img/green_lw/5.jpg"",""time"":251},{""stimulus"":""img/green_lw/6.jpg"",""time"":300},{""stimulus"":""img/green_lw/7.jpg"",""time"":351},{""stimulus"":""img/green_lw/8.jpg"",""time"":400},{""stimulus"":""img/green_lw/9.jpg"",""time"":451},{""stimulus"":""img/green_lw/10.jpg"",""time"":500},{""stimulus"":""img/green_lw/11.jpg"",""time"":551}]","[]"
"","","","choice","","63614ad63aec6bcf8a045124","bdp_lott","Sun Mar 26 2023 15:15:31 GMT-0400 (Eastern Daylight Time)","284553","green","red","image-keyboard-response","95","101726","0.0-5.0-1.45","","365","","img/green_lw/choose11.jpg","1","180","green","0.5","0.5","0.5","w","",""
"","","","","","63614ad63aec6bcf8a045124","bdp_lott","Sun Mar 26 2023 15:15:31 GMT-0400 (Eastern Daylight Time)","284553","green","red","animation","96","102327","0.0-5.0-2.45","","","","","","180","","","","","","[{""stimulus"":""img/green_ww/1.jpg"",""time"":51},{""stimulus"":""img/green_ww/2.jpg"",""time"":101},{""stimulus"":""img/green_ww/3.jpg"",""time"":151},{""stimulus"":""img/green_ww/4.jpg"",""time"":201},{""stimulus"":""img/green_ww/5.jpg"",""time"":251},{""stimulus"":""img/green_ww/6.jpg"",""time"":301},{""stimulus"":""img/green_ww/7.jpg"",""time"":351},{""stimulus"":""img/green_ww/8.jpg"",""time"":401},{""stimulus"":""img/green_ww/9.jpg"",""time"":452},{""stimulus"":""img/green_ww/10.jpg"",""time"":510},{""stimulus"":""img/green_ww/11.jpg"",""time"":552}]","[]"
"","","","choice","","63614ad63aec6bcf8a045124","bdp_lott","Sun Mar 26 2023 15:15:31 GMT-0400 (Eastern Daylight Time)","284553","green","red","image-keyboard-response","97","102638","0.0-5.0-1.46","","310","","img/green_ww/choose11.jpg","1","179","green","0.5","0.5","0.5","w","",""
"","","","","","63614ad63aec6bcf8a045124","bdp_lott","Sun Mar 26 2023 15:15:31 GMT-0400 (Eastern Daylight Time)","284553","green","red","animation","98","103239","0.0-5.0-2.46","","","","","","179","","","","","","[{""stimulus"":""img/green_ww/1.jpg"",""time"":51},{""stimulus"":""img/green_ww/2.jpg"",""time"":101},{""stimulus"":""img/green_ww/3.jpg"",""time"":150},{""stimulus"":""img/green_ww/4.jpg"",""time"":201},{""stimulus"":""img/green_ww/5.jpg"",""time"":250},{""stimulus"":""img/green_ww/6.jpg"",""time"":300},{""stimulus"":""img/green_ww/7.jpg"",""time"":352},{""stimulus"":""img/green_ww/8.jpg"",""time"":401},{""stimulus"":""img/green_ww/9.jpg"",""time"":451},{""stimulus"":""img/green_ww/10.jpg"",""time"":501},{""stimulus"":""img/green_ww/11.jpg"",""time"":551}]","[]"
"","","","choice","","63614ad63aec6bcf8a045124","bdp_lott","Sun Mar 26 2023 15:15:31 GMT-0400 (Eastern Daylight Time)","284553","green","red","image-keyboard-response","99","103774","0.0-5.0-1.47","","533","","img/green_ww/choose11.jpg","1","178","green","0.5","0.5","0.5","w","",""
"","","","","","63614ad63aec6bcf8a045124","bdp_lott","Sun Mar 26 2023 15:15:31 GMT-0400 (Eastern Daylight Time)","284553","green","red","animation","100","104374","0.0-5.0-2.47","","","","","","178","","","","","","[{""stimulus"":""img/green_ww/1.jpg"",""time"":50},{""stimulus"":""img/green_ww/2.jpg"",""time"":102},{""stimulus"":""img/green_ww/3.jpg"",""time"":151},{""stimulus"":""img/green_ww/4.jpg"",""time"":200},{""stimulus"":""img/green_ww/5.jpg"",""time"":252},{""stimulus"":""img/green_ww/6.jpg"",""time"":301},{""stimulus"":""img/green_ww/7.jpg"",""time"":351},{""stimulus"":""img/green_ww/8.jpg"",""time"":401},{""stimulus"":""img/green_ww/9.jpg"",""time"":451},{""stimulus"":""img/green_ww/10.jpg"",""time"":501},{""stimulus"":""img/green_ww/11.jpg"",""time"":551}]","[]"
"","","","choice","","63614ad63aec6bcf8a045124","bdp_lott","Sun Mar 26 2023 15:15:31 GMT-0400 (Eastern Daylight Time)","284553","green","red","image-keyboard-response","101","104726","0.0-5.0-1.48","","351","","img/green_ww/choose11.jpg","1","177","green","0.5","0.5","0.5","l","",""
"","","","","","63614ad63aec6bcf8a045124","bdp_lott","Sun Mar 26 2023 15:15:31 GMT-0400 (Eastern Daylight Time)","284553","green","red","animation","102","105329","0.0-5.0-2.48","","","","","","177","","","","","","[{""stimulus"":""img/green_lw/1.jpg"",""time"":51},{""stimulus"":""img/green_lw/2.jpg"",""time"":106},{""stimulus"":""img/green_lw/3.jpg"",""time"":152},{""stimulus"":""img/green_lw/4.jpg"",""time"":202},{""stimulus"":""img/green_lw/5.jpg"",""time"":251},{""stimulus"":""img/green_lw/6.jpg"",""time"":300},{""stimulus"":""img/green_lw/7.jpg"",""time"":350},{""stimulus"":""img/green_lw/8.jpg"",""time"":401},{""stimulus"":""img/green_lw/9.jpg"",""time"":451},{""stimulus"":""img/green_lw/10.jpg"",""time"":501},{""stimulus"":""img/green_lw/11.jpg"",""time"":550}]","[]"
"","","","choice","","63614ad63aec6bcf8a045124","bdp_lott","Sun Mar 26 2023 15:15:31 GMT-0400 (Eastern Daylight Time)","284553","green","red","image-keyboard-response","103","105637","0.0-5.0-1.49","","308","","img/green_lw/choose11.jpg","1","176","green","0.5","0.5","0.5","l","",""
"","","","","","63614ad63aec6bcf8a045124","bdp_lott","Sun Mar 26 2023 15:15:31 GMT-0400 (Eastern Daylight Time)","284553","green","red","animation","104","106239","0.0-5.0-2.49","","","","","","176","","","","","","[{""stimulus"":""img/green_lw/1.jpg"",""time"":52},{""stimulus"":""img/green_lw/2.jpg"",""time"":102},{""stimulus"":""img/green_lw/3.jpg"",""time"":151},{""stimulus"":""img/green_lw/4.jpg"",""time"":202},{""stimulus"":""img/green_lw/5.jpg"",""time"":251},{""stimulus"":""img/green_lw/6.jpg"",""time"":302},{""stimulus"":""img/green_lw/7.jpg"",""time"":352},{""stimulus"":""img/green_lw/8.jpg"",""time"":402},{""stimulus"":""img/green_lw/9.jpg"",""time"":452},{""stimulus"":""img/green_lw/10.jpg"",""time"":503},{""stimulus"":""img/green_lw/11.jpg"",""time"":552}]","[]"
"","","","choice","","63614ad63aec6bcf8a045124","bdp_lott","Sun Mar 26 2023 15:15:31 GMT-0400 (Eastern Daylight Time)","284553","green","red","image-keyboard-response","105","106840","0.0-5.0-1.50","","601","","img/green_lw/choose11.jpg","2","175","red","0.5","0.5","0.5","l","",""
"","","","","","63614ad63aec6bcf8a045124","bdp_lott","Sun Mar 26 2023 15:15:31 GMT-0400 (Eastern Daylight Time)","284553","green","red","animation","106","107441","0.0-5.0-2.50","","","","","","175","","","","","","[{""stimulus"":""img/red_ll/1.jpg"",""time"":51},{""stimulus"":""img/red_ll/2.jpg"",""time"":101},{""stimulus"":""img/red_ll/3.jpg"",""time"":151},{""stimulus"":""img/red_ll/4.jpg"",""time"":201},{""stimulus"":""img/red_ll/5.jpg"",""time"":251},{""stimulus"":""img/red_ll/6.jpg"",""time"":301},{""stimulus"":""img/red_ll/7.jpg"",""time"":351},{""stimulus"":""img/red_ll/8.jpg"",""time"":402},{""stimulus"":""img/red_ll/9.jpg"",""time"":452},{""stimulus"":""img/red_ll/10.jpg"",""time"":501},{""stimulus"":""img/red_ll/11.jpg"",""time"":551}]","[]"
"","","","choice","","63614ad63aec6bcf8a045124","bdp_lott","Sun Mar 26 2023 15:15:31 GMT-0400 (Eastern Daylight Time)","284553","green","red","image-keyboard-response","107","107686","0.0-5.0-1.51","","243","","img/red_ll/choose11.jpg","2","174","red","0.5","0.5","0.5","l","",""
"","","","","","63614ad63aec6bcf8a045124","bdp_lott","Sun Mar 26 2023 15:15:31 GMT-0400 (Eastern Daylight Time)","284553","green","red","animation","108","108287","0.0-5.0-2.51","","","","","","174","","","","","","[{""stimulus"":""img/red_ll/1.jpg"",""time"":51},{""stimulus"":""img/red_ll/2.jpg"",""time"":101},{""stimulus"":""img/red_ll/3.jpg"",""time"":151},{""stimulus"":""img/red_ll/4.jpg"",""time"":201},{""stimulus"":""img/red_ll/5.jpg"",""time"":251},{""stimulus"":""img/red_ll/6.jpg"",""time"":302},{""stimulus"":""img/red_ll/7.jpg"",""time"":351},{""stimulus"":""img/red_ll/8.jpg"",""time"":401},{""stimulus"":""img/red_ll/9.jpg"",""time"":451},{""stimulus"":""img/red_ll/10.jpg"",""time"":500},{""stimulus"":""img/red_ll/11.jpg"",""time"":550}]","[]"
"","","","choice","","63614ad63aec6bcf8a045124","bdp_lott","Sun Mar 26 2023 15:15:31 GMT-0400 (Eastern Daylight Time)","284553","green","red","image-keyboard-response","109","108599","0.0-5.0-1.52","","311","","img/red_ll/choose11.jpg","2","173","red","0.5","0.5","0.5","l","",""
"","","","","","63614ad63aec6bcf8a045124","bdp_lott","Sun Mar 26 2023 15:15:31 GMT-0400 (Eastern Daylight Time)","284553","green","red","animation","110","109200","0.0-5.0-2.52","","","","","","173","","","","","","[{""stimulus"":""img/red_ll/1.jpg"",""time"":51},{""stimulus"":""img/red_ll/2.jpg"",""time"":102},{""stimulus"":""img/red_ll/3.jpg"",""time"":151},{""stimulus"":""img/red_ll/4.jpg"",""time"":202},{""stimulus"":""img/red_ll/5.jpg"",""time"":251},{""stimulus"":""img/red_ll/6.jpg"",""time"":302},{""stimulus"":""img/red_ll/7.jpg"",""time"":352},{""stimulus"":""img/red_ll/8.jpg"",""time"":402},{""stimulus"":""img/red_ll/9.jpg"",""time"":452},{""stimulus"":""img/red_ll/10.jpg"",""time"":501},{""stimulus"":""img/red_ll/11.jpg"",""time"":552}]","[]"
"","","","choice","","63614ad63aec6bcf8a045124","bdp_lott","Sun Mar 26 2023 15:15:31 GMT-0400 (Eastern Daylight Time)","284553","green","red","image-keyboard-response","111","109464","0.0-5.0-1.53","","263","","img/red_ll/choose11.jpg","1","172","green","0.5","0.5","0.5","l","",""
"","","","","","63614ad63aec6bcf8a045124","bdp_lott","Sun Mar 26 2023 15:15:31 GMT-0400 (Eastern Daylight Time)","284553","green","red","animation","112","110065","0.0-5.0-2.53","","","","","","172","","","","","","[{""stimulus"":""img/green_ll/1.jpg"",""time"":52},{""stimulus"":""img/green_ll/2.jpg"",""time"":100},{""stimulus"":""img/green_ll/3.jpg"",""time"":152},{""stimulus"":""img/green_ll/4.jpg"",""time"":200},{""stimulus"":""img/green_ll/5.jpg"",""time"":251},{""stimulus"":""img/green_ll/6.jpg"",""time"":302},{""stimulus"":""img/green_ll/7.jpg"",""time"":351},{""stimulus"":""img/green_ll/8.jpg"",""time"":402},{""stimulus"":""img/green_ll/9.jpg"",""time"":451},{""stimulus"":""img/green_ll/10.jpg"",""time"":502},{""stimulus"":""img/green_ll/11.jpg"",""time"":551}]","[]"
"","","","choice","","63614ad63aec6bcf8a045124","bdp_lott","Sun Mar 26 2023 15:15:31 GMT-0400 (Eastern Daylight Time)","284553","green","red","image-keyboard-response","113","110399","0.0-5.0-1.54","","334","","img/green_ll/choose11.jpg","1","171","green","0.5","0.5","0.5","l","",""
"","","","","","63614ad63aec6bcf8a045124","bdp_lott","Sun Mar 26 2023 15:15:31 GMT-0400 (Eastern Daylight Time)","284553","green","red","animation","114","111000","0.0-5.0-2.54","","","","","","171","","","","","","[{""stimulus"":""img/green_ll/1.jpg"",""time"":51},{""stimulus"":""img/green_ll/2.jpg"",""time"":102},{""stimulus"":""img/green_ll/3.jpg"",""time"":151},{""stimulus"":""img/green_ll/4.jpg"",""time"":201},{""stimulus"":""img/green_ll/5.jpg"",""time"":251},{""stimulus"":""img/green_ll/6.jpg"",""time"":301},{""stimulus"":""img/green_ll/7.jpg"",""time"":351},{""stimulus"":""img/green_ll/8.jpg"",""time"":401},{""stimulus"":""img/green_ll/9.jpg"",""time"":452},{""stimulus"":""img/green_ll/10.jpg"",""time"":501},{""stimulus"":""img/green_ll/11.jpg"",""time"":551}]","[]"
"","","","choice","","63614ad63aec6bcf8a045124","bdp_lott","Sun Mar 26 2023 15:15:31 GMT-0400 (Eastern Daylight Time)","284553","green","red","image-keyboard-response","115","111463","0.0-5.0-1.55","","463","","img/green_ll/choose11.jpg","1","170","green","0.5","0.5","0.5","w","",""
"","","","","","63614ad63aec6bcf8a045124","bdp_lott","Sun Mar 26 2023 15:15:31 GMT-0400 (Eastern Daylight Time)","284553","green","red","animation","116","112063","0.0-5.0-2.55","","","","","","170","","","","","","[{""stimulus"":""img/green_wl/1.jpg"",""time"":53},{""stimulus"":""img/green_wl/2.jpg"",""time"":101},{""stimulus"":""img/green_wl/3.jpg"",""time"":152},{""stimulus"":""img/green_wl/4.jpg"",""time"":201},{""stimulus"":""img/green_wl/5.jpg"",""time"":251},{""stimulus"":""img/green_wl/6.jpg"",""time"":302},{""stimulus"":""img/green_wl/7.jpg"",""time"":351},{""stimulus"":""img/green_wl/8.jpg"",""time"":401},{""stimulus"":""img/green_wl/9.jpg"",""time"":452},{""stimulus"":""img/green_wl/10.jpg"",""time"":501},{""stimulus"":""img/green_wl/11.jpg"",""time"":550}]","[]"
"","","","choice","","63614ad63aec6bcf8a045124","bdp_lott","Sun Mar 26 2023 15:15:31 GMT-0400 (Eastern Daylight Time)","284553","green","red","image-keyboard-response","117","112390","0.0-5.0-1.56","","326","","img/green_wl/choose11.jpg","1","169","green","0.5","0.5","0.5","w","",""
"","","","","","63614ad63aec6bcf8a045124","bdp_lott","Sun Mar 26 2023 15:15:31 GMT-0400 (Eastern Daylight Time)","284553","green","red","animation","118","112991","0.0-5.0-2.56","","","","","","169","","","","","","[{""stimulus"":""img/green_wl/1.jpg"",""time"":51},{""stimulus"":""img/green_wl/2.jpg"",""time"":100},{""stimulus"":""img/green_wl/3.jpg"",""time"":151},{""stimulus"":""img/green_wl/4.jpg"",""time"":202},{""stimulus"":""img/green_wl/5.jpg"",""time"":251},{""stimulus"":""img/green_wl/6.jpg"",""time"":300},{""stimulus"":""img/green_wl/7.jpg"",""time"":350},{""stimulus"":""img/green_wl/8.jpg"",""time"":401},{""stimulus"":""img/green_wl/9.jpg"",""time"":450},{""stimulus"":""img/green_wl/10.jpg"",""time"":501},{""stimulus"":""img/green_wl/11.jpg"",""time"":551}]","[]"
"","","","choice","","63614ad63aec6bcf8a045124","bdp_lott","Sun Mar 26 2023 15:15:31 GMT-0400 (Eastern Daylight Time)","284553","green","red","image-keyboard-response","119","113325","0.0-5.0-1.57","","333","","img/green_wl/choose11.jpg","1","168","green","0.5","0.5","0.5","w","",""
"","","","","","63614ad63aec6bcf8a045124","bdp_lott","Sun Mar 26 2023 15:15:31 GMT-0400 (Eastern Daylight Time)","284553","green","red","animation","120","113926","0.0-5.0-2.57","","","","","","168","","","","","","[{""stimulus"":""img/green_wl/1.jpg"",""time"":50},{""stimulus"":""img/green_wl/2.jpg"",""time"":101},{""stimulus"":""img/green_wl/3.jpg"",""time"":150},{""stimulus"":""img/green_wl/4.jpg"",""time"":201},{""stimulus"":""img/green_wl/5.jpg"",""time"":251},{""stimulus"":""img/green_wl/6.jpg"",""time"":301},{""stimulus"":""img/green_wl/7.jpg"",""time"":351},{""stimulus"":""img/green_wl/8.jpg"",""time"":401},{""stimulus"":""img/green_wl/9.jpg"",""time"":451},{""stimulus"":""img/green_wl/10.jpg"",""time"":502},{""stimulus"":""img/green_wl/11.jpg"",""time"":551}]","[]"
"","","","choice","","63614ad63aec6bcf8a045124","bdp_lott","Sun Mar 26 2023 15:15:31 GMT-0400 (Eastern Daylight Time)","284553","green","red","image-keyboard-response","121","114222","0.0-5.0-1.58","","295","","img/green_wl/choose11.jpg","1","167","green","0.5","0.5","0.5","l","",""
"","","","","","63614ad63aec6bcf8a045124","bdp_lott","Sun Mar 26 2023 15:15:31 GMT-0400 (Eastern Daylight Time)","284553","green","red","animation","122","114824","0.0-5.0-2.58","","","","","","167","","","","","","[{""stimulus"":""img/green_ll/1.jpg"",""time"":52},{""stimulus"":""img/green_ll/2.jpg"",""time"":101},{""stimulus"":""img/green_ll/3.jpg"",""time"":152},{""stimulus"":""img/green_ll/4.jpg"",""time"":202},{""stimulus"":""img/green_ll/5.jpg"",""time"":253},{""stimulus"":""img/green_ll/6.jpg"",""time"":301},{""stimulus"":""img/green_ll/7.jpg"",""time"":352},{""stimulus"":""img/green_ll/8.jpg"",""time"":402},{""stimulus"":""img/green_ll/9.jpg"",""time"":452},{""stimulus"":""img/green_ll/10.jpg"",""time"":502},{""stimulus"":""img/green_ll/11.jpg"",""time"":552}]","[]"
"","","","choice","","63614ad63aec6bcf8a045124","bdp_lott","Sun Mar 26 2023 15:15:31 GMT-0400 (Eastern Daylight Time)","284553","green","red","image-keyboard-response","123","115111","0.0-5.0-1.59","","286","","img/green_ll/choose11.jpg","1","166","green","0.5","0.5","0.5","w","",""
"","","","","","63614ad63aec6bcf8a045124","bdp_lott","Sun Mar 26 2023 15:15:31 GMT-0400 (Eastern Daylight Time)","284553","green","red","animation","124","115713","0.0-5.0-2.59","","","","","","166","","","","","","[{""stimulus"":""img/green_wl/1.jpg"",""time"":52},{""stimulus"":""img/green_wl/2.jpg"",""time"":101},{""stimulus"":""img/green_wl/3.jpg"",""time"":152},{""stimulus"":""img/green_wl/4.jpg"",""time"":201},{""stimulus"":""img/green_wl/5.jpg"",""time"":251},{""stimulus"":""img/green_wl/6.jpg"",""time"":302},{""stimulus"":""img/green_wl/7.jpg"",""time"":351},{""stimulus"":""img/green_wl/8.jpg"",""time"":401},{""stimulus"":""img/green_wl/9.jpg"",""time"":452},{""stimulus"":""img/green_wl/10.jpg"",""time"":501},{""stimulus"":""img/green_wl/11.jpg"",""time"":551}]","[]"
"","","","choice","","63614ad63aec6bcf8a045124","bdp_lott","Sun Mar 26 2023 15:15:31 GMT-0400 (Eastern Daylight Time)","284553","green","red","image-keyboard-response","125","116030","0.0-5.0-1.60","","316","","img/green_wl/choose11.jpg","1","165","green","0.5","0.5","0.5","w","",""
"","","","","","63614ad63aec6bcf8a045124","bdp_lott","Sun Mar 26 2023 15:15:31 GMT-0400 (Eastern Daylight Time)","284553","green","red","animation","126","116631","0.0-5.0-2.60","","","","","","165","","","","","","[{""stimulus"":""img/green_wl/1.jpg"",""time"":50},{""stimulus"":""img/green_wl/2.jpg"",""time"":101},{""stimulus"":""img/green_wl/3.jpg"",""time"":151},{""stimulus"":""img/green_wl/4.jpg"",""time"":201},{""stimulus"":""img/green_wl/5.jpg"",""time"":250},{""stimulus"":""img/green_wl/6.jpg"",""time"":302},{""stimulus"":""img/green_wl/7.jpg"",""time"":351},{""stimulus"":""img/green_wl/8.jpg"",""time"":402},{""stimulus"":""img/green_wl/9.jpg"",""time"":452},{""stimulus"":""img/green_wl/10.jpg"",""time"":501},{""stimulus"":""img/green_wl/11.jpg"",""time"":551}]","[]"
"","","","choice","","63614ad63aec6bcf8a045124","bdp_lott","Sun Mar 26 2023 15:15:31 GMT-0400 (Eastern Daylight Time)","284553","green","red","image-keyboard-response","127","116918","0.0-5.0-1.61","","286","","img/green_wl/choose11.jpg","1","164","green","0.5","0.5","0.5","l","",""
"","","","","","63614ad63aec6bcf8a045124","bdp_lott","Sun Mar 26 2023 15:15:31 GMT-0400 (Eastern Daylight Time)","284553","green","red","animation","128","117519","0.0-5.0-2.61","","","","","","164","","","","","","[{""stimulus"":""img/green_ll/1.jpg"",""time"":52},{""stimulus"":""img/green_ll/2.jpg"",""time"":101},{""stimulus"":""img/green_ll/3.jpg"",""time"":151},{""stimulus"":""img/green_ll/4.jpg"",""time"":202},{""stimulus"":""img/green_ll/5.jpg"",""time"":251},{""stimulus"":""img/green_ll/6.jpg"",""time"":301},{""stimulus"":""img/green_ll/7.jpg"",""time"":351},{""stimulus"":""img/green_ll/8.jpg"",""time"":401},{""stimulus"":""img/green_ll/9.jpg"",""time"":451},{""stimulus"":""img/green_ll/10.jpg"",""time"":502},{""stimulus"":""img/green_ll/11.jpg"",""time"":551}]","[]"
"","","","choice","","63614ad63aec6bcf8a045124","bdp_lott","Sun Mar 26 2023 15:15:31 GMT-0400 (Eastern Daylight Time)","284553","green","red","image-keyboard-response","129","117885","0.0-5.0-1.62","","365","","img/green_ll/choose11.jpg","1","163","green","0.5","0.5","0.5","w","",""
"","","","","","63614ad63aec6bcf8a045124","bdp_lott","Sun Mar 26 2023 15:15:31 GMT-0400 (Eastern Daylight Time)","284553","green","red","animation","130","118486","0.0-5.0-2.62","","","","","","163","","","","","","[{""stimulus"":""img/green_wl/1.jpg"",""time"":51},{""stimulus"":""img/green_wl/2.jpg"",""time"":101},{""stimulus"":""img/green_wl/3.jpg"",""time"":151},{""stimulus"":""img/green_wl/4.jpg"",""time"":202},{""stimulus"":""img/green_wl/5.jpg"",""time"":252},{""stimulus"":""img/green_wl/6.jpg"",""time"":301},{""stimulus"":""img/green_wl/7.jpg"",""time"":351},{""stimulus"":""img/green_wl/8.jpg"",""time"":401},{""stimulus"":""img/green_wl/9.jpg"",""time"":452},{""stimulus"":""img/green_wl/10.jpg"",""time"":502},{""stimulus"":""img/green_wl/11.jpg"",""time"":552}]","[]"
"","","","choice","","63614ad63aec6bcf8a045124","bdp_lott","Sun Mar 26 2023 15:15:31 GMT-0400 (Eastern Daylight Time)","284553","green","red","image-keyboard-response","131","118879","0.0-5.0-1.63","","392","","img/green_wl/choose11.jpg","1","162","green","0.5","0.5","0.5","w","",""
"","","","","","63614ad63aec6bcf8a045124","bdp_lott","Sun Mar 26 2023 15:15:31 GMT-0400 (Eastern Daylight Time)","284553","green","red","animation","132","119480","0.0-5.0-2.63","","","","","","162","","","","","","[{""stimulus"":""img/green_wl/1.jpg"",""time"":52},{""stimulus"":""img/green_wl/2.jpg"",""time"":102},{""stimulus"":""img/green_wl/3.jpg"",""time"":150},{""stimulus"":""img/green_wl/4.jpg"",""time"":201},{""stimulus"":""img/green_wl/5.jpg"",""time"":252},{""stimulus"":""img/green_wl/6.jpg"",""time"":301},{""stimulus"":""img/green_wl/7.jpg"",""time"":351},{""stimulus"":""img/green_wl/8.jpg"",""time"":401},{""stimulus"":""img/green_wl/9.jpg"",""time"":451},{""stimulus"":""img/green_wl/10.jpg"",""time"":501},{""stimulus"":""img/green_wl/11.jpg"",""time"":552}]","[]"
"","","","choice","","63614ad63aec6bcf8a045124","bdp_lott","Sun Mar 26 2023 15:15:31 GMT-0400 (Eastern Daylight Time)","284553","green","red","image-keyboard-response","133","119870","0.0-5.0-1.64","","389","","img/green_wl/choose11.jpg","1","161","green","0.5","0.5","0.5","w","",""
"","","","","","63614ad63aec6bcf8a045124","bdp_lott","Sun Mar 26 2023 15:15:31 GMT-0400 (Eastern Daylight Time)","284553","green","red","animation","134","120472","0.0-5.0-2.64","","","","","","161","","","","","","[{""stimulus"":""img/green_wl/1.jpg"",""time"":50},{""stimulus"":""img/green_wl/2.jpg"",""time"":101},{""stimulus"":""img/green_wl/3.jpg"",""time"":151},{""stimulus"":""img/green_wl/4.jpg"",""time"":201},{""stimulus"":""img/green_wl/5.jpg"",""time"":264},{""stimulus"":""img/green_wl/6.jpg"",""time"":301},{""stimulus"":""img/green_wl/7.jpg"",""time"":351},{""stimulus"":""img/green_wl/8.jpg"",""time"":401},{""stimulus"":""img/green_wl/9.jpg"",""time"":450},{""stimulus"":""img/green_wl/10.jpg"",""time"":500},{""stimulus"":""img/green_wl/11.jpg"",""time"":551}]","[]"
"","","","choice","","63614ad63aec6bcf8a045124","bdp_lott","Sun Mar 26 2023 15:15:31 GMT-0400 (Eastern Daylight Time)","284553","green","red","image-keyboard-response","135","120782","0.0-5.0-1.65","","310","","img/green_wl/choose11.jpg","1","160","green","0.5","0.5","0.5","l","",""
"","","","","","63614ad63aec6bcf8a045124","bdp_lott","Sun Mar 26 2023 15:15:31 GMT-0400 (Eastern Daylight Time)","284553","green","red","animation","136","121383","0.0-5.0-2.65","","","","","","160","","","","","","[{""stimulus"":""img/green_ll/1.jpg"",""time"":51},{""stimulus"":""img/green_ll/2.jpg"",""time"":101},{""stimulus"":""img/green_ll/3.jpg"",""time"":152},{""stimulus"":""img/green_ll/4.jpg"",""time"":205},{""stimulus"":""img/green_ll/5.jpg"",""time"":252},{""stimulus"":""img/green_ll/6.jpg"",""time"":301},{""stimulus"":""img/green_ll/7.jpg"",""time"":351},{""stimulus"":""img/green_ll/8.jpg"",""time"":401},{""stimulus"":""img/green_ll/9.jpg"",""time"":451},{""stimulus"":""img/green_ll/10.jpg"",""time"":501},{""stimulus"":""img/green_ll/11.jpg"",""time"":551}]","[]"
"","","","choice","","63614ad63aec6bcf8a045124","bdp_lott","Sun Mar 26 2023 15:15:31 GMT-0400 (Eastern Daylight Time)","284553","green","red","image-keyboard-response","137","121702","0.0-5.0-1.66","","318","","img/green_ll/choose11.jpg","1","159","green","0.5","0.5","0.5","w","",""
"","","","","","63614ad63aec6bcf8a045124","bdp_lott","Sun Mar 26 2023 15:15:31 GMT-0400 (Eastern Daylight Time)","284553","green","red","animation","138","122302","0.0-5.0-2.66","","","","","","159","","","","","","[{""stimulus"":""img/green_wl/1.jpg"",""time"":52},{""stimulus"":""img/green_wl/2.jpg"",""time"":101},{""stimulus"":""img/green_wl/3.jpg"",""time"":151},{""stimulus"":""img/green_wl/4.jpg"",""time"":201},{""stimulus"":""img/green_wl/5.jpg"",""time"":252},{""stimulus"":""img/green_wl/6.jpg"",""time"":301},{""stimulus"":""img/green_wl/7.jpg"",""time"":351},{""stimulus"":""img/green_wl/8.jpg"",""time"":401},{""stimulus"":""img/green_wl/9.jpg"",""time"":451},{""stimulus"":""img/green_wl/10.jpg"",""time"":501},{""stimulus"":""img/green_wl/11.jpg"",""time"":551}]","[]"
"","","","choice","","63614ad63aec6bcf8a045124","bdp_lott","Sun Mar 26 2023 15:15:31 GMT-0400 (Eastern Daylight Time)","284553","green","red","image-keyboard-response","139","122597","0.0-5.0-1.67","","294","","img/green_wl/choose11.jpg","1","158","green","0.5","0.5","0.5","w","",""
"","","","","","63614ad63aec6bcf8a045124","bdp_lott","Sun Mar 26 2023 15:15:31 GMT-0400 (Eastern Daylight Time)","284553","green","red","animation","140","123198","0.0-5.0-2.67","","","","","","158","","","","","","[{""stimulus"":""img/green_wl/1.jpg"",""time"":51},{""stimulus"":""img/green_wl/2.jpg"",""time"":102},{""stimulus"":""img/green_wl/3.jpg"",""time"":150},{""stimulus"":""img/green_wl/4.jpg"",""time"":201},{""stimulus"":""img/green_wl/5.jpg"",""time"":252},{""stimulus"":""img/green_wl/6.jpg"",""time"":300},{""stimulus"":""img/green_wl/7.jpg"",""time"":351},{""stimulus"":""img/green_wl/8.jpg"",""time"":402},{""stimulus"":""img/green_wl/9.jpg"",""time"":451},{""stimulus"":""img/green_wl/10.jpg"",""time"":501},{""stimulus"":""img/green_wl/11.jpg"",""time"":551}]","[]"
"","","","choice","","63614ad63aec6bcf8a045124","bdp_lott","Sun Mar 26 2023 15:15:31 GMT-0400 (Eastern Daylight Time)","284553","green","red","image-keyboard-response","141","123856","0.0-5.0-1.68","","657","","img/green_wl/choose11.jpg","1","157","green","0.5","0.5","0.5","w","",""
"","","","","","63614ad63aec6bcf8a045124","bdp_lott","Sun Mar 26 2023 15:15:31 GMT-0400 (Eastern Daylight Time)","284553","green","red","animation","142","124457","0.0-5.0-2.68","","","","","","157","","","","","","[{""stimulus"":""img/green_wl/1.jpg"",""time"":51},{""stimulus"":""img/green_wl/2.jpg"",""time"":102},{""stimulus"":""img/green_wl/3.jpg"",""time"":153},{""stimulus"":""img/green_wl/4.jpg"",""time"":201},{""stimulus"":""img/green_wl/5.jpg"",""time"":251},{""stimulus"":""img/green_wl/6.jpg"",""time"":301},{""stimulus"":""img/green_wl/7.jpg"",""time"":353},{""stimulus"":""img/green_wl/8.jpg"",""time"":402},{""stimulus"":""img/green_wl/9.jpg"",""time"":452},{""stimulus"":""img/green_wl/10.jpg"",""time"":502},{""stimulus"":""img/green_wl/11.jpg"",""time"":551}]","[]"
"","","","choice","","63614ad63aec6bcf8a045124","bdp_lott","Sun Mar 26 2023 15:15:31 GMT-0400 (Eastern Daylight Time)","284553","green","red","image-keyboard-response","143","124886","0.0-5.0-1.69","","428","","img/green_wl/choose11.jpg","1","156","green","0.5","0.5","0.5","w","",""
"","","","","","63614ad63aec6bcf8a045124","bdp_lott","Sun Mar 26 2023 15:15:31 GMT-0400 (Eastern Daylight Time)","284553","green","red","animation","144","125487","0.0-5.0-2.69","","","","","","156","","","","","","[{""stimulus"":""img/green_wl/1.jpg"",""time"":51},{""stimulus"":""img/green_wl/2.jpg"",""time"":102},{""stimulus"":""img/green_wl/3.jpg"",""time"":151},{""stimulus"":""img/green_wl/4.jpg"",""time"":201},{""stimulus"":""img/green_wl/5.jpg"",""time"":251},{""stimulus"":""img/green_wl/6.jpg"",""time"":300},{""stimulus"":""img/green_wl/7.jpg"",""time"":352},{""stimulus"":""img/green_wl/8.jpg"",""time"":401},{""stimulus"":""img/green_wl/9.jpg"",""time"":452},{""stimulus"":""img/green_wl/10.jpg"",""time"":501},{""stimulus"":""img/green_wl/11.jpg"",""time"":552}]","[]"
"","","","choice","","63614ad63aec6bcf8a045124","bdp_lott","Sun Mar 26 2023 15:15:31 GMT-0400 (Eastern Daylight Time)","284553","green","red","image-keyboard-response","145","125798","0.0-5.0-1.70","","310","","img/green_wl/choose11.jpg","1","155","green","0.5","0.5","0.5","w","",""
"","","","","","63614ad63aec6bcf8a045124","bdp_lott","Sun Mar 26 2023 15:15:31 GMT-0400 (Eastern Daylight Time)","284553","green","red","animation","146","126401","0.0-5.0-2.70","","","","","","155","","","","","","[{""stimulus"":""img/green_wl/1.jpg"",""time"":52},{""stimulus"":""img/green_wl/2.jpg"",""time"":101},{""stimulus"":""img/green_wl/3.jpg"",""time"":151},{""stimulus"":""img/green_wl/4.jpg"",""time"":202},{""stimulus"":""img/green_wl/5.jpg"",""time"":250},{""stimulus"":""img/green_wl/6.jpg"",""time"":300},{""stimulus"":""img/green_wl/7.jpg"",""time"":350},{""stimulus"":""img/green_wl/8.jpg"",""time"":401},{""stimulus"":""img/green_wl/9.jpg"",""time"":452},{""stimulus"":""img/green_wl/10.jpg"",""time"":502},{""stimulus"":""img/green_wl/11.jpg"",""time"":551}]","[]"
"","","","choice","","63614ad63aec6bcf8a045124","bdp_lott","Sun Mar 26 2023 15:15:31 GMT-0400 (Eastern Daylight Time)","284553","green","red","image-keyboard-response","147","126712","0.0-5.0-1.71","","310","","img/green_wl/choose11.jpg","1","154","green","0.5","0.5","0.5","w","",""
"","","","","","63614ad63aec6bcf8a045124","bdp_lott","Sun Mar 26 2023 15:15:31 GMT-0400 (Eastern Daylight Time)","284553","green","red","animation","148","127312","0.0-5.0-2.71","","","","","","154","","","","","","[{""stimulus"":""img/green_wl/1.jpg"",""time"":51},{""stimulus"":""img/green_wl/2.jpg"",""time"":101},{""stimulus"":""img/green_wl/3.jpg"",""time"":151},{""stimulus"":""img/green_wl/4.jpg"",""time"":201},{""stimulus"":""img/green_wl/5.jpg"",""time"":251},{""stimulus"":""img/green_wl/6.jpg"",""time"":301},{""stimulus"":""img/green_wl/7.jpg"",""time"":351},{""stimulus"":""img/green_wl/8.jpg"",""time"":401},{""stimulus"":""img/green_wl/9.jpg"",""time"":450},{""stimulus"":""img/green_wl/10.jpg"",""time"":501},{""stimulus"":""img/green_wl/11.jpg"",""time"":550}]","[]"
"","","","choice","","63614ad63aec6bcf8a045124","bdp_lott","Sun Mar 26 2023 15:15:31 GMT-0400 (Eastern Daylight Time)","284553","green","red","image-keyboard-response","149","127614","0.0-5.0-1.72","","301","","img/green_wl/choose11.jpg","1","153","green","0.5","0.5","0.5","l","",""
"","","","","","63614ad63aec6bcf8a045124","bdp_lott","Sun Mar 26 2023 15:15:31 GMT-0400 (Eastern Daylight Time)","284553","green","red","animation","150","128215","0.0-5.0-2.72","","","","","","153","","","","","","[{""stimulus"":""img/green_ll/1.jpg"",""time"":51},{""stimulus"":""img/green_ll/2.jpg"",""time"":102},{""stimulus"":""img/green_ll/3.jpg"",""time"":151},{""stimulus"":""img/green_ll/4.jpg"",""time"":200},{""stimulus"":""img/green_ll/5.jpg"",""time"":251},{""stimulus"":""img/green_ll/6.jpg"",""time"":301},{""stimulus"":""img/green_ll/7.jpg"",""time"":350},{""stimulus"":""img/green_ll/8.jpg"",""time"":400},{""stimulus"":""img/green_ll/9.jpg"",""time"":451},{""stimulus"":""img/green_ll/10.jpg"",""time"":500},{""stimulus"":""img/green_ll/11.jpg"",""time"":550}]","[]"
"","","","choice","","63614ad63aec6bcf8a045124","bdp_lott","Sun Mar 26 2023 15:15:31 GMT-0400 (Eastern Daylight Time)","284553","green","red","image-keyboard-response","151","128837","0.0-5.0-1.73","","622","","img/green_ll/choose11.jpg","2","152","red","0.5","0.5","0.5","l","",""
"","","","","","63614ad63aec6bcf8a045124","bdp_lott","Sun Mar 26 2023 15:15:31 GMT-0400 (Eastern Daylight Time)","284553","green","red","animation","152","129439","0.0-5.0-2.73","","","","","","152","","","","","","[{""stimulus"":""img/red_ll/1.jpg"",""time"":52},{""stimulus"":""img/red_ll/2.jpg"",""time"":101},{""stimulus"":""img/red_ll/3.jpg"",""time"":150},{""stimulus"":""img/red_ll/4.jpg"",""time"":201},{""stimulus"":""img/red_ll/5.jpg"",""time"":251},{""stimulus"":""img/red_ll/6.jpg"",""time"":302},{""stimulus"":""img/red_ll/7.jpg"",""time"":352},{""stimulus"":""img/red_ll/8.jpg"",""time"":400},{""stimulus"":""img/red_ll/9.jpg"",""time"":452},{""stimulus"":""img/red_ll/10.jpg"",""time"":500},{""stimulus"":""img/red_ll/11.jpg"",""time"":551}]","[]"
"","","","choice","","63614ad63aec6bcf8a045124","bdp_lott","Sun Mar 26 2023 15:15:31 GMT-0400 (Eastern Daylight Time)","284553","green","red","image-keyboard-response","153","129758","0.0-5.0-1.74","","318","","img/red_ll/choose11.jpg","2","151","red","0.5","0.5","0.5","l","",""
"","","","","","63614ad63aec6bcf8a045124","bdp_lott","Sun Mar 26 2023 15:15:31 GMT-0400 (Eastern Daylight Time)","284553","green","red","animation","154","130359","0.0-5.0-2.74","","","","","","151","","","","","","[{""stimulus"":""img/red_ll/1.jpg"",""time"":50},{""stimulus"":""img/red_ll/2.jpg"",""time"":102},{""stimulus"":""img/red_ll/3.jpg"",""time"":150},{""stimulus"":""img/red_ll/4.jpg"",""time"":202},{""stimulus"":""img/red_ll/5.jpg"",""time"":251},{""stimulus"":""img/red_ll/6.jpg"",""time"":300},{""stimulus"":""img/red_ll/7.jpg"",""time"":351},{""stimulus"":""img/red_ll/8.jpg"",""time"":400},{""stimulus"":""img/red_ll/9.jpg"",""time"":450},{""stimulus"":""img/red_ll/10.jpg"",""time"":501},{""stimulus"":""img/red_ll/11.jpg"",""time"":551}]","[]"
"","","","choice","","63614ad63aec6bcf8a045124","bdp_lott","Sun Mar 26 2023 15:15:31 GMT-0400 (Eastern Daylight Time)","284553","green","red","image-keyboard-response","155","130597","0.0-5.0-1.75","","238","","img/red_ll/choose11.jpg","2","150","red","0.5","0.5","0.5","w","",""
"","","","","","63614ad63aec6bcf8a045124","bdp_lott","Sun Mar 26 2023 15:15:31 GMT-0400 (Eastern Daylight Time)","284553","green","red","animation","156","131199","0.0-5.0-2.75","","","","","","150","","","","","","[{""stimulus"":""img/red_lw/1.jpg"",""time"":51},{""stimulus"":""img/red_lw/2.jpg"",""time"":102},{""stimulus"":""img/red_lw/3.jpg"",""time"":153},{""stimulus"":""img/red_lw/4.jpg"",""time"":201},{""stimulus"":""img/red_lw/5.jpg"",""time"":251},{""stimulus"":""img/red_lw/6.jpg"",""time"":301},{""stimulus"":""img/red_lw/7.jpg"",""time"":350},{""stimulus"":""img/red_lw/8.jpg"",""time"":402},{""stimulus"":""img/red_lw/9.jpg"",""time"":450},{""stimulus"":""img/red_lw/10.jpg"",""time"":503},{""stimulus"":""img/red_lw/11.jpg"",""time"":551}]","[]"
"","","","choice","","63614ad63aec6bcf8a045124","bdp_lott","Sun Mar 26 2023 15:15:31 GMT-0400 (Eastern Daylight Time)","284553","green","red","image-keyboard-response","157","131533","0.0-5.0-1.76","","334","","img/red_lw/choose11.jpg","2","149","red","0.5","0.1","0.1","l","",""
"","","","","","63614ad63aec6bcf8a045124","bdp_lott","Sun Mar 26 2023 15:15:31 GMT-0400 (Eastern Daylight Time)","284553","green","red","animation","158","132134","0.0-5.0-2.76","","","","","","149","","","","","","[{""stimulus"":""img/red_ll/1.jpg"",""time"":52},{""stimulus"":""img/red_ll/2.jpg"",""time"":101},{""stimulus"":""img/red_ll/3.jpg"",""time"":151},{""stimulus"":""img/red_ll/4.jpg"",""time"":201},{""stimulus"":""img/red_ll/5.jpg"",""time"":251},{""stimulus"":""img/red_ll/6.jpg"",""time"":302},{""stimulus"":""img/red_ll/7.jpg"",""time"":351},{""stimulus"":""img/red_ll/8.jpg"",""time"":402},{""stimulus"":""img/red_ll/9.jpg"",""time"":451},{""stimulus"":""img/red_ll/10.jpg"",""time"":500},{""stimulus"":""img/red_ll/11.jpg"",""time"":551}]","[]"
"","","","choice","","63614ad63aec6bcf8a045124","bdp_lott","Sun Mar 26 2023 15:15:31 GMT-0400 (Eastern Daylight Time)","284553","green","red","image-keyboard-response","159","132669","0.0-5.0-1.77","","534","","img/red_ll/choose11.jpg","2","148","red","0.5","0.1","0.1","l","",""
"","","","","","63614ad63aec6bcf8a045124","bdp_lott","Sun Mar 26 2023 15:15:31 GMT-0400 (Eastern Daylight Time)","284553","green","red","animation","160","133270","0.0-5.0-2.77","","","","","","148","","","","","","[{""stimulus"":""img/red_ll/1.jpg"",""time"":50},{""stimulus"":""img/red_ll/2.jpg"",""time"":101},{""stimulus"":""img/red_ll/3.jpg"",""time"":151},{""stimulus"":""img/red_ll/4.jpg"",""time"":202},{""stimulus"":""img/red_ll/5.jpg"",""time"":251},{""stimulus"":""img/red_ll/6.jpg"",""time"":302},{""stimulus"":""img/red_ll/7.jpg"",""time"":352},{""stimulus"":""img/red_ll/8.jpg"",""time"":401},{""stimulus"":""img/red_ll/9.jpg"",""time"":451},{""stimulus"":""img/red_ll/10.jpg"",""time"":501},{""stimulus"":""img/red_ll/11.jpg"",""time"":552}]","[]"
"","","","choice","","63614ad63aec6bcf8a045124","bdp_lott","Sun Mar 26 2023 15:15:31 GMT-0400 (Eastern Daylight Time)","284553","green","red","image-keyboard-response","161","133558","0.0-5.0-1.78","","288","","img/red_ll/choose11.jpg","2","147","red","0.5","0.1","0.1","w","",""
"","","","","","63614ad63aec6bcf8a045124","bdp_lott","Sun Mar 26 2023 15:15:31 GMT-0400 (Eastern Daylight Time)","284553","green","red","animation","162","134158","0.0-5.0-2.78","","","","","","147","","","","","","[{""stimulus"":""img/red_lw/1.jpg"",""time"":51},{""stimulus"":""img/red_lw/2.jpg"",""time"":101},{""stimulus"":""img/red_lw/3.jpg"",""time"":151},{""stimulus"":""img/red_lw/4.jpg"",""time"":201},{""stimulus"":""img/red_lw/5.jpg"",""time"":251},{""stimulus"":""img/red_lw/6.jpg"",""time"":301},{""stimulus"":""img/red_lw/7.jpg"",""time"":351},{""stimulus"":""img/red_lw/8.jpg"",""time"":401},{""stimulus"":""img/red_lw/9.jpg"",""time"":451},{""stimulus"":""img/red_lw/10.jpg"",""time"":501},{""stimulus"":""img/red_lw/11.jpg"",""time"":552}]","[]"
"","","","choice","","63614ad63aec6bcf8a045124","bdp_lott","Sun Mar 26 2023 15:15:31 GMT-0400 (Eastern Daylight Time)","284553","green","red","image-keyboard-response","163","134822","0.0-5.0-1.79","","663","","img/red_lw/choose11.jpg","2","146","red","0.5","0.1","0.1","l","",""
"","","","","","63614ad63aec6bcf8a045124","bdp_lott","Sun Mar 26 2023 15:15:31 GMT-0400 (Eastern Daylight Time)","284553","green","red","animation","164","135423","0.0-5.0-2.79","","","","","","146","","","","","","[{""stimulus"":""img/red_ll/1.jpg"",""time"":51},{""stimulus"":""img/red_ll/2.jpg"",""time"":102},{""stimulus"":""img/red_ll/3.jpg"",""time"":152},{""stimulus"":""img/red_ll/4.jpg"",""time"":201},{""stimulus"":""img/red_ll/5.jpg"",""time"":251},{""stimulus"":""img/red_ll/6.jpg"",""time"":300},{""stimulus"":""img/red_ll/7.jpg"",""time"":352},{""stimulus"":""img/red_ll/8.jpg"",""time"":401},{""stimulus"":""img/red_ll/9.jpg"",""time"":450},{""stimulus"":""img/red_ll/10.jpg"",""time"":501},{""stimulus"":""img/red_ll/11.jpg"",""time"":552}]","[]"
"","","","choice","","63614ad63aec6bcf8a045124","bdp_lott","Sun Mar 26 2023 15:15:31 GMT-0400 (Eastern Daylight Time)","284553","green","red","image-keyboard-response","165","135759","0.0-5.0-1.80","","335","","img/red_ll/choose11.jpg","2","145","red","0.5","0.1","0.1","l","",""
"","","","","","63614ad63aec6bcf8a045124","bdp_lott","Sun Mar 26 2023 15:15:31 GMT-0400 (Eastern Daylight Time)","284553","green","red","animation","166","136361","0.0-5.0-2.80","","","","","","145","","","","","","[{""stimulus"":""img/red_ll/1.jpg"",""time"":51},{""stimulus"":""img/red_ll/2.jpg"",""time"":101},{""stimulus"":""img/red_ll/3.jpg"",""time"":151},{""stimulus"":""img/red_ll/4.jpg"",""time"":202},{""stimulus"":""img/red_ll/5.jpg"",""time"":252},{""stimulus"":""img/red_ll/6.jpg"",""time"":301},{""stimulus"":""img/red_ll/7.jpg"",""time"":351},{""stimulus"":""img/red_ll/8.jpg"",""time"":400},{""stimulus"":""img/red_ll/9.jpg"",""time"":452},{""stimulus"":""img/red_ll/10.jpg"",""time"":502},{""stimulus"":""img/red_ll/11.jpg"",""time"":552}]","[]"
"","","","choice","","63614ad63aec6bcf8a045124","bdp_lott","Sun Mar 26 2023 15:15:31 GMT-0400 (Eastern Daylight Time)","284553","green","red","image-keyboard-response","167","136678","0.0-5.0-1.81","","316","","img/red_ll/choose11.jpg","2","144","red","0.5","0.1","0.1","l","",""
"","","","","","63614ad63aec6bcf8a045124","bdp_lott","Sun Mar 26 2023 15:15:31 GMT-0400 (Eastern Daylight Time)","284553","green","red","animation","168","137280","0.0-5.0-2.81","","","","","","144","","","","","","[{""stimulus"":""img/red_ll/1.jpg"",""time"":51},{""stimulus"":""img/red_ll/2.jpg"",""time"":101},{""stimulus"":""img/red_ll/3.jpg"",""time"":151},{""stimulus"":""img/red_ll/4.jpg"",""time"":202},{""stimulus"":""img/red_ll/5.jpg"",""time"":251},{""stimulus"":""img/red_ll/6.jpg"",""time"":307},{""stimulus"":""img/red_ll/7.jpg"",""time"":351},{""stimulus"":""img/red_ll/8.jpg"",""time"":401},{""stimulus"":""img/red_ll/9.jpg"",""time"":451},{""stimulus"":""img/red_ll/10.jpg"",""time"":501},{""stimulus"":""img/red_ll/11.jpg"",""time"":551}]","[]"
"","","","choice","","63614ad63aec6bcf8a045124","bdp_lott","Sun Mar 26 2023 15:15:31 GMT-0400 (Eastern Daylight Time)","284553","green","red","image-keyboard-response","169","137606","0.0-5.0-1.82","","326","","img/red_ll/choose11.jpg","2","143","red","0.5","0.1","0.1","l","",""
"","","","","","63614ad63aec6bcf8a045124","bdp_lott","Sun Mar 26 2023 15:15:31 GMT-0400 (Eastern Daylight Time)","284553","green","red","animation","170","138207","0.0-5.0-2.82","","","","","","143","","","","","","[{""stimulus"":""img/red_ll/1.jpg"",""time"":63},{""stimulus"":""img/red_ll/2.jpg"",""time"":100},{""stimulus"":""img/red_ll/3.jpg"",""time"":151},{""stimulus"":""img/red_ll/4.jpg"",""time"":201},{""stimulus"":""img/red_ll/5.jpg"",""time"":252},{""stimulus"":""img/red_ll/6.jpg"",""time"":302},{""stimulus"":""img/red_ll/7.jpg"",""time"":352},{""stimulus"":""img/red_ll/8.jpg"",""time"":401},{""stimulus"":""img/red_ll/9.jpg"",""time"":452},{""stimulus"":""img/red_ll/10.jpg"",""time"":502},{""stimulus"":""img/red_ll/11.jpg"",""time"":551}]","[]"
"","","","choice","","63614ad63aec6bcf8a045124","bdp_lott","Sun Mar 26 2023 15:15:31 GMT-0400 (Eastern Daylight Time)","284553","green","red","image-keyboard-response","171","138566","0.0-5.0-1.83","","358","","img/red_ll/choose11.jpg","2","142","red","0.5","0.1","0.1","l","",""
"","","","","","63614ad63aec6bcf8a045124","bdp_lott","Sun Mar 26 2023 15:15:31 GMT-0400 (Eastern Daylight Time)","284553","green","red","animation","172","139167","0.0-5.0-2.83","","","","","","142","","","","","","[{""stimulus"":""img/red_ll/1.jpg"",""time"":53},{""stimulus"":""img/red_ll/2.jpg"",""time"":114},{""stimulus"":""img/red_ll/3.jpg"",""time"":152},{""stimulus"":""img/red_ll/4.jpg"",""time"":201},{""stimulus"":""img/red_ll/5.jpg"",""time"":251},{""stimulus"":""img/red_ll/6.jpg"",""time"":302},{""stimulus"":""img/red_ll/7.jpg"",""time"":353},{""stimulus"":""img/red_ll/8.jpg"",""time"":401},{""stimulus"":""img/red_ll/9.jpg"",""time"":451},{""stimulus"":""img/red_ll/10.jpg"",""time"":502},{""stimulus"":""img/red_ll/11.jpg"",""time"":551}]","[]"
"","","","choice","","63614ad63aec6bcf8a045124","bdp_lott","Sun Mar 26 2023 15:15:31 GMT-0400 (Eastern Daylight Time)","284553","green","red","image-keyboard-response","173","139503","0.0-5.0-1.84","","336","","img/red_ll/choose11.jpg","2","141","red","0.5","0.1","0.1","l","",""
"","","","","","63614ad63aec6bcf8a045124","bdp_lott","Sun Mar 26 2023 15:15:31 GMT-0400 (Eastern Daylight Time)","284553","green","red","animation","174","140103","0.0-5.0-2.84","","","","","","141","","","","","","[{""stimulus"":""img/red_ll/1.jpg"",""time"":51},{""stimulus"":""img/red_ll/2.jpg"",""time"":102},{""stimulus"":""img/red_ll/3.jpg"",""time"":151},{""stimulus"":""img/red_ll/4.jpg"",""time"":201},{""stimulus"":""img/red_ll/5.jpg"",""time"":251},{""stimulus"":""img/red_ll/6.jpg"",""time"":301},{""stimulus"":""img/red_ll/7.jpg"",""time"":352},{""stimulus"":""img/red_ll/8.jpg"",""time"":401},{""stimulus"":""img/red_ll/9.jpg"",""time"":451},{""stimulus"":""img/red_ll/10.jpg"",""time"":502},{""stimulus"":""img/red_ll/11.jpg"",""time"":551}]","[]"
"","","","choice","","63614ad63aec6bcf8a045124","bdp_lott","Sun Mar 26 2023 15:15:31 GMT-0400 (Eastern Daylight Time)","284553","green","red","image-keyboard-response","175","140350","0.0-5.0-1.85","","246","","img/red_ll/choose11.jpg","2","140","red","0.5","0.1","0.1","l","",""
"","","","","","63614ad63aec6bcf8a045124","bdp_lott","Sun Mar 26 2023 15:15:31 GMT-0400 (Eastern Daylight Time)","284553","green","red","animation","176","140951","0.0-5.0-2.85","","","","","","140","","","","","","[{""stimulus"":""img/red_ll/1.jpg"",""time"":50},{""stimulus"":""img/red_ll/2.jpg"",""time"":100},{""stimulus"":""img/red_ll/3.jpg"",""time"":152},{""stimulus"":""img/red_ll/4.jpg"",""time"":201},{""stimulus"":""img/red_ll/5.jpg"",""time"":251},{""stimulus"":""img/red_ll/6.jpg"",""time"":304},{""stimulus"":""img/red_ll/7.jpg"",""time"":351},{""stimulus"":""img/red_ll/8.jpg"",""time"":401},{""stimulus"":""img/red_ll/9.jpg"",""time"":451},{""stimulus"":""img/red_ll/10.jpg"",""time"":500},{""stimulus"":""img/red_ll/11.jpg"",""time"":550}]","[]"
"","","","choice","","63614ad63aec6bcf8a045124","bdp_lott","Sun Mar 26 2023 15:15:31 GMT-0400 (Eastern Daylight Time)","284553","green","red","image-keyboard-response","177","141285","0.0-5.0-1.86","","333","","img/red_ll/choose11.jpg","2","139","red","0.5","0.1","0.1","l","",""
"","","","","","63614ad63aec6bcf8a045124","bdp_lott","Sun Mar 26 2023 15:15:31 GMT-0400 (Eastern Daylight Time)","284553","green","red","animation","178","141886","0.0-5.0-2.86","","","","","","139","","","","","","[{""stimulus"":""img/red_ll/1.jpg"",""time"":51},{""stimulus"":""img/red_ll/2.jpg"",""time"":102},{""stimulus"":""img/red_ll/3.jpg"",""time"":151},{""stimulus"":""img/red_ll/4.jpg"",""time"":202},{""stimulus"":""img/red_ll/5.jpg"",""time"":251},{""stimulus"":""img/red_ll/6.jpg"",""time"":302},{""stimulus"":""img/red_ll/7.jpg"",""time"":351},{""stimulus"":""img/red_ll/8.jpg"",""time"":401},{""stimulus"":""img/red_ll/9.jpg"",""time"":450},{""stimulus"":""img/red_ll/10.jpg"",""time"":502},{""stimulus"":""img/red_ll/11.jpg"",""time"":551}]","[]"
"","","","choice","","63614ad63aec6bcf8a045124","bdp_lott","Sun Mar 26 2023 15:15:31 GMT-0400 (Eastern Daylight Time)","284553","green","red","image-keyboard-response","179","142221","0.0-5.0-1.87","","335","","img/red_ll/choose11.jpg","2","138","red","0.5","0.1","0.1","l","",""
"","","","","","63614ad63aec6bcf8a045124","bdp_lott","Sun Mar 26 2023 15:15:31 GMT-0400 (Eastern Daylight Time)","284553","green","red","animation","180","142821","0.0-5.0-2.87","","","","","","138","","","","","","[{""stimulus"":""img/red_ll/1.jpg"",""time"":51},{""stimulus"":""img/red_ll/2.jpg"",""time"":101},{""stimulus"":""img/red_ll/3.jpg"",""time"":152},{""stimulus"":""img/red_ll/4.jpg"",""time"":202},{""stimulus"":""img/red_ll/5.jpg"",""time"":255},{""stimulus"":""img/red_ll/6.jpg"",""time"":301},{""stimulus"":""img/red_ll/7.jpg"",""time"":351},{""stimulus"":""img/red_ll/8.jpg"",""time"":401},{""stimulus"":""img/red_ll/9.jpg"",""time"":451},{""stimulus"":""img/red_ll/10.jpg"",""time"":502},{""stimulus"":""img/red_ll/11.jpg"",""time"":552}]","[]"
"","","","choice","","63614ad63aec6bcf8a045124","bdp_lott","Sun Mar 26 2023 15:15:31 GMT-0400 (Eastern Daylight Time)","284553","green","red","image-keyboard-response","181","143151","0.0-5.0-1.88","","329","","img/red_ll/choose11.jpg","2","137","red","0.5","0.1","0.1","l","",""
"","","","","","63614ad63aec6bcf8a045124","bdp_lott","Sun Mar 26 2023 15:15:31 GMT-0400 (Eastern Daylight Time)","284553","green","red","animation","182","143751","0.0-5.0-2.88","","","","","","137","","","","","","[{""stimulus"":""img/red_ll/1.jpg"",""time"":51},{""stimulus"":""img/red_ll/2.jpg"",""time"":101},{""stimulus"":""img/red_ll/3.jpg"",""time"":151},{""stimulus"":""img/red_ll/4.jpg"",""time"":201},{""stimulus"":""img/red_ll/5.jpg"",""time"":252},{""stimulus"":""img/red_ll/6.jpg"",""time"":301},{""stimulus"":""img/red_ll/7.jpg"",""time"":352},{""stimulus"":""img/red_ll/8.jpg"",""time"":401},{""stimulus"":""img/red_ll/9.jpg"",""time"":451},{""stimulus"":""img/red_ll/10.jpg"",""time"":501},{""stimulus"":""img/red_ll/11.jpg"",""time"":551}]","[]"
"","","","choice","","63614ad63aec6bcf8a045124","bdp_lott","Sun Mar 26 2023 15:15:31 GMT-0400 (Eastern Daylight Time)","284553","green","red","image-keyboard-response","183","144077","0.0-5.0-1.89","","325","","img/red_ll/choose11.jpg","2","136","red","0.5","0.1","0.1","l","",""
"","","","","","63614ad63aec6bcf8a045124","bdp_lott","Sun Mar 26 2023 15:15:31 GMT-0400 (Eastern Daylight Time)","284553","green","red","animation","184","144679","0.0-5.0-2.89","","","","","","136","","","","","","[{""stimulus"":""img/red_ll/1.jpg"",""time"":50},{""stimulus"":""img/red_ll/2.jpg"",""time"":100},{""stimulus"":""img/red_ll/3.jpg"",""time"":150},{""stimulus"":""img/red_ll/4.jpg"",""time"":201},{""stimulus"":""img/red_ll/5.jpg"",""time"":251},{""stimulus"":""img/red_ll/6.jpg"",""time"":300},{""stimulus"":""img/red_ll/7.jpg"",""time"":350},{""stimulus"":""img/red_ll/8.jpg"",""time"":402},{""stimulus"":""img/red_ll/9.jpg"",""time"":451},{""stimulus"":""img/red_ll/10.jpg"",""time"":500},{""stimulus"":""img/red_ll/11.jpg"",""time"":552}]","[]"
"","","","choice","","63614ad63aec6bcf8a045124","bdp_lott","Sun Mar 26 2023 15:15:31 GMT-0400 (Eastern Daylight Time)","284553","green","red","image-keyboard-response","185","145054","0.0-5.0-1.90","","374","","img/red_ll/choose11.jpg","2","135","red","0.5","0.1","0.1","l","",""
"","","","","","63614ad63aec6bcf8a045124","bdp_lott","Sun Mar 26 2023 15:15:31 GMT-0400 (Eastern Daylight Time)","284553","green","red","animation","186","145655","0.0-5.0-2.90","","","","","","135","","","","","","[{""stimulus"":""img/red_ll/1.jpg"",""time"":51},{""stimulus"":""img/red_ll/2.jpg"",""time"":102},{""stimulus"":""img/red_ll/3.jpg"",""time"":152},{""stimulus"":""img/red_ll/4.jpg"",""time"":201},{""stimulus"":""img/red_ll/5.jpg"",""time"":252},{""stimulus"":""img/red_ll/6.jpg"",""time"":301},{""stimulus"":""img/red_ll/7.jpg"",""time"":351},{""stimulus"":""img/red_ll/8.jpg"",""time"":401},{""stimulus"":""img/red_ll/9.jpg"",""time"":451},{""stimulus"":""img/red_ll/10.jpg"",""time"":501},{""stimulus"":""img/red_ll/11.jpg"",""time"":552}]","[]"
"","","","choice","","63614ad63aec6bcf8a045124","bdp_lott","Sun Mar 26 2023 15:15:31 GMT-0400 (Eastern Daylight Time)","284553","green","red","image-keyboard-response","187","146054","0.0-5.0-1.91","","398","","img/red_ll/choose11.jpg","2","134","red","0.5","0.1","0.1","l","",""
"","","","","","63614ad63aec6bcf8a045124","bdp_lott","Sun Mar 26 2023 15:15:31 GMT-0400 (Eastern Daylight Time)","284553","green","red","animation","188","146655","0.0-5.0-2.91","","","","","","134","","","","","","[{""stimulus"":""img/red_ll/1.jpg"",""time"":52},{""stimulus"":""img/red_ll/2.jpg"",""time"":101},{""stimulus"":""img/red_ll/3.jpg"",""time"":151},{""stimulus"":""img/red_ll/4.jpg"",""time"":201},{""stimulus"":""img/red_ll/5.jpg"",""time"":252},{""stimulus"":""img/red_ll/6.jpg"",""time"":301},{""stimulus"":""img/red_ll/7.jpg"",""time"":353},{""stimulus"":""img/red_ll/8.jpg"",""time"":401},{""stimulus"":""img/red_ll/9.jpg"",""time"":451},{""stimulus"":""img/red_ll/10.jpg"",""time"":501},{""stimulus"":""img/red_ll/11.jpg"",""time"":552}]","[]"
"","","","choice","","63614ad63aec6bcf8a045124","bdp_lott","Sun Mar 26 2023 15:15:31 GMT-0400 (Eastern Daylight Time)","284553","green","red","image-keyboard-response","189","146942","0.0-5.0-1.92","","286","","img/red_ll/choose11.jpg","2","133","red","0.5","0.1","0.1","l","",""
