"trial_type","trial_index","time_elapsed","internal_node_id","subject_id","task","startTime","totalTime","fairMachine","unfairMachine","view_history","rt","event","trial","time","trialtype","success","stimulus","key_press","roundsLeft","chosen","pFairMachWin","pUnfairMachWin","pTrialWin","outcome","animation_sequence","responses"
"pavlovia","0","2","0.0-0.0","6400ea4cec0b310140841b2d","bdp_lott","Tue Mar 28 2023 10:35:28 GMT-0400 (Eastern Daylight Time)","270388","red","green","","","","","","","","","","","","","","","","",""
"instructions","1","1177","0.0-1.0","6400ea4cec0b310140841b2d","bdp_lott","Tue Mar 28 2023 10:35:28 GMT-0400 (Eastern Daylight Time)","270388","red","green","[{""page_index"":0,""viewing_time"":1174}]","1174","","","","","","","","","","","","","","",""
"","","","","6400ea4cec0b310140841b2d","bdp_lott","Tue Mar 28 2023 10:35:28 GMT-0400 (Eastern Daylight Time)","270388","red","green","","","fullscreenenter","2","2488","fullscreenenter","","","","","","","","","","",""
"fullscreen","2","3477","0.0-2.0","6400ea4cec0b310140841b2d","bdp_lott","Tue Mar 28 2023 10:35:28 GMT-0400 (Eastern Daylight Time)","270388","red","green","","","","","","","true","","","","","","","","","",""
"instructions","3","4974","0.0-4.0","6400ea4cec0b310140841b2d","bdp_lott","Tue Mar 28 2023 10:35:28 GMT-0400 (Eastern Daylight Time)","270388","red","green","[{""page_index"":0,""viewing_time"":1495}]","1495","","","","","","","","","","","","","","",""
"image-keyboard-response","4","6208","0.0-5.0-1.0","6400ea4cec0b310140841b2d","bdp_lott","Tue Mar 28 2023 10:35:28 GMT-0400 (Eastern Daylight Time)","270388","red","green","","1233","","","","choice","","img/red_ll/initchoose11.jpg","1","225","green","0.5","0.5","0.5","w","",""
"animation","5","6815","0.0-5.0-2.0","6400ea4cec0b310140841b2d","bdp_lott","Tue Mar 28 2023 10:35:28 GMT-0400 (Eastern Daylight Time)","270388","red","green","","","","","","","","","","225","","","","","","[{""stimulus"":""img/green_wl/1.jpg"",""time"":53},{""stimulus"":""img/green_wl/2.jpg"",""time"":105},{""stimulus"":""img/green_wl/3.jpg"",""time"":157},{""stimulus"":""img/green_wl/4.jpg"",""time"":207},{""stimulus"":""img/green_wl/5.jpg"",""time"":257},{""stimulus"":""img/green_wl/6.jpg"",""time"":302},{""stimulus"":""img/green_wl/7.jpg"",""time"":360},{""stimulus"":""img/green_wl/8.jpg"",""time"":407},{""stimulus"":""img/green_wl/9.jpg"",""time"":457},{""stimulus"":""img/green_wl/10.jpg"",""time"":501},{""stimulus"":""img/green_wl/11.jpg"",""time"":561}]","[]"
"image-keyboard-response","6","7867","0.0-5.0-1.1","6400ea4cec0b310140841b2d","bdp_lott","Tue Mar 28 2023 10:35:28 GMT-0400 (Eastern Daylight Time)","270388","red","green","","1051","","","","choice","","img/green_wl/choose11.jpg","2","224","red","0.5","0.5","0.5","w","",""
"animation","7","8470","0.0-5.0-2.1","6400ea4cec0b310140841b2d","bdp_lott","Tue Mar 28 2023 10:35:28 GMT-0400 (Eastern Daylight Time)","270388","red","green","","","","","","","","","","224","","","","","","[{""stimulus"":""img/red_ww/1.jpg"",""time"":59},{""stimulus"":""img/red_ww/2.jpg"",""time"":108},{""stimulus"":""img/red_ww/3.jpg"",""time"":154},{""stimulus"":""img/red_ww/4.jpg"",""time"":203},{""stimulus"":""img/red_ww/5.jpg"",""time"":258},{""stimulus"":""img/red_ww/6.jpg"",""time"":309},{""stimulus"":""img/red_ww/7.jpg"",""time"":358},{""stimulus"":""img/red_ww/8.jpg"",""time"":402},{""stimulus"":""img/red_ww/9.jpg"",""time"":458},{""stimulus"":""img/red_ww/10.jpg"",""time"":506},{""stimulus"":""img/red_ww/11.jpg"",""time"":554}]","[]"
"image-keyboard-response","8","9266","0.0-5.0-1.2","6400ea4cec0b310140841b2d","bdp_lott","Tue Mar 28 2023 10:35:28 GMT-0400 (Eastern Daylight Time)","270388","red","green","","795","","","","choice","","img/red_ww/choose11.jpg","1","223","green","0.5","0.5","0.5","w","",""
"animation","9","9870","0.0-5.0-2.2","6400ea4cec0b310140841b2d","bdp_lott","Tue Mar 28 2023 10:35:28 GMT-0400 (Eastern Daylight Time)","270388","red","green","","","","","","","","","","223","","","","","","[{""stimulus"":""img/green_ww/1.jpg"",""time"":57},{""stimulus"":""img/green_ww/2.jpg"",""time"":111},{""stimulus"":""img/green_ww/3.jpg"",""time"":156},{""stimulus"":""img/green_ww/4.jpg"",""time"":204},{""stimulus"":""img/green_ww/5.jpg"",""time"":254},{""stimulus"":""img/green_ww/6.jpg"",""time"":308},{""stimulus"":""img/green_ww/7.jpg"",""time"":350},{""stimulus"":""img/green_ww/8.jpg"",""time"":405},{""stimulus"":""img/green_ww/9.jpg"",""time"":454},{""stimulus"":""img/green_ww/10.jpg"",""time"":508},{""stimulus"":""img/green_ww/11.jpg"",""time"":556}]","[]"
"image-keyboard-response","10","10733","0.0-5.0-1.3","6400ea4cec0b310140841b2d","bdp_lott","Tue Mar 28 2023 10:35:28 GMT-0400 (Eastern Daylight Time)","270388","red","green","","862","","","","choice","","img/green_ww/choose11.jpg","1","222","green","0.5","0.5","0.5","w","",""
"animation","11","11343","0.0-5.0-2.3","6400ea4cec0b310140841b2d","bdp_lott","Tue Mar 28 2023 10:35:28 GMT-0400 (Eastern Daylight Time)","270388","red","green","","","","","","","","","","222","","","","","","[{""stimulus"":""img/green_ww/1.jpg"",""time"":60},{""stimulus"":""img/green_ww/2.jpg"",""time"":105},{""stimulus"":""img/green_ww/3.jpg"",""time"":154},{""stimulus"":""img/green_ww/4.jpg"",""time"":209},{""stimulus"":""img/green_ww/5.jpg"",""time"":257},{""stimulus"":""img/green_ww/6.jpg"",""time"":305},{""stimulus"":""img/green_ww/7.jpg"",""time"":355},{""stimulus"":""img/green_ww/8.jpg"",""time"":411},{""stimulus"":""img/green_ww/9.jpg"",""time"":457},{""stimulus"":""img/green_ww/10.jpg"",""time"":505},{""stimulus"":""img/green_ww/11.jpg"",""time"":555}]","[]"
"image-keyboard-response","12","11855","0.0-5.0-1.4","6400ea4cec0b310140841b2d","bdp_lott","Tue Mar 28 2023 10:35:28 GMT-0400 (Eastern Daylight Time)","270388","red","green","","510","","","","choice","","img/green_ww/choose11.jpg","1","221","green","0.5","0.5","0.5","l","",""
"animation","13","12462","0.0-5.0-2.4","6400ea4cec0b310140841b2d","bdp_lott","Tue Mar 28 2023 10:35:28 GMT-0400 (Eastern Daylight Time)","270388","red","green","","","","","","","","","","221","","","","","","[{""stimulus"":""img/green_lw/1.jpg"",""time"":59},{""stimulus"":""img/green_lw/2.jpg"",""time"":105},{""stimulus"":""img/green_lw/3.jpg"",""time"":155},{""stimulus"":""img/green_lw/4.jpg"",""time"":208},{""stimulus"":""img/green_lw/5.jpg"",""time"":257},{""stimulus"":""img/green_lw/6.jpg"",""time"":303},{""stimulus"":""img/green_lw/7.jpg"",""time"":351},{""stimulus"":""img/green_lw/8.jpg"",""time"":411},{""stimulus"":""img/green_lw/9.jpg"",""time"":455},{""stimulus"":""img/green_lw/10.jpg"",""time"":503},{""stimulus"":""img/green_lw/11.jpg"",""time"":553}]","[]"
"image-keyboard-response","14","12936","0.0-5.0-1.5","6400ea4cec0b310140841b2d","bdp_lott","Tue Mar 28 2023 10:35:28 GMT-0400 (Eastern Daylight Time)","270388","red","green","","473","","","","choice","","img/green_lw/choose11.jpg","2","220","red","0.5","0.5","0.5","w","",""
"animation","15","13543","0.0-5.0-2.5","6400ea4cec0b310140841b2d","bdp_lott","Tue Mar 28 2023 10:35:28 GMT-0400 (Eastern Daylight Time)","270388","red","green","","","","","","","","","","220","","","","","","[{""stimulus"":""img/red_lw/1.jpg"",""time"":58},{""stimulus"":""img/red_lw/2.jpg"",""time"":105},{""stimulus"":""img/red_lw/3.jpg"",""time"":162},{""stimulus"":""img/red_lw/4.jpg"",""time"":207},{""stimulus"":""img/red_lw/5.jpg"",""time"":253},{""stimulus"":""img/red_lw/6.jpg"",""time"":305},{""stimulus"":""img/red_lw/7.jpg"",""time"":360},{""stimulus"":""img/red_lw/8.jpg"",""time"":405},{""stimulus"":""img/red_lw/9.jpg"",""time"":453},{""stimulus"":""img/red_lw/10.jpg"",""time"":501},{""stimulus"":""img/red_lw/11.jpg"",""time"":557}]","[]"
"image-keyboard-response","16","13990","0.0-5.0-1.6","6400ea4cec0b310140841b2d","bdp_lott","Tue Mar 28 2023 10:35:28 GMT-0400 (Eastern Daylight Time)","270388","red","green","","447","","","","choice","","img/red_lw/choose11.jpg","2","219","red","0.5","0.5","0.5","w","",""
"animation","17","14601","0.0-5.0-2.6","6400ea4cec0b310140841b2d","bdp_lott","Tue Mar 28 2023 10:35:28 GMT-0400 (Eastern Daylight Time)","270388","red","green","","","","","","","","","","219","","","","","","[{""stimulus"":""img/red_lw/1.jpg"",""time"":59},{""stimulus"":""img/red_lw/2.jpg"",""time"":103},{""stimulus"":""img/red_lw/3.jpg"",""time"":151},{""stimulus"":""img/red_lw/4.jpg"",""time"":210},{""stimulus"":""img/red_lw/5.jpg"",""time"":260},{""stimulus"":""img/red_lw/6.jpg"",""time"":303},{""stimulus"":""img/red_lw/7.jpg"",""time"":351},{""stimulus"":""img/red_lw/8.jpg"",""time"":412},{""stimulus"":""img/red_lw/9.jpg"",""time"":458},{""stimulus"":""img/red_lw/10.jpg"",""time"":503},{""stimulus"":""img/red_lw/11.jpg"",""time"":551}]","[]"
"image-keyboard-response","18","15301","0.0-5.0-1.7","6400ea4cec0b310140841b2d","bdp_lott","Tue Mar 28 2023 10:35:28 GMT-0400 (Eastern Daylight Time)","270388","red","green","","699","","","","choice","","img/red_lw/choose11.jpg","2","218","red","0.5","0.5","0.5","l","",""
"animation","19","15913","0.0-5.0-2.7","6400ea4cec0b310140841b2d","bdp_lott","Tue Mar 28 2023 10:35:28 GMT-0400 (Eastern Daylight Time)","270388","red","green","","","","","","","","","","218","","","","","","[{""stimulus"":""img/red_ll/1.jpg"",""time"":58},{""stimulus"":""img/red_ll/2.jpg"",""time"":105},{""stimulus"":""img/red_ll/3.jpg"",""time"":153},{""stimulus"":""img/red_ll/4.jpg"",""time"":212},{""stimulus"":""img/red_ll/5.jpg"",""time"":258},{""stimulus"":""img/red_ll/6.jpg"",""time"":305},{""stimulus"":""img/red_ll/7.jpg"",""time"":354},{""stimulus"":""img/red_ll/8.jpg"",""time"":409},{""stimulus"":""img/red_ll/9.jpg"",""time"":457},{""stimulus"":""img/red_ll/10.jpg"",""time"":507},{""stimulus"":""img/red_ll/11.jpg"",""time"":555}]","[]"
"image-keyboard-response","20","16286","0.0-5.0-1.8","6400ea4cec0b310140841b2d","bdp_lott","Tue Mar 28 2023 10:35:28 GMT-0400 (Eastern Daylight Time)","270388","red","green","","373","","","","choice","","img/red_ll/choose11.jpg","1","217","green","0.5","0.5","0.5","w","",""
"animation","21","16898","0.0-5.0-2.8","6400ea4cec0b310140841b2d","bdp_lott","Tue Mar 28 2023 10:35:28 GMT-0400 (Eastern Daylight Time)","270388","red","green","","","","","","","","","","217","","","","","","[{""stimulus"":""img/green_wl/1.jpg"",""time"":56},{""stimulus"":""img/green_wl/2.jpg"",""time"":103},{""stimulus"":""img/green_wl/3.jpg"",""time"":151},{""stimulus"":""img/green_wl/4.jpg"",""time"":207},{""stimulus"":""img/green_wl/5.jpg"",""time"":256},{""stimulus"":""img/green_wl/6.jpg"",""time"":304},{""stimulus"":""img/green_wl/7.jpg"",""time"":352},{""stimulus"":""img/green_wl/8.jpg"",""time"":407},{""stimulus"":""img/green_wl/9.jpg"",""time"":455},{""stimulus"":""img/green_wl/10.jpg"",""time"":503},{""stimulus"":""img/green_wl/11.jpg"",""time"":555}]","[]"
"image-keyboard-response","22","17821","0.0-5.0-1.9","6400ea4cec0b310140841b2d","bdp_lott","Tue Mar 28 2023 10:35:28 GMT-0400 (Eastern Daylight Time)","270388","red","green","","922","","","","choice","","img/green_wl/choose11.jpg","1","216","green","0.5","0.5","0.5","w","",""
"animation","23","18434","0.0-5.0-2.9","6400ea4cec0b310140841b2d","bdp_lott","Tue Mar 28 2023 10:35:28 GMT-0400 (Eastern Daylight Time)","270388","red","green","","","","","","","","","","216","","","","","","[{""stimulus"":""img/green_wl/1.jpg"",""time"":60},{""stimulus"":""img/green_wl/2.jpg"",""time"":104},{""stimulus"":""img/green_wl/3.jpg"",""time"":155},{""stimulus"":""img/green_wl/4.jpg"",""time"":210},{""stimulus"":""img/green_wl/5.jpg"",""time"":262},{""stimulus"":""img/green_wl/6.jpg"",""time"":309},{""stimulus"":""img/green_wl/7.jpg"",""time"":353},{""stimulus"":""img/green_wl/8.jpg"",""time"":414},{""stimulus"":""img/green_wl/9.jpg"",""time"":458},{""stimulus"":""img/green_wl/10.jpg"",""time"":505},{""stimulus"":""img/green_wl/11.jpg"",""time"":553}]","[]"
"image-keyboard-response","24","19276","0.0-5.0-1.10","6400ea4cec0b310140841b2d","bdp_lott","Tue Mar 28 2023 10:35:28 GMT-0400 (Eastern Daylight Time)","270388","red","green","","841","","","","choice","","img/green_wl/choose11.jpg","2","215","red","0.5","0.5","0.5","w","",""
"animation","25","19879","0.0-5.0-2.10","6400ea4cec0b310140841b2d","bdp_lott","Tue Mar 28 2023 10:35:28 GMT-0400 (Eastern Daylight Time)","270388","red","green","","","","","","","","","","215","","","","","","[{""stimulus"":""img/red_ww/1.jpg"",""time"":61},{""stimulus"":""img/red_ww/2.jpg"",""time"":103},{""stimulus"":""img/red_ww/3.jpg"",""time"":156},{""stimulus"":""img/red_ww/4.jpg"",""time"":203},{""stimulus"":""img/red_ww/5.jpg"",""time"":261},{""stimulus"":""img/red_ww/6.jpg"",""time"":310},{""stimulus"":""img/red_ww/7.jpg"",""time"":357},{""stimulus"":""img/red_ww/8.jpg"",""time"":403},{""stimulus"":""img/red_ww/9.jpg"",""time"":461},{""stimulus"":""img/red_ww/10.jpg"",""time"":511},{""stimulus"":""img/red_ww/11.jpg"",""time"":556}]","[]"
"image-keyboard-response","26","20495","0.0-5.0-1.11","6400ea4cec0b310140841b2d","bdp_lott","Tue Mar 28 2023 10:35:28 GMT-0400 (Eastern Daylight Time)","270388","red","green","","616","","","","choice","","img/red_ww/choose11.jpg","2","214","red","0.5","0.5","0.5","w","",""
"animation","27","21104","0.0-5.0-2.11","6400ea4cec0b310140841b2d","bdp_lott","Tue Mar 28 2023 10:35:28 GMT-0400 (Eastern Daylight Time)","270388","red","green","","","","","","","","","","214","","","","","","[{""stimulus"":""img/red_ww/1.jpg"",""time"":59},{""stimulus"":""img/red_ww/2.jpg"",""time"":104},{""stimulus"":""img/red_ww/3.jpg"",""time"":155},{""stimulus"":""img/red_ww/4.jpg"",""time"":208},{""stimulus"":""img/red_ww/5.jpg"",""time"":259},{""stimulus"":""img/red_ww/6.jpg"",""time"":306},{""stimulus"":""img/red_ww/7.jpg"",""time"":351},{""stimulus"":""img/red_ww/8.jpg"",""time"":411},{""stimulus"":""img/red_ww/9.jpg"",""time"":458},{""stimulus"":""img/red_ww/10.jpg"",""time"":505},{""stimulus"":""img/red_ww/11.jpg"",""time"":554}]","[]"
"image-keyboard-response","28","21577","0.0-5.0-1.12","6400ea4cec0b310140841b2d","bdp_lott","Tue Mar 28 2023 10:35:28 GMT-0400 (Eastern Daylight Time)","270388","red","green","","472","","","","choice","","img/red_ww/choose11.jpg","1","213","green","0.5","0.5","0.5","w","",""
"animation","29","22185","0.0-5.0-2.12","6400ea4cec0b310140841b2d","bdp_lott","Tue Mar 28 2023 10:35:28 GMT-0400 (Eastern Daylight Time)","270388","red","green","","","","","","","","","","213","","","","","","[{""stimulus"":""img/green_ww/1.jpg"",""time"":56},{""stimulus"":""img/green_ww/2.jpg"",""time"":106},{""stimulus"":""img/green_ww/3.jpg"",""time"":161},{""stimulus"":""img/green_ww/4.jpg"",""time"":209},{""stimulus"":""img/green_ww/5.jpg"",""time"":258},{""stimulus"":""img/green_ww/6.jpg"",""time"":310},{""stimulus"":""img/green_ww/7.jpg"",""time"":361},{""stimulus"":""img/green_ww/8.jpg"",""time"":407},{""stimulus"":""img/green_ww/9.jpg"",""time"":455},{""stimulus"":""img/green_ww/10.jpg"",""time"":502},{""stimulus"":""img/green_ww/11.jpg"",""time"":560}]","[]"
"image-keyboard-response","30","22585","0.0-5.0-1.13","6400ea4cec0b310140841b2d","bdp_lott","Tue Mar 28 2023 10:35:28 GMT-0400 (Eastern Daylight Time)","270388","red","green","","398","","","","choice","","img/green_ww/choose11.jpg","1","212","green","0.5","0.5","0.5","l","",""
"animation","31","23190","0.0-5.0-2.13","6400ea4cec0b310140841b2d","bdp_lott","Tue Mar 28 2023 10:35:28 GMT-0400 (Eastern Daylight Time)","270388","red","green","","","","","","","","","","212","","","","","","[{""stimulus"":""img/green_lw/1.jpg"",""time"":57},{""stimulus"":""img/green_lw/2.jpg"",""time"":103},{""stimulus"":""img/green_lw/3.jpg"",""time"":161},{""stimulus"":""img/green_lw/4.jpg"",""time"":205},{""stimulus"":""img/green_lw/5.jpg"",""time"":253},{""stimulus"":""img/green_lw/6.jpg"",""time"":302},{""stimulus"":""img/green_lw/7.jpg"",""time"":359},{""stimulus"":""img/green_lw/8.jpg"",""time"":409},{""stimulus"":""img/green_lw/9.jpg"",""time"":454},{""stimulus"":""img/green_lw/10.jpg"",""time"":503},{""stimulus"":""img/green_lw/11.jpg"",""time"":558}]","[]"
"image-keyboard-response","32","23688","0.0-5.0-1.14","6400ea4cec0b310140841b2d","bdp_lott","Tue Mar 28 2023 10:35:28 GMT-0400 (Eastern Daylight Time)","270388","red","green","","498","","","","choice","","img/green_lw/choose11.jpg","2","211","red","0.5","0.5","0.5","w","",""
"animation","33","24293","0.0-5.0-2.14","6400ea4cec0b310140841b2d","bdp_lott","Tue Mar 28 2023 10:35:28 GMT-0400 (Eastern Daylight Time)","270388","red","green","","","","","","","","","","211","","","","","","[{""stimulus"":""img/red_lw/1.jpg"",""time"":58},{""stimulus"":""img/red_lw/2.jpg"",""time"":101},{""stimulus"":""img/red_lw/3.jpg"",""time"":159},{""stimulus"":""img/red_lw/4.jpg"",""time"":206},{""stimulus"":""img/red_lw/5.jpg"",""time"":254},{""stimulus"":""img/red_lw/6.jpg"",""time"":306},{""stimulus"":""img/red_lw/7.jpg"",""time"":361},{""stimulus"":""img/red_lw/8.jpg"",""time"":407},{""stimulus"":""img/red_lw/9.jpg"",""time"":454},{""stimulus"":""img/red_lw/10.jpg"",""time"":504},{""stimulus"":""img/red_lw/11.jpg"",""time"":559}]","[]"
"image-keyboard-response","34","24939","0.0-5.0-1.15","6400ea4cec0b310140841b2d","bdp_lott","Tue Mar 28 2023 10:35:28 GMT-0400 (Eastern Daylight Time)","270388","red","green","","645","","","","choice","","img/red_lw/choose11.jpg","2","210","red","0.5","0.5","0.5","l","",""
"animation","35","25543","0.0-5.0-2.15","6400ea4cec0b310140841b2d","bdp_lott","Tue Mar 28 2023 10:35:28 GMT-0400 (Eastern Daylight Time)","270388","red","green","","","","","","","","","","210","","","","","","[{""stimulus"":""img/red_ll/1.jpg"",""time"":62},{""stimulus"":""img/red_ll/2.jpg"",""time"":108},{""stimulus"":""img/red_ll/3.jpg"",""time"":158},{""stimulus"":""img/red_ll/4.jpg"",""time"":203},{""stimulus"":""img/red_ll/5.jpg"",""time"":261},{""stimulus"":""img/red_ll/6.jpg"",""time"":311},{""stimulus"":""img/red_ll/7.jpg"",""time"":355},{""stimulus"":""img/red_ll/8.jpg"",""time"":403},{""stimulus"":""img/red_ll/9.jpg"",""time"":459},{""stimulus"":""img/red_ll/10.jpg"",""time"":510},{""stimulus"":""img/red_ll/11.jpg"",""time"":555}]","[]"
"image-keyboard-response","36","26167","0.0-5.0-1.16","6400ea4cec0b310140841b2d","bdp_lott","Tue Mar 28 2023 10:35:28 GMT-0400 (Eastern Daylight Time)","270388","red","green","","624","","","","choice","","img/red_ll/choose11.jpg","1","209","green","0.5","0.5","0.5","w","",""
"animation","37","26774","0.0-5.0-2.16","6400ea4cec0b310140841b2d","bdp_lott","Tue Mar 28 2023 10:35:28 GMT-0400 (Eastern Daylight Time)","270388","red","green","","","","","","","","","","209","","","","","","[{""stimulus"":""img/green_wl/1.jpg"",""time"":56},{""stimulus"":""img/green_wl/2.jpg"",""time"":104},{""stimulus"":""img/green_wl/3.jpg"",""time"":155},{""stimulus"":""img/green_wl/4.jpg"",""time"":209},{""stimulus"":""img/green_wl/5.jpg"",""time"":257},{""stimulus"":""img/green_wl/6.jpg"",""time"":303},{""stimulus"":""img/green_wl/7.jpg"",""time"":353},{""stimulus"":""img/green_wl/8.jpg"",""time"":409},{""stimulus"":""img/green_wl/9.jpg"",""time"":459},{""stimulus"":""img/green_wl/10.jpg"",""time"":506},{""stimulus"":""img/green_wl/11.jpg"",""time"":554}]","[]"
"image-keyboard-response","38","27828","0.0-5.0-1.17","6400ea4cec0b310140841b2d","bdp_lott","Tue Mar 28 2023 10:35:28 GMT-0400 (Eastern Daylight Time)","270388","red","green","","1053","","","","choice","","img/green_wl/choose11.jpg","2","208","red","0.5","0.5","0.5","w","",""
"animation","39","28430","0.0-5.0-2.17","6400ea4cec0b310140841b2d","bdp_lott","Tue Mar 28 2023 10:35:28 GMT-0400 (Eastern Daylight Time)","270388","red","green","","","","","","","","","","208","","","","","","[{""stimulus"":""img/red_ww/1.jpg"",""time"":59},{""stimulus"":""img/red_ww/2.jpg"",""time"":104},{""stimulus"":""img/red_ww/3.jpg"",""time"":158},{""stimulus"":""img/red_ww/4.jpg"",""time"":203},{""stimulus"":""img/red_ww/5.jpg"",""time"":259},{""stimulus"":""img/red_ww/6.jpg"",""time"":308},{""stimulus"":""img/red_ww/7.jpg"",""time"":355},{""stimulus"":""img/red_ww/8.jpg"",""time"":402},{""stimulus"":""img/red_ww/9.jpg"",""time"":460},{""stimulus"":""img/red_ww/10.jpg"",""time"":509},{""stimulus"":""img/red_ww/11.jpg"",""time"":556}]","[]"
"image-keyboard-response","40","30368","0.0-5.0-1.18","6400ea4cec0b310140841b2d","bdp_lott","Tue Mar 28 2023 10:35:28 GMT-0400 (Eastern Daylight Time)","270388","red","green","","1937","","","","choice","","img/red_ww/choose11.jpg","2","207","red","0.5","0.5","0.5","l","",""
"animation","41","30976","0.0-5.0-2.18","6400ea4cec0b310140841b2d","bdp_lott","Tue Mar 28 2023 10:35:28 GMT-0400 (Eastern Daylight Time)","270388","red","green","","","","","","","","","","207","","","","","","[{""stimulus"":""img/red_wl/1.jpg"",""time"":56},{""stimulus"":""img/red_wl/2.jpg"",""time"":103},{""stimulus"":""img/red_wl/3.jpg"",""time"":158},{""stimulus"":""img/red_wl/4.jpg"",""time"":209},{""stimulus"":""img/red_wl/5.jpg"",""time"":254},{""stimulus"":""img/red_wl/6.jpg"",""time"":302},{""stimulus"":""img/red_wl/7.jpg"",""time"":362},{""stimulus"":""img/red_wl/8.jpg"",""time"":406},{""stimulus"":""img/red_wl/9.jpg"",""time"":454},{""stimulus"":""img/red_wl/10.jpg"",""time"":504},{""stimulus"":""img/red_wl/11.jpg"",""time"":562}]","[]"
"image-keyboard-response","42","31572","0.0-5.0-1.19","6400ea4cec0b310140841b2d","bdp_lott","Tue Mar 28 2023 10:35:28 GMT-0400 (Eastern Daylight Time)","270388","red","green","","596","","","","choice","","img/red_wl/choose11.jpg","1","206","green","0.5","0.5","0.5","w","",""
"animation","43","32174","0.0-5.0-2.19","6400ea4cec0b310140841b2d","bdp_lott","Tue Mar 28 2023 10:35:28 GMT-0400 (Eastern Daylight Time)","270388","red","green","","","","","","","","","","206","","","","","","[{""stimulus"":""img/green_wl/1.jpg"",""time"":60},{""stimulus"":""img/green_wl/2.jpg"",""time"":109},{""stimulus"":""img/green_wl/3.jpg"",""time"":154},{""stimulus"":""img/green_wl/4.jpg"",""time"":203},{""stimulus"":""img/green_wl/5.jpg"",""time"":261},{""stimulus"":""img/green_wl/6.jpg"",""time"":310},{""stimulus"":""img/green_wl/7.jpg"",""time"":355},{""stimulus"":""img/green_wl/8.jpg"",""time"":405},{""stimulus"":""img/green_wl/9.jpg"",""time"":459},{""stimulus"":""img/green_wl/10.jpg"",""time"":509},{""stimulus"":""img/green_wl/11.jpg"",""time"":558}]","[]"
"image-keyboard-response","44","32910","0.0-5.0-1.20","6400ea4cec0b310140841b2d","bdp_lott","Tue Mar 28 2023 10:35:28 GMT-0400 (Eastern Daylight Time)","270388","red","green","","736","","","","choice","","img/green_wl/choose11.jpg","1","205","green","0.5","0.5","0.5","l","",""
"animation","45","33521","0.0-5.0-2.20","6400ea4cec0b310140841b2d","bdp_lott","Tue Mar 28 2023 10:35:28 GMT-0400 (Eastern Daylight Time)","270388","red","green","","","","","","","","","","205","","","","","","[{""stimulus"":""img/green_ll/1.jpg"",""time"":60},{""stimulus"":""img/green_ll/2.jpg"",""time"":108},{""stimulus"":""img/green_ll/3.jpg"",""time"":156},{""stimulus"":""img/green_ll/4.jpg"",""time"":211},{""stimulus"":""img/green_ll/5.jpg"",""time"":258},{""stimulus"":""img/green_ll/6.jpg"",""time"":304},{""stimulus"":""img/green_ll/7.jpg"",""time"":355},{""stimulus"":""img/green_ll/8.jpg"",""time"":410},{""stimulus"":""img/green_ll/9.jpg"",""time"":460},{""stimulus"":""img/green_ll/10.jpg"",""time"":509},{""stimulus"":""img/green_ll/11.jpg"",""time"":553}]","[]"
"image-keyboard-response","46","34416","0.0-5.0-1.21","6400ea4cec0b310140841b2d","bdp_lott","Tue Mar 28 2023 10:35:28 GMT-0400 (Eastern Daylight Time)","270388","red","green","","894","","","","choice","","img/green_ll/choose11.jpg","1","204","green","0.5","0.5","0.5","l","",""
"animation","47","35023","0.0-5.0-2.21","6400ea4cec0b310140841b2d","bdp_lott","Tue Mar 28 2023 10:35:28 GMT-0400 (Eastern Daylight Time)","270388","red","green","","","","","","","","","","204","","","","","","[{""stimulus"":""img/green_ll/1.jpg"",""time"":55},{""stimulus"":""img/green_ll/2.jpg"",""time"":105},{""stimulus"":""img/green_ll/3.jpg"",""time"":158},{""stimulus"":""img/green_ll/4.jpg"",""time"":210},{""stimulus"":""img/green_ll/5.jpg"",""time"":255},{""stimulus"":""img/green_ll/6.jpg"",""time"":305},{""stimulus"":""img/green_ll/7.jpg"",""time"":358},{""stimulus"":""img/green_ll/8.jpg"",""time"":406},{""stimulus"":""img/green_ll/9.jpg"",""time"":454},{""stimulus"":""img/green_ll/10.jpg"",""time"":504},{""stimulus"":""img/green_ll/11.jpg"",""time"":558}]","[]"
"image-keyboard-response","48","35765","0.0-5.0-1.22","6400ea4cec0b310140841b2d","bdp_lott","Tue Mar 28 2023 10:35:28 GMT-0400 (Eastern Daylight Time)","270388","red","green","","742","","","","choice","","img/green_ll/choose11.jpg","1","203","green","0.5","0.5","0.5","w","",""
"animation","49","36370","0.0-5.0-2.22","6400ea4cec0b310140841b2d","bdp_lott","Tue Mar 28 2023 10:35:28 GMT-0400 (Eastern Daylight Time)","270388","red","green","","","","","","","","","","203","","","","","","[{""stimulus"":""img/green_wl/1.jpg"",""time"":58},{""stimulus"":""img/green_wl/2.jpg"",""time"":105},{""stimulus"":""img/green_wl/3.jpg"",""time"":156},{""stimulus"":""img/green_wl/4.jpg"",""time"":206},{""stimulus"":""img/green_wl/5.jpg"",""time"":252},{""stimulus"":""img/green_wl/6.jpg"",""time"":306},{""stimulus"":""img/green_wl/7.jpg"",""time"":355},{""stimulus"":""img/green_wl/8.jpg"",""time"":406},{""stimulus"":""img/green_wl/9.jpg"",""time"":463},{""stimulus"":""img/green_wl/10.jpg"",""time"":508},{""stimulus"":""img/green_wl/11.jpg"",""time"":555}]","[]"
"image-keyboard-response","50","37022","0.0-5.0-1.23","6400ea4cec0b310140841b2d","bdp_lott","Tue Mar 28 2023 10:35:28 GMT-0400 (Eastern Daylight Time)","270388","red","green","","652","","","","choice","","img/green_wl/choose11.jpg","2","202","red","0.5","0.5","0.5","w","",""
"animation","51","37632","0.0-5.0-2.23","6400ea4cec0b310140841b2d","bdp_lott","Tue Mar 28 2023 10:35:28 GMT-0400 (Eastern Daylight Time)","270388","red","green","","","","","","","","","","202","","","","","","[{""stimulus"":""img/red_ww/1.jpg"",""time"":55},{""stimulus"":""img/red_ww/2.jpg"",""time"":108},{""stimulus"":""img/red_ww/3.jpg"",""time"":155},{""stimulus"":""img/red_ww/4.jpg"",""time"":211},{""stimulus"":""img/red_ww/5.jpg"",""time"":260},{""stimulus"":""img/red_ww/6.jpg"",""time"":303},{""stimulus"":""img/red_ww/7.jpg"",""time"":351},{""stimulus"":""img/red_ww/8.jpg"",""time"":411},{""stimulus"":""img/red_ww/9.jpg"",""time"":460},{""stimulus"":""img/red_ww/10.jpg"",""time"":503},{""stimulus"":""img/red_ww/11.jpg"",""time"":553}]","[]"
"image-keyboard-response","52","38103","0.0-5.0-1.24","6400ea4cec0b310140841b2d","bdp_lott","Tue Mar 28 2023 10:35:28 GMT-0400 (Eastern Daylight Time)","270388","red","green","","471","","","","choice","","img/red_ww/choose11.jpg","2","201","red","0.5","0.5","0.5","w","",""
"animation","53","38711","0.0-5.0-2.24","6400ea4cec0b310140841b2d","bdp_lott","Tue Mar 28 2023 10:35:28 GMT-0400 (Eastern Daylight Time)","270388","red","green","","","","","","","","","","201","","","","","","[{""stimulus"":""img/red_ww/1.jpg"",""time"":59},{""stimulus"":""img/red_ww/2.jpg"",""time"":103},{""stimulus"":""img/red_ww/3.jpg"",""time"":151},{""stimulus"":""img/red_ww/4.jpg"",""time"":210},{""stimulus"":""img/red_ww/5.jpg"",""time"":257},{""stimulus"":""img/red_ww/6.jpg"",""time"":303},{""stimulus"":""img/red_ww/7.jpg"",""time"":352},{""stimulus"":""img/red_ww/8.jpg"",""time"":407},{""stimulus"":""img/red_ww/9.jpg"",""time"":456},{""stimulus"":""img/red_ww/10.jpg"",""time"":504},{""stimulus"":""img/red_ww/11.jpg"",""time"":555}]","[]"
"image-keyboard-response","54","39287","0.0-5.0-1.25","6400ea4cec0b310140841b2d","bdp_lott","Tue Mar 28 2023 10:35:28 GMT-0400 (Eastern Daylight Time)","270388","red","green","","575","","","","choice","","img/red_ww/choose11.jpg","1","200","green","0.5","0.5","0.5","w","",""
"animation","55","39894","0.0-5.0-2.25","6400ea4cec0b310140841b2d","bdp_lott","Tue Mar 28 2023 10:35:28 GMT-0400 (Eastern Daylight Time)","270388","red","green","","","","","","","","","","200","","","","","","[{""stimulus"":""img/green_ww/1.jpg"",""time"":57},{""stimulus"":""img/green_ww/2.jpg"",""time"":103},{""stimulus"":""img/green_ww/3.jpg"",""time"":151},{""stimulus"":""img/green_ww/4.jpg"",""time"":211},{""stimulus"":""img/green_ww/5.jpg"",""time"":256},{""stimulus"":""img/green_ww/6.jpg"",""time"":303},{""stimulus"":""img/green_ww/7.jpg"",""time"":353},{""stimulus"":""img/green_ww/8.jpg"",""time"":411},{""stimulus"":""img/green_ww/9.jpg"",""time"":458},{""stimulus"":""img/green_ww/10.jpg"",""time"":503},{""stimulus"":""img/green_ww/11.jpg"",""time"":552}]","[]"
"image-keyboard-response","56","41035","0.0-5.0-1.26","6400ea4cec0b310140841b2d","bdp_lott","Tue Mar 28 2023 10:35:28 GMT-0400 (Eastern Daylight Time)","270388","red","green","","1140","","","","choice","","img/green_ww/choose11.jpg","2","199","red","0.5","0.5","0.5","w","",""
"animation","57","41640","0.0-5.0-2.26","6400ea4cec0b310140841b2d","bdp_lott","Tue Mar 28 2023 10:35:28 GMT-0400 (Eastern Daylight Time)","270388","red","green","","","","","","","","","","199","","","","","","[{""stimulus"":""img/red_ww/1.jpg"",""time"":51},{""stimulus"":""img/red_ww/2.jpg"",""time"":108},{""stimulus"":""img/red_ww/3.jpg"",""time"":155},{""stimulus"":""img/red_ww/4.jpg"",""time"":204},{""stimulus"":""img/red_ww/5.jpg"",""time"":251},{""stimulus"":""img/red_ww/6.jpg"",""time"":308},{""stimulus"":""img/red_ww/7.jpg"",""time"":356},{""stimulus"":""img/red_ww/8.jpg"",""time"":408},{""stimulus"":""img/red_ww/9.jpg"",""time"":451},{""stimulus"":""img/red_ww/10.jpg"",""time"":508},{""stimulus"":""img/red_ww/11.jpg"",""time"":555}]","[]"
"image-keyboard-response","58","42281","0.0-5.0-1.27","6400ea4cec0b310140841b2d","bdp_lott","Tue Mar 28 2023 10:35:28 GMT-0400 (Eastern Daylight Time)","270388","red","green","","641","","","","choice","","img/red_ww/choose11.jpg","1","198","green","0.5","0.5","0.5","l","",""
"animation","59","42888","0.0-5.0-2.27","6400ea4cec0b310140841b2d","bdp_lott","Tue Mar 28 2023 10:35:28 GMT-0400 (Eastern Daylight Time)","270388","red","green","","","","","","","","","","198","","","","","","[{""stimulus"":""img/green_lw/1.jpg"",""time"":56},{""stimulus"":""img/green_lw/2.jpg"",""time"":102},{""stimulus"":""img/green_lw/3.jpg"",""time"":152},{""stimulus"":""img/green_lw/4.jpg"",""time"":206},{""stimulus"":""img/green_lw/5.jpg"",""time"":256},{""stimulus"":""img/green_lw/6.jpg"",""time"":305},{""stimulus"":""img/green_lw/7.jpg"",""time"":357},{""stimulus"":""img/green_lw/8.jpg"",""time"":406},{""stimulus"":""img/green_lw/9.jpg"",""time"":456},{""stimulus"":""img/green_lw/10.jpg"",""time"":505},{""stimulus"":""img/green_lw/11.jpg"",""time"":558}]","[]"
"image-keyboard-response","60","43664","0.0-5.0-1.28","6400ea4cec0b310140841b2d","bdp_lott","Tue Mar 28 2023 10:35:28 GMT-0400 (Eastern Daylight Time)","270388","red","green","","775","","","","choice","","img/green_lw/choose11.jpg","1","197","green","0.5","0.5","0.5","l","",""
"animation","61","44271","0.0-5.0-2.28","6400ea4cec0b310140841b2d","bdp_lott","Tue Mar 28 2023 10:35:28 GMT-0400 (Eastern Daylight Time)","270388","red","green","","","","","","","","","","197","","","","","","[{""stimulus"":""img/green_lw/1.jpg"",""time"":56},{""stimulus"":""img/green_lw/2.jpg"",""time"":107},{""stimulus"":""img/green_lw/3.jpg"",""time"":161},{""stimulus"":""img/green_lw/4.jpg"",""time"":207},{""stimulus"":""img/green_lw/5.jpg"",""time"":256},{""stimulus"":""img/green_lw/6.jpg"",""time"":306},{""stimulus"":""img/green_lw/7.jpg"",""time"":354},{""stimulus"":""img/green_lw/8.jpg"",""time"":407},{""stimulus"":""img/green_lw/9.jpg"",""time"":458},{""stimulus"":""img/green_lw/10.jpg"",""time"":506},{""stimulus"":""img/green_lw/11.jpg"",""time"":560}]","[]"
"image-keyboard-response","62","45056","0.0-5.0-1.29","6400ea4cec0b310140841b2d","bdp_lott","Tue Mar 28 2023 10:35:28 GMT-0400 (Eastern Daylight Time)","270388","red","green","","784","","","","choice","","img/green_lw/choose11.jpg","1","196","green","0.5","0.5","0.5","l","",""
"animation","63","45664","0.0-5.0-2.29","6400ea4cec0b310140841b2d","bdp_lott","Tue Mar 28 2023 10:35:28 GMT-0400 (Eastern Daylight Time)","270388","red","green","","","","","","","","","","196","","","","","","[{""stimulus"":""img/green_lw/1.jpg"",""time"":51},{""stimulus"":""img/green_lw/2.jpg"",""time"":104},{""stimulus"":""img/green_lw/3.jpg"",""time"":161},{""stimulus"":""img/green_lw/4.jpg"",""time"":211},{""stimulus"":""img/green_lw/5.jpg"",""time"":254},{""stimulus"":""img/green_lw/6.jpg"",""time"":304},{""stimulus"":""img/green_lw/7.jpg"",""time"":359},{""stimulus"":""img/green_lw/8.jpg"",""time"":411},{""stimulus"":""img/green_lw/9.jpg"",""time"":454},{""stimulus"":""img/green_lw/10.jpg"",""time"":504},{""stimulus"":""img/green_lw/11.jpg"",""time"":558}]","[]"
"image-keyboard-response","64","46220","0.0-5.0-1.30","6400ea4cec0b310140841b2d","bdp_lott","Tue Mar 28 2023 10:35:28 GMT-0400 (Eastern Daylight Time)","270388","red","green","","555","","","","choice","","img/green_lw/choose11.jpg","2","195","red","0.5","0.5","0.5","w","",""
"animation","65","46822","0.0-5.0-2.30","6400ea4cec0b310140841b2d","bdp_lott","Tue Mar 28 2023 10:35:28 GMT-0400 (Eastern Daylight Time)","270388","red","green","","","","","","","","","","195","","","","","","[{""stimulus"":""img/red_lw/1.jpg"",""time"":62},{""stimulus"":""img/red_lw/2.jpg"",""time"":110},{""stimulus"":""img/red_lw/3.jpg"",""time"":154},{""stimulus"":""img/red_lw/4.jpg"",""time"":202},{""stimulus"":""img/red_lw/5.jpg"",""time"":260},{""stimulus"":""img/red_lw/6.jpg"",""time"":310},{""stimulus"":""img/red_lw/7.jpg"",""time"":355},{""stimulus"":""img/red_lw/8.jpg"",""time"":404},{""stimulus"":""img/red_lw/9.jpg"",""time"":463},{""stimulus"":""img/red_lw/10.jpg"",""time"":506},{""stimulus"":""img/red_lw/11.jpg"",""time"":554}]","[]"
"image-keyboard-response","66","47217","0.0-5.0-1.31","6400ea4cec0b310140841b2d","bdp_lott","Tue Mar 28 2023 10:35:28 GMT-0400 (Eastern Daylight Time)","270388","red","green","","395","","","","choice","","img/red_lw/choose11.jpg","1","194","green","0.5","0.5","0.5","w","",""
"animation","67","47826","0.0-5.0-2.31","6400ea4cec0b310140841b2d","bdp_lott","Tue Mar 28 2023 10:35:28 GMT-0400 (Eastern Daylight Time)","270388","red","green","","","","","","","","","","194","","","","","","[{""stimulus"":""img/green_ww/1.jpg"",""time"":55},{""stimulus"":""img/green_ww/2.jpg"",""time"":102},{""stimulus"":""img/green_ww/3.jpg"",""time"":156},{""stimulus"":""img/green_ww/4.jpg"",""time"":204},{""stimulus"":""img/green_ww/5.jpg"",""time"":252},{""stimulus"":""img/green_ww/6.jpg"",""time"":312},{""stimulus"":""img/green_ww/7.jpg"",""time"":356},{""stimulus"":""img/green_ww/8.jpg"",""time"":404},{""stimulus"":""img/green_ww/9.jpg"",""time"":456},{""stimulus"":""img/green_ww/10.jpg"",""time"":502},{""stimulus"":""img/green_ww/11.jpg"",""time"":556}]","[]"
"image-keyboard-response","68","48601","0.0-5.0-1.32","6400ea4cec0b310140841b2d","bdp_lott","Tue Mar 28 2023 10:35:28 GMT-0400 (Eastern Daylight Time)","270388","red","green","","775","","","","choice","","img/green_ww/choose11.jpg","1","193","green","0.5","0.5","0.5","w","",""
"animation","69","49209","0.0-5.0-2.32","6400ea4cec0b310140841b2d","bdp_lott","Tue Mar 28 2023 10:35:28 GMT-0400 (Eastern Daylight Time)","270388","red","green","","","","","","","","","","193","","","","","","[{""stimulus"":""img/green_ww/1.jpg"",""time"":53},{""stimulus"":""img/green_ww/2.jpg"",""time"":103},{""stimulus"":""img/green_ww/3.jpg"",""time"":157},{""stimulus"":""img/green_ww/4.jpg"",""time"":207},{""stimulus"":""img/green_ww/5.jpg"",""time"":253},{""stimulus"":""img/green_ww/6.jpg"",""time"":303},{""stimulus"":""img/green_ww/7.jpg"",""time"":360},{""stimulus"":""img/green_ww/8.jpg"",""time"":405},{""stimulus"":""img/green_ww/9.jpg"",""time"":453},{""stimulus"":""img/green_ww/10.jpg"",""time"":503},{""stimulus"":""img/green_ww/11.jpg"",""time"":558}]","[]"
"image-keyboard-response","70","49891","0.0-5.0-1.33","6400ea4cec0b310140841b2d","bdp_lott","Tue Mar 28 2023 10:35:28 GMT-0400 (Eastern Daylight Time)","270388","red","green","","681","","","","choice","","img/green_ww/choose11.jpg","2","192","red","0.5","0.5","0.5","l","",""
"animation","71","50494","0.0-5.0-2.33","6400ea4cec0b310140841b2d","bdp_lott","Tue Mar 28 2023 10:35:28 GMT-0400 (Eastern Daylight Time)","270388","red","green","","","","","","","","","","192","","","","","","[{""stimulus"":""img/red_wl/1.jpg"",""time"":61},{""stimulus"":""img/red_wl/2.jpg"",""time"":107},{""stimulus"":""img/red_wl/3.jpg"",""time"":158},{""stimulus"":""img/red_wl/4.jpg"",""time"":202},{""stimulus"":""img/red_wl/5.jpg"",""time"":262},{""stimulus"":""img/red_wl/6.jpg"",""time"":308},{""stimulus"":""img/red_wl/7.jpg"",""time"":355},{""stimulus"":""img/red_wl/8.jpg"",""time"":406},{""stimulus"":""img/red_wl/9.jpg"",""time"":462},{""stimulus"":""img/red_wl/10.jpg"",""time"":509},{""stimulus"":""img/red_wl/11.jpg"",""time"":558}]","[]"
"image-keyboard-response","72","51047","0.0-5.0-1.34","6400ea4cec0b310140841b2d","bdp_lott","Tue Mar 28 2023 10:35:28 GMT-0400 (Eastern Daylight Time)","270388","red","green","","552","","","","choice","","img/red_wl/choose11.jpg","2","191","red","0.5","0.5","0.5","l","",""
"animation","73","51655","0.0-5.0-2.34","6400ea4cec0b310140841b2d","bdp_lott","Tue Mar 28 2023 10:35:28 GMT-0400 (Eastern Daylight Time)","270388","red","green","","","","","","","","","","191","","","","","","[{""stimulus"":""img/red_wl/1.jpg"",""time"":56},{""stimulus"":""img/red_wl/2.jpg"",""time"":106},{""stimulus"":""img/red_wl/3.jpg"",""time"":159},{""stimulus"":""img/red_wl/4.jpg"",""time"":207},{""stimulus"":""img/red_wl/5.jpg"",""time"":257},{""stimulus"":""img/red_wl/6.jpg"",""time"":307},{""stimulus"":""img/red_wl/7.jpg"",""time"":359},{""stimulus"":""img/red_wl/8.jpg"",""time"":407},{""stimulus"":""img/red_wl/9.jpg"",""time"":457},{""stimulus"":""img/red_wl/10.jpg"",""time"":506},{""stimulus"":""img/red_wl/11.jpg"",""time"":560}]","[]"
"image-keyboard-response","74","52113","0.0-5.0-1.35","6400ea4cec0b310140841b2d","bdp_lott","Tue Mar 28 2023 10:35:28 GMT-0400 (Eastern Daylight Time)","270388","red","green","","456","","","","choice","","img/red_wl/choose11.jpg","1","190","green","0.5","0.5","0.5","l","",""
"animation","75","52719","0.0-5.0-2.35","6400ea4cec0b310140841b2d","bdp_lott","Tue Mar 28 2023 10:35:28 GMT-0400 (Eastern Daylight Time)","270388","red","green","","","","","","","","","","190","","","","","","[{""stimulus"":""img/green_ll/1.jpg"",""time"":58},{""stimulus"":""img/green_ll/2.jpg"",""time"":105},{""stimulus"":""img/green_ll/3.jpg"",""time"":157},{""stimulus"":""img/green_ll/4.jpg"",""time"":207},{""stimulus"":""img/green_ll/5.jpg"",""time"":257},{""stimulus"":""img/green_ll/6.jpg"",""time"":305},{""stimulus"":""img/green_ll/7.jpg"",""time"":357},{""stimulus"":""img/green_ll/8.jpg"",""time"":407},{""stimulus"":""img/green_ll/9.jpg"",""time"":457},{""stimulus"":""img/green_ll/10.jpg"",""time"":505},{""stimulus"":""img/green_ll/11.jpg"",""time"":557}]","[]"
"image-keyboard-response","76","53292","0.0-5.0-1.36","6400ea4cec0b310140841b2d","bdp_lott","Tue Mar 28 2023 10:35:28 GMT-0400 (Eastern Daylight Time)","270388","red","green","","572","","","","choice","","img/green_ll/choose11.jpg","1","189","green","0.5","0.5","0.5","l","",""
"animation","77","53895","0.0-5.0-2.36","6400ea4cec0b310140841b2d","bdp_lott","Tue Mar 28 2023 10:35:28 GMT-0400 (Eastern Daylight Time)","270388","red","green","","","","","","","","","","189","","","","","","[{""stimulus"":""img/green_ll/1.jpg"",""time"":62},{""stimulus"":""img/green_ll/2.jpg"",""time"":110},{""stimulus"":""img/green_ll/3.jpg"",""time"":158},{""stimulus"":""img/green_ll/4.jpg"",""time"":203},{""stimulus"":""img/green_ll/5.jpg"",""time"":261},{""stimulus"":""img/green_ll/6.jpg"",""time"":308},{""stimulus"":""img/green_ll/7.jpg"",""time"":354},{""stimulus"":""img/green_ll/8.jpg"",""time"":406},{""stimulus"":""img/green_ll/9.jpg"",""time"":462},{""stimulus"":""img/green_ll/10.jpg"",""time"":507},{""stimulus"":""img/green_ll/11.jpg"",""time"":558}]","[]"
"image-keyboard-response","78","54359","0.0-5.0-1.37","6400ea4cec0b310140841b2d","bdp_lott","Tue Mar 28 2023 10:35:28 GMT-0400 (Eastern Daylight Time)","270388","red","green","","464","","","","choice","","img/green_ll/choose11.jpg","2","188","red","0.5","0.5","0.5","w","",""
"animation","79","54970","0.0-5.0-2.37","6400ea4cec0b310140841b2d","bdp_lott","Tue Mar 28 2023 10:35:28 GMT-0400 (Eastern Daylight Time)","270388","red","green","","","","","","","","","","188","","","","","","[{""stimulus"":""img/red_lw/1.jpg"",""time"":59},{""stimulus"":""img/red_lw/2.jpg"",""time"":108},{""stimulus"":""img/red_lw/3.jpg"",""time"":152},{""stimulus"":""img/red_lw/4.jpg"",""time"":211},{""stimulus"":""img/red_lw/5.jpg"",""time"":260},{""stimulus"":""img/red_lw/6.jpg"",""time"":304},{""stimulus"":""img/red_lw/7.jpg"",""time"":355},{""stimulus"":""img/red_lw/8.jpg"",""time"":411},{""stimulus"":""img/red_lw/9.jpg"",""time"":456},{""stimulus"":""img/red_lw/10.jpg"",""time"":508},{""stimulus"":""img/red_lw/11.jpg"",""time"":554}]","[]"
"image-keyboard-response","80","55569","0.0-5.0-1.38","6400ea4cec0b310140841b2d","bdp_lott","Tue Mar 28 2023 10:35:28 GMT-0400 (Eastern Daylight Time)","270388","red","green","","599","","","","choice","","img/red_lw/choose11.jpg","2","187","red","0.5","0.5","0.5","w","",""
"animation","81","56174","0.0-5.0-2.38","6400ea4cec0b310140841b2d","bdp_lott","Tue Mar 28 2023 10:35:28 GMT-0400 (Eastern Daylight Time)","270388","red","green","","","","","","","","","","187","","","","","","[{""stimulus"":""img/red_lw/1.jpg"",""time"":53},{""stimulus"":""img/red_lw/2.jpg"",""time"":102},{""stimulus"":""img/red_lw/3.jpg"",""time"":157},{""stimulus"":""img/red_lw/4.jpg"",""time"":205},{""stimulus"":""img/red_lw/5.jpg"",""time"":253},{""stimulus"":""img/red_lw/6.jpg"",""time"":302},{""stimulus"":""img/red_lw/7.jpg"",""time"":357},{""stimulus"":""img/red_lw/8.jpg"",""time"":407},{""stimulus"":""img/red_lw/9.jpg"",""time"":453},{""stimulus"":""img/red_lw/10.jpg"",""time"":501},{""stimulus"":""img/red_lw/11.jpg"",""time"":561}]","[]"
"image-keyboard-response","82","56559","0.0-5.0-1.39","6400ea4cec0b310140841b2d","bdp_lott","Tue Mar 28 2023 10:35:28 GMT-0400 (Eastern Daylight Time)","270388","red","green","","385","","","","choice","","img/red_lw/choose11.jpg","2","186","red","0.5","0.5","0.5","l","",""
"animation","83","57170","0.0-5.0-2.39","6400ea4cec0b310140841b2d","bdp_lott","Tue Mar 28 2023 10:35:28 GMT-0400 (Eastern Daylight Time)","270388","red","green","","","","","","","","","","186","","","","","","[{""stimulus"":""img/red_ll/1.jpg"",""time"":58},{""stimulus"":""img/red_ll/2.jpg"",""time"":104},{""stimulus"":""img/red_ll/3.jpg"",""time"":152},{""stimulus"":""img/red_ll/4.jpg"",""time"":211},{""stimulus"":""img/red_ll/5.jpg"",""time"":260},{""stimulus"":""img/red_ll/6.jpg"",""time"":304},{""stimulus"":""img/red_ll/7.jpg"",""time"":356},{""stimulus"":""img/red_ll/8.jpg"",""time"":411},{""stimulus"":""img/red_ll/9.jpg"",""time"":458},{""stimulus"":""img/red_ll/10.jpg"",""time"":506},{""stimulus"":""img/red_ll/11.jpg"",""time"":554}]","[]"
"image-keyboard-response","84","57728","0.0-5.0-1.40","6400ea4cec0b310140841b2d","bdp_lott","Tue Mar 28 2023 10:35:28 GMT-0400 (Eastern Daylight Time)","270388","red","green","","557","","","","choice","","img/red_ll/choose11.jpg","2","185","red","0.5","0.5","0.5","w","",""
"animation","85","58336","0.0-5.0-2.40","6400ea4cec0b310140841b2d","bdp_lott","Tue Mar 28 2023 10:35:28 GMT-0400 (Eastern Daylight Time)","270388","red","green","","","","","","","","","","185","","","","","","[{""stimulus"":""img/red_lw/1.jpg"",""time"":58},{""stimulus"":""img/red_lw/2.jpg"",""time"":106},{""stimulus"":""img/red_lw/3.jpg"",""time"":159},{""stimulus"":""img/red_lw/4.jpg"",""time"":208},{""stimulus"":""img/red_lw/5.jpg"",""time"":254},{""stimulus"":""img/red_lw/6.jpg"",""time"":306},{""stimulus"":""img/red_lw/7.jpg"",""time"":358},{""stimulus"":""img/red_lw/8.jpg"",""time"":408},{""stimulus"":""img/red_lw/9.jpg"",""time"":458},{""stimulus"":""img/red_lw/10.jpg"",""time"":506},{""stimulus"":""img/red_lw/11.jpg"",""time"":562}]","[]"
"image-keyboard-response","86","58820","0.0-5.0-1.41","6400ea4cec0b310140841b2d","bdp_lott","Tue Mar 28 2023 10:35:28 GMT-0400 (Eastern Daylight Time)","270388","red","green","","483","","","","choice","","img/red_lw/choose11.jpg","2","184","red","0.5","0.5","0.5","w","",""
"animation","87","59422","0.0-5.0-2.41","6400ea4cec0b310140841b2d","bdp_lott","Tue Mar 28 2023 10:35:28 GMT-0400 (Eastern Daylight Time)","270388","red","green","","","","","","","","","","184","","","","","","[{""stimulus"":""img/red_lw/1.jpg"",""time"":59},{""stimulus"":""img/red_lw/2.jpg"",""time"":107},{""stimulus"":""img/red_lw/3.jpg"",""time"":154},{""stimulus"":""img/red_lw/4.jpg"",""time"":202},{""stimulus"":""img/red_lw/5.jpg"",""time"":263},{""stimulus"":""img/red_lw/6.jpg"",""time"":311},{""stimulus"":""img/red_lw/7.jpg"",""time"":355},{""stimulus"":""img/red_lw/8.jpg"",""time"":405},{""stimulus"":""img/red_lw/9.jpg"",""time"":458},{""stimulus"":""img/red_lw/10.jpg"",""time"":507},{""stimulus"":""img/red_lw/11.jpg"",""time"":555}]","[]"
"image-keyboard-response","88","60246","0.0-5.0-1.42","6400ea4cec0b310140841b2d","bdp_lott","Tue Mar 28 2023 10:35:28 GMT-0400 (Eastern Daylight Time)","270388","red","green","","823","","","","choice","","img/red_lw/choose11.jpg","2","183","red","0.5","0.5","0.5","w","",""
"animation","89","60858","0.0-5.0-2.42","6400ea4cec0b310140841b2d","bdp_lott","Tue Mar 28 2023 10:35:28 GMT-0400 (Eastern Daylight Time)","270388","red","green","","","","","","","","","","183","","","","","","[{""stimulus"":""img/red_lw/1.jpg"",""time"":57},{""stimulus"":""img/red_lw/2.jpg"",""time"":109},{""stimulus"":""img/red_lw/3.jpg"",""time"":153},{""stimulus"":""img/red_lw/4.jpg"",""time"":210},{""stimulus"":""img/red_lw/5.jpg"",""time"":257},{""stimulus"":""img/red_lw/6.jpg"",""time"":307},{""stimulus"":""img/red_lw/7.jpg"",""time"":354},{""stimulus"":""img/red_lw/8.jpg"",""time"":408},{""stimulus"":""img/red_lw/9.jpg"",""time"":458},{""stimulus"":""img/red_lw/10.jpg"",""time"":507},{""stimulus"":""img/red_lw/11.jpg"",""time"":557}]","[]"
"image-keyboard-response","90","61266","0.0-5.0-1.43","6400ea4cec0b310140841b2d","bdp_lott","Tue Mar 28 2023 10:35:28 GMT-0400 (Eastern Daylight Time)","270388","red","green","","408","","","","choice","","img/red_lw/choose11.jpg","2","182","red","0.5","0.5","0.5","l","",""
"animation","91","61870","0.0-5.0-2.43","6400ea4cec0b310140841b2d","bdp_lott","Tue Mar 28 2023 10:35:28 GMT-0400 (Eastern Daylight Time)","270388","red","green","","","","","","","","","","182","","","","","","[{""stimulus"":""img/red_ll/1.jpg"",""time"":53},{""stimulus"":""img/red_ll/2.jpg"",""time"":105},{""stimulus"":""img/red_ll/3.jpg"",""time"":156},{""stimulus"":""img/red_ll/4.jpg"",""time"":204},{""stimulus"":""img/red_ll/5.jpg"",""time"":254},{""stimulus"":""img/red_ll/6.jpg"",""time"":313},{""stimulus"":""img/red_ll/7.jpg"",""time"":357},{""stimulus"":""img/red_ll/8.jpg"",""time"":408},{""stimulus"":""img/red_ll/9.jpg"",""time"":452},{""stimulus"":""img/red_ll/10.jpg"",""time"":511},{""stimulus"":""img/red_ll/11.jpg"",""time"":556}]","[]"
"image-keyboard-response","92","63330","0.0-5.0-1.44","6400ea4cec0b310140841b2d","bdp_lott","Tue Mar 28 2023 10:35:28 GMT-0400 (Eastern Daylight Time)","270388","red","green","","1458","","","","choice","","img/red_ll/choose11.jpg","2","181","red","0.5","0.5","0.5","l","",""
"animation","93","63936","0.0-5.0-2.44","6400ea4cec0b310140841b2d","bdp_lott","Tue Mar 28 2023 10:35:28 GMT-0400 (Eastern Daylight Time)","270388","red","green","","","","","","","","","","181","","","","","","[{""stimulus"":""img/red_ll/1.jpg"",""time"":54},{""stimulus"":""img/red_ll/2.jpg"",""time"":105},{""stimulus"":""img/red_ll/3.jpg"",""time"":160},{""stimulus"":""img/red_ll/4.jpg"",""time"":206},{""stimulus"":""img/red_ll/5.jpg"",""time"":257},{""stimulus"":""img/red_ll/6.jpg"",""time"":308},{""stimulus"":""img/red_ll/7.jpg"",""time"":359},{""stimulus"":""img/red_ll/8.jpg"",""time"":407},{""stimulus"":""img/red_ll/9.jpg"",""time"":456},{""stimulus"":""img/red_ll/10.jpg"",""time"":501},{""stimulus"":""img/red_ll/11.jpg"",""time"":557}]","[]"
"image-keyboard-response","94","64252","0.0-5.0-1.45","6400ea4cec0b310140841b2d","bdp_lott","Tue Mar 28 2023 10:35:28 GMT-0400 (Eastern Daylight Time)","270388","red","green","","315","","","","choice","","img/red_ll/choose11.jpg","1","180","green","0.5","0.5","0.5","l","",""
"animation","95","64854","0.0-5.0-2.45","6400ea4cec0b310140841b2d","bdp_lott","Tue Mar 28 2023 10:35:28 GMT-0400 (Eastern Daylight Time)","270388","red","green","","","","","","","","","","180","","","","","","[{""stimulus"":""img/green_ll/1.jpg"",""time"":58},{""stimulus"":""img/green_ll/2.jpg"",""time"":106},{""stimulus"":""img/green_ll/3.jpg"",""time"":154},{""stimulus"":""img/green_ll/4.jpg"",""time"":203},{""stimulus"":""img/green_ll/5.jpg"",""time"":263},{""stimulus"":""img/green_ll/6.jpg"",""time"":307},{""stimulus"":""img/green_ll/7.jpg"",""time"":354},{""stimulus"":""img/green_ll/8.jpg"",""time"":403},{""stimulus"":""img/green_ll/9.jpg"",""time"":458},{""stimulus"":""img/green_ll/10.jpg"",""time"":511},{""stimulus"":""img/green_ll/11.jpg"",""time"":557}]","[]"
"image-keyboard-response","96","65422","0.0-5.0-1.46","6400ea4cec0b310140841b2d","bdp_lott","Tue Mar 28 2023 10:35:28 GMT-0400 (Eastern Daylight Time)","270388","red","green","","567","","","","choice","","img/green_ll/choose11.jpg","1","179","green","0.5","0.5","0.5","l","",""
"animation","97","66030","0.0-5.0-2.46","6400ea4cec0b310140841b2d","bdp_lott","Tue Mar 28 2023 10:35:28 GMT-0400 (Eastern Daylight Time)","270388","red","green","","","","","","","","","","179","","","","","","[{""stimulus"":""img/green_ll/1.jpg"",""time"":60},{""stimulus"":""img/green_ll/2.jpg"",""time"":109},{""stimulus"":""img/green_ll/3.jpg"",""time"":152},{""stimulus"":""img/green_ll/4.jpg"",""time"":213},{""stimulus"":""img/green_ll/5.jpg"",""time"":261},{""stimulus"":""img/green_ll/6.jpg"",""time"":305},{""stimulus"":""img/green_ll/7.jpg"",""time"":354},{""stimulus"":""img/green_ll/8.jpg"",""time"":410},{""stimulus"":""img/green_ll/9.jpg"",""time"":461},{""stimulus"":""img/green_ll/10.jpg"",""time"":506},{""stimulus"":""img/green_ll/11.jpg"",""time"":556}]","[]"
"image-keyboard-response","98","66493","0.0-5.0-1.47","6400ea4cec0b310140841b2d","bdp_lott","Tue Mar 28 2023 10:35:28 GMT-0400 (Eastern Daylight Time)","270388","red","green","","462","","","","choice","","img/green_ll/choose11.jpg","2","178","red","0.5","0.5","0.5","w","",""
"animation","99","67094","0.0-5.0-2.47","6400ea4cec0b310140841b2d","bdp_lott","Tue Mar 28 2023 10:35:28 GMT-0400 (Eastern Daylight Time)","270388","red","green","","","","","","","","","","178","","","","","","[{""stimulus"":""img/red_lw/1.jpg"",""time"":61},{""stimulus"":""img/red_lw/2.jpg"",""time"":110},{""stimulus"":""img/red_lw/3.jpg"",""time"":158},{""stimulus"":""img/red_lw/4.jpg"",""time"":206},{""stimulus"":""img/red_lw/5.jpg"",""time"":260},{""stimulus"":""img/red_lw/6.jpg"",""time"":310},{""stimulus"":""img/red_lw/7.jpg"",""time"":354},{""stimulus"":""img/red_lw/8.jpg"",""time"":406},{""stimulus"":""img/red_lw/9.jpg"",""time"":461},{""stimulus"":""img/red_lw/10.jpg"",""time"":508},{""stimulus"":""img/red_lw/11.jpg"",""time"":558}]","[]"
"image-keyboard-response","100","67970","0.0-5.0-1.48","6400ea4cec0b310140841b2d","bdp_lott","Tue Mar 28 2023 10:35:28 GMT-0400 (Eastern Daylight Time)","270388","red","green","","875","","","","choice","","img/red_lw/choose11.jpg","2","177","red","0.5","0.5","0.5","l","",""
"animation","101","68575","0.0-5.0-2.48","6400ea4cec0b310140841b2d","bdp_lott","Tue Mar 28 2023 10:35:28 GMT-0400 (Eastern Daylight Time)","270388","red","green","","","","","","","","","","177","","","","","","[{""stimulus"":""img/red_ll/1.jpg"",""time"":52},{""stimulus"":""img/red_ll/2.jpg"",""time"":113},{""stimulus"":""img/red_ll/3.jpg"",""time"":156},{""stimulus"":""img/red_ll/4.jpg"",""time"":205},{""stimulus"":""img/red_ll/5.jpg"",""time"":253},{""stimulus"":""img/red_ll/6.jpg"",""time"":313},{""stimulus"":""img/red_ll/7.jpg"",""time"":357},{""stimulus"":""img/red_ll/8.jpg"",""time"":406},{""stimulus"":""img/red_ll/9.jpg"",""time"":456},{""stimulus"":""img/red_ll/10.jpg"",""time"":509},{""stimulus"":""img/red_ll/11.jpg"",""time"":560}]","[]"
"image-keyboard-response","102","69746","0.0-5.0-1.49","6400ea4cec0b310140841b2d","bdp_lott","Tue Mar 28 2023 10:35:28 GMT-0400 (Eastern Daylight Time)","270388","red","green","","1170","","","","choice","","img/red_ll/choose11.jpg","1","176","green","0.5","0.5","0.5","w","",""
"animation","103","70353","0.0-5.0-2.49","6400ea4cec0b310140841b2d","bdp_lott","Tue Mar 28 2023 10:35:28 GMT-0400 (Eastern Daylight Time)","270388","red","green","","","","","","","","","","176","","","","","","[{""stimulus"":""img/green_wl/1.jpg"",""time"":54},{""stimulus"":""img/green_wl/2.jpg"",""time"":108},{""stimulus"":""img/green_wl/3.jpg"",""time"":156},{""stimulus"":""img/green_wl/4.jpg"",""time"":206},{""stimulus"":""img/green_wl/5.jpg"",""time"":256},{""stimulus"":""img/green_wl/6.jpg"",""time"":309},{""stimulus"":""img/green_wl/7.jpg"",""time"":355},{""stimulus"":""img/green_wl/8.jpg"",""time"":406},{""stimulus"":""img/green_wl/9.jpg"",""time"":453},{""stimulus"":""img/green_wl/10.jpg"",""time"":508},{""stimulus"":""img/green_wl/11.jpg"",""time"":557}]","[]"
"image-keyboard-response","104","70927","0.0-5.0-1.50","6400ea4cec0b310140841b2d","bdp_lott","Tue Mar 28 2023 10:35:28 GMT-0400 (Eastern Daylight Time)","270388","red","green","","574","","","","choice","","img/green_wl/choose11.jpg","1","175","green","0.5","0.5","0.5","w","",""
"animation","105","71536","0.0-5.0-2.50","6400ea4cec0b310140841b2d","bdp_lott","Tue Mar 28 2023 10:35:28 GMT-0400 (Eastern Daylight Time)","270388","red","green","","","","","","","","","","175","","","","","","[{""stimulus"":""img/green_wl/1.jpg"",""time"":59},{""stimulus"":""img/green_wl/2.jpg"",""time"":103},{""stimulus"":""img/green_wl/3.jpg"",""time"":153},{""stimulus"":""img/green_wl/4.jpg"",""time"":209},{""stimulus"":""img/green_wl/5.jpg"",""time"":256},{""stimulus"":""img/green_wl/6.jpg"",""time"":307},{""stimulus"":""img/green_wl/7.jpg"",""time"":351},{""stimulus"":""img/green_wl/8.jpg"",""time"":409},{""stimulus"":""img/green_wl/9.jpg"",""time"":459},{""stimulus"":""img/green_wl/10.jpg"",""time"":505},{""stimulus"":""img/green_wl/11.jpg"",""time"":555}]","[]"
"image-keyboard-response","106","71950","0.0-5.0-1.51","6400ea4cec0b310140841b2d","bdp_lott","Tue Mar 28 2023 10:35:28 GMT-0400 (Eastern Daylight Time)","270388","red","green","","413","","","","choice","","img/green_wl/choose11.jpg","1","174","green","0.5","0.5","0.5","w","",""
"animation","107","72558","0.0-5.0-2.51","6400ea4cec0b310140841b2d","bdp_lott","Tue Mar 28 2023 10:35:28 GMT-0400 (Eastern Daylight Time)","270388","red","green","","","","","","","","","","174","","","","","","[{""stimulus"":""img/green_wl/1.jpg"",""time"":56},{""stimulus"":""img/green_wl/2.jpg"",""time"":107},{""stimulus"":""img/green_wl/3.jpg"",""time"":153},{""stimulus"":""img/green_wl/4.jpg"",""time"":211},{""stimulus"":""img/green_wl/5.jpg"",""time"":253},{""stimulus"":""img/green_wl/6.jpg"",""time"":307},{""stimulus"":""img/green_wl/7.jpg"",""time"":352},{""stimulus"":""img/green_wl/8.jpg"",""time"":408},{""stimulus"":""img/green_wl/9.jpg"",""time"":460},{""stimulus"":""img/green_wl/10.jpg"",""time"":504},{""stimulus"":""img/green_wl/11.jpg"",""time"":553}]","[]"
"image-keyboard-response","108","74513","0.0-5.0-1.52","6400ea4cec0b310140841b2d","bdp_lott","Tue Mar 28 2023 10:35:28 GMT-0400 (Eastern Daylight Time)","270388","red","green","","1954","","","","choice","","img/green_wl/choose11.jpg","1","173","green","0.5","0.5","0.5","w","",""
"animation","109","75122","0.0-5.0-2.52","6400ea4cec0b310140841b2d","bdp_lott","Tue Mar 28 2023 10:35:28 GMT-0400 (Eastern Daylight Time)","270388","red","green","","","","","","","","","","173","","","","","","[{""stimulus"":""img/green_wl/1.jpg"",""time"":56},{""stimulus"":""img/green_wl/2.jpg"",""time"":104},{""stimulus"":""img/green_wl/3.jpg"",""time"":158},{""stimulus"":""img/green_wl/4.jpg"",""time"":206},{""stimulus"":""img/green_wl/5.jpg"",""time"":256},{""stimulus"":""img/green_wl/6.jpg"",""time"":302},{""stimulus"":""img/green_wl/7.jpg"",""time"":360},{""stimulus"":""img/green_wl/8.jpg"",""time"":406},{""stimulus"":""img/green_wl/9.jpg"",""time"":456},{""stimulus"":""img/green_wl/10.jpg"",""time"":506},{""stimulus"":""img/green_wl/11.jpg"",""time"":558}]","[]"
"image-keyboard-response","110","75682","0.0-5.0-1.53","6400ea4cec0b310140841b2d","bdp_lott","Tue Mar 28 2023 10:35:28 GMT-0400 (Eastern Daylight Time)","270388","red","green","","559","","","","choice","","img/green_wl/choose11.jpg","1","172","green","0.5","0.5","0.5","w","",""
"animation","111","76288","0.0-5.0-2.53","6400ea4cec0b310140841b2d","bdp_lott","Tue Mar 28 2023 10:35:28 GMT-0400 (Eastern Daylight Time)","270388","red","green","","","","","","","","","","172","","","","","","[{""stimulus"":""img/green_wl/1.jpg"",""time"":54},{""stimulus"":""img/green_wl/2.jpg"",""time"":104},{""stimulus"":""img/green_wl/3.jpg"",""time"":156},{""stimulus"":""img/green_wl/4.jpg"",""time"":205},{""stimulus"":""img/green_wl/5.jpg"",""time"":253},{""stimulus"":""img/green_wl/6.jpg"",""time"":313},{""stimulus"":""img/green_wl/7.jpg"",""time"":356},{""stimulus"":""img/green_wl/8.jpg"",""time"":405},{""stimulus"":""img/green_wl/9.jpg"",""time"":454},{""stimulus"":""img/green_wl/10.jpg"",""time"":504},{""stimulus"":""img/green_wl/11.jpg"",""time"":556}]","[]"
"image-keyboard-response","112","76890","0.0-5.0-1.54","6400ea4cec0b310140841b2d","bdp_lott","Tue Mar 28 2023 10:35:28 GMT-0400 (Eastern Daylight Time)","270388","red","green","","601","","","","choice","","img/green_wl/choose11.jpg","1","171","green","0.5","0.5","0.5","l","",""
"animation","113","77495","0.0-5.0-2.54","6400ea4cec0b310140841b2d","bdp_lott","Tue Mar 28 2023 10:35:28 GMT-0400 (Eastern Daylight Time)","270388","red","green","","","","","","","","","","171","","","","","","[{""stimulus"":""img/green_ll/1.jpg"",""time"":56},{""stimulus"":""img/green_ll/2.jpg"",""time"":112},{""stimulus"":""img/green_ll/3.jpg"",""time"":157},{""stimulus"":""img/green_ll/4.jpg"",""time"":208},{""stimulus"":""img/green_ll/5.jpg"",""time"":253},{""stimulus"":""img/green_ll/6.jpg"",""time"":311},{""stimulus"":""img/green_ll/7.jpg"",""time"":357},{""stimulus"":""img/green_ll/8.jpg"",""time"":405},{""stimulus"":""img/green_ll/9.jpg"",""time"":456},{""stimulus"":""img/green_ll/10.jpg"",""time"":512},{""stimulus"":""img/green_ll/11.jpg"",""time"":560}]","[]"
"image-keyboard-response","114","78355","0.0-5.0-1.55","6400ea4cec0b310140841b2d","bdp_lott","Tue Mar 28 2023 10:35:28 GMT-0400 (Eastern Daylight Time)","270388","red","green","","858","","","","choice","","img/green_ll/choose11.jpg","1","170","green","0.5","0.5","0.5","l","",""
"animation","115","78958","0.0-5.0-2.55","6400ea4cec0b310140841b2d","bdp_lott","Tue Mar 28 2023 10:35:28 GMT-0400 (Eastern Daylight Time)","270388","red","green","","","","","","","","","","170","","","","","","[{""stimulus"":""img/green_ll/1.jpg"",""time"":51},{""stimulus"":""img/green_ll/2.jpg"",""time"":110},{""stimulus"":""img/green_ll/3.jpg"",""time"":160},{""stimulus"":""img/green_ll/4.jpg"",""time"":205},{""stimulus"":""img/green_ll/5.jpg"",""time"":251},{""stimulus"":""img/green_ll/6.jpg"",""time"":311},{""stimulus"":""img/green_ll/7.jpg"",""time"":359},{""stimulus"":""img/green_ll/8.jpg"",""time"":403},{""stimulus"":""img/green_ll/9.jpg"",""time"":455},{""stimulus"":""img/green_ll/10.jpg"",""time"":512},{""stimulus"":""img/green_ll/11.jpg"",""time"":556}]","[]"
"image-keyboard-response","116","79520","0.0-5.0-1.56","6400ea4cec0b310140841b2d","bdp_lott","Tue Mar 28 2023 10:35:28 GMT-0400 (Eastern Daylight Time)","270388","red","green","","561","","","","choice","","img/green_ll/choose11.jpg","2","169","red","0.5","0.5","0.5","l","",""
"animation","117","80126","0.0-5.0-2.56","6400ea4cec0b310140841b2d","bdp_lott","Tue Mar 28 2023 10:35:28 GMT-0400 (Eastern Daylight Time)","270388","red","green","","","","","","","","","","169","","","","","","[{""stimulus"":""img/red_ll/1.jpg"",""time"":54},{""stimulus"":""img/red_ll/2.jpg"",""time"":102},{""stimulus"":""img/red_ll/3.jpg"",""time"":162},{""stimulus"":""img/red_ll/4.jpg"",""time"":210},{""stimulus"":""img/red_ll/5.jpg"",""time"":253},{""stimulus"":""img/red_ll/6.jpg"",""time"":301},{""stimulus"":""img/red_ll/7.jpg"",""time"":362},{""stimulus"":""img/red_ll/8.jpg"",""time"":407},{""stimulus"":""img/red_ll/9.jpg"",""time"":454},{""stimulus"":""img/red_ll/10.jpg"",""time"":501},{""stimulus"":""img/red_ll/11.jpg"",""time"":557}]","[]"
"image-keyboard-response","118","80529","0.0-5.0-1.57","6400ea4cec0b310140841b2d","bdp_lott","Tue Mar 28 2023 10:35:28 GMT-0400 (Eastern Daylight Time)","270388","red","green","","403","","","","choice","","img/red_ll/choose11.jpg","2","168","red","0.5","0.5","0.5","w","",""
"animation","119","81136","0.0-5.0-2.57","6400ea4cec0b310140841b2d","bdp_lott","Tue Mar 28 2023 10:35:28 GMT-0400 (Eastern Daylight Time)","270388","red","green","","","","","","","","","","168","","","","","","[{""stimulus"":""img/red_lw/1.jpg"",""time"":57},{""stimulus"":""img/red_lw/2.jpg"",""time"":103},{""stimulus"":""img/red_lw/3.jpg"",""time"":158},{""stimulus"":""img/red_lw/4.jpg"",""time"":208},{""stimulus"":""img/red_lw/5.jpg"",""time"":258},{""stimulus"":""img/red_lw/6.jpg"",""time"":304},{""stimulus"":""img/red_lw/7.jpg"",""time"":360},{""stimulus"":""img/red_lw/8.jpg"",""time"":407},{""stimulus"":""img/red_lw/9.jpg"",""time"":458},{""stimulus"":""img/red_lw/10.jpg"",""time"":502},{""stimulus"":""img/red_lw/11.jpg"",""time"":559}]","[]"
"image-keyboard-response","120","81737","0.0-5.0-1.58","6400ea4cec0b310140841b2d","bdp_lott","Tue Mar 28 2023 10:35:28 GMT-0400 (Eastern Daylight Time)","270388","red","green","","599","","","","choice","","img/red_lw/choose11.jpg","1","167","green","0.5","0.5","0.5","w","",""
"animation","121","82346","0.0-5.0-2.58","6400ea4cec0b310140841b2d","bdp_lott","Tue Mar 28 2023 10:35:28 GMT-0400 (Eastern Daylight Time)","270388","red","green","","","","","","","","","","167","","","","","","[{""stimulus"":""img/green_ww/1.jpg"",""time"":56},{""stimulus"":""img/green_ww/2.jpg"",""time"":104},{""stimulus"":""img/green_ww/3.jpg"",""time"":161},{""stimulus"":""img/green_ww/4.jpg"",""time"":210},{""stimulus"":""img/green_ww/5.jpg"",""time"":258},{""stimulus"":""img/green_ww/6.jpg"",""time"":304},{""stimulus"":""img/green_ww/7.jpg"",""time"":362},{""stimulus"":""img/green_ww/8.jpg"",""time"":406},{""stimulus"":""img/green_ww/9.jpg"",""time"":455},{""stimulus"":""img/green_ww/10.jpg"",""time"":504},{""stimulus"":""img/green_ww/11.jpg"",""time"":562}]","[]"
"image-keyboard-response","122","82925","0.0-5.0-1.59","6400ea4cec0b310140841b2d","bdp_lott","Tue Mar 28 2023 10:35:28 GMT-0400 (Eastern Daylight Time)","270388","red","green","","578","","","","choice","","img/green_ww/choose11.jpg","2","166","red","0.5","0.5","0.5","l","",""
"animation","123","83528","0.0-5.0-2.59","6400ea4cec0b310140841b2d","bdp_lott","Tue Mar 28 2023 10:35:28 GMT-0400 (Eastern Daylight Time)","270388","red","green","","","","","","","","","","166","","","","","","[{""stimulus"":""img/red_wl/1.jpg"",""time"":61},{""stimulus"":""img/red_wl/2.jpg"",""time"":106},{""stimulus"":""img/red_wl/3.jpg"",""time"":153},{""stimulus"":""img/red_wl/4.jpg"",""time"":206},{""stimulus"":""img/red_wl/5.jpg"",""time"":253},{""stimulus"":""img/red_wl/6.jpg"",""time"":309},{""stimulus"":""img/red_wl/7.jpg"",""time"":354},{""stimulus"":""img/red_wl/8.jpg"",""time"":401},{""stimulus"":""img/red_wl/9.jpg"",""time"":461},{""stimulus"":""img/red_wl/10.jpg"",""time"":508},{""stimulus"":""img/red_wl/11.jpg"",""time"":558}]","[]"
"image-keyboard-response","124","84923","0.0-5.0-1.60","6400ea4cec0b310140841b2d","bdp_lott","Tue Mar 28 2023 10:35:28 GMT-0400 (Eastern Daylight Time)","270388","red","green","","1394","","","","choice","","img/red_wl/choose11.jpg","2","165","red","0.5","0.5","0.5","w","",""
"animation","125","85526","0.0-5.0-2.60","6400ea4cec0b310140841b2d","bdp_lott","Tue Mar 28 2023 10:35:28 GMT-0400 (Eastern Daylight Time)","270388","red","green","","","","","","","","","","165","","","","","","[{""stimulus"":""img/red_ww/1.jpg"",""time"":50},{""stimulus"":""img/red_ww/2.jpg"",""time"":106},{""stimulus"":""img/red_ww/3.jpg"",""time"":157},{""stimulus"":""img/red_ww/4.jpg"",""time"":202},{""stimulus"":""img/red_ww/5.jpg"",""time"":251},{""stimulus"":""img/red_ww/6.jpg"",""time"":309},{""stimulus"":""img/red_ww/7.jpg"",""time"":355},{""stimulus"":""img/red_ww/8.jpg"",""time"":406},{""stimulus"":""img/red_ww/9.jpg"",""time"":452},{""stimulus"":""img/red_ww/10.jpg"",""time"":509},{""stimulus"":""img/red_ww/11.jpg"",""time"":559}]","[]"
"image-keyboard-response","126","86094","0.0-5.0-1.61","6400ea4cec0b310140841b2d","bdp_lott","Tue Mar 28 2023 10:35:28 GMT-0400 (Eastern Daylight Time)","270388","red","green","","567","","","","choice","","img/red_ww/choose11.jpg","1","164","green","0.5","0.5","0.5","w","",""
"animation","127","86706","0.0-5.0-2.61","6400ea4cec0b310140841b2d","bdp_lott","Tue Mar 28 2023 10:35:28 GMT-0400 (Eastern Daylight Time)","270388","red","green","","","","","","","","","","164","","","","","","[{""stimulus"":""img/green_ww/1.jpg"",""time"":59},{""stimulus"":""img/green_ww/2.jpg"",""time"":108},{""stimulus"":""img/green_ww/3.jpg"",""time"":155},{""stimulus"":""img/green_ww/4.jpg"",""time"":209},{""stimulus"":""img/green_ww/5.jpg"",""time"":259},{""stimulus"":""img/green_ww/6.jpg"",""time"":308},{""stimulus"":""img/green_ww/7.jpg"",""time"":356},{""stimulus"":""img/green_ww/8.jpg"",""time"":408},{""stimulus"":""img/green_ww/9.jpg"",""time"":459},{""stimulus"":""img/green_ww/10.jpg"",""time"":509},{""stimulus"":""img/green_ww/11.jpg"",""time"":557}]","[]"
"image-keyboard-response","128","87588","0.0-5.0-1.62","6400ea4cec0b310140841b2d","bdp_lott","Tue Mar 28 2023 10:35:28 GMT-0400 (Eastern Daylight Time)","270388","red","green","","881","","","","choice","","img/green_ww/choose11.jpg","1","163","green","0.5","0.5","0.5","w","",""
"animation","129","88190","0.0-5.0-2.62","6400ea4cec0b310140841b2d","bdp_lott","Tue Mar 28 2023 10:35:28 GMT-0400 (Eastern Daylight Time)","270388","red","green","","","","","","","","","","163","","","","","","[{""stimulus"":""img/green_ww/1.jpg"",""time"":62},{""stimulus"":""img/green_ww/2.jpg"",""time"":110},{""stimulus"":""img/green_ww/3.jpg"",""time"":156},{""stimulus"":""img/green_ww/4.jpg"",""time"":206},{""stimulus"":""img/green_ww/5.jpg"",""time"":257},{""stimulus"":""img/green_ww/6.jpg"",""time"":305},{""stimulus"":""img/green_ww/7.jpg"",""time"":353},{""stimulus"":""img/green_ww/8.jpg"",""time"":406},{""stimulus"":""img/green_ww/9.jpg"",""time"":458},{""stimulus"":""img/green_ww/10.jpg"",""time"":510},{""stimulus"":""img/green_ww/11.jpg"",""time"":553}]","[]"
"image-keyboard-response","130","89158","0.0-5.0-1.63","6400ea4cec0b310140841b2d","bdp_lott","Tue Mar 28 2023 10:35:28 GMT-0400 (Eastern Daylight Time)","270388","red","green","","967","","","","choice","","img/green_ww/choose11.jpg","2","162","red","0.5","0.5","0.5","w","",""
"animation","131","89769","0.0-5.0-2.63","6400ea4cec0b310140841b2d","bdp_lott","Tue Mar 28 2023 10:35:28 GMT-0400 (Eastern Daylight Time)","270388","red","green","","","","","","","","","","162","","","","","","[{""stimulus"":""img/red_ww/1.jpg"",""time"":59},{""stimulus"":""img/red_ww/2.jpg"",""time"":103},{""stimulus"":""img/red_ww/3.jpg"",""time"":153},{""stimulus"":""img/red_ww/4.jpg"",""time"":210},{""stimulus"":""img/red_ww/5.jpg"",""time"":260},{""stimulus"":""img/red_ww/6.jpg"",""time"":306},{""stimulus"":""img/red_ww/7.jpg"",""time"":351},{""stimulus"":""img/red_ww/8.jpg"",""time"":410},{""stimulus"":""img/red_ww/9.jpg"",""time"":459},{""stimulus"":""img/red_ww/10.jpg"",""time"":503},{""stimulus"":""img/red_ww/11.jpg"",""time"":552}]","[]"
"image-keyboard-response","132","90821","0.0-5.0-1.64","6400ea4cec0b310140841b2d","bdp_lott","Tue Mar 28 2023 10:35:28 GMT-0400 (Eastern Daylight Time)","270388","red","green","","1051","","","","choice","","img/red_ww/choose11.jpg","2","161","red","0.5","0.5","0.5","l","",""
"animation","133","91422","0.0-5.0-2.64","6400ea4cec0b310140841b2d","bdp_lott","Tue Mar 28 2023 10:35:28 GMT-0400 (Eastern Daylight Time)","270388","red","green","","","","","","","","","","161","","","","","","[{""stimulus"":""img/red_wl/1.jpg"",""time"":62},{""stimulus"":""img/red_wl/2.jpg"",""time"":110},{""stimulus"":""img/red_wl/3.jpg"",""time"":154},{""stimulus"":""img/red_wl/4.jpg"",""time"":201},{""stimulus"":""img/red_wl/5.jpg"",""time"":261},{""stimulus"":""img/red_wl/6.jpg"",""time"":308},{""stimulus"":""img/red_wl/7.jpg"",""time"":356},{""stimulus"":""img/red_wl/8.jpg"",""time"":405},{""stimulus"":""img/red_wl/9.jpg"",""time"":461},{""stimulus"":""img/red_wl/10.jpg"",""time"":507},{""stimulus"":""img/red_wl/11.jpg"",""time"":554}]","[]"
"image-keyboard-response","134","92110","0.0-5.0-1.65","6400ea4cec0b310140841b2d","bdp_lott","Tue Mar 28 2023 10:35:28 GMT-0400 (Eastern Daylight Time)","270388","red","green","","687","","","","choice","","img/red_wl/choose11.jpg","2","160","red","0.5","0.5","0.5","w","",""
"animation","135","92720","0.0-5.0-2.65","6400ea4cec0b310140841b2d","bdp_lott","Tue Mar 28 2023 10:35:28 GMT-0400 (Eastern Daylight Time)","270388","red","green","","","","","","","","","","160","","","","","","[{""stimulus"":""img/red_ww/1.jpg"",""time"":60},{""stimulus"":""img/red_ww/2.jpg"",""time"":104},{""stimulus"":""img/red_ww/3.jpg"",""time"":154},{""stimulus"":""img/red_ww/4.jpg"",""time"":209},{""stimulus"":""img/red_ww/5.jpg"",""time"":259},{""stimulus"":""img/red_ww/6.jpg"",""time"":308},{""stimulus"":""img/red_ww/7.jpg"",""time"":352},{""stimulus"":""img/red_ww/8.jpg"",""time"":411},{""stimulus"":""img/red_ww/9.jpg"",""time"":460},{""stimulus"":""img/red_ww/10.jpg"",""time"":509},{""stimulus"":""img/red_ww/11.jpg"",""time"":557}]","[]"
"image-keyboard-response","136","93318","0.0-5.0-1.66","6400ea4cec0b310140841b2d","bdp_lott","Tue Mar 28 2023 10:35:28 GMT-0400 (Eastern Daylight Time)","270388","red","green","","598","","","","choice","","img/red_ww/choose11.jpg","1","159","green","0.5","0.5","0.5","w","",""
"animation","137","93926","0.0-5.0-2.66","6400ea4cec0b310140841b2d","bdp_lott","Tue Mar 28 2023 10:35:28 GMT-0400 (Eastern Daylight Time)","270388","red","green","","","","","","","","","","159","","","","","","[{""stimulus"":""img/green_ww/1.jpg"",""time"":56},{""stimulus"":""img/green_ww/2.jpg"",""time"":105},{""stimulus"":""img/green_ww/3.jpg"",""time"":153},{""stimulus"":""img/green_ww/4.jpg"",""time"":208},{""stimulus"":""img/green_ww/5.jpg"",""time"":256},{""stimulus"":""img/green_ww/6.jpg"",""time"":304},{""stimulus"":""img/green_ww/7.jpg"",""time"":352},{""stimulus"":""img/green_ww/8.jpg"",""time"":413},{""stimulus"":""img/green_ww/9.jpg"",""time"":457},{""stimulus"":""img/green_ww/10.jpg"",""time"":506},{""stimulus"":""img/green_ww/11.jpg"",""time"":557}]","[]"
"image-keyboard-response","138","94356","0.0-5.0-1.67","6400ea4cec0b310140841b2d","bdp_lott","Tue Mar 28 2023 10:35:28 GMT-0400 (Eastern Daylight Time)","270388","red","green","","429","","","","choice","","img/green_ww/choose11.jpg","1","158","green","0.5","0.5","0.5","l","",""
"animation","139","94960","0.0-5.0-2.67","6400ea4cec0b310140841b2d","bdp_lott","Tue Mar 28 2023 10:35:28 GMT-0400 (Eastern Daylight Time)","270388","red","green","","","","","","","","","","158","","","","","","[{""stimulus"":""img/green_lw/1.jpg"",""time"":63},{""stimulus"":""img/green_lw/2.jpg"",""time"":109},{""stimulus"":""img/green_lw/3.jpg"",""time"":159},{""stimulus"":""img/green_lw/4.jpg"",""time"":202},{""stimulus"":""img/green_lw/5.jpg"",""time"":261},{""stimulus"":""img/green_lw/6.jpg"",""time"":311},{""stimulus"":""img/green_lw/7.jpg"",""time"":356},{""stimulus"":""img/green_lw/8.jpg"",""time"":406},{""stimulus"":""img/green_lw/9.jpg"",""time"":463},{""stimulus"":""img/green_lw/10.jpg"",""time"":511},{""stimulus"":""img/green_lw/11.jpg"",""time"":559}]","[]"
"image-keyboard-response","140","95479","0.0-5.0-1.68","6400ea4cec0b310140841b2d","bdp_lott","Tue Mar 28 2023 10:35:28 GMT-0400 (Eastern Daylight Time)","270388","red","green","","519","","","","choice","","img/green_lw/choose11.jpg","1","157","green","0.5","0.5","0.5","w","",""
"animation","141","96089","0.0-5.0-2.68","6400ea4cec0b310140841b2d","bdp_lott","Tue Mar 28 2023 10:35:28 GMT-0400 (Eastern Daylight Time)","270388","red","green","","","","","","","","","","157","","","","","","[{""stimulus"":""img/green_ww/1.jpg"",""time"":57},{""stimulus"":""img/green_ww/2.jpg"",""time"":106},{""stimulus"":""img/green_ww/3.jpg"",""time"":152},{""stimulus"":""img/green_ww/4.jpg"",""time"":208},{""stimulus"":""img/green_ww/5.jpg"",""time"":258},{""stimulus"":""img/green_ww/6.jpg"",""time"":308},{""stimulus"":""img/green_ww/7.jpg"",""time"":356},{""stimulus"":""img/green_ww/8.jpg"",""time"":410},{""stimulus"":""img/green_ww/9.jpg"",""time"":458},{""stimulus"":""img/green_ww/10.jpg"",""time"":508},{""stimulus"":""img/green_ww/11.jpg"",""time"":552}]","[]"
"image-keyboard-response","142","96722","0.0-5.0-1.69","6400ea4cec0b310140841b2d","bdp_lott","Tue Mar 28 2023 10:35:28 GMT-0400 (Eastern Daylight Time)","270388","red","green","","632","","","","choice","","img/green_ww/choose11.jpg","2","156","red","0.5","0.5","0.5","l","",""
"animation","143","97327","0.0-5.0-2.69","6400ea4cec0b310140841b2d","bdp_lott","Tue Mar 28 2023 10:35:28 GMT-0400 (Eastern Daylight Time)","270388","red","green","","","","","","","","","","156","","","","","","[{""stimulus"":""img/red_wl/1.jpg"",""time"":53},{""stimulus"":""img/red_wl/2.jpg"",""time"":107},{""stimulus"":""img/red_wl/3.jpg"",""time"":160},{""stimulus"":""img/red_wl/4.jpg"",""time"":208},{""stimulus"":""img/red_wl/5.jpg"",""time"":257},{""stimulus"":""img/red_wl/6.jpg"",""time"":308},{""stimulus"":""img/red_wl/7.jpg"",""time"":361},{""stimulus"":""img/red_wl/8.jpg"",""time"":409},{""stimulus"":""img/red_wl/9.jpg"",""time"":452},{""stimulus"":""img/red_wl/10.jpg"",""time"":511},{""stimulus"":""img/red_wl/11.jpg"",""time"":561}]","[]"
"image-keyboard-response","144","97955","0.0-5.0-1.70","6400ea4cec0b310140841b2d","bdp_lott","Tue Mar 28 2023 10:35:28 GMT-0400 (Eastern Daylight Time)","270388","red","green","","627","","","","choice","","img/red_wl/choose11.jpg","1","155","green","0.5","0.5","0.5","w","",""
"animation","145","98558","0.0-5.0-2.70","6400ea4cec0b310140841b2d","bdp_lott","Tue Mar 28 2023 10:35:28 GMT-0400 (Eastern Daylight Time)","270388","red","green","","","","","","","","","","155","","","","","","[{""stimulus"":""img/green_wl/1.jpg"",""time"":51},{""stimulus"":""img/green_wl/2.jpg"",""time"":111},{""stimulus"":""img/green_wl/3.jpg"",""time"":158},{""stimulus"":""img/green_wl/4.jpg"",""time"":204},{""stimulus"":""img/green_wl/5.jpg"",""time"":251},{""stimulus"":""img/green_wl/6.jpg"",""time"":312},{""stimulus"":""img/green_wl/7.jpg"",""time"":358},{""stimulus"":""img/green_wl/8.jpg"",""time"":405},{""stimulus"":""img/green_wl/9.jpg"",""time"":451},{""stimulus"":""img/green_wl/10.jpg"",""time"":508},{""stimulus"":""img/green_wl/11.jpg"",""time"":559}]","[]"
"image-keyboard-response","146","98969","0.0-5.0-1.71","6400ea4cec0b310140841b2d","bdp_lott","Tue Mar 28 2023 10:35:28 GMT-0400 (Eastern Daylight Time)","270388","red","green","","410","","","","choice","","img/green_wl/choose11.jpg","1","154","green","0.5","0.5","0.5","l","",""
"animation","147","99575","0.0-5.0-2.71","6400ea4cec0b310140841b2d","bdp_lott","Tue Mar 28 2023 10:35:28 GMT-0400 (Eastern Daylight Time)","270388","red","green","","","","","","","","","","154","","","","","","[{""stimulus"":""img/green_ll/1.jpg"",""time"":52},{""stimulus"":""img/green_ll/2.jpg"",""time"":100},{""stimulus"":""img/green_ll/3.jpg"",""time"":157},{""stimulus"":""img/green_ll/4.jpg"",""time"":207},{""stimulus"":""img/green_ll/5.jpg"",""time"":253},{""stimulus"":""img/green_ll/6.jpg"",""time"":313},{""stimulus"":""img/green_ll/7.jpg"",""time"":361},{""stimulus"":""img/green_ll/8.jpg"",""time"":406},{""stimulus"":""img/green_ll/9.jpg"",""time"":452},{""stimulus"":""img/green_ll/10.jpg"",""time"":501},{""stimulus"":""img/green_ll/11.jpg"",""time"":556}]","[]"
"image-keyboard-response","148","100223","0.0-5.0-1.72","6400ea4cec0b310140841b2d","bdp_lott","Tue Mar 28 2023 10:35:28 GMT-0400 (Eastern Daylight Time)","270388","red","green","","648","","","","choice","","img/green_ll/choose11.jpg","1","153","green","0.5","0.5","0.5","w","",""
"animation","149","100835","0.0-5.0-2.72","6400ea4cec0b310140841b2d","bdp_lott","Tue Mar 28 2023 10:35:28 GMT-0400 (Eastern Daylight Time)","270388","red","green","","","","","","","","","","153","","","","","","[{""stimulus"":""img/green_wl/1.jpg"",""time"":59},{""stimulus"":""img/green_wl/2.jpg"",""time"":103},{""stimulus"":""img/green_wl/3.jpg"",""time"":151},{""stimulus"":""img/green_wl/4.jpg"",""time"":209},{""stimulus"":""img/green_wl/5.jpg"",""time"":257},{""stimulus"":""img/green_wl/6.jpg"",""time"":303},{""stimulus"":""img/green_wl/7.jpg"",""time"":354},{""stimulus"":""img/green_wl/8.jpg"",""time"":406},{""stimulus"":""img/green_wl/9.jpg"",""time"":457},{""stimulus"":""img/green_wl/10.jpg"",""time"":507},{""stimulus"":""img/green_wl/11.jpg"",""time"":550}]","[]"
"image-keyboard-response","150","101203","0.0-5.0-1.73","6400ea4cec0b310140841b2d","bdp_lott","Tue Mar 28 2023 10:35:28 GMT-0400 (Eastern Daylight Time)","270388","red","green","","368","","","","choice","","img/green_wl/choose11.jpg","2","152","red","0.5","0.5","0.5","w","",""
"animation","151","101806","0.0-5.0-2.73","6400ea4cec0b310140841b2d","bdp_lott","Tue Mar 28 2023 10:35:28 GMT-0400 (Eastern Daylight Time)","270388","red","green","","","","","","","","","","152","","","","","","[{""stimulus"":""img/red_ww/1.jpg"",""time"":54},{""stimulus"":""img/red_ww/2.jpg"",""time"":108},{""stimulus"":""img/red_ww/3.jpg"",""time"":156},{""stimulus"":""img/red_ww/4.jpg"",""time"":203},{""stimulus"":""img/red_ww/5.jpg"",""time"":251},{""stimulus"":""img/red_ww/6.jpg"",""time"":310},{""stimulus"":""img/red_ww/7.jpg"",""time"":357},{""stimulus"":""img/red_ww/8.jpg"",""time"":403},{""stimulus"":""img/red_ww/9.jpg"",""time"":451},{""stimulus"":""img/red_ww/10.jpg"",""time"":512},{""stimulus"":""img/red_ww/11.jpg"",""time"":560}]","[]"
"image-keyboard-response","152","102149","0.0-5.0-1.74","6400ea4cec0b310140841b2d","bdp_lott","Tue Mar 28 2023 10:35:28 GMT-0400 (Eastern Daylight Time)","270388","red","green","","341","","","","choice","","img/red_ww/choose11.jpg","2","151","red","0.5","0.5","0.5","w","",""
"animation","153","102753","0.0-5.0-2.74","6400ea4cec0b310140841b2d","bdp_lott","Tue Mar 28 2023 10:35:28 GMT-0400 (Eastern Daylight Time)","270388","red","green","","","","","","","","","","151","","","","","","[{""stimulus"":""img/red_ww/1.jpg"",""time"":58},{""stimulus"":""img/red_ww/2.jpg"",""time"":106},{""stimulus"":""img/red_ww/3.jpg"",""time"":155},{""stimulus"":""img/red_ww/4.jpg"",""time"":204},{""stimulus"":""img/red_ww/5.jpg"",""time"":257},{""stimulus"":""img/red_ww/6.jpg"",""time"":306},{""stimulus"":""img/red_ww/7.jpg"",""time"":356},{""stimulus"":""img/red_ww/8.jpg"",""time"":404},{""stimulus"":""img/red_ww/9.jpg"",""time"":459},{""stimulus"":""img/red_ww/10.jpg"",""time"":509},{""stimulus"":""img/red_ww/11.jpg"",""time"":554}]","[]"
"image-keyboard-response","154","103141","0.0-5.0-1.75","6400ea4cec0b310140841b2d","bdp_lott","Tue Mar 28 2023 10:35:28 GMT-0400 (Eastern Daylight Time)","270388","red","green","","388","","","","choice","","img/red_ww/choose11.jpg","2","150","red","0.5","0.5","0.5","l","",""
"animation","155","103744","0.0-5.0-2.75","6400ea4cec0b310140841b2d","bdp_lott","Tue Mar 28 2023 10:35:28 GMT-0400 (Eastern Daylight Time)","270388","red","green","","","","","","","","","","150","","","","","","[{""stimulus"":""img/red_wl/1.jpg"",""time"":61},{""stimulus"":""img/red_wl/2.jpg"",""time"":107},{""stimulus"":""img/red_wl/3.jpg"",""time"":153},{""stimulus"":""img/red_wl/4.jpg"",""time"":201},{""stimulus"":""img/red_wl/5.jpg"",""time"":260},{""stimulus"":""img/red_wl/6.jpg"",""time"":310},{""stimulus"":""img/red_wl/7.jpg"",""time"":353},{""stimulus"":""img/red_wl/8.jpg"",""time"":404},{""stimulus"":""img/red_wl/9.jpg"",""time"":461},{""stimulus"":""img/red_wl/10.jpg"",""time"":507},{""stimulus"":""img/red_wl/11.jpg"",""time"":558}]","[]"
"image-keyboard-response","156","104267","0.0-5.0-1.76","6400ea4cec0b310140841b2d","bdp_lott","Tue Mar 28 2023 10:35:28 GMT-0400 (Eastern Daylight Time)","270388","red","green","","521","","","","choice","","img/red_wl/choose11.jpg","2","149","red","0.5","0.1","0.5","l","",""
"animation","157","104871","0.0-5.0-2.76","6400ea4cec0b310140841b2d","bdp_lott","Tue Mar 28 2023 10:35:28 GMT-0400 (Eastern Daylight Time)","270388","red","green","","","","","","","","","","149","","","","","","[{""stimulus"":""img/red_wl/1.jpg"",""time"":52},{""stimulus"":""img/red_wl/2.jpg"",""time"":108},{""stimulus"":""img/red_wl/3.jpg"",""time"":159},{""stimulus"":""img/red_wl/4.jpg"",""time"":203},{""stimulus"":""img/red_wl/5.jpg"",""time"":253},{""stimulus"":""img/red_wl/6.jpg"",""time"":312},{""stimulus"":""img/red_wl/7.jpg"",""time"":356},{""stimulus"":""img/red_wl/8.jpg"",""time"":404},{""stimulus"":""img/red_wl/9.jpg"",""time"":453},{""stimulus"":""img/red_wl/10.jpg"",""time"":511},{""stimulus"":""img/red_wl/11.jpg"",""time"":559}]","[]"
"image-keyboard-response","158","105327","0.0-5.0-1.77","6400ea4cec0b310140841b2d","bdp_lott","Tue Mar 28 2023 10:35:28 GMT-0400 (Eastern Daylight Time)","270388","red","green","","455","","","","choice","","img/red_wl/choose11.jpg","1","148","green","0.5","0.1","0.1","l","",""
"animation","159","105936","0.0-5.0-2.77","6400ea4cec0b310140841b2d","bdp_lott","Tue Mar 28 2023 10:35:28 GMT-0400 (Eastern Daylight Time)","270388","red","green","","","","","","","","","","148","","","","","","[{""stimulus"":""img/green_ll/1.jpg"",""time"":60},{""stimulus"":""img/green_ll/2.jpg"",""time"":105},{""stimulus"":""img/green_ll/3.jpg"",""time"":152},{""stimulus"":""img/green_ll/4.jpg"",""time"":210},{""stimulus"":""img/green_ll/5.jpg"",""time"":260},{""stimulus"":""img/green_ll/6.jpg"",""time"":306},{""stimulus"":""img/green_ll/7.jpg"",""time"":353},{""stimulus"":""img/green_ll/8.jpg"",""time"":410},{""stimulus"":""img/green_ll/9.jpg"",""time"":460},{""stimulus"":""img/green_ll/10.jpg"",""time"":506},{""stimulus"":""img/green_ll/11.jpg"",""time"":553}]","[]"
"image-keyboard-response","160","106394","0.0-5.0-1.78","6400ea4cec0b310140841b2d","bdp_lott","Tue Mar 28 2023 10:35:28 GMT-0400 (Eastern Daylight Time)","270388","red","green","","457","","","","choice","","img/green_ll/choose11.jpg","1","147","green","0.5","0.1","0.1","l","",""
"animation","161","107002","0.0-5.0-2.78","6400ea4cec0b310140841b2d","bdp_lott","Tue Mar 28 2023 10:35:28 GMT-0400 (Eastern Daylight Time)","270388","red","green","","","","","","","","","","147","","","","","","[{""stimulus"":""img/green_ll/1.jpg"",""time"":53},{""stimulus"":""img/green_ll/2.jpg"",""time"":109},{""stimulus"":""img/green_ll/3.jpg"",""time"":158},{""stimulus"":""img/green_ll/4.jpg"",""time"":209},{""stimulus"":""img/green_ll/5.jpg"",""time"":255},{""stimulus"":""img/green_ll/6.jpg"",""time"":311},{""stimulus"":""img/green_ll/7.jpg"",""time"":359},{""stimulus"":""img/green_ll/8.jpg"",""time"":408},{""stimulus"":""img/green_ll/9.jpg"",""time"":460},{""stimulus"":""img/green_ll/10.jpg"",""time"":509},{""stimulus"":""img/green_ll/11.jpg"",""time"":559}]","[]"
"image-keyboard-response","162","107160","0.0-5.0-1.79","6400ea4cec0b310140841b2d","bdp_lott","Tue Mar 28 2023 10:35:28 GMT-0400 (Eastern Daylight Time)","270388","red","green","","156","","","","choice","","img/green_ll/choose11.jpg","2","146","red","0.5","0.1","0.5","w","",""
"animation","163","107768","0.0-5.0-2.79","6400ea4cec0b310140841b2d","bdp_lott","Tue Mar 28 2023 10:35:28 GMT-0400 (Eastern Daylight Time)","270388","red","green","","","","","","","","","","146","","","","","","[{""stimulus"":""img/red_lw/1.jpg"",""time"":59},{""stimulus"":""img/red_lw/2.jpg"",""time"":107},{""stimulus"":""img/red_lw/3.jpg"",""time"":155},{""stimulus"":""img/red_lw/4.jpg"",""time"":211},{""stimulus"":""img/red_lw/5.jpg"",""time"":258},{""stimulus"":""img/red_lw/6.jpg"",""time"":307},{""stimulus"":""img/red_lw/7.jpg"",""time"":351},{""stimulus"":""img/red_lw/8.jpg"",""time"":409},{""stimulus"":""img/red_lw/9.jpg"",""time"":455},{""stimulus"":""img/red_lw/10.jpg"",""time"":505},{""stimulus"":""img/red_lw/11.jpg"",""time"":552}]","[]"
"image-keyboard-response","164","108356","0.0-5.0-1.80","6400ea4cec0b310140841b2d","bdp_lott","Tue Mar 28 2023 10:35:28 GMT-0400 (Eastern Daylight Time)","270388","red","green","","586","","","","choice","","img/red_lw/choose11.jpg","2","145","red","0.5","0.1","0.5","l","",""
"animation","165","108961","0.0-5.0-2.80","6400ea4cec0b310140841b2d","bdp_lott","Tue Mar 28 2023 10:35:28 GMT-0400 (Eastern Daylight Time)","270388","red","green","","","","","","","","","","145","","","","","","[{""stimulus"":""img/red_ll/1.jpg"",""time"":62},{""stimulus"":""img/red_ll/2.jpg"",""time"":108},{""stimulus"":""img/red_ll/3.jpg"",""time"":158},{""stimulus"":""img/red_ll/4.jpg"",""time"":203},{""stimulus"":""img/red_ll/5.jpg"",""time"":261},{""stimulus"":""img/red_ll/6.jpg"",""time"":311},{""stimulus"":""img/red_ll/7.jpg"",""time"":356},{""stimulus"":""img/red_ll/8.jpg"",""time"":407},{""stimulus"":""img/red_ll/9.jpg"",""time"":462},{""stimulus"":""img/red_ll/10.jpg"",""time"":509},{""stimulus"":""img/red_ll/11.jpg"",""time"":559}]","[]"
"image-keyboard-response","166","109441","0.0-5.0-1.81","6400ea4cec0b310140841b2d","bdp_lott","Tue Mar 28 2023 10:35:28 GMT-0400 (Eastern Daylight Time)","270388","red","green","","479","","","","choice","","img/red_ll/choose11.jpg","2","144","red","0.5","0.1","0.5","w","",""
"animation","167","110051","0.0-5.0-2.81","6400ea4cec0b310140841b2d","bdp_lott","Tue Mar 28 2023 10:35:28 GMT-0400 (Eastern Daylight Time)","270388","red","green","","","","","","","","","","144","","","","","","[{""stimulus"":""img/red_lw/1.jpg"",""time"":54},{""stimulus"":""img/red_lw/2.jpg"",""time"":104},{""stimulus"":""img/red_lw/3.jpg"",""time"":161},{""stimulus"":""img/red_lw/4.jpg"",""time"":208},{""stimulus"":""img/red_lw/5.jpg"",""time"":256},{""stimulus"":""img/red_lw/6.jpg"",""time"":304},{""stimulus"":""img/red_lw/7.jpg"",""time"":361},{""stimulus"":""img/red_lw/8.jpg"",""time"":410},{""stimulus"":""img/red_lw/9.jpg"",""time"":455},{""stimulus"":""img/red_lw/10.jpg"",""time"":503},{""stimulus"":""img/red_lw/11.jpg"",""time"":562}]","[]"
"image-keyboard-response","168","110370","0.0-5.0-1.82","6400ea4cec0b310140841b2d","bdp_lott","Tue Mar 28 2023 10:35:28 GMT-0400 (Eastern Daylight Time)","270388","red","green","","318","","","","choice","","img/red_lw/choose11.jpg","1","143","green","0.5","0.1","0.1","w","",""
"animation","169","110977","0.0-5.0-2.82","6400ea4cec0b310140841b2d","bdp_lott","Tue Mar 28 2023 10:35:28 GMT-0400 (Eastern Daylight Time)","270388","red","green","","","","","","","","","","143","","","","","","[{""stimulus"":""img/green_ww/1.jpg"",""time"":54},{""stimulus"":""img/green_ww/2.jpg"",""time"":113},{""stimulus"":""img/green_ww/3.jpg"",""time"":157},{""stimulus"":""img/green_ww/4.jpg"",""time"":204},{""stimulus"":""img/green_ww/5.jpg"",""time"":252},{""stimulus"":""img/green_ww/6.jpg"",""time"":310},{""stimulus"":""img/green_ww/7.jpg"",""time"":361},{""stimulus"":""img/green_ww/8.jpg"",""time"":408},{""stimulus"":""img/green_ww/9.jpg"",""time"":452},{""stimulus"":""img/green_ww/10.jpg"",""time"":513},{""stimulus"":""img/green_ww/11.jpg"",""time"":558}]","[]"
"image-keyboard-response","170","111194","0.0-5.0-1.83","6400ea4cec0b310140841b2d","bdp_lott","Tue Mar 28 2023 10:35:28 GMT-0400 (Eastern Daylight Time)","270388","red","green","","215","","","","choice","","img/green_ww/choose11.jpg","1","142","green","0.5","0.1","0.1","l","",""
"animation","171","111803","0.0-5.0-2.83","6400ea4cec0b310140841b2d","bdp_lott","Tue Mar 28 2023 10:35:28 GMT-0400 (Eastern Daylight Time)","270388","red","green","","","","","","","","","","142","","","","","","[{""stimulus"":""img/green_lw/1.jpg"",""time"":56},{""stimulus"":""img/green_lw/2.jpg"",""time"":102},{""stimulus"":""img/green_lw/3.jpg"",""time"":157},{""stimulus"":""img/green_lw/4.jpg"",""time"":208},{""stimulus"":""img/green_lw/5.jpg"",""time"":254},{""stimulus"":""img/green_lw/6.jpg"",""time"":301},{""stimulus"":""img/green_lw/7.jpg"",""time"":358},{""stimulus"":""img/green_lw/8.jpg"",""time"":408},{""stimulus"":""img/green_lw/9.jpg"",""time"":456},{""stimulus"":""img/green_lw/10.jpg"",""time"":501},{""stimulus"":""img/green_lw/11.jpg"",""time"":559}]","[]"
"image-keyboard-response","172","112285","0.0-5.0-1.84","6400ea4cec0b310140841b2d","bdp_lott","Tue Mar 28 2023 10:35:28 GMT-0400 (Eastern Daylight Time)","270388","red","green","","481","","","","choice","","img/green_lw/choose11.jpg","1","141","green","0.5","0.1","0.1","l","",""
"animation","173","112887","0.0-5.0-2.84","6400ea4cec0b310140841b2d","bdp_lott","Tue Mar 28 2023 10:35:28 GMT-0400 (Eastern Daylight Time)","270388","red","green","","","","","","","","","","141","","","","","","[{""stimulus"":""img/green_lw/1.jpg"",""time"":60},{""stimulus"":""img/green_lw/2.jpg"",""time"":106},{""stimulus"":""img/green_lw/3.jpg"",""time"":153},{""stimulus"":""img/green_lw/4.jpg"",""time"":202},{""stimulus"":""img/green_lw/5.jpg"",""time"":262},{""stimulus"":""img/green_lw/6.jpg"",""time"":310},{""stimulus"":""img/green_lw/7.jpg"",""time"":353},{""stimulus"":""img/green_lw/8.jpg"",""time"":403},{""stimulus"":""img/green_lw/9.jpg"",""time"":460},{""stimulus"":""img/green_lw/10.jpg"",""time"":507},{""stimulus"":""img/green_lw/11.jpg"",""time"":556}]","[]"
"image-keyboard-response","174","113191","0.0-5.0-1.85","6400ea4cec0b310140841b2d","bdp_lott","Tue Mar 28 2023 10:35:28 GMT-0400 (Eastern Daylight Time)","270388","red","green","","303","","","","choice","","img/green_lw/choose11.jpg","2","140","red","0.5","0.1","0.5","l","",""
"animation","175","113803","0.0-5.0-2.85","6400ea4cec0b310140841b2d","bdp_lott","Tue Mar 28 2023 10:35:28 GMT-0400 (Eastern Daylight Time)","270388","red","green","","","","","","","","","","140","","","","","","[{""stimulus"":""img/red_ll/1.jpg"",""time"":60},{""stimulus"":""img/red_ll/2.jpg"",""time"":104},{""stimulus"":""img/red_ll/3.jpg"",""time"":151},{""stimulus"":""img/red_ll/4.jpg"",""time"":210},{""stimulus"":""img/red_ll/5.jpg"",""time"":258},{""stimulus"":""img/red_ll/6.jpg"",""time"":303},{""stimulus"":""img/red_ll/7.jpg"",""time"":352},{""stimulus"":""img/red_ll/8.jpg"",""time"":411},{""stimulus"":""img/red_ll/9.jpg"",""time"":456},{""stimulus"":""img/red_ll/10.jpg"",""time"":507},{""stimulus"":""img/red_ll/11.jpg"",""time"":554}]","[]"
"image-keyboard-response","176","113975","0.0-5.0-1.86","6400ea4cec0b310140841b2d","bdp_lott","Tue Mar 28 2023 10:35:28 GMT-0400 (Eastern Daylight Time)","270388","red","green","","171","","","","choice","","img/red_ll/choose11.jpg","2","139","red","0.5","0.1","0.5","l","",""
"animation","177","114585","0.0-5.0-2.86","6400ea4cec0b310140841b2d","bdp_lott","Tue Mar 28 2023 10:35:28 GMT-0400 (Eastern Daylight Time)","270388","red","green","","","","","","","","","","139","","","","","","[{""stimulus"":""img/red_ll/1.jpg"",""time"":57},{""stimulus"":""img/red_ll/2.jpg"",""time"":107},{""stimulus"":""img/red_ll/3.jpg"",""time"":152},{""stimulus"":""img/red_ll/4.jpg"",""time"":209},{""stimulus"":""img/red_ll/5.jpg"",""time"":260},{""stimulus"":""img/red_ll/6.jpg"",""time"":308},{""stimulus"":""img/red_ll/7.jpg"",""time"":351},{""stimulus"":""img/red_ll/8.jpg"",""time"":410},{""stimulus"":""img/red_ll/9.jpg"",""time"":460},{""stimulus"":""img/red_ll/10.jpg"",""time"":504},{""stimulus"":""img/red_ll/11.jpg"",""time"":554}]","[]"
"image-keyboard-response","178","114903","0.0-5.0-1.87","6400ea4cec0b310140841b2d","bdp_lott","Tue Mar 28 2023 10:35:28 GMT-0400 (Eastern Daylight Time)","270388","red","green","","317","","","","choice","","img/red_ll/choose11.jpg","2","138","red","0.5","0.1","0.5","w","",""
"animation","179","115513","0.0-5.0-2.87","6400ea4cec0b310140841b2d","bdp_lott","Tue Mar 28 2023 10:35:28 GMT-0400 (Eastern Daylight Time)","270388","red","green","","","","","","","","","","138","","","","","","[{""stimulus"":""img/red_lw/1.jpg"",""time"":55},{""stimulus"":""img/red_lw/2.jpg"",""time"":103},{""stimulus"":""img/red_lw/3.jpg"",""time"":151},{""stimulus"":""img/red_lw/4.jpg"",""time"":209},{""stimulus"":""img/red_lw/5.jpg"",""time"":256},{""stimulus"":""img/red_lw/6.jpg"",""time"":304},{""stimulus"":""img/red_lw/7.jpg"",""time"":354},{""stimulus"":""img/red_lw/8.jpg"",""time"":408},{""stimulus"":""img/red_lw/9.jpg"",""time"":456},{""stimulus"":""img/red_lw/10.jpg"",""time"":506},{""stimulus"":""img/red_lw/11.jpg"",""time"":551}]","[]"
"image-keyboard-response","180","115584","0.0-5.0-1.88","6400ea4cec0b310140841b2d","bdp_lott","Tue Mar 28 2023 10:35:28 GMT-0400 (Eastern Daylight Time)","270388","red","green","","71","","","","choice","","img/red_lw/choose11.jpg","2","137","red","0.5","0.1","0.5","w","",""
"animation","181","116191","0.0-5.0-2.88","6400ea4cec0b310140841b2d","bdp_lott","Tue Mar 28 2023 10:35:28 GMT-0400 (Eastern Daylight Time)","270388","red","green","","","","","","","","","","137","","","","","","[{""stimulus"":""img/red_lw/1.jpg"",""time"":55},{""stimulus"":""img/red_lw/2.jpg"",""time"":105},{""stimulus"":""img/red_lw/3.jpg"",""time"":161},{""stimulus"":""img/red_lw/4.jpg"",""time"":207},{""stimulus"":""img/red_lw/5.jpg"",""time"":258},{""stimulus"":""img/red_lw/6.jpg"",""time"":303},{""stimulus"":""img/red_lw/7.jpg"",""time"":360},{""stimulus"":""img/red_lw/8.jpg"",""time"":411},{""stimulus"":""img/red_lw/9.jpg"",""time"":454},{""stimulus"":""img/red_lw/10.jpg"",""time"":503},{""stimulus"":""img/red_lw/11.jpg"",""time"":558}]","[]"
"image-keyboard-response","182","116500","0.0-5.0-1.89","6400ea4cec0b310140841b2d","bdp_lott","Tue Mar 28 2023 10:35:28 GMT-0400 (Eastern Daylight Time)","270388","red","green","","309","","","","choice","","img/red_lw/choose11.jpg","2","136","red","0.5","0.1","0.5","l","",""
"animation","183","117103","0.0-5.0-2.89","6400ea4cec0b310140841b2d","bdp_lott","Tue Mar 28 2023 10:35:28 GMT-0400 (Eastern Daylight Time)","270388","red","green","","","","","","","","","","136","","","","","","[{""stimulus"":""img/red_ll/1.jpg"",""time"":53},{""stimulus"":""img/red_ll/2.jpg"",""time"":108},{""stimulus"":""img/red_ll/3.jpg"",""time"":158},{""stimulus"":""img/red_ll/4.jpg"",""time"":203},{""stimulus"":""img/red_ll/5.jpg"",""time"":251},{""stimulus"":""img/red_ll/6.jpg"",""time"":311},{""stimulus"":""img/red_ll/7.jpg"",""time"":355},{""stimulus"":""img/red_ll/8.jpg"",""time"":404},{""stimulus"":""img/red_ll/9.jpg"",""time"":451},{""stimulus"":""img/red_ll/10.jpg"",""time"":507},{""stimulus"":""img/red_ll/11.jpg"",""time"":555}]","[]"
"image-keyboard-response","184","117650","0.0-5.0-1.90","6400ea4cec0b310140841b2d","bdp_lott","Tue Mar 28 2023 10:35:28 GMT-0400 (Eastern Daylight Time)","270388","red","green","","545","","","","choice","","img/red_ll/choose11.jpg","2","135","red","0.5","0.1","0.5","w","",""
"animation","185","118255","0.0-5.0-2.90","6400ea4cec0b310140841b2d","bdp_lott","Tue Mar 28 2023 10:35:28 GMT-0400 (Eastern Daylight Time)","270388","red","green","","","","","","","","","","135","","","","","","[{""stimulus"":""img/red_lw/1.jpg"",""time"":54},{""stimulus"":""img/red_lw/2.jpg"",""time"":103},{""stimulus"":""img/red_lw/3.jpg"",""time"":157},{""stimulus"":""img/red_lw/4.jpg"",""time"":209},{""stimulus"":""img/red_lw/5.jpg"",""time"":253},{""stimulus"":""img/red_lw/6.jpg"",""time"":309},{""stimulus"":""img/red_lw/7.jpg"",""time"":357},{""stimulus"":""img/red_lw/8.jpg"",""time"":405},{""stimulus"":""img/red_lw/9.jpg"",""time"":453},{""stimulus"":""img/red_lw/10.jpg"",""time"":504},{""stimulus"":""img/red_lw/11.jpg"",""time"":557}]","[]"
"image-keyboard-response","186","118365","0.0-5.0-1.91","6400ea4cec0b310140841b2d","bdp_lott","Tue Mar 28 2023 10:35:28 GMT-0400 (Eastern Daylight Time)","270388","red","green","","110","","","","choice","","img/red_lw/choose11.jpg","2","134","red","0.5","0.1","0.5","l","",""
"animation","187","118970","0.0-5.0-2.91","6400ea4cec0b310140841b2d","bdp_lott","Tue Mar 28 2023 10:35:28 GMT-0400 (Eastern Daylight Time)","270388","red","green","","","","","","","","","","134","","","","","","[{""stimulus"":""img/red_ll/1.jpg"",""time"":58},{""stimulus"":""img/red_ll/2.jpg"",""time"":101},{""stimulus"":""img/red_ll/3.jpg"",""time"":154},{""stimulus"":""img/red_ll/4.jpg"",""time"":203},{""stimulus"":""img/red_ll/5.jpg"",""time"":262},{""stimulus"":""img/red_ll/6.jpg"",""time"":306},{""stimulus"":""img/red_ll/7.jpg"",""time"":355},{""stimulus"":""img/red_ll/8.jpg"",""time"":405},{""stimulus"":""img/red_ll/9.jpg"",""time"":458},{""stimulus"":""img/red_ll/10.jpg"",""time"":506},{""stimulus"":""img/red_ll/11.jpg"",""time"":555}]","[]"
"image-keyboard-response","188","124155","0.0-5.0-1.92","6400ea4cec0b310140841b2d","bdp_lott","Tue Mar 28 2023 10:35:28 GMT-0400 (Eastern Daylight Time)","270388","red","green","","5185","","","","choice","","img/red_ll/choose11.jpg","2","133","red","0.5","0.1","0.5","w","",""
"animation","189","124759","0.0-5.0-2.92","6400ea4cec0b310140841b2d","bdp_lott","Tue Mar 28 2023 10:35:28 GMT-0400 (Eastern Daylight Time)","270388","red","green","","","","","","","","","","133","","","","","","[{""stimulus"":""img/red_lw/1.jpg"",""time"":51},{""stimulus"":""img/red_lw/2.jpg"",""time"":109},{""stimulus"":""img/red_lw/3.jpg"",""time"":159},{""stimulus"":""img/red_lw/4.jpg"",""time"":207},{""stimulus"":""img/red_lw/5.jpg"",""time"":253},{""stimulus"":""img/red_lw/6.jpg"",""time"":307},{""stimulus"":""img/red_lw/7.jpg"",""time"":356},{""stimulus"":""img/red_lw/8.jpg"",""time"":403},{""stimulus"":""img/red_lw/9.jpg"",""time"":454},{""stimulus"":""img/red_lw/10.jpg"",""time"":509},{""stimulus"":""img/red_lw/11.jpg"",""time"":559}]","[]"
"image-keyboard-response","190","125541","0.0-5.0-1.93","6400ea4cec0b310140841b2d","bdp_lott","Tue Mar 28 2023 10:35:28 GMT-0400 (Eastern Daylight Time)","270388","red","green","","782","","","","choice","","img/red_lw/choose11.jpg","2","132","red","0.5","0.1","0.5","w","",""
"animation","191","126142","0.0-5.0-2.93","6400ea4cec0b310140841b2d","bdp_lott","Tue Mar 28 2023 10:35:28 GMT-0400 (Eastern Daylight Time)","270388","red","green","","","","","","","","","","132","","","","","","[{""stimulus"":""img/red_lw/1.jpg"",""time"":61},{""stimulus"":""img/red_lw/2.jpg"",""time"":108},{""stimulus"":""img/red_lw/3.jpg"",""time"":158},{""stimulus"":""img/red_lw/4.jpg"",""time"":204},{""stimulus"":""img/red_lw/5.jpg"",""time"":260},{""stimulus"":""img/red_lw/6.jpg"",""time"":310},{""stimulus"":""img/red_lw/7.jpg"",""time"":354},{""stimulus"":""img/red_lw/8.jpg"",""time"":404},{""stimulus"":""img/red_lw/9.jpg"",""time"":458},{""stimulus"":""img/red_lw/10.jpg"",""time"":510},{""stimulus"":""img/red_lw/11.jpg"",""time"":559}]","[]"
