"trial_type","trial_index","time_elapsed","internal_node_id","subject_id","task","startTime","totalTime","fairMachine","unfairMachine","view_history","rt","event","trial","time","trialtype","success","stimulus","key_press","roundsLeft","chosen","pFairMachWin","pUnfairMachWin","pTrialWin","outcome","animation_sequence","responses"
"pavlovia","0","6","0.0-0.0","63f791c69ca73d3460eeb2d9","bdp_lott","Sun Mar 26 2023 07:48:54 GMT-0700 (Pacific Daylight Time)","493036","green","red","","","","","","","","","","","","","","","","",""
"instructions","1","9879","0.0-1.0","63f791c69ca73d3460eeb2d9","bdp_lott","Sun Mar 26 2023 07:48:54 GMT-0700 (Pacific Daylight Time)","493036","green","red","[{""page_index"":0,""viewing_time"":9872}]","9872","","","","","","","","","","","","","","",""
"","","","","63f791c69ca73d3460eeb2d9","bdp_lott","Sun Mar 26 2023 07:48:54 GMT-0700 (Pacific Daylight Time)","493036","green","red","","","fullscreenenter","2","12412","fullscreenenter","","","","","","","","","","",""
"fullscreen","2","13411","0.0-2.0","63f791c69ca73d3460eeb2d9","bdp_lott","Sun Mar 26 2023 07:48:54 GMT-0700 (Pacific Daylight Time)","493036","green","red","","","","","","","true","","","","","","","","","",""
"instructions","3","193215","0.0-4.0","63f791c69ca73d3460eeb2d9","bdp_lott","Sun Mar 26 2023 07:48:54 GMT-0700 (Pacific Daylight Time)","493036","green","red","[{""page_index"":0,""viewing_time"":179802}]","179802","","","","","","","","","","","","","","",""
"image-keyboard-response","4","197437","0.0-5.0-1.0","63f791c69ca73d3460eeb2d9","bdp_lott","Sun Mar 26 2023 07:48:54 GMT-0700 (Pacific Daylight Time)","493036","green","red","","4217","","","","choice","","img/red_ll/initchoose11.jpg","2","225","red","0.5","0.5","0.5","w","",""
"animation","5","198054","0.0-5.0-2.0","63f791c69ca73d3460eeb2d9","bdp_lott","Sun Mar 26 2023 07:48:54 GMT-0700 (Pacific Daylight Time)","493036","green","red","","","","","","","","","","225","","","","","","[{""stimulus"":""img/red_lw/1.jpg"",""time"":59},{""stimulus"":""img/red_lw/2.jpg"",""time"":104},{""stimulus"":""img/red_lw/3.jpg"",""time"":165},{""stimulus"":""img/red_lw/4.jpg"",""time"":201},{""stimulus"":""img/red_lw/5.jpg"",""time"":258},{""stimulus"":""img/red_lw/6.jpg"",""time"":307},{""stimulus"":""img/red_lw/7.jpg"",""time"":354},{""stimulus"":""img/red_lw/8.jpg"",""time"":416},{""stimulus"":""img/red_lw/9.jpg"",""time"":451},{""stimulus"":""img/red_lw/10.jpg"",""time"":509},{""stimulus"":""img/red_lw/11.jpg"",""time"":555}]","[]"
"image-keyboard-response","6","200767","0.0-5.0-1.1","63f791c69ca73d3460eeb2d9","bdp_lott","Sun Mar 26 2023 07:48:54 GMT-0700 (Pacific Daylight Time)","493036","green","red","","2711","","","","choice","","img/red_lw/choose11.jpg","2","224","red","0.5","0.5","0.5","l","",""
"animation","7","201377","0.0-5.0-2.1","63f791c69ca73d3460eeb2d9","bdp_lott","Sun Mar 26 2023 07:48:54 GMT-0700 (Pacific Daylight Time)","493036","green","red","","","","","","","","","","224","","","","","","[{""stimulus"":""img/red_ll/1.jpg"",""time"":51},{""stimulus"":""img/red_ll/2.jpg"",""time"":109},{""stimulus"":""img/red_ll/3.jpg"",""time"":156},{""stimulus"":""img/red_ll/4.jpg"",""time"":206},{""stimulus"":""img/red_ll/5.jpg"",""time"":253},{""stimulus"":""img/red_ll/6.jpg"",""time"":315},{""stimulus"":""img/red_ll/7.jpg"",""time"":361},{""stimulus"":""img/red_ll/8.jpg"",""time"":407},{""stimulus"":""img/red_ll/9.jpg"",""time"":453},{""stimulus"":""img/red_ll/10.jpg"",""time"":500},{""stimulus"":""img/red_ll/11.jpg"",""time"":563}]","[]"
"image-keyboard-response","8","202920","0.0-5.0-1.2","63f791c69ca73d3460eeb2d9","bdp_lott","Sun Mar 26 2023 07:48:54 GMT-0700 (Pacific Daylight Time)","493036","green","red","","1542","","","","choice","","img/red_ll/choose11.jpg","2","223","red","0.5","0.5","0.5","l","",""
"animation","9","203522","0.0-5.0-2.2","63f791c69ca73d3460eeb2d9","bdp_lott","Sun Mar 26 2023 07:48:54 GMT-0700 (Pacific Daylight Time)","493036","green","red","","","","","","","","","","223","","","","","","[{""stimulus"":""img/red_ll/1.jpg"",""time"":51},{""stimulus"":""img/red_ll/2.jpg"",""time"":106},{""stimulus"":""img/red_ll/3.jpg"",""time"":153},{""stimulus"":""img/red_ll/4.jpg"",""time"":214},{""stimulus"":""img/red_ll/5.jpg"",""time"":260},{""stimulus"":""img/red_ll/6.jpg"",""time"":301},{""stimulus"":""img/red_ll/7.jpg"",""time"":354},{""stimulus"":""img/red_ll/8.jpg"",""time"":400},{""stimulus"":""img/red_ll/9.jpg"",""time"":451},{""stimulus"":""img/red_ll/10.jpg"",""time"":509},{""stimulus"":""img/red_ll/11.jpg"",""time"":555}]","[]"
"image-keyboard-response","10","204654","0.0-5.0-1.3","63f791c69ca73d3460eeb2d9","bdp_lott","Sun Mar 26 2023 07:48:54 GMT-0700 (Pacific Daylight Time)","493036","green","red","","1130","","","","choice","","img/red_ll/choose11.jpg","1","222","green","0.5","0.5","0.5","w","",""
"animation","11","205269","0.0-5.0-2.3","63f791c69ca73d3460eeb2d9","bdp_lott","Sun Mar 26 2023 07:48:54 GMT-0700 (Pacific Daylight Time)","493036","green","red","","","","","","","","","","222","","","","","","[{""stimulus"":""img/green_wl/1.jpg"",""time"":51},{""stimulus"":""img/green_wl/2.jpg"",""time"":106},{""stimulus"":""img/green_wl/3.jpg"",""time"":152},{""stimulus"":""img/green_wl/4.jpg"",""time"":214},{""stimulus"":""img/green_wl/5.jpg"",""time"":261},{""stimulus"":""img/green_wl/6.jpg"",""time"":307},{""stimulus"":""img/green_wl/7.jpg"",""time"":353},{""stimulus"":""img/green_wl/8.jpg"",""time"":416},{""stimulus"":""img/green_wl/9.jpg"",""time"":461},{""stimulus"":""img/green_wl/10.jpg"",""time"":507},{""stimulus"":""img/green_wl/11.jpg"",""time"":553}]","[]"
"image-keyboard-response","12","206358","0.0-5.0-1.4","63f791c69ca73d3460eeb2d9","bdp_lott","Sun Mar 26 2023 07:48:54 GMT-0700 (Pacific Daylight Time)","493036","green","red","","1088","","","","choice","","img/green_wl/choose11.jpg","1","221","green","0.5","0.5","0.5","l","",""
"animation","13","206970","0.0-5.0-2.4","63f791c69ca73d3460eeb2d9","bdp_lott","Sun Mar 26 2023 07:48:54 GMT-0700 (Pacific Daylight Time)","493036","green","red","","","","","","","","","","221","","","","","","[{""stimulus"":""img/green_ll/1.jpg"",""time"":55},{""stimulus"":""img/green_ll/2.jpg"",""time"":101},{""stimulus"":""img/green_ll/3.jpg"",""time"":163},{""stimulus"":""img/green_ll/4.jpg"",""time"":210},{""stimulus"":""img/green_ll/5.jpg"",""time"":255},{""stimulus"":""img/green_ll/6.jpg"",""time"":316},{""stimulus"":""img/green_ll/7.jpg"",""time"":362},{""stimulus"":""img/green_ll/8.jpg"",""time"":409},{""stimulus"":""img/green_ll/9.jpg"",""time"":456},{""stimulus"":""img/green_ll/10.jpg"",""time"":505},{""stimulus"":""img/green_ll/11.jpg"",""time"":566}]","[]"
"image-keyboard-response","14","207867","0.0-5.0-1.5","63f791c69ca73d3460eeb2d9","bdp_lott","Sun Mar 26 2023 07:48:54 GMT-0700 (Pacific Daylight Time)","493036","green","red","","895","","","","choice","","img/green_ll/choose11.jpg","1","220","green","0.5","0.5","0.5","l","",""
"animation","15","208482","0.0-5.0-2.5","63f791c69ca73d3460eeb2d9","bdp_lott","Sun Mar 26 2023 07:48:54 GMT-0700 (Pacific Daylight Time)","493036","green","red","","","","","","","","","","220","","","","","","[{""stimulus"":""img/green_ll/1.jpg"",""time"":59},{""stimulus"":""img/green_ll/2.jpg"",""time"":107},{""stimulus"":""img/green_ll/3.jpg"",""time"":153},{""stimulus"":""img/green_ll/4.jpg"",""time"":214},{""stimulus"":""img/green_ll/5.jpg"",""time"":260},{""stimulus"":""img/green_ll/6.jpg"",""time"":307},{""stimulus"":""img/green_ll/7.jpg"",""time"":351},{""stimulus"":""img/green_ll/8.jpg"",""time"":415},{""stimulus"":""img/green_ll/9.jpg"",""time"":461},{""stimulus"":""img/green_ll/10.jpg"",""time"":507},{""stimulus"":""img/green_ll/11.jpg"",""time"":554}]","[]"
"image-keyboard-response","16","210181","0.0-5.0-1.6","63f791c69ca73d3460eeb2d9","bdp_lott","Sun Mar 26 2023 07:48:54 GMT-0700 (Pacific Daylight Time)","493036","green","red","","1697","","","","choice","","img/green_ll/choose11.jpg","2","219","red","0.5","0.5","0.5","w","",""
"animation","17","210793","0.0-5.0-2.6","63f791c69ca73d3460eeb2d9","bdp_lott","Sun Mar 26 2023 07:48:54 GMT-0700 (Pacific Daylight Time)","493036","green","red","","","","","","","","","","219","","","","","","[{""stimulus"":""img/red_lw/1.jpg"",""time"":59},{""stimulus"":""img/red_lw/2.jpg"",""time"":106},{""stimulus"":""img/red_lw/3.jpg"",""time"":151},{""stimulus"":""img/red_lw/4.jpg"",""time"":213},{""stimulus"":""img/red_lw/5.jpg"",""time"":259},{""stimulus"":""img/red_lw/6.jpg"",""time"":305},{""stimulus"":""img/red_lw/7.jpg"",""time"":352},{""stimulus"":""img/red_lw/8.jpg"",""time"":413},{""stimulus"":""img/red_lw/9.jpg"",""time"":459},{""stimulus"":""img/red_lw/10.jpg"",""time"":505},{""stimulus"":""img/red_lw/11.jpg"",""time"":551}]","[]"
"image-keyboard-response","18","211907","0.0-5.0-1.7","63f791c69ca73d3460eeb2d9","bdp_lott","Sun Mar 26 2023 07:48:54 GMT-0700 (Pacific Daylight Time)","493036","green","red","","1112","","","","choice","","img/red_lw/choose11.jpg","2","218","red","0.5","0.5","0.5","w","",""
"animation","19","212514","0.0-5.0-2.7","63f791c69ca73d3460eeb2d9","bdp_lott","Sun Mar 26 2023 07:48:54 GMT-0700 (Pacific Daylight Time)","493036","green","red","","","","","","","","","","218","","","","","","[{""stimulus"":""img/red_lw/1.jpg"",""time"":59},{""stimulus"":""img/red_lw/2.jpg"",""time"":109},{""stimulus"":""img/red_lw/3.jpg"",""time"":151},{""stimulus"":""img/red_lw/4.jpg"",""time"":203},{""stimulus"":""img/red_lw/5.jpg"",""time"":251},{""stimulus"":""img/red_lw/6.jpg"",""time"":315},{""stimulus"":""img/red_lw/7.jpg"",""time"":361},{""stimulus"":""img/red_lw/8.jpg"",""time"":406},{""stimulus"":""img/red_lw/9.jpg"",""time"":451},{""stimulus"":""img/red_lw/10.jpg"",""time"":515},{""stimulus"":""img/red_lw/11.jpg"",""time"":560}]","[]"
"image-keyboard-response","20","213496","0.0-5.0-1.8","63f791c69ca73d3460eeb2d9","bdp_lott","Sun Mar 26 2023 07:48:54 GMT-0700 (Pacific Daylight Time)","493036","green","red","","980","","","","choice","","img/red_lw/choose11.jpg","2","217","red","0.5","0.5","0.5","w","",""
"animation","21","214097","0.0-5.0-2.8","63f791c69ca73d3460eeb2d9","bdp_lott","Sun Mar 26 2023 07:48:54 GMT-0700 (Pacific Daylight Time)","493036","green","red","","","","","","","","","","217","","","","","","[{""stimulus"":""img/red_lw/1.jpg"",""time"":51},{""stimulus"":""img/red_lw/2.jpg"",""time"":101},{""stimulus"":""img/red_lw/3.jpg"",""time"":151},{""stimulus"":""img/red_lw/4.jpg"",""time"":201},{""stimulus"":""img/red_lw/5.jpg"",""time"":263},{""stimulus"":""img/red_lw/6.jpg"",""time"":309},{""stimulus"":""img/red_lw/7.jpg"",""time"":355},{""stimulus"":""img/red_lw/8.jpg"",""time"":417},{""stimulus"":""img/red_lw/9.jpg"",""time"":462},{""stimulus"":""img/red_lw/10.jpg"",""time"":509},{""stimulus"":""img/red_lw/11.jpg"",""time"":555}]","[]"
"image-keyboard-response","22","214878","0.0-5.0-1.9","63f791c69ca73d3460eeb2d9","bdp_lott","Sun Mar 26 2023 07:48:54 GMT-0700 (Pacific Daylight Time)","493036","green","red","","779","","","","choice","","img/red_lw/choose11.jpg","2","216","red","0.5","0.5","0.5","w","",""
"animation","23","215488","0.0-5.0-2.9","63f791c69ca73d3460eeb2d9","bdp_lott","Sun Mar 26 2023 07:48:54 GMT-0700 (Pacific Daylight Time)","493036","green","red","","","","","","","","","","216","","","","","","[{""stimulus"":""img/red_lw/1.jpg"",""time"":53},{""stimulus"":""img/red_lw/2.jpg"",""time"":114},{""stimulus"":""img/red_lw/3.jpg"",""time"":161},{""stimulus"":""img/red_lw/4.jpg"",""time"":208},{""stimulus"":""img/red_lw/5.jpg"",""time"":254},{""stimulus"":""img/red_lw/6.jpg"",""time"":316},{""stimulus"":""img/red_lw/7.jpg"",""time"":351},{""stimulus"":""img/red_lw/8.jpg"",""time"":409},{""stimulus"":""img/red_lw/9.jpg"",""time"":455},{""stimulus"":""img/red_lw/10.jpg"",""time"":502},{""stimulus"":""img/red_lw/11.jpg"",""time"":564}]","[]"
"image-keyboard-response","24","216242","0.0-5.0-1.10","63f791c69ca73d3460eeb2d9","bdp_lott","Sun Mar 26 2023 07:48:54 GMT-0700 (Pacific Daylight Time)","493036","green","red","","752","","","","choice","","img/red_lw/choose11.jpg","2","215","red","0.5","0.5","0.5","w","",""
"animation","25","216853","0.0-5.0-2.10","63f791c69ca73d3460eeb2d9","bdp_lott","Sun Mar 26 2023 07:48:54 GMT-0700 (Pacific Daylight Time)","493036","green","red","","","","","","","","","","215","","","","","","[{""stimulus"":""img/red_lw/1.jpg"",""time"":65},{""stimulus"":""img/red_lw/2.jpg"",""time"":110},{""stimulus"":""img/red_lw/3.jpg"",""time"":156},{""stimulus"":""img/red_lw/4.jpg"",""time"":204},{""stimulus"":""img/red_lw/5.jpg"",""time"":251},{""stimulus"":""img/red_lw/6.jpg"",""time"":301},{""stimulus"":""img/red_lw/7.jpg"",""time"":351},{""stimulus"":""img/red_lw/8.jpg"",""time"":411},{""stimulus"":""img/red_lw/9.jpg"",""time"":451},{""stimulus"":""img/red_lw/10.jpg"",""time"":504},{""stimulus"":""img/red_lw/11.jpg"",""time"":566}]","[]"
"image-keyboard-response","26","217507","0.0-5.0-1.11","63f791c69ca73d3460eeb2d9","bdp_lott","Sun Mar 26 2023 07:48:54 GMT-0700 (Pacific Daylight Time)","493036","green","red","","652","","","","choice","","img/red_lw/choose11.jpg","2","214","red","0.5","0.5","0.5","w","",""
"animation","27","218122","0.0-5.0-2.11","63f791c69ca73d3460eeb2d9","bdp_lott","Sun Mar 26 2023 07:48:54 GMT-0700 (Pacific Daylight Time)","493036","green","red","","","","","","","","","","214","","","","","","[{""stimulus"":""img/red_lw/1.jpg"",""time"":58},{""stimulus"":""img/red_lw/2.jpg"",""time"":104},{""stimulus"":""img/red_lw/3.jpg"",""time"":152},{""stimulus"":""img/red_lw/4.jpg"",""time"":212},{""stimulus"":""img/red_lw/5.jpg"",""time"":258},{""stimulus"":""img/red_lw/6.jpg"",""time"":301},{""stimulus"":""img/red_lw/7.jpg"",""time"":352},{""stimulus"":""img/red_lw/8.jpg"",""time"":415},{""stimulus"":""img/red_lw/9.jpg"",""time"":461},{""stimulus"":""img/red_lw/10.jpg"",""time"":507},{""stimulus"":""img/red_lw/11.jpg"",""time"":551}]","[]"
"image-keyboard-response","28","218696","0.0-5.0-1.12","63f791c69ca73d3460eeb2d9","bdp_lott","Sun Mar 26 2023 07:48:54 GMT-0700 (Pacific Daylight Time)","493036","green","red","","573","","","","choice","","img/red_lw/choose11.jpg","2","213","red","0.5","0.5","0.5","w","",""
"animation","29","219309","0.0-5.0-2.12","63f791c69ca73d3460eeb2d9","bdp_lott","Sun Mar 26 2023 07:48:54 GMT-0700 (Pacific Daylight Time)","493036","green","red","","","","","","","","","","213","","","","","","[{""stimulus"":""img/red_lw/1.jpg"",""time"":51},{""stimulus"":""img/red_lw/2.jpg"",""time"":107},{""stimulus"":""img/red_lw/3.jpg"",""time"":152},{""stimulus"":""img/red_lw/4.jpg"",""time"":201},{""stimulus"":""img/red_lw/5.jpg"",""time"":260},{""stimulus"":""img/red_lw/6.jpg"",""time"":306},{""stimulus"":""img/red_lw/7.jpg"",""time"":352},{""stimulus"":""img/red_lw/8.jpg"",""time"":414},{""stimulus"":""img/red_lw/9.jpg"",""time"":461},{""stimulus"":""img/red_lw/10.jpg"",""time"":506},{""stimulus"":""img/red_lw/11.jpg"",""time"":551}]","[]"
"image-keyboard-response","30","219880","0.0-5.0-1.13","63f791c69ca73d3460eeb2d9","bdp_lott","Sun Mar 26 2023 07:48:54 GMT-0700 (Pacific Daylight Time)","493036","green","red","","569","","","","choice","","img/red_lw/choose11.jpg","2","212","red","0.5","0.5","0.5","l","",""
"animation","31","220482","0.0-5.0-2.13","63f791c69ca73d3460eeb2d9","bdp_lott","Sun Mar 26 2023 07:48:54 GMT-0700 (Pacific Daylight Time)","493036","green","red","","","","","","","","","","212","","","","","","[{""stimulus"":""img/red_ll/1.jpg"",""time"":61},{""stimulus"":""img/red_ll/2.jpg"",""time"":107},{""stimulus"":""img/red_ll/3.jpg"",""time"":153},{""stimulus"":""img/red_ll/4.jpg"",""time"":201},{""stimulus"":""img/red_ll/5.jpg"",""time"":261},{""stimulus"":""img/red_ll/6.jpg"",""time"":307},{""stimulus"":""img/red_ll/7.jpg"",""time"":353},{""stimulus"":""img/red_ll/8.jpg"",""time"":415},{""stimulus"":""img/red_ll/9.jpg"",""time"":461},{""stimulus"":""img/red_ll/10.jpg"",""time"":511},{""stimulus"":""img/red_ll/11.jpg"",""time"":551}]","[]"
"image-keyboard-response","32","221750","0.0-5.0-1.14","63f791c69ca73d3460eeb2d9","bdp_lott","Sun Mar 26 2023 07:48:54 GMT-0700 (Pacific Daylight Time)","493036","green","red","","1266","","","","choice","","img/red_ll/choose11.jpg","2","211","red","0.5","0.5","0.5","l","",""
"animation","33","222351","0.0-5.0-2.14","63f791c69ca73d3460eeb2d9","bdp_lott","Sun Mar 26 2023 07:48:54 GMT-0700 (Pacific Daylight Time)","493036","green","red","","","","","","","","","","211","","","","","","[{""stimulus"":""img/red_ll/1.jpg"",""time"":51},{""stimulus"":""img/red_ll/2.jpg"",""time"":107},{""stimulus"":""img/red_ll/3.jpg"",""time"":153},{""stimulus"":""img/red_ll/4.jpg"",""time"":214},{""stimulus"":""img/red_ll/5.jpg"",""time"":261},{""stimulus"":""img/red_ll/6.jpg"",""time"":307},{""stimulus"":""img/red_ll/7.jpg"",""time"":351},{""stimulus"":""img/red_ll/8.jpg"",""time"":416},{""stimulus"":""img/red_ll/9.jpg"",""time"":462},{""stimulus"":""img/red_ll/10.jpg"",""time"":508},{""stimulus"":""img/red_ll/11.jpg"",""time"":554}]","[]"
"image-keyboard-response","34","222773","0.0-5.0-1.15","63f791c69ca73d3460eeb2d9","bdp_lott","Sun Mar 26 2023 07:48:54 GMT-0700 (Pacific Daylight Time)","493036","green","red","","421","","","","choice","","img/red_ll/choose11.jpg","2","210","red","0.5","0.5","0.5","l","",""
"animation","35","223375","0.0-5.0-2.15","63f791c69ca73d3460eeb2d9","bdp_lott","Sun Mar 26 2023 07:48:54 GMT-0700 (Pacific Daylight Time)","493036","green","red","","","","","","","","","","210","","","","","","[{""stimulus"":""img/red_ll/1.jpg"",""time"":51},{""stimulus"":""img/red_ll/2.jpg"",""time"":102},{""stimulus"":""img/red_ll/3.jpg"",""time"":164},{""stimulus"":""img/red_ll/4.jpg"",""time"":210},{""stimulus"":""img/red_ll/5.jpg"",""time"":252},{""stimulus"":""img/red_ll/6.jpg"",""time"":305},{""stimulus"":""img/red_ll/7.jpg"",""time"":350},{""stimulus"":""img/red_ll/8.jpg"",""time"":401},{""stimulus"":""img/red_ll/9.jpg"",""time"":450},{""stimulus"":""img/red_ll/10.jpg"",""time"":500},{""stimulus"":""img/red_ll/11.jpg"",""time"":558}]","[]"
"image-keyboard-response","36","224624","0.0-5.0-1.16","63f791c69ca73d3460eeb2d9","bdp_lott","Sun Mar 26 2023 07:48:54 GMT-0700 (Pacific Daylight Time)","493036","green","red","","1249","","","","choice","","img/red_ll/choose11.jpg","1","209","green","0.5","0.5","0.5","w","",""
"animation","37","225227","0.0-5.0-2.16","63f791c69ca73d3460eeb2d9","bdp_lott","Sun Mar 26 2023 07:48:54 GMT-0700 (Pacific Daylight Time)","493036","green","red","","","","","","","","","","209","","","","","","[{""stimulus"":""img/green_wl/1.jpg"",""time"":65},{""stimulus"":""img/green_wl/2.jpg"",""time"":111},{""stimulus"":""img/green_wl/3.jpg"",""time"":158},{""stimulus"":""img/green_wl/4.jpg"",""time"":203},{""stimulus"":""img/green_wl/5.jpg"",""time"":251},{""stimulus"":""img/green_wl/6.jpg"",""time"":311},{""stimulus"":""img/green_wl/7.jpg"",""time"":357},{""stimulus"":""img/green_wl/8.jpg"",""time"":401},{""stimulus"":""img/green_wl/9.jpg"",""time"":465},{""stimulus"":""img/green_wl/10.jpg"",""time"":511},{""stimulus"":""img/green_wl/11.jpg"",""time"":557}]","[]"
"image-keyboard-response","38","225861","0.0-5.0-1.17","63f791c69ca73d3460eeb2d9","bdp_lott","Sun Mar 26 2023 07:48:54 GMT-0700 (Pacific Daylight Time)","493036","green","red","","632","","","","choice","","img/green_wl/choose11.jpg","1","208","green","0.5","0.5","0.5","l","",""
"animation","39","226464","0.0-5.0-2.17","63f791c69ca73d3460eeb2d9","bdp_lott","Sun Mar 26 2023 07:48:54 GMT-0700 (Pacific Daylight Time)","493036","green","red","","","","","","","","","","208","","","","","","[{""stimulus"":""img/green_ll/1.jpg"",""time"":51},{""stimulus"":""img/green_ll/2.jpg"",""time"":108},{""stimulus"":""img/green_ll/3.jpg"",""time"":154},{""stimulus"":""img/green_ll/4.jpg"",""time"":215},{""stimulus"":""img/green_ll/5.jpg"",""time"":262},{""stimulus"":""img/green_ll/6.jpg"",""time"":308},{""stimulus"":""img/green_ll/7.jpg"",""time"":354},{""stimulus"":""img/green_ll/8.jpg"",""time"":402},{""stimulus"":""img/green_ll/9.jpg"",""time"":462},{""stimulus"":""img/green_ll/10.jpg"",""time"":509},{""stimulus"":""img/green_ll/11.jpg"",""time"":557}]","[]"
"image-keyboard-response","40","227726","0.0-5.0-1.18","63f791c69ca73d3460eeb2d9","bdp_lott","Sun Mar 26 2023 07:48:54 GMT-0700 (Pacific Daylight Time)","493036","green","red","","1260","","","","choice","","img/green_ll/choose11.jpg","1","207","green","0.5","0.5","0.5","l","",""
"animation","41","228335","0.0-5.0-2.18","63f791c69ca73d3460eeb2d9","bdp_lott","Sun Mar 26 2023 07:48:54 GMT-0700 (Pacific Daylight Time)","493036","green","red","","","","","","","","","","207","","","","","","[{""stimulus"":""img/green_ll/1.jpg"",""time"":52},{""stimulus"":""img/green_ll/2.jpg"",""time"":113},{""stimulus"":""img/green_ll/3.jpg"",""time"":151},{""stimulus"":""img/green_ll/4.jpg"",""time"":207},{""stimulus"":""img/green_ll/5.jpg"",""time"":253},{""stimulus"":""img/green_ll/6.jpg"",""time"":314},{""stimulus"":""img/green_ll/7.jpg"",""time"":351},{""stimulus"":""img/green_ll/8.jpg"",""time"":401},{""stimulus"":""img/green_ll/9.jpg"",""time"":454},{""stimulus"":""img/green_ll/10.jpg"",""time"":501},{""stimulus"":""img/green_ll/11.jpg"",""time"":563}]","[]"
"image-keyboard-response","42","229371","0.0-5.0-1.19","63f791c69ca73d3460eeb2d9","bdp_lott","Sun Mar 26 2023 07:48:54 GMT-0700 (Pacific Daylight Time)","493036","green","red","","1034","","","","choice","","img/green_ll/choose11.jpg","2","206","red","0.5","0.5","0.5","w","",""
"animation","43","229973","0.0-5.0-2.19","63f791c69ca73d3460eeb2d9","bdp_lott","Sun Mar 26 2023 07:48:54 GMT-0700 (Pacific Daylight Time)","493036","green","red","","","","","","","","","","206","","","","","","[{""stimulus"":""img/red_lw/1.jpg"",""time"":51},{""stimulus"":""img/red_lw/2.jpg"",""time"":107},{""stimulus"":""img/red_lw/3.jpg"",""time"":153},{""stimulus"":""img/red_lw/4.jpg"",""time"":215},{""stimulus"":""img/red_lw/5.jpg"",""time"":261},{""stimulus"":""img/red_lw/6.jpg"",""time"":301},{""stimulus"":""img/red_lw/7.jpg"",""time"":352},{""stimulus"":""img/red_lw/8.jpg"",""time"":401},{""stimulus"":""img/red_lw/9.jpg"",""time"":461},{""stimulus"":""img/red_lw/10.jpg"",""time"":508},{""stimulus"":""img/red_lw/11.jpg"",""time"":554}]","[]"
"image-keyboard-response","44","230696","0.0-5.0-1.20","63f791c69ca73d3460eeb2d9","bdp_lott","Sun Mar 26 2023 07:48:54 GMT-0700 (Pacific Daylight Time)","493036","green","red","","721","","","","choice","","img/red_lw/choose11.jpg","2","205","red","0.5","0.5","0.5","w","",""
"animation","45","231300","0.0-5.0-2.20","63f791c69ca73d3460eeb2d9","bdp_lott","Sun Mar 26 2023 07:48:54 GMT-0700 (Pacific Daylight Time)","493036","green","red","","","","","","","","","","205","","","","","","[{""stimulus"":""img/red_lw/1.jpg"",""time"":51},{""stimulus"":""img/red_lw/2.jpg"",""time"":108},{""stimulus"":""img/red_lw/3.jpg"",""time"":155},{""stimulus"":""img/red_lw/4.jpg"",""time"":202},{""stimulus"":""img/red_lw/5.jpg"",""time"":250},{""stimulus"":""img/red_lw/6.jpg"",""time"":310},{""stimulus"":""img/red_lw/7.jpg"",""time"":357},{""stimulus"":""img/red_lw/8.jpg"",""time"":403},{""stimulus"":""img/red_lw/9.jpg"",""time"":465},{""stimulus"":""img/red_lw/10.jpg"",""time"":512},{""stimulus"":""img/red_lw/11.jpg"",""time"":552}]","[]"
"image-keyboard-response","46","231732","0.0-5.0-1.21","63f791c69ca73d3460eeb2d9","bdp_lott","Sun Mar 26 2023 07:48:54 GMT-0700 (Pacific Daylight Time)","493036","green","red","","431","","","","choice","","img/red_lw/choose11.jpg","2","204","red","0.5","0.5","0.5","l","",""
"animation","47","232343","0.0-5.0-2.21","63f791c69ca73d3460eeb2d9","bdp_lott","Sun Mar 26 2023 07:48:54 GMT-0700 (Pacific Daylight Time)","493036","green","red","","","","","","","","","","204","","","","","","[{""stimulus"":""img/red_ll/1.jpg"",""time"":51},{""stimulus"":""img/red_ll/2.jpg"",""time"":113},{""stimulus"":""img/red_ll/3.jpg"",""time"":157},{""stimulus"":""img/red_ll/4.jpg"",""time"":207},{""stimulus"":""img/red_ll/5.jpg"",""time"":251},{""stimulus"":""img/red_ll/6.jpg"",""time"":302},{""stimulus"":""img/red_ll/7.jpg"",""time"":351},{""stimulus"":""img/red_ll/8.jpg"",""time"":401},{""stimulus"":""img/red_ll/9.jpg"",""time"":456},{""stimulus"":""img/red_ll/10.jpg"",""time"":504},{""stimulus"":""img/red_ll/11.jpg"",""time"":565}]","[]"
"image-keyboard-response","48","233670","0.0-5.0-1.22","63f791c69ca73d3460eeb2d9","bdp_lott","Sun Mar 26 2023 07:48:54 GMT-0700 (Pacific Daylight Time)","493036","green","red","","1326","","","","choice","","img/red_ll/choose11.jpg","1","203","green","0.5","0.5","0.5","w","",""
"animation","49","234274","0.0-5.0-2.22","63f791c69ca73d3460eeb2d9","bdp_lott","Sun Mar 26 2023 07:48:54 GMT-0700 (Pacific Daylight Time)","493036","green","red","","","","","","","","","","203","","","","","","[{""stimulus"":""img/green_wl/1.jpg"",""time"":51},{""stimulus"":""img/green_wl/2.jpg"",""time"":109},{""stimulus"":""img/green_wl/3.jpg"",""time"":155},{""stimulus"":""img/green_wl/4.jpg"",""time"":202},{""stimulus"":""img/green_wl/5.jpg"",""time"":264},{""stimulus"":""img/green_wl/6.jpg"",""time"":310},{""stimulus"":""img/green_wl/7.jpg"",""time"":351},{""stimulus"":""img/green_wl/8.jpg"",""time"":402},{""stimulus"":""img/green_wl/9.jpg"",""time"":465},{""stimulus"":""img/green_wl/10.jpg"",""time"":512},{""stimulus"":""img/green_wl/11.jpg"",""time"":558}]","[]"
"image-keyboard-response","50","234971","0.0-5.0-1.23","63f791c69ca73d3460eeb2d9","bdp_lott","Sun Mar 26 2023 07:48:54 GMT-0700 (Pacific Daylight Time)","493036","green","red","","695","","","","choice","","img/green_wl/choose11.jpg","1","202","green","0.5","0.5","0.5","l","",""
"animation","51","235573","0.0-5.0-2.23","63f791c69ca73d3460eeb2d9","bdp_lott","Sun Mar 26 2023 07:48:54 GMT-0700 (Pacific Daylight Time)","493036","green","red","","","","","","","","","","202","","","","","","[{""stimulus"":""img/green_ll/1.jpg"",""time"":59},{""stimulus"":""img/green_ll/2.jpg"",""time"":105},{""stimulus"":""img/green_ll/3.jpg"",""time"":152},{""stimulus"":""img/green_ll/4.jpg"",""time"":213},{""stimulus"":""img/green_ll/5.jpg"",""time"":259},{""stimulus"":""img/green_ll/6.jpg"",""time"":301},{""stimulus"":""img/green_ll/7.jpg"",""time"":356},{""stimulus"":""img/green_ll/8.jpg"",""time"":402},{""stimulus"":""img/green_ll/9.jpg"",""time"":463},{""stimulus"":""img/green_ll/10.jpg"",""time"":509},{""stimulus"":""img/green_ll/11.jpg"",""time"":551}]","[]"
"image-keyboard-response","52","236145","0.0-5.0-1.24","63f791c69ca73d3460eeb2d9","bdp_lott","Sun Mar 26 2023 07:48:54 GMT-0700 (Pacific Daylight Time)","493036","green","red","","570","","","","choice","","img/green_ll/choose11.jpg","1","201","green","0.5","0.5","0.5","w","",""
"animation","53","236747","0.0-5.0-2.24","63f791c69ca73d3460eeb2d9","bdp_lott","Sun Mar 26 2023 07:48:54 GMT-0700 (Pacific Daylight Time)","493036","green","red","","","","","","","","","","201","","","","","","[{""stimulus"":""img/green_wl/1.jpg"",""time"":60},{""stimulus"":""img/green_wl/2.jpg"",""time"":106},{""stimulus"":""img/green_wl/3.jpg"",""time"":152},{""stimulus"":""img/green_wl/4.jpg"",""time"":201},{""stimulus"":""img/green_wl/5.jpg"",""time"":260},{""stimulus"":""img/green_wl/6.jpg"",""time"":308},{""stimulus"":""img/green_wl/7.jpg"",""time"":351},{""stimulus"":""img/green_wl/8.jpg"",""time"":401},{""stimulus"":""img/green_wl/9.jpg"",""time"":462},{""stimulus"":""img/green_wl/10.jpg"",""time"":508},{""stimulus"":""img/green_wl/11.jpg"",""time"":556}]","[]"
"image-keyboard-response","54","239355","0.0-5.0-1.25","63f791c69ca73d3460eeb2d9","bdp_lott","Sun Mar 26 2023 07:48:54 GMT-0700 (Pacific Daylight Time)","493036","green","red","","2606","","","","choice","","img/green_wl/choose11.jpg","1","200","green","0.5","0.5","0.5","l","",""
"animation","55","239971","0.0-5.0-2.25","63f791c69ca73d3460eeb2d9","bdp_lott","Sun Mar 26 2023 07:48:54 GMT-0700 (Pacific Daylight Time)","493036","green","red","","","","","","","","","","200","","","","","","[{""stimulus"":""img/green_ll/1.jpg"",""time"":52},{""stimulus"":""img/green_ll/2.jpg"",""time"":105},{""stimulus"":""img/green_ll/3.jpg"",""time"":151},{""stimulus"":""img/green_ll/4.jpg"",""time"":213},{""stimulus"":""img/green_ll/5.jpg"",""time"":259},{""stimulus"":""img/green_ll/6.jpg"",""time"":304},{""stimulus"":""img/green_ll/7.jpg"",""time"":351},{""stimulus"":""img/green_ll/8.jpg"",""time"":414},{""stimulus"":""img/green_ll/9.jpg"",""time"":460},{""stimulus"":""img/green_ll/10.jpg"",""time"":506},{""stimulus"":""img/green_ll/11.jpg"",""time"":551}]","[]"
"image-keyboard-response","56","241841","0.0-5.0-1.26","63f791c69ca73d3460eeb2d9","bdp_lott","Sun Mar 26 2023 07:48:54 GMT-0700 (Pacific Daylight Time)","493036","green","red","","1869","","","","choice","","img/green_ll/choose11.jpg","1","199","green","0.5","0.5","0.5","w","",""
"animation","57","242442","0.0-5.0-2.26","63f791c69ca73d3460eeb2d9","bdp_lott","Sun Mar 26 2023 07:48:54 GMT-0700 (Pacific Daylight Time)","493036","green","red","","","","","","","","","","199","","","","","","[{""stimulus"":""img/green_wl/1.jpg"",""time"":51},{""stimulus"":""img/green_wl/2.jpg"",""time"":106},{""stimulus"":""img/green_wl/3.jpg"",""time"":152},{""stimulus"":""img/green_wl/4.jpg"",""time"":214},{""stimulus"":""img/green_wl/5.jpg"",""time"":260},{""stimulus"":""img/green_wl/6.jpg"",""time"":305},{""stimulus"":""img/green_wl/7.jpg"",""time"":352},{""stimulus"":""img/green_wl/8.jpg"",""time"":414},{""stimulus"":""img/green_wl/9.jpg"",""time"":459},{""stimulus"":""img/green_wl/10.jpg"",""time"":508},{""stimulus"":""img/green_wl/11.jpg"",""time"":551}]","[]"
"image-keyboard-response","58","243053","0.0-5.0-1.27","63f791c69ca73d3460eeb2d9","bdp_lott","Sun Mar 26 2023 07:48:54 GMT-0700 (Pacific Daylight Time)","493036","green","red","","610","","","","choice","","img/green_wl/choose11.jpg","1","198","green","0.5","0.5","0.5","w","",""
"animation","59","243660","0.0-5.0-2.27","63f791c69ca73d3460eeb2d9","bdp_lott","Sun Mar 26 2023 07:48:54 GMT-0700 (Pacific Daylight Time)","493036","green","red","","","","","","","","","","198","","","","","","[{""stimulus"":""img/green_wl/1.jpg"",""time"":51},{""stimulus"":""img/green_wl/2.jpg"",""time"":113},{""stimulus"":""img/green_wl/3.jpg"",""time"":160},{""stimulus"":""img/green_wl/4.jpg"",""time"":201},{""stimulus"":""img/green_wl/5.jpg"",""time"":250},{""stimulus"":""img/green_wl/6.jpg"",""time"":313},{""stimulus"":""img/green_wl/7.jpg"",""time"":359},{""stimulus"":""img/green_wl/8.jpg"",""time"":406},{""stimulus"":""img/green_wl/9.jpg"",""time"":453},{""stimulus"":""img/green_wl/10.jpg"",""time"":514},{""stimulus"":""img/green_wl/11.jpg"",""time"":561}]","[]"
"image-keyboard-response","60","245151","0.0-5.0-1.28","63f791c69ca73d3460eeb2d9","bdp_lott","Sun Mar 26 2023 07:48:54 GMT-0700 (Pacific Daylight Time)","493036","green","red","","1489","","","","choice","","img/green_wl/choose11.jpg","1","197","green","0.5","0.5","0.5","l","",""
"animation","61","245763","0.0-5.0-2.28","63f791c69ca73d3460eeb2d9","bdp_lott","Sun Mar 26 2023 07:48:54 GMT-0700 (Pacific Daylight Time)","493036","green","red","","","","","","","","","","197","","","","","","[{""stimulus"":""img/green_ll/1.jpg"",""time"":51},{""stimulus"":""img/green_ll/2.jpg"",""time"":115},{""stimulus"":""img/green_ll/3.jpg"",""time"":161},{""stimulus"":""img/green_ll/4.jpg"",""time"":208},{""stimulus"":""img/green_ll/5.jpg"",""time"":254},{""stimulus"":""img/green_ll/6.jpg"",""time"":301},{""stimulus"":""img/green_ll/7.jpg"",""time"":362},{""stimulus"":""img/green_ll/8.jpg"",""time"":408},{""stimulus"":""img/green_ll/9.jpg"",""time"":459},{""stimulus"":""img/green_ll/10.jpg"",""time"":505},{""stimulus"":""img/green_ll/11.jpg"",""time"":551}]","[]"
"image-keyboard-response","62","248189","0.0-5.0-1.29","63f791c69ca73d3460eeb2d9","bdp_lott","Sun Mar 26 2023 07:48:54 GMT-0700 (Pacific Daylight Time)","493036","green","red","","2425","","","","choice","","img/green_ll/choose11.jpg","1","196","green","0.5","0.5","0.5","l","",""
"animation","63","248797","0.0-5.0-2.29","63f791c69ca73d3460eeb2d9","bdp_lott","Sun Mar 26 2023 07:48:54 GMT-0700 (Pacific Daylight Time)","493036","green","red","","","","","","","","","","196","","","","","","[{""stimulus"":""img/green_ll/1.jpg"",""time"":51},{""stimulus"":""img/green_ll/2.jpg"",""time"":109},{""stimulus"":""img/green_ll/3.jpg"",""time"":151},{""stimulus"":""img/green_ll/4.jpg"",""time"":201},{""stimulus"":""img/green_ll/5.jpg"",""time"":251},{""stimulus"":""img/green_ll/6.jpg"",""time"":313},{""stimulus"":""img/green_ll/7.jpg"",""time"":359},{""stimulus"":""img/green_ll/8.jpg"",""time"":405},{""stimulus"":""img/green_ll/9.jpg"",""time"":451},{""stimulus"":""img/green_ll/10.jpg"",""time"":513},{""stimulus"":""img/green_ll/11.jpg"",""time"":551}]","[]"
"image-keyboard-response","64","249394","0.0-5.0-1.30","63f791c69ca73d3460eeb2d9","bdp_lott","Sun Mar 26 2023 07:48:54 GMT-0700 (Pacific Daylight Time)","493036","green","red","","595","","","","choice","","img/green_ll/choose11.jpg","1","195","green","0.5","0.5","0.5","w","",""
"animation","65","250008","0.0-5.0-2.30","63f791c69ca73d3460eeb2d9","bdp_lott","Sun Mar 26 2023 07:48:54 GMT-0700 (Pacific Daylight Time)","493036","green","red","","","","","","","","","","195","","","","","","[{""stimulus"":""img/green_wl/1.jpg"",""time"":53},{""stimulus"":""img/green_wl/2.jpg"",""time"":115},{""stimulus"":""img/green_wl/3.jpg"",""time"":160},{""stimulus"":""img/green_wl/4.jpg"",""time"":207},{""stimulus"":""img/green_wl/5.jpg"",""time"":253},{""stimulus"":""img/green_wl/6.jpg"",""time"":315},{""stimulus"":""img/green_wl/7.jpg"",""time"":364},{""stimulus"":""img/green_wl/8.jpg"",""time"":411},{""stimulus"":""img/green_wl/9.jpg"",""time"":451},{""stimulus"":""img/green_wl/10.jpg"",""time"":507},{""stimulus"":""img/green_wl/11.jpg"",""time"":553}]","[]"
"image-keyboard-response","66","253565","0.0-5.0-1.31","63f791c69ca73d3460eeb2d9","bdp_lott","Sun Mar 26 2023 07:48:54 GMT-0700 (Pacific Daylight Time)","493036","green","red","","3555","","","","choice","","img/green_wl/choose11.jpg","2","194","red","0.5","0.5","0.5","w","",""
"animation","67","254180","0.0-5.0-2.31","63f791c69ca73d3460eeb2d9","bdp_lott","Sun Mar 26 2023 07:48:54 GMT-0700 (Pacific Daylight Time)","493036","green","red","","","","","","","","","","194","","","","","","[{""stimulus"":""img/red_ww/1.jpg"",""time"":51},{""stimulus"":""img/red_ww/2.jpg"",""time"":101},{""stimulus"":""img/red_ww/3.jpg"",""time"":164},{""stimulus"":""img/red_ww/4.jpg"",""time"":210},{""stimulus"":""img/red_ww/5.jpg"",""time"":256},{""stimulus"":""img/red_ww/6.jpg"",""time"":302},{""stimulus"":""img/red_ww/7.jpg"",""time"":352},{""stimulus"":""img/red_ww/8.jpg"",""time"":413},{""stimulus"":""img/red_ww/9.jpg"",""time"":460},{""stimulus"":""img/red_ww/10.jpg"",""time"":507},{""stimulus"":""img/red_ww/11.jpg"",""time"":554}]","[]"
"image-keyboard-response","68","254580","0.0-5.0-1.32","63f791c69ca73d3460eeb2d9","bdp_lott","Sun Mar 26 2023 07:48:54 GMT-0700 (Pacific Daylight Time)","493036","green","red","","399","","","","choice","","img/red_ww/choose11.jpg","2","193","red","0.5","0.5","0.5","l","",""
"animation","69","255182","0.0-5.0-2.32","63f791c69ca73d3460eeb2d9","bdp_lott","Sun Mar 26 2023 07:48:54 GMT-0700 (Pacific Daylight Time)","493036","green","red","","","","","","","","","","193","","","","","","[{""stimulus"":""img/red_wl/1.jpg"",""time"":61},{""stimulus"":""img/red_wl/2.jpg"",""time"":108},{""stimulus"":""img/red_wl/3.jpg"",""time"":154},{""stimulus"":""img/red_wl/4.jpg"",""time"":201},{""stimulus"":""img/red_wl/5.jpg"",""time"":262},{""stimulus"":""img/red_wl/6.jpg"",""time"":307},{""stimulus"":""img/red_wl/7.jpg"",""time"":353},{""stimulus"":""img/red_wl/8.jpg"",""time"":404},{""stimulus"":""img/red_wl/9.jpg"",""time"":465},{""stimulus"":""img/red_wl/10.jpg"",""time"":511},{""stimulus"":""img/red_wl/11.jpg"",""time"":557}]","[]"
"image-keyboard-response","70","255697","0.0-5.0-1.33","63f791c69ca73d3460eeb2d9","bdp_lott","Sun Mar 26 2023 07:48:54 GMT-0700 (Pacific Daylight Time)","493036","green","red","","514","","","","choice","","img/red_wl/choose11.jpg","2","192","red","0.5","0.5","0.5","l","",""
"animation","71","256298","0.0-5.0-2.33","63f791c69ca73d3460eeb2d9","bdp_lott","Sun Mar 26 2023 07:48:54 GMT-0700 (Pacific Daylight Time)","493036","green","red","","","","","","","","","","192","","","","","","[{""stimulus"":""img/red_wl/1.jpg"",""time"":51},{""stimulus"":""img/red_wl/2.jpg"",""time"":103},{""stimulus"":""img/red_wl/3.jpg"",""time"":164},{""stimulus"":""img/red_wl/4.jpg"",""time"":211},{""stimulus"":""img/red_wl/5.jpg"",""time"":251},{""stimulus"":""img/red_wl/6.jpg"",""time"":302},{""stimulus"":""img/red_wl/7.jpg"",""time"":351},{""stimulus"":""img/red_wl/8.jpg"",""time"":411},{""stimulus"":""img/red_wl/9.jpg"",""time"":456},{""stimulus"":""img/red_wl/10.jpg"",""time"":501},{""stimulus"":""img/red_wl/11.jpg"",""time"":551}]","[]"
"image-keyboard-response","72","256670","0.0-5.0-1.34","63f791c69ca73d3460eeb2d9","bdp_lott","Sun Mar 26 2023 07:48:54 GMT-0700 (Pacific Daylight Time)","493036","green","red","","371","","","","choice","","img/red_wl/choose11.jpg","1","191","green","0.5","0.5","0.5","w","",""
"animation","73","257271","0.0-5.0-2.34","63f791c69ca73d3460eeb2d9","bdp_lott","Sun Mar 26 2023 07:48:54 GMT-0700 (Pacific Daylight Time)","493036","green","red","","","","","","","","","","191","","","","","","[{""stimulus"":""img/green_wl/1.jpg"",""time"":56},{""stimulus"":""img/green_wl/2.jpg"",""time"":101},{""stimulus"":""img/green_wl/3.jpg"",""time"":164},{""stimulus"":""img/green_wl/4.jpg"",""time"":201},{""stimulus"":""img/green_wl/5.jpg"",""time"":255},{""stimulus"":""img/green_wl/6.jpg"",""time"":302},{""stimulus"":""img/green_wl/7.jpg"",""time"":363},{""stimulus"":""img/green_wl/8.jpg"",""time"":410},{""stimulus"":""img/green_wl/9.jpg"",""time"":456},{""stimulus"":""img/green_wl/10.jpg"",""time"":502},{""stimulus"":""img/green_wl/11.jpg"",""time"":564}]","[]"
"image-keyboard-response","74","257679","0.0-5.0-1.35","63f791c69ca73d3460eeb2d9","bdp_lott","Sun Mar 26 2023 07:48:54 GMT-0700 (Pacific Daylight Time)","493036","green","red","","407","","","","choice","","img/green_wl/choose11.jpg","1","190","green","0.5","0.5","0.5","w","",""
"animation","75","258287","0.0-5.0-2.35","63f791c69ca73d3460eeb2d9","bdp_lott","Sun Mar 26 2023 07:48:54 GMT-0700 (Pacific Daylight Time)","493036","green","red","","","","","","","","","","190","","","","","","[{""stimulus"":""img/green_wl/1.jpg"",""time"":51},{""stimulus"":""img/green_wl/2.jpg"",""time"":114},{""stimulus"":""img/green_wl/3.jpg"",""time"":160},{""stimulus"":""img/green_wl/4.jpg"",""time"":206},{""stimulus"":""img/green_wl/5.jpg"",""time"":252},{""stimulus"":""img/green_wl/6.jpg"",""time"":313},{""stimulus"":""img/green_wl/7.jpg"",""time"":360},{""stimulus"":""img/green_wl/8.jpg"",""time"":406},{""stimulus"":""img/green_wl/9.jpg"",""time"":451},{""stimulus"":""img/green_wl/10.jpg"",""time"":514},{""stimulus"":""img/green_wl/11.jpg"",""time"":551}]","[]"
"image-keyboard-response","76","258601","0.0-5.0-1.36","63f791c69ca73d3460eeb2d9","bdp_lott","Sun Mar 26 2023 07:48:54 GMT-0700 (Pacific Daylight Time)","493036","green","red","","313","","","","choice","","img/green_wl/choose11.jpg","1","189","green","0.5","0.5","0.5","w","",""
"animation","77","259211","0.0-5.0-2.36","63f791c69ca73d3460eeb2d9","bdp_lott","Sun Mar 26 2023 07:48:54 GMT-0700 (Pacific Daylight Time)","493036","green","red","","","","","","","","","","189","","","","","","[{""stimulus"":""img/green_wl/1.jpg"",""time"":51},{""stimulus"":""img/green_wl/2.jpg"",""time"":100},{""stimulus"":""img/green_wl/3.jpg"",""time"":161},{""stimulus"":""img/green_wl/4.jpg"",""time"":201},{""stimulus"":""img/green_wl/5.jpg"",""time"":256},{""stimulus"":""img/green_wl/6.jpg"",""time"":301},{""stimulus"":""img/green_wl/7.jpg"",""time"":363},{""stimulus"":""img/green_wl/8.jpg"",""time"":401},{""stimulus"":""img/green_wl/9.jpg"",""time"":456},{""stimulus"":""img/green_wl/10.jpg"",""time"":503},{""stimulus"":""img/green_wl/11.jpg"",""time"":550}]","[]"
"image-keyboard-response","78","259632","0.0-5.0-1.37","63f791c69ca73d3460eeb2d9","bdp_lott","Sun Mar 26 2023 07:48:54 GMT-0700 (Pacific Daylight Time)","493036","green","red","","420","","","","choice","","img/green_wl/choose11.jpg","1","188","green","0.5","0.5","0.5","l","",""
"animation","79","260246","0.0-5.0-2.37","63f791c69ca73d3460eeb2d9","bdp_lott","Sun Mar 26 2023 07:48:54 GMT-0700 (Pacific Daylight Time)","493036","green","red","","","","","","","","","","188","","","","","","[{""stimulus"":""img/green_ll/1.jpg"",""time"":55},{""stimulus"":""img/green_ll/2.jpg"",""time"":102},{""stimulus"":""img/green_ll/3.jpg"",""time"":153},{""stimulus"":""img/green_ll/4.jpg"",""time"":210},{""stimulus"":""img/green_ll/5.jpg"",""time"":257},{""stimulus"":""img/green_ll/6.jpg"",""time"":303},{""stimulus"":""img/green_ll/7.jpg"",""time"":365},{""stimulus"":""img/green_ll/8.jpg"",""time"":412},{""stimulus"":""img/green_ll/9.jpg"",""time"":458},{""stimulus"":""img/green_ll/10.jpg"",""time"":505},{""stimulus"":""img/green_ll/11.jpg"",""time"":551}]","[]"
"image-keyboard-response","80","260870","0.0-5.0-1.38","63f791c69ca73d3460eeb2d9","bdp_lott","Sun Mar 26 2023 07:48:54 GMT-0700 (Pacific Daylight Time)","493036","green","red","","623","","","","choice","","img/green_ll/choose11.jpg","1","187","green","0.5","0.5","0.5","w","",""
"animation","81","261472","0.0-5.0-2.38","63f791c69ca73d3460eeb2d9","bdp_lott","Sun Mar 26 2023 07:48:54 GMT-0700 (Pacific Daylight Time)","493036","green","red","","","","","","","","","","187","","","","","","[{""stimulus"":""img/green_wl/1.jpg"",""time"":51},{""stimulus"":""img/green_wl/2.jpg"",""time"":101},{""stimulus"":""img/green_wl/3.jpg"",""time"":162},{""stimulus"":""img/green_wl/4.jpg"",""time"":210},{""stimulus"":""img/green_wl/5.jpg"",""time"":255},{""stimulus"":""img/green_wl/6.jpg"",""time"":301},{""stimulus"":""img/green_wl/7.jpg"",""time"":351},{""stimulus"":""img/green_wl/8.jpg"",""time"":401},{""stimulus"":""img/green_wl/9.jpg"",""time"":464},{""stimulus"":""img/green_wl/10.jpg"",""time"":509},{""stimulus"":""img/green_wl/11.jpg"",""time"":556}]","[]"
"image-keyboard-response","82","261903","0.0-5.0-1.39","63f791c69ca73d3460eeb2d9","bdp_lott","Sun Mar 26 2023 07:48:54 GMT-0700 (Pacific Daylight Time)","493036","green","red","","430","","","","choice","","img/green_wl/choose11.jpg","1","186","green","0.5","0.5","0.5","l","",""
"animation","83","262505","0.0-5.0-2.39","63f791c69ca73d3460eeb2d9","bdp_lott","Sun Mar 26 2023 07:48:54 GMT-0700 (Pacific Daylight Time)","493036","green","red","","","","","","","","","","186","","","","","","[{""stimulus"":""img/green_ll/1.jpg"",""time"":51},{""stimulus"":""img/green_ll/2.jpg"",""time"":112},{""stimulus"":""img/green_ll/3.jpg"",""time"":158},{""stimulus"":""img/green_ll/4.jpg"",""time"":201},{""stimulus"":""img/green_ll/5.jpg"",""time"":252},{""stimulus"":""img/green_ll/6.jpg"",""time"":314},{""stimulus"":""img/green_ll/7.jpg"",""time"":360},{""stimulus"":""img/green_ll/8.jpg"",""time"":406},{""stimulus"":""img/green_ll/9.jpg"",""time"":451},{""stimulus"":""img/green_ll/10.jpg"",""time"":513},{""stimulus"":""img/green_ll/11.jpg"",""time"":563}]","[]"
"image-keyboard-response","84","263777","0.0-5.0-1.40","63f791c69ca73d3460eeb2d9","bdp_lott","Sun Mar 26 2023 07:48:54 GMT-0700 (Pacific Daylight Time)","493036","green","red","","1270","","","","choice","","img/green_ll/choose11.jpg","1","185","green","0.5","0.5","0.5","w","",""
"animation","85","264381","0.0-5.0-2.40","63f791c69ca73d3460eeb2d9","bdp_lott","Sun Mar 26 2023 07:48:54 GMT-0700 (Pacific Daylight Time)","493036","green","red","","","","","","","","","","185","","","","","","[{""stimulus"":""img/green_wl/1.jpg"",""time"":62},{""stimulus"":""img/green_wl/2.jpg"",""time"":108},{""stimulus"":""img/green_wl/3.jpg"",""time"":155},{""stimulus"":""img/green_wl/4.jpg"",""time"":201},{""stimulus"":""img/green_wl/5.jpg"",""time"":263},{""stimulus"":""img/green_wl/6.jpg"",""time"":310},{""stimulus"":""img/green_wl/7.jpg"",""time"":356},{""stimulus"":""img/green_wl/8.jpg"",""time"":401},{""stimulus"":""img/green_wl/9.jpg"",""time"":464},{""stimulus"":""img/green_wl/10.jpg"",""time"":512},{""stimulus"":""img/green_wl/11.jpg"",""time"":559}]","[]"
"image-keyboard-response","86","264857","0.0-5.0-1.41","63f791c69ca73d3460eeb2d9","bdp_lott","Sun Mar 26 2023 07:48:54 GMT-0700 (Pacific Daylight Time)","493036","green","red","","475","","","","choice","","img/green_wl/choose11.jpg","1","184","green","0.5","0.5","0.5","l","",""
"animation","87","265471","0.0-5.0-2.41","63f791c69ca73d3460eeb2d9","bdp_lott","Sun Mar 26 2023 07:48:54 GMT-0700 (Pacific Daylight Time)","493036","green","red","","","","","","","","","","184","","","","","","[{""stimulus"":""img/green_ll/1.jpg"",""time"":51},{""stimulus"":""img/green_ll/2.jpg"",""time"":115},{""stimulus"":""img/green_ll/3.jpg"",""time"":161},{""stimulus"":""img/green_ll/4.jpg"",""time"":207},{""stimulus"":""img/green_ll/5.jpg"",""time"":253},{""stimulus"":""img/green_ll/6.jpg"",""time"":300},{""stimulus"":""img/green_ll/7.jpg"",""time"":351},{""stimulus"":""img/green_ll/8.jpg"",""time"":401},{""stimulus"":""img/green_ll/9.jpg"",""time"":458},{""stimulus"":""img/green_ll/10.jpg"",""time"":504},{""stimulus"":""img/green_ll/11.jpg"",""time"":550}]","[]"
"image-keyboard-response","88","265902","0.0-5.0-1.42","63f791c69ca73d3460eeb2d9","bdp_lott","Sun Mar 26 2023 07:48:54 GMT-0700 (Pacific Daylight Time)","493036","green","red","","430","","","","choice","","img/green_ll/choose11.jpg","1","183","green","0.5","0.5","0.5","l","",""
"animation","89","266503","0.0-5.0-2.42","63f791c69ca73d3460eeb2d9","bdp_lott","Sun Mar 26 2023 07:48:54 GMT-0700 (Pacific Daylight Time)","493036","green","red","","","","","","","","","","183","","","","","","[{""stimulus"":""img/green_ll/1.jpg"",""time"":51},{""stimulus"":""img/green_ll/2.jpg"",""time"":107},{""stimulus"":""img/green_ll/3.jpg"",""time"":154},{""stimulus"":""img/green_ll/4.jpg"",""time"":201},{""stimulus"":""img/green_ll/5.jpg"",""time"":262},{""stimulus"":""img/green_ll/6.jpg"",""time"":309},{""stimulus"":""img/green_ll/7.jpg"",""time"":354},{""stimulus"":""img/green_ll/8.jpg"",""time"":401},{""stimulus"":""img/green_ll/9.jpg"",""time"":462},{""stimulus"":""img/green_ll/10.jpg"",""time"":508},{""stimulus"":""img/green_ll/11.jpg"",""time"":555}]","[]"
"image-keyboard-response","90","267079","0.0-5.0-1.43","63f791c69ca73d3460eeb2d9","bdp_lott","Sun Mar 26 2023 07:48:54 GMT-0700 (Pacific Daylight Time)","493036","green","red","","575","","","","choice","","img/green_ll/choose11.jpg","2","182","red","0.5","0.5","0.5","l","",""
"animation","91","267692","0.0-5.0-2.43","63f791c69ca73d3460eeb2d9","bdp_lott","Sun Mar 26 2023 07:48:54 GMT-0700 (Pacific Daylight Time)","493036","green","red","","","","","","","","","","182","","","","","","[{""stimulus"":""img/red_ll/1.jpg"",""time"":51},{""stimulus"":""img/red_ll/2.jpg"",""time"":102},{""stimulus"":""img/red_ll/3.jpg"",""time"":151},{""stimulus"":""img/red_ll/4.jpg"",""time"":211},{""stimulus"":""img/red_ll/5.jpg"",""time"":257},{""stimulus"":""img/red_ll/6.jpg"",""time"":302},{""stimulus"":""img/red_ll/7.jpg"",""time"":365},{""stimulus"":""img/red_ll/8.jpg"",""time"":411},{""stimulus"":""img/red_ll/9.jpg"",""time"":457},{""stimulus"":""img/red_ll/10.jpg"",""time"":506},{""stimulus"":""img/red_ll/11.jpg"",""time"":550}]","[]"
"image-keyboard-response","92","267972","0.0-5.0-1.44","63f791c69ca73d3460eeb2d9","bdp_lott","Sun Mar 26 2023 07:48:54 GMT-0700 (Pacific Daylight Time)","493036","green","red","","279","","","","choice","","img/red_ll/choose11.jpg","2","181","red","0.5","0.5","0.5","w","",""
"animation","93","268588","0.0-5.0-2.44","63f791c69ca73d3460eeb2d9","bdp_lott","Sun Mar 26 2023 07:48:54 GMT-0700 (Pacific Daylight Time)","493036","green","red","","","","","","","","","","181","","","","","","[{""stimulus"":""img/red_lw/1.jpg"",""time"":51},{""stimulus"":""img/red_lw/2.jpg"",""time"":107},{""stimulus"":""img/red_lw/3.jpg"",""time"":152},{""stimulus"":""img/red_lw/4.jpg"",""time"":201},{""stimulus"":""img/red_lw/5.jpg"",""time"":251},{""stimulus"":""img/red_lw/6.jpg"",""time"":306},{""stimulus"":""img/red_lw/7.jpg"",""time"":351},{""stimulus"":""img/red_lw/8.jpg"",""time"":414},{""stimulus"":""img/red_lw/9.jpg"",""time"":461},{""stimulus"":""img/red_lw/10.jpg"",""time"":507},{""stimulus"":""img/red_lw/11.jpg"",""time"":551}]","[]"
"image-keyboard-response","94","268861","0.0-5.0-1.45","63f791c69ca73d3460eeb2d9","bdp_lott","Sun Mar 26 2023 07:48:54 GMT-0700 (Pacific Daylight Time)","493036","green","red","","272","","","","choice","","img/red_lw/choose11.jpg","2","180","red","0.5","0.5","0.5","l","",""
"animation","95","269468","0.0-5.0-2.45","63f791c69ca73d3460eeb2d9","bdp_lott","Sun Mar 26 2023 07:48:54 GMT-0700 (Pacific Daylight Time)","493036","green","red","","","","","","","","","","180","","","","","","[{""stimulus"":""img/red_ll/1.jpg"",""time"":66},{""stimulus"":""img/red_ll/2.jpg"",""time"":111},{""stimulus"":""img/red_ll/3.jpg"",""time"":158},{""stimulus"":""img/red_ll/4.jpg"",""time"":206},{""stimulus"":""img/red_ll/5.jpg"",""time"":252},{""stimulus"":""img/red_ll/6.jpg"",""time"":313},{""stimulus"":""img/red_ll/7.jpg"",""time"":351},{""stimulus"":""img/red_ll/8.jpg"",""time"":406},{""stimulus"":""img/red_ll/9.jpg"",""time"":453},{""stimulus"":""img/red_ll/10.jpg"",""time"":514},{""stimulus"":""img/red_ll/11.jpg"",""time"":550}]","[]"
"image-keyboard-response","96","273432","0.0-5.0-1.46","63f791c69ca73d3460eeb2d9","bdp_lott","Sun Mar 26 2023 07:48:54 GMT-0700 (Pacific Daylight Time)","493036","green","red","","3963","","","","choice","","img/red_ll/choose11.jpg","1","179","green","0.5","0.5","0.5","w","",""
"animation","97","274040","0.0-5.0-2.46","63f791c69ca73d3460eeb2d9","bdp_lott","Sun Mar 26 2023 07:48:54 GMT-0700 (Pacific Daylight Time)","493036","green","red","","","","","","","","","","179","","","","","","[{""stimulus"":""img/green_wl/1.jpg"",""time"":52},{""stimulus"":""img/green_wl/2.jpg"",""time"":114},{""stimulus"":""img/green_wl/3.jpg"",""time"":160},{""stimulus"":""img/green_wl/4.jpg"",""time"":206},{""stimulus"":""img/green_wl/5.jpg"",""time"":253},{""stimulus"":""img/green_wl/6.jpg"",""time"":314},{""stimulus"":""img/green_wl/7.jpg"",""time"":360},{""stimulus"":""img/green_wl/8.jpg"",""time"":406},{""stimulus"":""img/green_wl/9.jpg"",""time"":451},{""stimulus"":""img/green_wl/10.jpg"",""time"":514},{""stimulus"":""img/green_wl/11.jpg"",""time"":561}]","[]"
"image-keyboard-response","98","274437","0.0-5.0-1.47","63f791c69ca73d3460eeb2d9","bdp_lott","Sun Mar 26 2023 07:48:54 GMT-0700 (Pacific Daylight Time)","493036","green","red","","397","","","","choice","","img/green_wl/choose11.jpg","1","178","green","0.5","0.5","0.5","l","",""
"animation","99","275045","0.0-5.0-2.47","63f791c69ca73d3460eeb2d9","bdp_lott","Sun Mar 26 2023 07:48:54 GMT-0700 (Pacific Daylight Time)","493036","green","red","","","","","","","","","","178","","","","","","[{""stimulus"":""img/green_ll/1.jpg"",""time"":64},{""stimulus"":""img/green_ll/2.jpg"",""time"":111},{""stimulus"":""img/green_ll/3.jpg"",""time"":157},{""stimulus"":""img/green_ll/4.jpg"",""time"":204},{""stimulus"":""img/green_ll/5.jpg"",""time"":251},{""stimulus"":""img/green_ll/6.jpg"",""time"":314},{""stimulus"":""img/green_ll/7.jpg"",""time"":360},{""stimulus"":""img/green_ll/8.jpg"",""time"":401},{""stimulus"":""img/green_ll/9.jpg"",""time"":452},{""stimulus"":""img/green_ll/10.jpg"",""time"":516},{""stimulus"":""img/green_ll/11.jpg"",""time"":561}]","[]"
"image-keyboard-response","100","275478","0.0-5.0-1.48","63f791c69ca73d3460eeb2d9","bdp_lott","Sun Mar 26 2023 07:48:54 GMT-0700 (Pacific Daylight Time)","493036","green","red","","432","","","","choice","","img/green_ll/choose11.jpg","1","177","green","0.5","0.5","0.5","l","",""
"animation","101","276079","0.0-5.0-2.48","63f791c69ca73d3460eeb2d9","bdp_lott","Sun Mar 26 2023 07:48:54 GMT-0700 (Pacific Daylight Time)","493036","green","red","","","","","","","","","","177","","","","","","[{""stimulus"":""img/green_ll/1.jpg"",""time"":51},{""stimulus"":""img/green_ll/2.jpg"",""time"":107},{""stimulus"":""img/green_ll/3.jpg"",""time"":152},{""stimulus"":""img/green_ll/4.jpg"",""time"":201},{""stimulus"":""img/green_ll/5.jpg"",""time"":251},{""stimulus"":""img/green_ll/6.jpg"",""time"":300},{""stimulus"":""img/green_ll/7.jpg"",""time"":354},{""stimulus"":""img/green_ll/8.jpg"",""time"":401},{""stimulus"":""img/green_ll/9.jpg"",""time"":464},{""stimulus"":""img/green_ll/10.jpg"",""time"":510},{""stimulus"":""img/green_ll/11.jpg"",""time"":556}]","[]"
"image-keyboard-response","102","276972","0.0-5.0-1.49","63f791c69ca73d3460eeb2d9","bdp_lott","Sun Mar 26 2023 07:48:54 GMT-0700 (Pacific Daylight Time)","493036","green","red","","891","","","","choice","","img/green_ll/choose11.jpg","2","176","red","0.5","0.5","0.5","l","",""
"animation","103","277579","0.0-5.0-2.49","63f791c69ca73d3460eeb2d9","bdp_lott","Sun Mar 26 2023 07:48:54 GMT-0700 (Pacific Daylight Time)","493036","green","red","","","","","","","","","","176","","","","","","[{""stimulus"":""img/red_ll/1.jpg"",""time"":51},{""stimulus"":""img/red_ll/2.jpg"",""time"":112},{""stimulus"":""img/red_ll/3.jpg"",""time"":157},{""stimulus"":""img/red_ll/4.jpg"",""time"":204},{""stimulus"":""img/red_ll/5.jpg"",""time"":265},{""stimulus"":""img/red_ll/6.jpg"",""time"":312},{""stimulus"":""img/red_ll/7.jpg"",""time"":358},{""stimulus"":""img/red_ll/8.jpg"",""time"":405},{""stimulus"":""img/red_ll/9.jpg"",""time"":453},{""stimulus"":""img/red_ll/10.jpg"",""time"":514},{""stimulus"":""img/red_ll/11.jpg"",""time"":561}]","[]"
"image-keyboard-response","104","277976","0.0-5.0-1.50","63f791c69ca73d3460eeb2d9","bdp_lott","Sun Mar 26 2023 07:48:54 GMT-0700 (Pacific Daylight Time)","493036","green","red","","395","","","","choice","","img/red_ll/choose11.jpg","2","175","red","0.5","0.5","0.5","w","",""
"animation","105","278582","0.0-5.0-2.50","63f791c69ca73d3460eeb2d9","bdp_lott","Sun Mar 26 2023 07:48:54 GMT-0700 (Pacific Daylight Time)","493036","green","red","","","","","","","","","","175","","","","","","[{""stimulus"":""img/red_lw/1.jpg"",""time"":52},{""stimulus"":""img/red_lw/2.jpg"",""time"":114},{""stimulus"":""img/red_lw/3.jpg"",""time"":160},{""stimulus"":""img/red_lw/4.jpg"",""time"":206},{""stimulus"":""img/red_lw/5.jpg"",""time"":252},{""stimulus"":""img/red_lw/6.jpg"",""time"":314},{""stimulus"":""img/red_lw/7.jpg"",""time"":360},{""stimulus"":""img/red_lw/8.jpg"",""time"":407},{""stimulus"":""img/red_lw/9.jpg"",""time"":451},{""stimulus"":""img/red_lw/10.jpg"",""time"":514},{""stimulus"":""img/red_lw/11.jpg"",""time"":561}]","[]"
"image-keyboard-response","106","279186","0.0-5.0-1.51","63f791c69ca73d3460eeb2d9","bdp_lott","Sun Mar 26 2023 07:48:54 GMT-0700 (Pacific Daylight Time)","493036","green","red","","603","","","","choice","","img/red_lw/choose11.jpg","2","174","red","0.5","0.5","0.5","w","",""
"animation","107","279791","0.0-5.0-2.51","63f791c69ca73d3460eeb2d9","bdp_lott","Sun Mar 26 2023 07:48:54 GMT-0700 (Pacific Daylight Time)","493036","green","red","","","","","","","","","","174","","","","","","[{""stimulus"":""img/red_lw/1.jpg"",""time"":51},{""stimulus"":""img/red_lw/2.jpg"",""time"":107},{""stimulus"":""img/red_lw/3.jpg"",""time"":154},{""stimulus"":""img/red_lw/4.jpg"",""time"":201},{""stimulus"":""img/red_lw/5.jpg"",""time"":251},{""stimulus"":""img/red_lw/6.jpg"",""time"":309},{""stimulus"":""img/red_lw/7.jpg"",""time"":356},{""stimulus"":""img/red_lw/8.jpg"",""time"":401},{""stimulus"":""img/red_lw/9.jpg"",""time"":464},{""stimulus"":""img/red_lw/10.jpg"",""time"":512},{""stimulus"":""img/red_lw/11.jpg"",""time"":558}]","[]"
"image-keyboard-response","108","280695","0.0-5.0-1.52","63f791c69ca73d3460eeb2d9","bdp_lott","Sun Mar 26 2023 07:48:54 GMT-0700 (Pacific Daylight Time)","493036","green","red","","902","","","","choice","","img/red_lw/choose11.jpg","2","173","red","0.5","0.5","0.5","w","",""
"animation","109","281307","0.0-5.0-2.52","63f791c69ca73d3460eeb2d9","bdp_lott","Sun Mar 26 2023 07:48:54 GMT-0700 (Pacific Daylight Time)","493036","green","red","","","","","","","","","","173","","","","","","[{""stimulus"":""img/red_lw/1.jpg"",""time"":51},{""stimulus"":""img/red_lw/2.jpg"",""time"":105},{""stimulus"":""img/red_lw/3.jpg"",""time"":151},{""stimulus"":""img/red_lw/4.jpg"",""time"":201},{""stimulus"":""img/red_lw/5.jpg"",""time"":259},{""stimulus"":""img/red_lw/6.jpg"",""time"":304},{""stimulus"":""img/red_lw/7.jpg"",""time"":366},{""stimulus"":""img/red_lw/8.jpg"",""time"":402},{""stimulus"":""img/red_lw/9.jpg"",""time"":459},{""stimulus"":""img/red_lw/10.jpg"",""time"":505},{""stimulus"":""img/red_lw/11.jpg"",""time"":551}]","[]"
"image-keyboard-response","110","281915","0.0-5.0-1.53","63f791c69ca73d3460eeb2d9","bdp_lott","Sun Mar 26 2023 07:48:54 GMT-0700 (Pacific Daylight Time)","493036","green","red","","607","","","","choice","","img/red_lw/choose11.jpg","2","172","red","0.5","0.5","0.5","w","",""
"animation","111","282518","0.0-5.0-2.53","63f791c69ca73d3460eeb2d9","bdp_lott","Sun Mar 26 2023 07:48:54 GMT-0700 (Pacific Daylight Time)","493036","green","red","","","","","","","","","","172","","","","","","[{""stimulus"":""img/red_lw/1.jpg"",""time"":56},{""stimulus"":""img/red_lw/2.jpg"",""time"":101},{""stimulus"":""img/red_lw/3.jpg"",""time"":165},{""stimulus"":""img/red_lw/4.jpg"",""time"":212},{""stimulus"":""img/red_lw/5.jpg"",""time"":258},{""stimulus"":""img/red_lw/6.jpg"",""time"":301},{""stimulus"":""img/red_lw/7.jpg"",""time"":351},{""stimulus"":""img/red_lw/8.jpg"",""time"":413},{""stimulus"":""img/red_lw/9.jpg"",""time"":458},{""stimulus"":""img/red_lw/10.jpg"",""time"":508},{""stimulus"":""img/red_lw/11.jpg"",""time"":555}]","[]"
"image-keyboard-response","112","283437","0.0-5.0-1.54","63f791c69ca73d3460eeb2d9","bdp_lott","Sun Mar 26 2023 07:48:54 GMT-0700 (Pacific Daylight Time)","493036","green","red","","919","","","","choice","","img/red_lw/choose11.jpg","2","171","red","0.5","0.5","0.5","w","",""
"animation","113","284048","0.0-5.0-2.54","63f791c69ca73d3460eeb2d9","bdp_lott","Sun Mar 26 2023 07:48:54 GMT-0700 (Pacific Daylight Time)","493036","green","red","","","","","","","","","","171","","","","","","[{""stimulus"":""img/red_lw/1.jpg"",""time"":51},{""stimulus"":""img/red_lw/2.jpg"",""time"":116},{""stimulus"":""img/red_lw/3.jpg"",""time"":150},{""stimulus"":""img/red_lw/4.jpg"",""time"":208},{""stimulus"":""img/red_lw/5.jpg"",""time"":255},{""stimulus"":""img/red_lw/6.jpg"",""time"":301},{""stimulus"":""img/red_lw/7.jpg"",""time"":363},{""stimulus"":""img/red_lw/8.jpg"",""time"":408},{""stimulus"":""img/red_lw/9.jpg"",""time"":454},{""stimulus"":""img/red_lw/10.jpg"",""time"":501},{""stimulus"":""img/red_lw/11.jpg"",""time"":550}]","[]"
"image-keyboard-response","114","284614","0.0-5.0-1.55","63f791c69ca73d3460eeb2d9","bdp_lott","Sun Mar 26 2023 07:48:54 GMT-0700 (Pacific Daylight Time)","493036","green","red","","565","","","","choice","","img/red_lw/choose11.jpg","2","170","red","0.5","0.5","0.5","w","",""
"animation","115","285215","0.0-5.0-2.55","63f791c69ca73d3460eeb2d9","bdp_lott","Sun Mar 26 2023 07:48:54 GMT-0700 (Pacific Daylight Time)","493036","green","red","","","","","","","","","","170","","","","","","[{""stimulus"":""img/red_lw/1.jpg"",""time"":51},{""stimulus"":""img/red_lw/2.jpg"",""time"":111},{""stimulus"":""img/red_lw/3.jpg"",""time"":158},{""stimulus"":""img/red_lw/4.jpg"",""time"":204},{""stimulus"":""img/red_lw/5.jpg"",""time"":251},{""stimulus"":""img/red_lw/6.jpg"",""time"":312},{""stimulus"":""img/red_lw/7.jpg"",""time"":357},{""stimulus"":""img/red_lw/8.jpg"",""time"":400},{""stimulus"":""img/red_lw/9.jpg"",""time"":466},{""stimulus"":""img/red_lw/10.jpg"",""time"":512},{""stimulus"":""img/red_lw/11.jpg"",""time"":558}]","[]"
"image-keyboard-response","116","285731","0.0-5.0-1.56","63f791c69ca73d3460eeb2d9","bdp_lott","Sun Mar 26 2023 07:48:54 GMT-0700 (Pacific Daylight Time)","493036","green","red","","515","","","","choice","","img/red_lw/choose11.jpg","2","169","red","0.5","0.5","0.5","w","",""
"animation","117","286348","0.0-5.0-2.56","63f791c69ca73d3460eeb2d9","bdp_lott","Sun Mar 26 2023 07:48:54 GMT-0700 (Pacific Daylight Time)","493036","green","red","","","","","","","","","","169","","","","","","[{""stimulus"":""img/red_lw/1.jpg"",""time"":50},{""stimulus"":""img/red_lw/2.jpg"",""time"":106},{""stimulus"":""img/red_lw/3.jpg"",""time"":152},{""stimulus"":""img/red_lw/4.jpg"",""time"":214},{""stimulus"":""img/red_lw/5.jpg"",""time"":260},{""stimulus"":""img/red_lw/6.jpg"",""time"":307},{""stimulus"":""img/red_lw/7.jpg"",""time"":353},{""stimulus"":""img/red_lw/8.jpg"",""time"":415},{""stimulus"":""img/red_lw/9.jpg"",""time"":462},{""stimulus"":""img/red_lw/10.jpg"",""time"":508},{""stimulus"":""img/red_lw/11.jpg"",""time"":554}]","[]"
"image-keyboard-response","118","286828","0.0-5.0-1.57","63f791c69ca73d3460eeb2d9","bdp_lott","Sun Mar 26 2023 07:48:54 GMT-0700 (Pacific Daylight Time)","493036","green","red","","479","","","","choice","","img/red_lw/choose11.jpg","2","168","red","0.5","0.5","0.5","l","",""
"animation","119","287432","0.0-5.0-2.57","63f791c69ca73d3460eeb2d9","bdp_lott","Sun Mar 26 2023 07:48:54 GMT-0700 (Pacific Daylight Time)","493036","green","red","","","","","","","","","","168","","","","","","[{""stimulus"":""img/red_ll/1.jpg"",""time"":59},{""stimulus"":""img/red_ll/2.jpg"",""time"":106},{""stimulus"":""img/red_ll/3.jpg"",""time"":151},{""stimulus"":""img/red_ll/4.jpg"",""time"":214},{""stimulus"":""img/red_ll/5.jpg"",""time"":260},{""stimulus"":""img/red_ll/6.jpg"",""time"":306},{""stimulus"":""img/red_ll/7.jpg"",""time"":353},{""stimulus"":""img/red_ll/8.jpg"",""time"":415},{""stimulus"":""img/red_ll/9.jpg"",""time"":464},{""stimulus"":""img/red_ll/10.jpg"",""time"":510},{""stimulus"":""img/red_ll/11.jpg"",""time"":557}]","[]"
"image-keyboard-response","120","289296","0.0-5.0-1.58","63f791c69ca73d3460eeb2d9","bdp_lott","Sun Mar 26 2023 07:48:54 GMT-0700 (Pacific Daylight Time)","493036","green","red","","1863","","","","choice","","img/red_ll/choose11.jpg","2","167","red","0.5","0.5","0.5","l","",""
"animation","121","289903","0.0-5.0-2.58","63f791c69ca73d3460eeb2d9","bdp_lott","Sun Mar 26 2023 07:48:54 GMT-0700 (Pacific Daylight Time)","493036","green","red","","","","","","","","","","167","","","","","","[{""stimulus"":""img/red_ll/1.jpg"",""time"":65},{""stimulus"":""img/red_ll/2.jpg"",""time"":111},{""stimulus"":""img/red_ll/3.jpg"",""time"":157},{""stimulus"":""img/red_ll/4.jpg"",""time"":204},{""stimulus"":""img/red_ll/5.jpg"",""time"":265},{""stimulus"":""img/red_ll/6.jpg"",""time"":300},{""stimulus"":""img/red_ll/7.jpg"",""time"":358},{""stimulus"":""img/red_ll/8.jpg"",""time"":404},{""stimulus"":""img/red_ll/9.jpg"",""time"":451},{""stimulus"":""img/red_ll/10.jpg"",""time"":512},{""stimulus"":""img/red_ll/11.jpg"",""time"":558}]","[]"
"image-keyboard-response","122","290480","0.0-5.0-1.59","63f791c69ca73d3460eeb2d9","bdp_lott","Sun Mar 26 2023 07:48:54 GMT-0700 (Pacific Daylight Time)","493036","green","red","","576","","","","choice","","img/red_ll/choose11.jpg","2","166","red","0.5","0.5","0.5","w","",""
"animation","123","291091","0.0-5.0-2.59","63f791c69ca73d3460eeb2d9","bdp_lott","Sun Mar 26 2023 07:48:54 GMT-0700 (Pacific Daylight Time)","493036","green","red","","","","","","","","","","166","","","","","","[{""stimulus"":""img/red_lw/1.jpg"",""time"":57},{""stimulus"":""img/red_lw/2.jpg"",""time"":102},{""stimulus"":""img/red_lw/3.jpg"",""time"":152},{""stimulus"":""img/red_lw/4.jpg"",""time"":201},{""stimulus"":""img/red_lw/5.jpg"",""time"":257},{""stimulus"":""img/red_lw/6.jpg"",""time"":303},{""stimulus"":""img/red_lw/7.jpg"",""time"":351},{""stimulus"":""img/red_lw/8.jpg"",""time"":412},{""stimulus"":""img/red_lw/9.jpg"",""time"":457},{""stimulus"":""img/red_lw/10.jpg"",""time"":503},{""stimulus"":""img/red_lw/11.jpg"",""time"":565}]","[]"
"image-keyboard-response","124","291685","0.0-5.0-1.60","63f791c69ca73d3460eeb2d9","bdp_lott","Sun Mar 26 2023 07:48:54 GMT-0700 (Pacific Daylight Time)","493036","green","red","","593","","","","choice","","img/red_lw/choose11.jpg","2","165","red","0.5","0.5","0.5","w","",""
"animation","125","292288","0.0-5.0-2.60","63f791c69ca73d3460eeb2d9","bdp_lott","Sun Mar 26 2023 07:48:54 GMT-0700 (Pacific Daylight Time)","493036","green","red","","","","","","","","","","165","","","","","","[{""stimulus"":""img/red_lw/1.jpg"",""time"":56},{""stimulus"":""img/red_lw/2.jpg"",""time"":102},{""stimulus"":""img/red_lw/3.jpg"",""time"":164},{""stimulus"":""img/red_lw/4.jpg"",""time"":211},{""stimulus"":""img/red_lw/5.jpg"",""time"":251},{""stimulus"":""img/red_lw/6.jpg"",""time"":305},{""stimulus"":""img/red_lw/7.jpg"",""time"":352},{""stimulus"":""img/red_lw/8.jpg"",""time"":403},{""stimulus"":""img/red_lw/9.jpg"",""time"":465},{""stimulus"":""img/red_lw/10.jpg"",""time"":511},{""stimulus"":""img/red_lw/11.jpg"",""time"":557}]","[]"
"image-keyboard-response","126","293062","0.0-5.0-1.61","63f791c69ca73d3460eeb2d9","bdp_lott","Sun Mar 26 2023 07:48:54 GMT-0700 (Pacific Daylight Time)","493036","green","red","","773","","","","choice","","img/red_lw/choose11.jpg","2","164","red","0.5","0.5","0.5","l","",""
"animation","127","293666","0.0-5.0-2.61","63f791c69ca73d3460eeb2d9","bdp_lott","Sun Mar 26 2023 07:48:54 GMT-0700 (Pacific Daylight Time)","493036","green","red","","","","","","","","","","164","","","","","","[{""stimulus"":""img/red_ll/1.jpg"",""time"":51},{""stimulus"":""img/red_ll/2.jpg"",""time"":107},{""stimulus"":""img/red_ll/3.jpg"",""time"":152},{""stimulus"":""img/red_ll/4.jpg"",""time"":202},{""stimulus"":""img/red_ll/5.jpg"",""time"":251},{""stimulus"":""img/red_ll/6.jpg"",""time"":310},{""stimulus"":""img/red_ll/7.jpg"",""time"":351},{""stimulus"":""img/red_ll/8.jpg"",""time"":403},{""stimulus"":""img/red_ll/9.jpg"",""time"":464},{""stimulus"":""img/red_ll/10.jpg"",""time"":511},{""stimulus"":""img/red_ll/11.jpg"",""time"":558}]","[]"
"image-keyboard-response","128","294159","0.0-5.0-1.62","63f791c69ca73d3460eeb2d9","bdp_lott","Sun Mar 26 2023 07:48:54 GMT-0700 (Pacific Daylight Time)","493036","green","red","","492","","","","choice","","img/red_ll/choose11.jpg","2","163","red","0.5","0.5","0.5","l","",""
"animation","129","294766","0.0-5.0-2.62","63f791c69ca73d3460eeb2d9","bdp_lott","Sun Mar 26 2023 07:48:54 GMT-0700 (Pacific Daylight Time)","493036","green","red","","","","","","","","","","163","","","","","","[{""stimulus"":""img/red_ll/1.jpg"",""time"":51},{""stimulus"":""img/red_ll/2.jpg"",""time"":110},{""stimulus"":""img/red_ll/3.jpg"",""time"":157},{""stimulus"":""img/red_ll/4.jpg"",""time"":203},{""stimulus"":""img/red_ll/5.jpg"",""time"":264},{""stimulus"":""img/red_ll/6.jpg"",""time"":313},{""stimulus"":""img/red_ll/7.jpg"",""time"":359},{""stimulus"":""img/red_ll/8.jpg"",""time"":405},{""stimulus"":""img/red_ll/9.jpg"",""time"":452},{""stimulus"":""img/red_ll/10.jpg"",""time"":515},{""stimulus"":""img/red_ll/11.jpg"",""time"":551}]","[]"
"image-keyboard-response","130","295745","0.0-5.0-1.63","63f791c69ca73d3460eeb2d9","bdp_lott","Sun Mar 26 2023 07:48:54 GMT-0700 (Pacific Daylight Time)","493036","green","red","","978","","","","choice","","img/red_ll/choose11.jpg","2","162","red","0.5","0.5","0.5","w","",""
"animation","131","296356","0.0-5.0-2.63","63f791c69ca73d3460eeb2d9","bdp_lott","Sun Mar 26 2023 07:48:54 GMT-0700 (Pacific Daylight Time)","493036","green","red","","","","","","","","","","162","","","","","","[{""stimulus"":""img/red_lw/1.jpg"",""time"":51},{""stimulus"":""img/red_lw/2.jpg"",""time"":101},{""stimulus"":""img/red_lw/3.jpg"",""time"":160},{""stimulus"":""img/red_lw/4.jpg"",""time"":210},{""stimulus"":""img/red_lw/5.jpg"",""time"":255},{""stimulus"":""img/red_lw/6.jpg"",""time"":302},{""stimulus"":""img/red_lw/7.jpg"",""time"":351},{""stimulus"":""img/red_lw/8.jpg"",""time"":410},{""stimulus"":""img/red_lw/9.jpg"",""time"":455},{""stimulus"":""img/red_lw/10.jpg"",""time"":500},{""stimulus"":""img/red_lw/11.jpg"",""time"":564}]","[]"
"image-keyboard-response","132","299256","0.0-5.0-1.64","63f791c69ca73d3460eeb2d9","bdp_lott","Sun Mar 26 2023 07:48:54 GMT-0700 (Pacific Daylight Time)","493036","green","red","","2899","","","","choice","","img/red_lw/choose11.jpg","2","161","red","0.5","0.5","0.5","l","",""
"animation","133","299871","0.0-5.0-2.64","63f791c69ca73d3460eeb2d9","bdp_lott","Sun Mar 26 2023 07:48:54 GMT-0700 (Pacific Daylight Time)","493036","green","red","","","","","","","","","","161","","","","","","[{""stimulus"":""img/red_ll/1.jpg"",""time"":51},{""stimulus"":""img/red_ll/2.jpg"",""time"":105},{""stimulus"":""img/red_ll/3.jpg"",""time"":152},{""stimulus"":""img/red_ll/4.jpg"",""time"":213},{""stimulus"":""img/red_ll/5.jpg"",""time"":260},{""stimulus"":""img/red_ll/6.jpg"",""time"":305},{""stimulus"":""img/red_ll/7.jpg"",""time"":352},{""stimulus"":""img/red_ll/8.jpg"",""time"":414},{""stimulus"":""img/red_ll/9.jpg"",""time"":459},{""stimulus"":""img/red_ll/10.jpg"",""time"":506},{""stimulus"":""img/red_ll/11.jpg"",""time"":552}]","[]"
"image-keyboard-response","134","300646","0.0-5.0-1.65","63f791c69ca73d3460eeb2d9","bdp_lott","Sun Mar 26 2023 07:48:54 GMT-0700 (Pacific Daylight Time)","493036","green","red","","774","","","","choice","","img/red_ll/choose11.jpg","2","160","red","0.5","0.5","0.5","w","",""
"animation","135","301252","0.0-5.0-2.65","63f791c69ca73d3460eeb2d9","bdp_lott","Sun Mar 26 2023 07:48:54 GMT-0700 (Pacific Daylight Time)","493036","green","red","","","","","","","","","","160","","","","","","[{""stimulus"":""img/red_lw/1.jpg"",""time"":51},{""stimulus"":""img/red_lw/2.jpg"",""time"":103},{""stimulus"":""img/red_lw/3.jpg"",""time"":151},{""stimulus"":""img/red_lw/4.jpg"",""time"":213},{""stimulus"":""img/red_lw/5.jpg"",""time"":251},{""stimulus"":""img/red_lw/6.jpg"",""time"":305},{""stimulus"":""img/red_lw/7.jpg"",""time"":352},{""stimulus"":""img/red_lw/8.jpg"",""time"":415},{""stimulus"":""img/red_lw/9.jpg"",""time"":450},{""stimulus"":""img/red_lw/10.jpg"",""time"":512},{""stimulus"":""img/red_lw/11.jpg"",""time"":550}]","[]"
"image-keyboard-response","136","301883","0.0-5.0-1.66","63f791c69ca73d3460eeb2d9","bdp_lott","Sun Mar 26 2023 07:48:54 GMT-0700 (Pacific Daylight Time)","493036","green","red","","630","","","","choice","","img/red_lw/choose11.jpg","2","159","red","0.5","0.5","0.5","w","",""
"animation","137","302489","0.0-5.0-2.66","63f791c69ca73d3460eeb2d9","bdp_lott","Sun Mar 26 2023 07:48:54 GMT-0700 (Pacific Daylight Time)","493036","green","red","","","","","","","","","","159","","","","","","[{""stimulus"":""img/red_lw/1.jpg"",""time"":63},{""stimulus"":""img/red_lw/2.jpg"",""time"":109},{""stimulus"":""img/red_lw/3.jpg"",""time"":151},{""stimulus"":""img/red_lw/4.jpg"",""time"":202},{""stimulus"":""img/red_lw/5.jpg"",""time"":264},{""stimulus"":""img/red_lw/6.jpg"",""time"":310},{""stimulus"":""img/red_lw/7.jpg"",""time"":357},{""stimulus"":""img/red_lw/8.jpg"",""time"":403},{""stimulus"":""img/red_lw/9.jpg"",""time"":465},{""stimulus"":""img/red_lw/10.jpg"",""time"":513},{""stimulus"":""img/red_lw/11.jpg"",""time"":551}]","[]"
"image-keyboard-response","138","303204","0.0-5.0-1.67","63f791c69ca73d3460eeb2d9","bdp_lott","Sun Mar 26 2023 07:48:54 GMT-0700 (Pacific Daylight Time)","493036","green","red","","714","","","","choice","","img/red_lw/choose11.jpg","2","158","red","0.5","0.5","0.5","l","",""
"animation","139","303805","0.0-5.0-2.67","63f791c69ca73d3460eeb2d9","bdp_lott","Sun Mar 26 2023 07:48:54 GMT-0700 (Pacific Daylight Time)","493036","green","red","","","","","","","","","","158","","","","","","[{""stimulus"":""img/red_ll/1.jpg"",""time"":50},{""stimulus"":""img/red_ll/2.jpg"",""time"":101},{""stimulus"":""img/red_ll/3.jpg"",""time"":163},{""stimulus"":""img/red_ll/4.jpg"",""time"":201},{""stimulus"":""img/red_ll/5.jpg"",""time"":256},{""stimulus"":""img/red_ll/6.jpg"",""time"":302},{""stimulus"":""img/red_ll/7.jpg"",""time"":351},{""stimulus"":""img/red_ll/8.jpg"",""time"":411},{""stimulus"":""img/red_ll/9.jpg"",""time"":457},{""stimulus"":""img/red_ll/10.jpg"",""time"":503},{""stimulus"":""img/red_ll/11.jpg"",""time"":565}]","[]"
"image-keyboard-response","140","304205","0.0-5.0-1.68","63f791c69ca73d3460eeb2d9","bdp_lott","Sun Mar 26 2023 07:48:54 GMT-0700 (Pacific Daylight Time)","493036","green","red","","399","","","","choice","","img/red_ll/choose11.jpg","2","157","red","0.5","0.5","0.5","l","",""
"animation","141","304806","0.0-5.0-2.68","63f791c69ca73d3460eeb2d9","bdp_lott","Sun Mar 26 2023 07:48:54 GMT-0700 (Pacific Daylight Time)","493036","green","red","","","","","","","","","","157","","","","","","[{""stimulus"":""img/red_ll/1.jpg"",""time"":51},{""stimulus"":""img/red_ll/2.jpg"",""time"":108},{""stimulus"":""img/red_ll/3.jpg"",""time"":154},{""stimulus"":""img/red_ll/4.jpg"",""time"":216},{""stimulus"":""img/red_ll/5.jpg"",""time"":262},{""stimulus"":""img/red_ll/6.jpg"",""time"":309},{""stimulus"":""img/red_ll/7.jpg"",""time"":351},{""stimulus"":""img/red_ll/8.jpg"",""time"":402},{""stimulus"":""img/red_ll/9.jpg"",""time"":463},{""stimulus"":""img/red_ll/10.jpg"",""time"":509},{""stimulus"":""img/red_ll/11.jpg"",""time"":556}]","[]"
"image-keyboard-response","142","305282","0.0-5.0-1.69","63f791c69ca73d3460eeb2d9","bdp_lott","Sun Mar 26 2023 07:48:54 GMT-0700 (Pacific Daylight Time)","493036","green","red","","475","","","","choice","","img/red_ll/choose11.jpg","2","156","red","0.5","0.5","0.5","w","",""
"animation","143","305884","0.0-5.0-2.69","63f791c69ca73d3460eeb2d9","bdp_lott","Sun Mar 26 2023 07:48:54 GMT-0700 (Pacific Daylight Time)","493036","green","red","","","","","","","","","","156","","","","","","[{""stimulus"":""img/red_lw/1.jpg"",""time"":65},{""stimulus"":""img/red_lw/2.jpg"",""time"":111},{""stimulus"":""img/red_lw/3.jpg"",""time"":150},{""stimulus"":""img/red_lw/4.jpg"",""time"":205},{""stimulus"":""img/red_lw/5.jpg"",""time"":266},{""stimulus"":""img/red_lw/6.jpg"",""time"":313},{""stimulus"":""img/red_lw/7.jpg"",""time"":351},{""stimulus"":""img/red_lw/8.jpg"",""time"":406},{""stimulus"":""img/red_lw/9.jpg"",""time"":452},{""stimulus"":""img/red_lw/10.jpg"",""time"":502},{""stimulus"":""img/red_lw/11.jpg"",""time"":550}]","[]"
"image-keyboard-response","144","306455","0.0-5.0-1.70","63f791c69ca73d3460eeb2d9","bdp_lott","Sun Mar 26 2023 07:48:54 GMT-0700 (Pacific Daylight Time)","493036","green","red","","570","","","","choice","","img/red_lw/choose11.jpg","2","155","red","0.5","0.5","0.5","l","",""
"animation","145","307056","0.0-5.0-2.70","63f791c69ca73d3460eeb2d9","bdp_lott","Sun Mar 26 2023 07:48:54 GMT-0700 (Pacific Daylight Time)","493036","green","red","","","","","","","","","","155","","","","","","[{""stimulus"":""img/red_ll/1.jpg"",""time"":51},{""stimulus"":""img/red_ll/2.jpg"",""time"":104},{""stimulus"":""img/red_ll/3.jpg"",""time"":165},{""stimulus"":""img/red_ll/4.jpg"",""time"":210},{""stimulus"":""img/red_ll/5.jpg"",""time"":251},{""stimulus"":""img/red_ll/6.jpg"",""time"":303},{""stimulus"":""img/red_ll/7.jpg"",""time"":365},{""stimulus"":""img/red_ll/8.jpg"",""time"":411},{""stimulus"":""img/red_ll/9.jpg"",""time"":451},{""stimulus"":""img/red_ll/10.jpg"",""time"":503},{""stimulus"":""img/red_ll/11.jpg"",""time"":565}]","[]"
"image-keyboard-response","146","307528","0.0-5.0-1.71","63f791c69ca73d3460eeb2d9","bdp_lott","Sun Mar 26 2023 07:48:54 GMT-0700 (Pacific Daylight Time)","493036","green","red","","471","","","","choice","","img/red_ll/choose11.jpg","2","154","red","0.5","0.5","0.5","w","",""
"animation","147","308130","0.0-5.0-2.71","63f791c69ca73d3460eeb2d9","bdp_lott","Sun Mar 26 2023 07:48:54 GMT-0700 (Pacific Daylight Time)","493036","green","red","","","","","","","","","","154","","","","","","[{""stimulus"":""img/red_lw/1.jpg"",""time"":60},{""stimulus"":""img/red_lw/2.jpg"",""time"":107},{""stimulus"":""img/red_lw/3.jpg"",""time"":153},{""stimulus"":""img/red_lw/4.jpg"",""time"":215},{""stimulus"":""img/red_lw/5.jpg"",""time"":260},{""stimulus"":""img/red_lw/6.jpg"",""time"":307},{""stimulus"":""img/red_lw/7.jpg"",""time"":353},{""stimulus"":""img/red_lw/8.jpg"",""time"":401},{""stimulus"":""img/red_lw/9.jpg"",""time"":462},{""stimulus"":""img/red_lw/10.jpg"",""time"":508},{""stimulus"":""img/red_lw/11.jpg"",""time"":555}]","[]"
"image-keyboard-response","148","312150","0.0-5.0-1.72","63f791c69ca73d3460eeb2d9","bdp_lott","Sun Mar 26 2023 07:48:54 GMT-0700 (Pacific Daylight Time)","493036","green","red","","4019","","","","choice","","img/red_lw/choose11.jpg","1","153","green","0.5","0.5","0.5","w","",""
"animation","149","312762","0.0-5.0-2.72","63f791c69ca73d3460eeb2d9","bdp_lott","Sun Mar 26 2023 07:48:54 GMT-0700 (Pacific Daylight Time)","493036","green","red","","","","","","","","","","153","","","","","","[{""stimulus"":""img/green_ww/1.jpg"",""time"":54},{""stimulus"":""img/green_ww/2.jpg"",""time"":101},{""stimulus"":""img/green_ww/3.jpg"",""time"":162},{""stimulus"":""img/green_ww/4.jpg"",""time"":209},{""stimulus"":""img/green_ww/5.jpg"",""time"":255},{""stimulus"":""img/green_ww/6.jpg"",""time"":302},{""stimulus"":""img/green_ww/7.jpg"",""time"":364},{""stimulus"":""img/green_ww/8.jpg"",""time"":410},{""stimulus"":""img/green_ww/9.jpg"",""time"":457},{""stimulus"":""img/green_ww/10.jpg"",""time"":503},{""stimulus"":""img/green_ww/11.jpg"",""time"":565}]","[]"
"image-keyboard-response","150","313280","0.0-5.0-1.73","63f791c69ca73d3460eeb2d9","bdp_lott","Sun Mar 26 2023 07:48:54 GMT-0700 (Pacific Daylight Time)","493036","green","red","","516","","","","choice","","img/green_ww/choose11.jpg","1","152","green","0.5","0.5","0.5","l","",""
"animation","151","313890","0.0-5.0-2.73","63f791c69ca73d3460eeb2d9","bdp_lott","Sun Mar 26 2023 07:48:54 GMT-0700 (Pacific Daylight Time)","493036","green","red","","","","","","","","","","152","","","","","","[{""stimulus"":""img/green_lw/1.jpg"",""time"":51},{""stimulus"":""img/green_lw/2.jpg"",""time"":100},{""stimulus"":""img/green_lw/3.jpg"",""time"":162},{""stimulus"":""img/green_lw/4.jpg"",""time"":201},{""stimulus"":""img/green_lw/5.jpg"",""time"":253},{""stimulus"":""img/green_lw/6.jpg"",""time"":315},{""stimulus"":""img/green_lw/7.jpg"",""time"":351},{""stimulus"":""img/green_lw/8.jpg"",""time"":407},{""stimulus"":""img/green_lw/9.jpg"",""time"":457},{""stimulus"":""img/green_lw/10.jpg"",""time"":503},{""stimulus"":""img/green_lw/11.jpg"",""time"":564}]","[]"
"image-keyboard-response","152","314473","0.0-5.0-1.74","63f791c69ca73d3460eeb2d9","bdp_lott","Sun Mar 26 2023 07:48:54 GMT-0700 (Pacific Daylight Time)","493036","green","red","","582","","","","choice","","img/green_lw/choose11.jpg","1","151","green","0.5","0.5","0.5","l","",""
"animation","153","315080","0.0-5.0-2.74","63f791c69ca73d3460eeb2d9","bdp_lott","Sun Mar 26 2023 07:48:54 GMT-0700 (Pacific Daylight Time)","493036","green","red","","","","","","","","","","151","","","","","","[{""stimulus"":""img/green_lw/1.jpg"",""time"":66},{""stimulus"":""img/green_lw/2.jpg"",""time"":101},{""stimulus"":""img/green_lw/3.jpg"",""time"":159},{""stimulus"":""img/green_lw/4.jpg"",""time"":205},{""stimulus"":""img/green_lw/5.jpg"",""time"":266},{""stimulus"":""img/green_lw/6.jpg"",""time"":311},{""stimulus"":""img/green_lw/7.jpg"",""time"":351},{""stimulus"":""img/green_lw/8.jpg"",""time"":403},{""stimulus"":""img/green_lw/9.jpg"",""time"":465},{""stimulus"":""img/green_lw/10.jpg"",""time"":511},{""stimulus"":""img/green_lw/11.jpg"",""time"":551}]","[]"
"image-keyboard-response","154","316627","0.0-5.0-1.75","63f791c69ca73d3460eeb2d9","bdp_lott","Sun Mar 26 2023 07:48:54 GMT-0700 (Pacific Daylight Time)","493036","green","red","","1546","","","","choice","","img/green_lw/choose11.jpg","2","150","red","0.5","0.5","0.5","w","",""
"animation","155","317229","0.0-5.0-2.75","63f791c69ca73d3460eeb2d9","bdp_lott","Sun Mar 26 2023 07:48:54 GMT-0700 (Pacific Daylight Time)","493036","green","red","","","","","","","","","","150","","","","","","[{""stimulus"":""img/red_lw/1.jpg"",""time"":51},{""stimulus"":""img/red_lw/2.jpg"",""time"":103},{""stimulus"":""img/red_lw/3.jpg"",""time"":165},{""stimulus"":""img/red_lw/4.jpg"",""time"":205},{""stimulus"":""img/red_lw/5.jpg"",""time"":250},{""stimulus"":""img/red_lw/6.jpg"",""time"":304},{""stimulus"":""img/red_lw/7.jpg"",""time"":351},{""stimulus"":""img/red_lw/8.jpg"",""time"":401},{""stimulus"":""img/red_lw/9.jpg"",""time"":459},{""stimulus"":""img/red_lw/10.jpg"",""time"":505},{""stimulus"":""img/red_lw/11.jpg"",""time"":550}]","[]"
"image-keyboard-response","156","317805","0.0-5.0-1.76","63f791c69ca73d3460eeb2d9","bdp_lott","Sun Mar 26 2023 07:48:54 GMT-0700 (Pacific Daylight Time)","493036","green","red","","575","","","","choice","","img/red_lw/choose11.jpg","2","149","red","0.5","0.1","0.1","l","",""
"animation","157","318412","0.0-5.0-2.76","63f791c69ca73d3460eeb2d9","bdp_lott","Sun Mar 26 2023 07:48:54 GMT-0700 (Pacific Daylight Time)","493036","green","red","","","","","","","","","","149","","","","","","[{""stimulus"":""img/red_ll/1.jpg"",""time"":66},{""stimulus"":""img/red_ll/2.jpg"",""time"":112},{""stimulus"":""img/red_ll/3.jpg"",""time"":158},{""stimulus"":""img/red_ll/4.jpg"",""time"":205},{""stimulus"":""img/red_ll/5.jpg"",""time"":251},{""stimulus"":""img/red_ll/6.jpg"",""time"":313},{""stimulus"":""img/red_ll/7.jpg"",""time"":359},{""stimulus"":""img/red_ll/8.jpg"",""time"":406},{""stimulus"":""img/red_ll/9.jpg"",""time"":453},{""stimulus"":""img/red_ll/10.jpg"",""time"":514},{""stimulus"":""img/red_ll/11.jpg"",""time"":551}]","[]"
"image-keyboard-response","158","318966","0.0-5.0-1.77","63f791c69ca73d3460eeb2d9","bdp_lott","Sun Mar 26 2023 07:48:54 GMT-0700 (Pacific Daylight Time)","493036","green","red","","553","","","","choice","","img/red_ll/choose11.jpg","2","148","red","0.5","0.1","0.1","l","",""
"animation","159","319568","0.0-5.0-2.77","63f791c69ca73d3460eeb2d9","bdp_lott","Sun Mar 26 2023 07:48:54 GMT-0700 (Pacific Daylight Time)","493036","green","red","","","","","","","","","","148","","","","","","[{""stimulus"":""img/red_ll/1.jpg"",""time"":51},{""stimulus"":""img/red_ll/2.jpg"",""time"":109},{""stimulus"":""img/red_ll/3.jpg"",""time"":151},{""stimulus"":""img/red_ll/4.jpg"",""time"":201},{""stimulus"":""img/red_ll/5.jpg"",""time"":263},{""stimulus"":""img/red_ll/6.jpg"",""time"":301},{""stimulus"":""img/red_ll/7.jpg"",""time"":355},{""stimulus"":""img/red_ll/8.jpg"",""time"":401},{""stimulus"":""img/red_ll/9.jpg"",""time"":451},{""stimulus"":""img/red_ll/10.jpg"",""time"":509},{""stimulus"":""img/red_ll/11.jpg"",""time"":555}]","[]"
"image-keyboard-response","160","323068","0.0-5.0-1.78","63f791c69ca73d3460eeb2d9","bdp_lott","Sun Mar 26 2023 07:48:54 GMT-0700 (Pacific Daylight Time)","493036","green","red","","3499","","","","choice","","img/red_ll/choose11.jpg","1","147","green","0.5","0.1","0.5","l","",""
"animation","161","323671","0.0-5.0-2.78","63f791c69ca73d3460eeb2d9","bdp_lott","Sun Mar 26 2023 07:48:54 GMT-0700 (Pacific Daylight Time)","493036","green","red","","","","","","","","","","147","","","","","","[{""stimulus"":""img/green_ll/1.jpg"",""time"":51},{""stimulus"":""img/green_ll/2.jpg"",""time"":108},{""stimulus"":""img/green_ll/3.jpg"",""time"":151},{""stimulus"":""img/green_ll/4.jpg"",""time"":201},{""stimulus"":""img/green_ll/5.jpg"",""time"":250},{""stimulus"":""img/green_ll/6.jpg"",""time"":309},{""stimulus"":""img/green_ll/7.jpg"",""time"":355},{""stimulus"":""img/green_ll/8.jpg"",""time"":401},{""stimulus"":""img/green_ll/9.jpg"",""time"":451},{""stimulus"":""img/green_ll/10.jpg"",""time"":509},{""stimulus"":""img/green_ll/11.jpg"",""time"":555}]","[]"
"image-keyboard-response","162","324016","0.0-5.0-1.79","63f791c69ca73d3460eeb2d9","bdp_lott","Sun Mar 26 2023 07:48:54 GMT-0700 (Pacific Daylight Time)","493036","green","red","","345","","","","choice","","img/green_ll/choose11.jpg","1","146","green","0.5","0.1","0.5","l","",""
"animation","163","324618","0.0-5.0-2.79","63f791c69ca73d3460eeb2d9","bdp_lott","Sun Mar 26 2023 07:48:54 GMT-0700 (Pacific Daylight Time)","493036","green","red","","","","","","","","","","146","","","","","","[{""stimulus"":""img/green_ll/1.jpg"",""time"":50},{""stimulus"":""img/green_ll/2.jpg"",""time"":100},{""stimulus"":""img/green_ll/3.jpg"",""time"":153},{""stimulus"":""img/green_ll/4.jpg"",""time"":215},{""stimulus"":""img/green_ll/5.jpg"",""time"":260},{""stimulus"":""img/green_ll/6.jpg"",""time"":310},{""stimulus"":""img/green_ll/7.jpg"",""time"":351},{""stimulus"":""img/green_ll/8.jpg"",""time"":400},{""stimulus"":""img/green_ll/9.jpg"",""time"":464},{""stimulus"":""img/green_ll/10.jpg"",""time"":510},{""stimulus"":""img/green_ll/11.jpg"",""time"":560}]","[]"
"image-keyboard-response","164","324841","0.0-5.0-1.80","63f791c69ca73d3460eeb2d9","bdp_lott","Sun Mar 26 2023 07:48:54 GMT-0700 (Pacific Daylight Time)","493036","green","red","","223","","","","choice","","img/green_ll/choose11.jpg","1","145","green","0.5","0.1","0.5","w","",""
"animation","165","325445","0.0-5.0-2.80","63f791c69ca73d3460eeb2d9","bdp_lott","Sun Mar 26 2023 07:48:54 GMT-0700 (Pacific Daylight Time)","493036","green","red","","","","","","","","","","145","","","","","","[{""stimulus"":""img/green_wl/1.jpg"",""time"":51},{""stimulus"":""img/green_wl/2.jpg"",""time"":106},{""stimulus"":""img/green_wl/3.jpg"",""time"":152},{""stimulus"":""img/green_wl/4.jpg"",""time"":208},{""stimulus"":""img/green_wl/5.jpg"",""time"":260},{""stimulus"":""img/green_wl/6.jpg"",""time"":301},{""stimulus"":""img/green_wl/7.jpg"",""time"":355},{""stimulus"":""img/green_wl/8.jpg"",""time"":416},{""stimulus"":""img/green_wl/9.jpg"",""time"":463},{""stimulus"":""img/green_wl/10.jpg"",""time"":509},{""stimulus"":""img/green_wl/11.jpg"",""time"":555}]","[]"
"image-keyboard-response","166","327140","0.0-5.0-1.81","63f791c69ca73d3460eeb2d9","bdp_lott","Sun Mar 26 2023 07:48:54 GMT-0700 (Pacific Daylight Time)","493036","green","red","","1695","","","","choice","","img/green_wl/choose11.jpg","2","144","red","0.5","0.1","0.1","l","",""
"animation","167","327741","0.0-5.0-2.81","63f791c69ca73d3460eeb2d9","bdp_lott","Sun Mar 26 2023 07:48:54 GMT-0700 (Pacific Daylight Time)","493036","green","red","","","","","","","","","","144","","","","","","[{""stimulus"":""img/red_wl/1.jpg"",""time"":52},{""stimulus"":""img/red_wl/2.jpg"",""time"":111},{""stimulus"":""img/red_wl/3.jpg"",""time"":157},{""stimulus"":""img/red_wl/4.jpg"",""time"":204},{""stimulus"":""img/red_wl/5.jpg"",""time"":266},{""stimulus"":""img/red_wl/6.jpg"",""time"":313},{""stimulus"":""img/red_wl/7.jpg"",""time"":358},{""stimulus"":""img/red_wl/8.jpg"",""time"":405},{""stimulus"":""img/red_wl/9.jpg"",""time"":452},{""stimulus"":""img/red_wl/10.jpg"",""time"":513},{""stimulus"":""img/red_wl/11.jpg"",""time"":561}]","[]"
"image-keyboard-response","168","328045","0.0-5.0-1.82","63f791c69ca73d3460eeb2d9","bdp_lott","Sun Mar 26 2023 07:48:54 GMT-0700 (Pacific Daylight Time)","493036","green","red","","303","","","","choice","","img/red_wl/choose11.jpg","2","143","red","0.5","0.1","0.1","l","",""
"animation","169","328647","0.0-5.0-2.82","63f791c69ca73d3460eeb2d9","bdp_lott","Sun Mar 26 2023 07:48:54 GMT-0700 (Pacific Daylight Time)","493036","green","red","","","","","","","","","","143","","","","","","[{""stimulus"":""img/red_wl/1.jpg"",""time"":51},{""stimulus"":""img/red_wl/2.jpg"",""time"":103},{""stimulus"":""img/red_wl/3.jpg"",""time"":160},{""stimulus"":""img/red_wl/4.jpg"",""time"":210},{""stimulus"":""img/red_wl/5.jpg"",""time"":260},{""stimulus"":""img/red_wl/6.jpg"",""time"":306},{""stimulus"":""img/red_wl/7.jpg"",""time"":350},{""stimulus"":""img/red_wl/8.jpg"",""time"":415},{""stimulus"":""img/red_wl/9.jpg"",""time"":461},{""stimulus"":""img/red_wl/10.jpg"",""time"":508},{""stimulus"":""img/red_wl/11.jpg"",""time"":555}]","[]"
"image-keyboard-response","170","328830","0.0-5.0-1.83","63f791c69ca73d3460eeb2d9","bdp_lott","Sun Mar 26 2023 07:48:54 GMT-0700 (Pacific Daylight Time)","493036","green","red","","182","","","","choice","","img/red_wl/choose11.jpg","2","142","red","0.5","0.1","0.1","l","",""
"animation","171","329431","0.0-5.0-2.83","63f791c69ca73d3460eeb2d9","bdp_lott","Sun Mar 26 2023 07:48:54 GMT-0700 (Pacific Daylight Time)","493036","green","red","","","","","","","","","","142","","","","","","[{""stimulus"":""img/red_wl/1.jpg"",""time"":50},{""stimulus"":""img/red_wl/2.jpg"",""time"":110},{""stimulus"":""img/red_wl/3.jpg"",""time"":156},{""stimulus"":""img/red_wl/4.jpg"",""time"":203},{""stimulus"":""img/red_wl/5.jpg"",""time"":264},{""stimulus"":""img/red_wl/6.jpg"",""time"":310},{""stimulus"":""img/red_wl/7.jpg"",""time"":356},{""stimulus"":""img/red_wl/8.jpg"",""time"":402},{""stimulus"":""img/red_wl/9.jpg"",""time"":451},{""stimulus"":""img/red_wl/10.jpg"",""time"":511},{""stimulus"":""img/red_wl/11.jpg"",""time"":556}]","[]"
"image-keyboard-response","172","329751","0.0-5.0-1.84","63f791c69ca73d3460eeb2d9","bdp_lott","Sun Mar 26 2023 07:48:54 GMT-0700 (Pacific Daylight Time)","493036","green","red","","319","","","","choice","","img/red_wl/choose11.jpg","1","141","green","0.5","0.1","0.5","l","",""
"animation","173","330352","0.0-5.0-2.84","63f791c69ca73d3460eeb2d9","bdp_lott","Sun Mar 26 2023 07:48:54 GMT-0700 (Pacific Daylight Time)","493036","green","red","","","","","","","","","","141","","","","","","[{""stimulus"":""img/green_ll/1.jpg"",""time"":50},{""stimulus"":""img/green_ll/2.jpg"",""time"":115},{""stimulus"":""img/green_ll/3.jpg"",""time"":151},{""stimulus"":""img/green_ll/4.jpg"",""time"":208},{""stimulus"":""img/green_ll/5.jpg"",""time"":253},{""stimulus"":""img/green_ll/6.jpg"",""time"":315},{""stimulus"":""img/green_ll/7.jpg"",""time"":362},{""stimulus"":""img/green_ll/8.jpg"",""time"":407},{""stimulus"":""img/green_ll/9.jpg"",""time"":453},{""stimulus"":""img/green_ll/10.jpg"",""time"":515},{""stimulus"":""img/green_ll/11.jpg"",""time"":561}]","[]"
"image-keyboard-response","174","330700","0.0-5.0-1.85","63f791c69ca73d3460eeb2d9","bdp_lott","Sun Mar 26 2023 07:48:54 GMT-0700 (Pacific Daylight Time)","493036","green","red","","347","","","","choice","","img/green_ll/choose11.jpg","1","140","green","0.5","0.1","0.5","w","",""
"animation","175","331316","0.0-5.0-2.85","63f791c69ca73d3460eeb2d9","bdp_lott","Sun Mar 26 2023 07:48:54 GMT-0700 (Pacific Daylight Time)","493036","green","red","","","","","","","","","","140","","","","","","[{""stimulus"":""img/green_wl/1.jpg"",""time"":50},{""stimulus"":""img/green_wl/2.jpg"",""time"":106},{""stimulus"":""img/green_wl/3.jpg"",""time"":152},{""stimulus"":""img/green_wl/4.jpg"",""time"":200},{""stimulus"":""img/green_wl/5.jpg"",""time"":250},{""stimulus"":""img/green_wl/6.jpg"",""time"":307},{""stimulus"":""img/green_wl/7.jpg"",""time"":353},{""stimulus"":""img/green_wl/8.jpg"",""time"":401},{""stimulus"":""img/green_wl/9.jpg"",""time"":450},{""stimulus"":""img/green_wl/10.jpg"",""time"":508},{""stimulus"":""img/green_wl/11.jpg"",""time"":551}]","[]"
"image-keyboard-response","176","331708","0.0-5.0-1.86","63f791c69ca73d3460eeb2d9","bdp_lott","Sun Mar 26 2023 07:48:54 GMT-0700 (Pacific Daylight Time)","493036","green","red","","391","","","","choice","","img/green_wl/choose11.jpg","1","139","green","0.5","0.1","0.5","l","",""
"animation","177","332313","0.0-5.0-2.86","63f791c69ca73d3460eeb2d9","bdp_lott","Sun Mar 26 2023 07:48:54 GMT-0700 (Pacific Daylight Time)","493036","green","red","","","","","","","","","","139","","","","","","[{""stimulus"":""img/green_ll/1.jpg"",""time"":50},{""stimulus"":""img/green_ll/2.jpg"",""time"":103},{""stimulus"":""img/green_ll/3.jpg"",""time"":151},{""stimulus"":""img/green_ll/4.jpg"",""time"":213},{""stimulus"":""img/green_ll/5.jpg"",""time"":260},{""stimulus"":""img/green_ll/6.jpg"",""time"":306},{""stimulus"":""img/green_ll/7.jpg"",""time"":353},{""stimulus"":""img/green_ll/8.jpg"",""time"":415},{""stimulus"":""img/green_ll/9.jpg"",""time"":465},{""stimulus"":""img/green_ll/10.jpg"",""time"":511},{""stimulus"":""img/green_ll/11.jpg"",""time"":551}]","[]"
"image-keyboard-response","178","333458","0.0-5.0-1.87","63f791c69ca73d3460eeb2d9","bdp_lott","Sun Mar 26 2023 07:48:54 GMT-0700 (Pacific Daylight Time)","493036","green","red","","1145","","","","choice","","img/green_ll/choose11.jpg","1","138","green","0.5","0.1","0.5","l","",""
"animation","179","334070","0.0-5.0-2.87","63f791c69ca73d3460eeb2d9","bdp_lott","Sun Mar 26 2023 07:48:54 GMT-0700 (Pacific Daylight Time)","493036","green","red","","","","","","","","","","138","","","","","","[{""stimulus"":""img/green_ll/1.jpg"",""time"":51},{""stimulus"":""img/green_ll/2.jpg"",""time"":101},{""stimulus"":""img/green_ll/3.jpg"",""time"":162},{""stimulus"":""img/green_ll/4.jpg"",""time"":201},{""stimulus"":""img/green_ll/5.jpg"",""time"":257},{""stimulus"":""img/green_ll/6.jpg"",""time"":301},{""stimulus"":""img/green_ll/7.jpg"",""time"":351},{""stimulus"":""img/green_ll/8.jpg"",""time"":412},{""stimulus"":""img/green_ll/9.jpg"",""time"":459},{""stimulus"":""img/green_ll/10.jpg"",""time"":504},{""stimulus"":""img/green_ll/11.jpg"",""time"":566}]","[]"
"image-keyboard-response","180","334567","0.0-5.0-1.88","63f791c69ca73d3460eeb2d9","bdp_lott","Sun Mar 26 2023 07:48:54 GMT-0700 (Pacific Daylight Time)","493036","green","red","","497","","","","choice","","img/green_ll/choose11.jpg","1","137","green","0.5","0.1","0.5","l","",""
"animation","181","335171","0.0-5.0-2.88","63f791c69ca73d3460eeb2d9","bdp_lott","Sun Mar 26 2023 07:48:54 GMT-0700 (Pacific Daylight Time)","493036","green","red","","","","","","","","","","137","","","","","","[{""stimulus"":""img/green_ll/1.jpg"",""time"":56},{""stimulus"":""img/green_ll/2.jpg"",""time"":106},{""stimulus"":""img/green_ll/3.jpg"",""time"":152},{""stimulus"":""img/green_ll/4.jpg"",""time"":200},{""stimulus"":""img/green_ll/5.jpg"",""time"":262},{""stimulus"":""img/green_ll/6.jpg"",""time"":309},{""stimulus"":""img/green_ll/7.jpg"",""time"":355},{""stimulus"":""img/green_ll/8.jpg"",""time"":402},{""stimulus"":""img/green_ll/9.jpg"",""time"":464},{""stimulus"":""img/green_ll/10.jpg"",""time"":510},{""stimulus"":""img/green_ll/11.jpg"",""time"":556}]","[]"
"image-keyboard-response","182","335508","0.0-5.0-1.89","63f791c69ca73d3460eeb2d9","bdp_lott","Sun Mar 26 2023 07:48:54 GMT-0700 (Pacific Daylight Time)","493036","green","red","","336","","","","choice","","img/green_ll/choose11.jpg","1","136","green","0.5","0.1","0.5","l","",""
"animation","183","336111","0.0-5.0-2.89","63f791c69ca73d3460eeb2d9","bdp_lott","Sun Mar 26 2023 07:48:54 GMT-0700 (Pacific Daylight Time)","493036","green","red","","","","","","","","","","136","","","","","","[{""stimulus"":""img/green_ll/1.jpg"",""time"":63},{""stimulus"":""img/green_ll/2.jpg"",""time"":109},{""stimulus"":""img/green_ll/3.jpg"",""time"":155},{""stimulus"":""img/green_ll/4.jpg"",""time"":201},{""stimulus"":""img/green_ll/5.jpg"",""time"":263},{""stimulus"":""img/green_ll/6.jpg"",""time"":309},{""stimulus"":""img/green_ll/7.jpg"",""time"":351},{""stimulus"":""img/green_ll/8.jpg"",""time"":401},{""stimulus"":""img/green_ll/9.jpg"",""time"":464},{""stimulus"":""img/green_ll/10.jpg"",""time"":510},{""stimulus"":""img/green_ll/11.jpg"",""time"":556}]","[]"
"image-keyboard-response","184","336541","0.0-5.0-1.90","63f791c69ca73d3460eeb2d9","bdp_lott","Sun Mar 26 2023 07:48:54 GMT-0700 (Pacific Daylight Time)","493036","green","red","","429","","","","choice","","img/green_ll/choose11.jpg","2","135","red","0.5","0.1","0.1","l","",""
"animation","185","337144","0.0-5.0-2.90","63f791c69ca73d3460eeb2d9","bdp_lott","Sun Mar 26 2023 07:48:54 GMT-0700 (Pacific Daylight Time)","493036","green","red","","","","","","","","","","135","","","","","","[{""stimulus"":""img/red_ll/1.jpg"",""time"":50},{""stimulus"":""img/red_ll/2.jpg"",""time"":109},{""stimulus"":""img/red_ll/3.jpg"",""time"":155},{""stimulus"":""img/red_ll/4.jpg"",""time"":216},{""stimulus"":""img/red_ll/5.jpg"",""time"":263},{""stimulus"":""img/red_ll/6.jpg"",""time"":309},{""stimulus"":""img/red_ll/7.jpg"",""time"":355},{""stimulus"":""img/red_ll/8.jpg"",""time"":402},{""stimulus"":""img/red_ll/9.jpg"",""time"":463},{""stimulus"":""img/red_ll/10.jpg"",""time"":500},{""stimulus"":""img/red_ll/11.jpg"",""time"":556}]","[]"
"image-keyboard-response","186","337506","0.0-5.0-1.91","63f791c69ca73d3460eeb2d9","bdp_lott","Sun Mar 26 2023 07:48:54 GMT-0700 (Pacific Daylight Time)","493036","green","red","","361","","","","choice","","img/red_ll/choose11.jpg","2","134","red","0.5","0.1","0.1","l","",""
"animation","187","338117","0.0-5.0-2.91","63f791c69ca73d3460eeb2d9","bdp_lott","Sun Mar 26 2023 07:48:54 GMT-0700 (Pacific Daylight Time)","493036","green","red","","","","","","","","","","134","","","","","","[{""stimulus"":""img/red_ll/1.jpg"",""time"":51},{""stimulus"":""img/red_ll/2.jpg"",""time"":116},{""stimulus"":""img/red_ll/3.jpg"",""time"":162},{""stimulus"":""img/red_ll/4.jpg"",""time"":209},{""stimulus"":""img/red_ll/5.jpg"",""time"":251},{""stimulus"":""img/red_ll/6.jpg"",""time"":301},{""stimulus"":""img/red_ll/7.jpg"",""time"":363},{""stimulus"":""img/red_ll/8.jpg"",""time"":409},{""stimulus"":""img/red_ll/9.jpg"",""time"":455},{""stimulus"":""img/red_ll/10.jpg"",""time"":502},{""stimulus"":""img/red_ll/11.jpg"",""time"":564}]","[]"
"image-keyboard-response","188","338343","0.0-5.0-1.92","63f791c69ca73d3460eeb2d9","bdp_lott","Sun Mar 26 2023 07:48:54 GMT-0700 (Pacific Daylight Time)","493036","green","red","","225","","","","choice","","img/red_ll/choose11.jpg","2","133","red","0.5","0.1","0.1","l","",""
"animation","189","338951","0.0-5.0-2.92","63f791c69ca73d3460eeb2d9","bdp_lott","Sun Mar 26 2023 07:48:54 GMT-0700 (Pacific Daylight Time)","493036","green","red","","","","","","","","","","133","","","","","","[{""stimulus"":""img/red_ll/1.jpg"",""time"":50},{""stimulus"":""img/red_ll/2.jpg"",""time"":101},{""stimulus"":""img/red_ll/3.jpg"",""time"":151},{""stimulus"":""img/red_ll/4.jpg"",""time"":206},{""stimulus"":""img/red_ll/5.jpg"",""time"":252},{""stimulus"":""img/red_ll/6.jpg"",""time"":314},{""stimulus"":""img/red_ll/7.jpg"",""time"":360},{""stimulus"":""img/red_ll/8.jpg"",""time"":406},{""stimulus"":""img/red_ll/9.jpg"",""time"":452},{""stimulus"":""img/red_ll/10.jpg"",""time"":515},{""stimulus"":""img/red_ll/11.jpg"",""time"":561}]","[]"
"image-keyboard-response","190","340469","0.0-5.0-1.93","63f791c69ca73d3460eeb2d9","bdp_lott","Sun Mar 26 2023 07:48:54 GMT-0700 (Pacific Daylight Time)","493036","green","red","","1517","","","","choice","","img/red_ll/choose11.jpg","2","132","red","0.5","0.1","0.1","w","",""
"animation","191","341083","0.0-5.0-2.93","63f791c69ca73d3460eeb2d9","bdp_lott","Sun Mar 26 2023 07:48:54 GMT-0700 (Pacific Daylight Time)","493036","green","red","","","","","","","","","","132","","","","","","[{""stimulus"":""img/red_lw/1.jpg"",""time"":59},{""stimulus"":""img/red_lw/2.jpg"",""time"":105},{""stimulus"":""img/red_lw/3.jpg"",""time"":151},{""stimulus"":""img/red_lw/4.jpg"",""time"":213},{""stimulus"":""img/red_lw/5.jpg"",""time"":258},{""stimulus"":""img/red_lw/6.jpg"",""time"":301},{""stimulus"":""img/red_lw/7.jpg"",""time"":352},{""stimulus"":""img/red_lw/8.jpg"",""time"":413},{""stimulus"":""img/red_lw/9.jpg"",""time"":459},{""stimulus"":""img/red_lw/10.jpg"",""time"":506},{""stimulus"":""img/red_lw/11.jpg"",""time"":551}]","[]"
