"trial_type","trial_index","time_elapsed","internal_node_id","subject_id","task","startTime","totalTime","fairMachine","unfairMachine","view_history","rt","event","trial","time","trialtype","success","stimulus","key_press","roundsLeft","chosen","pFairMachWin","pUnfairMachWin","pTrialWin","outcome","animation_sequence","responses"
"pavlovia","0","4","0.0-0.0","62acc04d0a7788636b0e9915","bdp_lott","Sun Apr 16 2023 10:54:00 GMT-0400 (Eastern Daylight Time)","226956","red","green","","","","","","","","","","","","","","","","",""
"instructions","1","3651","0.0-1.0","62acc04d0a7788636b0e9915","bdp_lott","Sun Apr 16 2023 10:54:00 GMT-0400 (Eastern Daylight Time)","226956","red","green","[{""page_index"":0,""viewing_time"":3646}]","3646","","","","","","","","","","","","","","",""
"","","","","62acc04d0a7788636b0e9915","bdp_lott","Sun Apr 16 2023 10:54:00 GMT-0400 (Eastern Daylight Time)","226956","red","green","","","fullscreenenter","2","6757","fullscreenenter","","","","","","","","","","",""
"fullscreen","2","7762","0.0-2.0","62acc04d0a7788636b0e9915","bdp_lott","Sun Apr 16 2023 10:54:00 GMT-0400 (Eastern Daylight Time)","226956","red","green","","","","","","","true","","","","","","","","","",""
"instructions","3","33595","0.0-4.0","62acc04d0a7788636b0e9915","bdp_lott","Sun Apr 16 2023 10:54:00 GMT-0400 (Eastern Daylight Time)","226956","red","green","[{""page_index"":0,""viewing_time"":25831}]","25832","","","","","","","","","","","","","","",""
"image-keyboard-response","4","36100","0.0-5.0-1.0","62acc04d0a7788636b0e9915","bdp_lott","Sun Apr 16 2023 10:54:00 GMT-0400 (Eastern Daylight Time)","226956","red","green","","2503","","","","choice","","img/red_ll/initchoose11.jpg","1","225","green","0.5","0.5","0.5","l","",""
"animation","5","36701","0.0-5.0-2.0","62acc04d0a7788636b0e9915","bdp_lott","Sun Apr 16 2023 10:54:00 GMT-0400 (Eastern Daylight Time)","226956","red","green","","","","","","","","","","225","","","","","","[{""stimulus"":""img/green_ll/1.jpg"",""time"":51},{""stimulus"":""img/green_ll/2.jpg"",""time"":102},{""stimulus"":""img/green_ll/3.jpg"",""time"":151},{""stimulus"":""img/green_ll/4.jpg"",""time"":200},{""stimulus"":""img/green_ll/5.jpg"",""time"":250},{""stimulus"":""img/green_ll/6.jpg"",""time"":300},{""stimulus"":""img/green_ll/7.jpg"",""time"":351},{""stimulus"":""img/green_ll/8.jpg"",""time"":401},{""stimulus"":""img/green_ll/9.jpg"",""time"":450},{""stimulus"":""img/green_ll/10.jpg"",""time"":501},{""stimulus"":""img/green_ll/11.jpg"",""time"":551}]","[]"
"image-keyboard-response","6","38180","0.0-5.0-1.1","62acc04d0a7788636b0e9915","bdp_lott","Sun Apr 16 2023 10:54:00 GMT-0400 (Eastern Daylight Time)","226956","red","green","","1478","","","","choice","","img/green_ll/choose11.jpg","2","224","red","0.5","0.5","0.5","w","",""
"animation","7","38782","0.0-5.0-2.1","62acc04d0a7788636b0e9915","bdp_lott","Sun Apr 16 2023 10:54:00 GMT-0400 (Eastern Daylight Time)","226956","red","green","","","","","","","","","","224","","","","","","[{""stimulus"":""img/red_lw/1.jpg"",""time"":50},{""stimulus"":""img/red_lw/2.jpg"",""time"":101},{""stimulus"":""img/red_lw/3.jpg"",""time"":151},{""stimulus"":""img/red_lw/4.jpg"",""time"":200},{""stimulus"":""img/red_lw/5.jpg"",""time"":250},{""stimulus"":""img/red_lw/6.jpg"",""time"":301},{""stimulus"":""img/red_lw/7.jpg"",""time"":351},{""stimulus"":""img/red_lw/8.jpg"",""time"":400},{""stimulus"":""img/red_lw/9.jpg"",""time"":451},{""stimulus"":""img/red_lw/10.jpg"",""time"":500},{""stimulus"":""img/red_lw/11.jpg"",""time"":550}]","[]"
"image-keyboard-response","8","40155","0.0-5.0-1.2","62acc04d0a7788636b0e9915","bdp_lott","Sun Apr 16 2023 10:54:00 GMT-0400 (Eastern Daylight Time)","226956","red","green","","1372","","","","choice","","img/red_lw/choose11.jpg","1","223","green","0.5","0.5","0.5","w","",""
"animation","9","40756","0.0-5.0-2.2","62acc04d0a7788636b0e9915","bdp_lott","Sun Apr 16 2023 10:54:00 GMT-0400 (Eastern Daylight Time)","226956","red","green","","","","","","","","","","223","","","","","","[{""stimulus"":""img/green_ww/1.jpg"",""time"":52},{""stimulus"":""img/green_ww/2.jpg"",""time"":101},{""stimulus"":""img/green_ww/3.jpg"",""time"":152},{""stimulus"":""img/green_ww/4.jpg"",""time"":202},{""stimulus"":""img/green_ww/5.jpg"",""time"":251},{""stimulus"":""img/green_ww/6.jpg"",""time"":303},{""stimulus"":""img/green_ww/7.jpg"",""time"":352},{""stimulus"":""img/green_ww/8.jpg"",""time"":402},{""stimulus"":""img/green_ww/9.jpg"",""time"":452},{""stimulus"":""img/green_ww/10.jpg"",""time"":501},{""stimulus"":""img/green_ww/11.jpg"",""time"":552}]","[]"
"image-keyboard-response","10","41737","0.0-5.0-1.3","62acc04d0a7788636b0e9915","bdp_lott","Sun Apr 16 2023 10:54:00 GMT-0400 (Eastern Daylight Time)","226956","red","green","","980","","","","choice","","img/green_ww/choose11.jpg","2","222","red","0.5","0.5","0.5","l","",""
"animation","11","42338","0.0-5.0-2.3","62acc04d0a7788636b0e9915","bdp_lott","Sun Apr 16 2023 10:54:00 GMT-0400 (Eastern Daylight Time)","226956","red","green","","","","","","","","","","222","","","","","","[{""stimulus"":""img/red_wl/1.jpg"",""time"":51},{""stimulus"":""img/red_wl/2.jpg"",""time"":101},{""stimulus"":""img/red_wl/3.jpg"",""time"":152},{""stimulus"":""img/red_wl/4.jpg"",""time"":201},{""stimulus"":""img/red_wl/5.jpg"",""time"":251},{""stimulus"":""img/red_wl/6.jpg"",""time"":301},{""stimulus"":""img/red_wl/7.jpg"",""time"":351},{""stimulus"":""img/red_wl/8.jpg"",""time"":401},{""stimulus"":""img/red_wl/9.jpg"",""time"":451},{""stimulus"":""img/red_wl/10.jpg"",""time"":501},{""stimulus"":""img/red_wl/11.jpg"",""time"":551}]","[]"
"image-keyboard-response","12","43146","0.0-5.0-1.4","62acc04d0a7788636b0e9915","bdp_lott","Sun Apr 16 2023 10:54:00 GMT-0400 (Eastern Daylight Time)","226956","red","green","","807","","","","choice","","img/red_wl/choose11.jpg","1","221","green","0.5","0.5","0.5","l","",""
"animation","13","43747","0.0-5.0-2.4","62acc04d0a7788636b0e9915","bdp_lott","Sun Apr 16 2023 10:54:00 GMT-0400 (Eastern Daylight Time)","226956","red","green","","","","","","","","","","221","","","","","","[{""stimulus"":""img/green_ll/1.jpg"",""time"":50},{""stimulus"":""img/green_ll/2.jpg"",""time"":101},{""stimulus"":""img/green_ll/3.jpg"",""time"":151},{""stimulus"":""img/green_ll/4.jpg"",""time"":201},{""stimulus"":""img/green_ll/5.jpg"",""time"":251},{""stimulus"":""img/green_ll/6.jpg"",""time"":301},{""stimulus"":""img/green_ll/7.jpg"",""time"":351},{""stimulus"":""img/green_ll/8.jpg"",""time"":401},{""stimulus"":""img/green_ll/9.jpg"",""time"":451},{""stimulus"":""img/green_ll/10.jpg"",""time"":501},{""stimulus"":""img/green_ll/11.jpg"",""time"":551}]","[]"
"image-keyboard-response","14","44934","0.0-5.0-1.5","62acc04d0a7788636b0e9915","bdp_lott","Sun Apr 16 2023 10:54:00 GMT-0400 (Eastern Daylight Time)","226956","red","green","","1187","","","","choice","","img/green_ll/choose11.jpg","2","220","red","0.5","0.5","0.5","l","",""
"animation","15","45535","0.0-5.0-2.5","62acc04d0a7788636b0e9915","bdp_lott","Sun Apr 16 2023 10:54:00 GMT-0400 (Eastern Daylight Time)","226956","red","green","","","","","","","","","","220","","","","","","[{""stimulus"":""img/red_ll/1.jpg"",""time"":51},{""stimulus"":""img/red_ll/2.jpg"",""time"":101},{""stimulus"":""img/red_ll/3.jpg"",""time"":151},{""stimulus"":""img/red_ll/4.jpg"",""time"":201},{""stimulus"":""img/red_ll/5.jpg"",""time"":251},{""stimulus"":""img/red_ll/6.jpg"",""time"":301},{""stimulus"":""img/red_ll/7.jpg"",""time"":351},{""stimulus"":""img/red_ll/8.jpg"",""time"":401},{""stimulus"":""img/red_ll/9.jpg"",""time"":451},{""stimulus"":""img/red_ll/10.jpg"",""time"":501},{""stimulus"":""img/red_ll/11.jpg"",""time"":551}]","[]"
"image-keyboard-response","16","45824","0.0-5.0-1.6","62acc04d0a7788636b0e9915","bdp_lott","Sun Apr 16 2023 10:54:00 GMT-0400 (Eastern Daylight Time)","226956","red","green","","288","","","","choice","","img/red_ll/choose11.jpg","1","219","green","0.5","0.5","0.5","l","",""
"animation","17","46425","0.0-5.0-2.6","62acc04d0a7788636b0e9915","bdp_lott","Sun Apr 16 2023 10:54:00 GMT-0400 (Eastern Daylight Time)","226956","red","green","","","","","","","","","","219","","","","","","[{""stimulus"":""img/green_ll/1.jpg"",""time"":51},{""stimulus"":""img/green_ll/2.jpg"",""time"":101},{""stimulus"":""img/green_ll/3.jpg"",""time"":151},{""stimulus"":""img/green_ll/4.jpg"",""time"":201},{""stimulus"":""img/green_ll/5.jpg"",""time"":251},{""stimulus"":""img/green_ll/6.jpg"",""time"":302},{""stimulus"":""img/green_ll/7.jpg"",""time"":351},{""stimulus"":""img/green_ll/8.jpg"",""time"":402},{""stimulus"":""img/green_ll/9.jpg"",""time"":451},{""stimulus"":""img/green_ll/10.jpg"",""time"":501},{""stimulus"":""img/green_ll/11.jpg"",""time"":551}]","[]"
"image-keyboard-response","18","46902","0.0-5.0-1.7","62acc04d0a7788636b0e9915","bdp_lott","Sun Apr 16 2023 10:54:00 GMT-0400 (Eastern Daylight Time)","226956","red","green","","476","","","","choice","","img/green_ll/choose11.jpg","2","218","red","0.5","0.5","0.5","w","",""
"animation","19","47503","0.0-5.0-2.7","62acc04d0a7788636b0e9915","bdp_lott","Sun Apr 16 2023 10:54:00 GMT-0400 (Eastern Daylight Time)","226956","red","green","","","","","","","","","","218","","","","","","[{""stimulus"":""img/red_lw/1.jpg"",""time"":51},{""stimulus"":""img/red_lw/2.jpg"",""time"":101},{""stimulus"":""img/red_lw/3.jpg"",""time"":152},{""stimulus"":""img/red_lw/4.jpg"",""time"":202},{""stimulus"":""img/red_lw/5.jpg"",""time"":255},{""stimulus"":""img/red_lw/6.jpg"",""time"":301},{""stimulus"":""img/red_lw/7.jpg"",""time"":352},{""stimulus"":""img/red_lw/8.jpg"",""time"":401},{""stimulus"":""img/red_lw/9.jpg"",""time"":451},{""stimulus"":""img/red_lw/10.jpg"",""time"":501},{""stimulus"":""img/red_lw/11.jpg"",""time"":551}]","[]"
"image-keyboard-response","20","48791","0.0-5.0-1.8","62acc04d0a7788636b0e9915","bdp_lott","Sun Apr 16 2023 10:54:00 GMT-0400 (Eastern Daylight Time)","226956","red","green","","1288","","","","choice","","img/red_lw/choose11.jpg","1","217","green","0.5","0.5","0.5","l","",""
"animation","21","49392","0.0-5.0-2.8","62acc04d0a7788636b0e9915","bdp_lott","Sun Apr 16 2023 10:54:00 GMT-0400 (Eastern Daylight Time)","226956","red","green","","","","","","","","","","217","","","","","","[{""stimulus"":""img/green_lw/1.jpg"",""time"":51},{""stimulus"":""img/green_lw/2.jpg"",""time"":101},{""stimulus"":""img/green_lw/3.jpg"",""time"":150},{""stimulus"":""img/green_lw/4.jpg"",""time"":201},{""stimulus"":""img/green_lw/5.jpg"",""time"":252},{""stimulus"":""img/green_lw/6.jpg"",""time"":301},{""stimulus"":""img/green_lw/7.jpg"",""time"":351},{""stimulus"":""img/green_lw/8.jpg"",""time"":402},{""stimulus"":""img/green_lw/9.jpg"",""time"":450},{""stimulus"":""img/green_lw/10.jpg"",""time"":500},{""stimulus"":""img/green_lw/11.jpg"",""time"":551}]","[]"
"image-keyboard-response","22","50504","0.0-5.0-1.9","62acc04d0a7788636b0e9915","bdp_lott","Sun Apr 16 2023 10:54:00 GMT-0400 (Eastern Daylight Time)","226956","red","green","","1111","","","","choice","","img/green_lw/choose11.jpg","2","216","red","0.5","0.5","0.5","w","",""
"animation","23","51105","0.0-5.0-2.9","62acc04d0a7788636b0e9915","bdp_lott","Sun Apr 16 2023 10:54:00 GMT-0400 (Eastern Daylight Time)","226956","red","green","","","","","","","","","","216","","","","","","[{""stimulus"":""img/red_lw/1.jpg"",""time"":51},{""stimulus"":""img/red_lw/2.jpg"",""time"":101},{""stimulus"":""img/red_lw/3.jpg"",""time"":151},{""stimulus"":""img/red_lw/4.jpg"",""time"":201},{""stimulus"":""img/red_lw/5.jpg"",""time"":251},{""stimulus"":""img/red_lw/6.jpg"",""time"":301},{""stimulus"":""img/red_lw/7.jpg"",""time"":351},{""stimulus"":""img/red_lw/8.jpg"",""time"":401},{""stimulus"":""img/red_lw/9.jpg"",""time"":451},{""stimulus"":""img/red_lw/10.jpg"",""time"":501},{""stimulus"":""img/red_lw/11.jpg"",""time"":551}]","[]"
"image-keyboard-response","24","52079","0.0-5.0-1.10","62acc04d0a7788636b0e9915","bdp_lott","Sun Apr 16 2023 10:54:00 GMT-0400 (Eastern Daylight Time)","226956","red","green","","973","","","","choice","","img/red_lw/choose11.jpg","1","215","green","0.5","0.5","0.5","l","",""
"animation","25","52680","0.0-5.0-2.10","62acc04d0a7788636b0e9915","bdp_lott","Sun Apr 16 2023 10:54:00 GMT-0400 (Eastern Daylight Time)","226956","red","green","","","","","","","","","","215","","","","","","[{""stimulus"":""img/green_lw/1.jpg"",""time"":52},{""stimulus"":""img/green_lw/2.jpg"",""time"":102},{""stimulus"":""img/green_lw/3.jpg"",""time"":152},{""stimulus"":""img/green_lw/4.jpg"",""time"":202},{""stimulus"":""img/green_lw/5.jpg"",""time"":252},{""stimulus"":""img/green_lw/6.jpg"",""time"":302},{""stimulus"":""img/green_lw/7.jpg"",""time"":351},{""stimulus"":""img/green_lw/8.jpg"",""time"":401},{""stimulus"":""img/green_lw/9.jpg"",""time"":452},{""stimulus"":""img/green_lw/10.jpg"",""time"":502},{""stimulus"":""img/green_lw/11.jpg"",""time"":552}]","[]"
"image-keyboard-response","26","53196","0.0-5.0-1.11","62acc04d0a7788636b0e9915","bdp_lott","Sun Apr 16 2023 10:54:00 GMT-0400 (Eastern Daylight Time)","226956","red","green","","514","","","","choice","","img/green_lw/choose11.jpg","2","214","red","0.5","0.5","0.5","l","",""
"animation","27","53796","0.0-5.0-2.11","62acc04d0a7788636b0e9915","bdp_lott","Sun Apr 16 2023 10:54:00 GMT-0400 (Eastern Daylight Time)","226956","red","green","","","","","","","","","","214","","","","","","[{""stimulus"":""img/red_ll/1.jpg"",""time"":51},{""stimulus"":""img/red_ll/2.jpg"",""time"":101},{""stimulus"":""img/red_ll/3.jpg"",""time"":151},{""stimulus"":""img/red_ll/4.jpg"",""time"":201},{""stimulus"":""img/red_ll/5.jpg"",""time"":252},{""stimulus"":""img/red_ll/6.jpg"",""time"":301},{""stimulus"":""img/red_ll/7.jpg"",""time"":351},{""stimulus"":""img/red_ll/8.jpg"",""time"":400},{""stimulus"":""img/red_ll/9.jpg"",""time"":451},{""stimulus"":""img/red_ll/10.jpg"",""time"":501},{""stimulus"":""img/red_ll/11.jpg"",""time"":550}]","[]"
"image-keyboard-response","28","54166","0.0-5.0-1.12","62acc04d0a7788636b0e9915","bdp_lott","Sun Apr 16 2023 10:54:00 GMT-0400 (Eastern Daylight Time)","226956","red","green","","369","","","","choice","","img/red_ll/choose11.jpg","1","213","green","0.5","0.5","0.5","w","",""
"animation","29","54767","0.0-5.0-2.12","62acc04d0a7788636b0e9915","bdp_lott","Sun Apr 16 2023 10:54:00 GMT-0400 (Eastern Daylight Time)","226956","red","green","","","","","","","","","","213","","","","","","[{""stimulus"":""img/green_wl/1.jpg"",""time"":51},{""stimulus"":""img/green_wl/2.jpg"",""time"":101},{""stimulus"":""img/green_wl/3.jpg"",""time"":151},{""stimulus"":""img/green_wl/4.jpg"",""time"":201},{""stimulus"":""img/green_wl/5.jpg"",""time"":251},{""stimulus"":""img/green_wl/6.jpg"",""time"":301},{""stimulus"":""img/green_wl/7.jpg"",""time"":351},{""stimulus"":""img/green_wl/8.jpg"",""time"":401},{""stimulus"":""img/green_wl/9.jpg"",""time"":451},{""stimulus"":""img/green_wl/10.jpg"",""time"":501},{""stimulus"":""img/green_wl/11.jpg"",""time"":551}]","[]"
"image-keyboard-response","30","55712","0.0-5.0-1.13","62acc04d0a7788636b0e9915","bdp_lott","Sun Apr 16 2023 10:54:00 GMT-0400 (Eastern Daylight Time)","226956","red","green","","944","","","","choice","","img/green_wl/choose11.jpg","2","212","red","0.5","0.5","0.5","w","",""
"animation","31","56312","0.0-5.0-2.13","62acc04d0a7788636b0e9915","bdp_lott","Sun Apr 16 2023 10:54:00 GMT-0400 (Eastern Daylight Time)","226956","red","green","","","","","","","","","","212","","","","","","[{""stimulus"":""img/red_ww/1.jpg"",""time"":52},{""stimulus"":""img/red_ww/2.jpg"",""time"":101},{""stimulus"":""img/red_ww/3.jpg"",""time"":151},{""stimulus"":""img/red_ww/4.jpg"",""time"":201},{""stimulus"":""img/red_ww/5.jpg"",""time"":252},{""stimulus"":""img/red_ww/6.jpg"",""time"":301},{""stimulus"":""img/red_ww/7.jpg"",""time"":351},{""stimulus"":""img/red_ww/8.jpg"",""time"":401},{""stimulus"":""img/red_ww/9.jpg"",""time"":451},{""stimulus"":""img/red_ww/10.jpg"",""time"":501},{""stimulus"":""img/red_ww/11.jpg"",""time"":551}]","[]"
"image-keyboard-response","32","56843","0.0-5.0-1.14","62acc04d0a7788636b0e9915","bdp_lott","Sun Apr 16 2023 10:54:00 GMT-0400 (Eastern Daylight Time)","226956","red","green","","530","","","","choice","","img/red_ww/choose11.jpg","1","211","green","0.5","0.5","0.5","l","",""
"animation","33","57444","0.0-5.0-2.14","62acc04d0a7788636b0e9915","bdp_lott","Sun Apr 16 2023 10:54:00 GMT-0400 (Eastern Daylight Time)","226956","red","green","","","","","","","","","","211","","","","","","[{""stimulus"":""img/green_lw/1.jpg"",""time"":52},{""stimulus"":""img/green_lw/2.jpg"",""time"":101},{""stimulus"":""img/green_lw/3.jpg"",""time"":152},{""stimulus"":""img/green_lw/4.jpg"",""time"":201},{""stimulus"":""img/green_lw/5.jpg"",""time"":252},{""stimulus"":""img/green_lw/6.jpg"",""time"":301},{""stimulus"":""img/green_lw/7.jpg"",""time"":351},{""stimulus"":""img/green_lw/8.jpg"",""time"":401},{""stimulus"":""img/green_lw/9.jpg"",""time"":451},{""stimulus"":""img/green_lw/10.jpg"",""time"":501},{""stimulus"":""img/green_lw/11.jpg"",""time"":552}]","[]"
"image-keyboard-response","34","57930","0.0-5.0-1.15","62acc04d0a7788636b0e9915","bdp_lott","Sun Apr 16 2023 10:54:00 GMT-0400 (Eastern Daylight Time)","226956","red","green","","485","","","","choice","","img/green_lw/choose11.jpg","2","210","red","0.5","0.5","0.5","l","",""
"animation","35","58532","0.0-5.0-2.15","62acc04d0a7788636b0e9915","bdp_lott","Sun Apr 16 2023 10:54:00 GMT-0400 (Eastern Daylight Time)","226956","red","green","","","","","","","","","","210","","","","","","[{""stimulus"":""img/red_ll/1.jpg"",""time"":50},{""stimulus"":""img/red_ll/2.jpg"",""time"":101},{""stimulus"":""img/red_ll/3.jpg"",""time"":151},{""stimulus"":""img/red_ll/4.jpg"",""time"":200},{""stimulus"":""img/red_ll/5.jpg"",""time"":251},{""stimulus"":""img/red_ll/6.jpg"",""time"":301},{""stimulus"":""img/red_ll/7.jpg"",""time"":350},{""stimulus"":""img/red_ll/8.jpg"",""time"":401},{""stimulus"":""img/red_ll/9.jpg"",""time"":450},{""stimulus"":""img/red_ll/10.jpg"",""time"":501},{""stimulus"":""img/red_ll/11.jpg"",""time"":551}]","[]"
"image-keyboard-response","36","58886","0.0-5.0-1.16","62acc04d0a7788636b0e9915","bdp_lott","Sun Apr 16 2023 10:54:00 GMT-0400 (Eastern Daylight Time)","226956","red","green","","352","","","","choice","","img/red_ll/choose11.jpg","1","209","green","0.5","0.5","0.5","w","",""
"animation","37","59487","0.0-5.0-2.16","62acc04d0a7788636b0e9915","bdp_lott","Sun Apr 16 2023 10:54:00 GMT-0400 (Eastern Daylight Time)","226956","red","green","","","","","","","","","","209","","","","","","[{""stimulus"":""img/green_wl/1.jpg"",""time"":50},{""stimulus"":""img/green_wl/2.jpg"",""time"":101},{""stimulus"":""img/green_wl/3.jpg"",""time"":150},{""stimulus"":""img/green_wl/4.jpg"",""time"":201},{""stimulus"":""img/green_wl/5.jpg"",""time"":251},{""stimulus"":""img/green_wl/6.jpg"",""time"":301},{""stimulus"":""img/green_wl/7.jpg"",""time"":351},{""stimulus"":""img/green_wl/8.jpg"",""time"":401},{""stimulus"":""img/green_wl/9.jpg"",""time"":450},{""stimulus"":""img/green_wl/10.jpg"",""time"":501},{""stimulus"":""img/green_wl/11.jpg"",""time"":550}]","[]"
"image-keyboard-response","38","59984","0.0-5.0-1.17","62acc04d0a7788636b0e9915","bdp_lott","Sun Apr 16 2023 10:54:00 GMT-0400 (Eastern Daylight Time)","226956","red","green","","497","","","","choice","","img/green_wl/choose11.jpg","2","208","red","0.5","0.5","0.5","w","",""
"animation","39","60586","0.0-5.0-2.17","62acc04d0a7788636b0e9915","bdp_lott","Sun Apr 16 2023 10:54:00 GMT-0400 (Eastern Daylight Time)","226956","red","green","","","","","","","","","","208","","","","","","[{""stimulus"":""img/red_ww/1.jpg"",""time"":51},{""stimulus"":""img/red_ww/2.jpg"",""time"":102},{""stimulus"":""img/red_ww/3.jpg"",""time"":151},{""stimulus"":""img/red_ww/4.jpg"",""time"":202},{""stimulus"":""img/red_ww/5.jpg"",""time"":251},{""stimulus"":""img/red_ww/6.jpg"",""time"":301},{""stimulus"":""img/red_ww/7.jpg"",""time"":351},{""stimulus"":""img/red_ww/8.jpg"",""time"":402},{""stimulus"":""img/red_ww/9.jpg"",""time"":452},{""stimulus"":""img/red_ww/10.jpg"",""time"":501},{""stimulus"":""img/red_ww/11.jpg"",""time"":551}]","[]"
"image-keyboard-response","40","61297","0.0-5.0-1.18","62acc04d0a7788636b0e9915","bdp_lott","Sun Apr 16 2023 10:54:00 GMT-0400 (Eastern Daylight Time)","226956","red","green","","711","","","","choice","","img/red_ww/choose11.jpg","1","207","green","0.5","0.5","0.5","w","",""
"animation","41","61897","0.0-5.0-2.18","62acc04d0a7788636b0e9915","bdp_lott","Sun Apr 16 2023 10:54:00 GMT-0400 (Eastern Daylight Time)","226956","red","green","","","","","","","","","","207","","","","","","[{""stimulus"":""img/green_ww/1.jpg"",""time"":51},{""stimulus"":""img/green_ww/2.jpg"",""time"":100},{""stimulus"":""img/green_ww/3.jpg"",""time"":151},{""stimulus"":""img/green_ww/4.jpg"",""time"":201},{""stimulus"":""img/green_ww/5.jpg"",""time"":251},{""stimulus"":""img/green_ww/6.jpg"",""time"":301},{""stimulus"":""img/green_ww/7.jpg"",""time"":351},{""stimulus"":""img/green_ww/8.jpg"",""time"":401},{""stimulus"":""img/green_ww/9.jpg"",""time"":450},{""stimulus"":""img/green_ww/10.jpg"",""time"":501},{""stimulus"":""img/green_ww/11.jpg"",""time"":551}]","[]"
"image-keyboard-response","42","62433","0.0-5.0-1.19","62acc04d0a7788636b0e9915","bdp_lott","Sun Apr 16 2023 10:54:00 GMT-0400 (Eastern Daylight Time)","226956","red","green","","535","","","","choice","","img/green_ww/choose11.jpg","2","206","red","0.5","0.5","0.5","l","",""
"animation","43","63034","0.0-5.0-2.19","62acc04d0a7788636b0e9915","bdp_lott","Sun Apr 16 2023 10:54:00 GMT-0400 (Eastern Daylight Time)","226956","red","green","","","","","","","","","","206","","","","","","[{""stimulus"":""img/red_wl/1.jpg"",""time"":51},{""stimulus"":""img/red_wl/2.jpg"",""time"":101},{""stimulus"":""img/red_wl/3.jpg"",""time"":151},{""stimulus"":""img/red_wl/4.jpg"",""time"":201},{""stimulus"":""img/red_wl/5.jpg"",""time"":251},{""stimulus"":""img/red_wl/6.jpg"",""time"":301},{""stimulus"":""img/red_wl/7.jpg"",""time"":352},{""stimulus"":""img/red_wl/8.jpg"",""time"":401},{""stimulus"":""img/red_wl/9.jpg"",""time"":451},{""stimulus"":""img/red_wl/10.jpg"",""time"":501},{""stimulus"":""img/red_wl/11.jpg"",""time"":552}]","[]"
"image-keyboard-response","44","63410","0.0-5.0-1.20","62acc04d0a7788636b0e9915","bdp_lott","Sun Apr 16 2023 10:54:00 GMT-0400 (Eastern Daylight Time)","226956","red","green","","375","","","","choice","","img/red_wl/choose11.jpg","1","205","green","0.5","0.5","0.5","w","",""
"animation","45","64011","0.0-5.0-2.20","62acc04d0a7788636b0e9915","bdp_lott","Sun Apr 16 2023 10:54:00 GMT-0400 (Eastern Daylight Time)","226956","red","green","","","","","","","","","","205","","","","","","[{""stimulus"":""img/green_wl/1.jpg"",""time"":52},{""stimulus"":""img/green_wl/2.jpg"",""time"":101},{""stimulus"":""img/green_wl/3.jpg"",""time"":151},{""stimulus"":""img/green_wl/4.jpg"",""time"":203},{""stimulus"":""img/green_wl/5.jpg"",""time"":251},{""stimulus"":""img/green_wl/6.jpg"",""time"":301},{""stimulus"":""img/green_wl/7.jpg"",""time"":351},{""stimulus"":""img/green_wl/8.jpg"",""time"":401},{""stimulus"":""img/green_wl/9.jpg"",""time"":451},{""stimulus"":""img/green_wl/10.jpg"",""time"":502},{""stimulus"":""img/green_wl/11.jpg"",""time"":551}]","[]"
"image-keyboard-response","46","64503","0.0-5.0-1.21","62acc04d0a7788636b0e9915","bdp_lott","Sun Apr 16 2023 10:54:00 GMT-0400 (Eastern Daylight Time)","226956","red","green","","491","","","","choice","","img/green_wl/choose11.jpg","2","204","red","0.5","0.5","0.5","l","",""
"animation","47","65104","0.0-5.0-2.21","62acc04d0a7788636b0e9915","bdp_lott","Sun Apr 16 2023 10:54:00 GMT-0400 (Eastern Daylight Time)","226956","red","green","","","","","","","","","","204","","","","","","[{""stimulus"":""img/red_wl/1.jpg"",""time"":52},{""stimulus"":""img/red_wl/2.jpg"",""time"":100},{""stimulus"":""img/red_wl/3.jpg"",""time"":151},{""stimulus"":""img/red_wl/4.jpg"",""time"":201},{""stimulus"":""img/red_wl/5.jpg"",""time"":251},{""stimulus"":""img/red_wl/6.jpg"",""time"":302},{""stimulus"":""img/red_wl/7.jpg"",""time"":351},{""stimulus"":""img/red_wl/8.jpg"",""time"":402},{""stimulus"":""img/red_wl/9.jpg"",""time"":451},{""stimulus"":""img/red_wl/10.jpg"",""time"":501},{""stimulus"":""img/red_wl/11.jpg"",""time"":551}]","[]"
"image-keyboard-response","48","65409","0.0-5.0-1.22","62acc04d0a7788636b0e9915","bdp_lott","Sun Apr 16 2023 10:54:00 GMT-0400 (Eastern Daylight Time)","226956","red","green","","304","","","","choice","","img/red_wl/choose11.jpg","1","203","green","0.5","0.5","0.5","w","",""
"animation","49","66010","0.0-5.0-2.22","62acc04d0a7788636b0e9915","bdp_lott","Sun Apr 16 2023 10:54:00 GMT-0400 (Eastern Daylight Time)","226956","red","green","","","","","","","","","","203","","","","","","[{""stimulus"":""img/green_wl/1.jpg"",""time"":51},{""stimulus"":""img/green_wl/2.jpg"",""time"":100},{""stimulus"":""img/green_wl/3.jpg"",""time"":151},{""stimulus"":""img/green_wl/4.jpg"",""time"":200},{""stimulus"":""img/green_wl/5.jpg"",""time"":250},{""stimulus"":""img/green_wl/6.jpg"",""time"":300},{""stimulus"":""img/green_wl/7.jpg"",""time"":350},{""stimulus"":""img/green_wl/8.jpg"",""time"":401},{""stimulus"":""img/green_wl/9.jpg"",""time"":450},{""stimulus"":""img/green_wl/10.jpg"",""time"":500},{""stimulus"":""img/green_wl/11.jpg"",""time"":551}]","[]"
"image-keyboard-response","50","66451","0.0-5.0-1.23","62acc04d0a7788636b0e9915","bdp_lott","Sun Apr 16 2023 10:54:00 GMT-0400 (Eastern Daylight Time)","226956","red","green","","441","","","","choice","","img/green_wl/choose11.jpg","2","202","red","0.5","0.5","0.5","l","",""
"animation","51","67052","0.0-5.0-2.23","62acc04d0a7788636b0e9915","bdp_lott","Sun Apr 16 2023 10:54:00 GMT-0400 (Eastern Daylight Time)","226956","red","green","","","","","","","","","","202","","","","","","[{""stimulus"":""img/red_wl/1.jpg"",""time"":51},{""stimulus"":""img/red_wl/2.jpg"",""time"":101},{""stimulus"":""img/red_wl/3.jpg"",""time"":151},{""stimulus"":""img/red_wl/4.jpg"",""time"":201},{""stimulus"":""img/red_wl/5.jpg"",""time"":251},{""stimulus"":""img/red_wl/6.jpg"",""time"":301},{""stimulus"":""img/red_wl/7.jpg"",""time"":350},{""stimulus"":""img/red_wl/8.jpg"",""time"":401},{""stimulus"":""img/red_wl/9.jpg"",""time"":451},{""stimulus"":""img/red_wl/10.jpg"",""time"":501},{""stimulus"":""img/red_wl/11.jpg"",""time"":551}]","[]"
"image-keyboard-response","52","67403","0.0-5.0-1.24","62acc04d0a7788636b0e9915","bdp_lott","Sun Apr 16 2023 10:54:00 GMT-0400 (Eastern Daylight Time)","226956","red","green","","350","","","","choice","","img/red_wl/choose11.jpg","1","201","green","0.5","0.5","0.5","w","",""
"animation","53","68004","0.0-5.0-2.24","62acc04d0a7788636b0e9915","bdp_lott","Sun Apr 16 2023 10:54:00 GMT-0400 (Eastern Daylight Time)","226956","red","green","","","","","","","","","","201","","","","","","[{""stimulus"":""img/green_wl/1.jpg"",""time"":52},{""stimulus"":""img/green_wl/2.jpg"",""time"":102},{""stimulus"":""img/green_wl/3.jpg"",""time"":151},{""stimulus"":""img/green_wl/4.jpg"",""time"":202},{""stimulus"":""img/green_wl/5.jpg"",""time"":252},{""stimulus"":""img/green_wl/6.jpg"",""time"":302},{""stimulus"":""img/green_wl/7.jpg"",""time"":351},{""stimulus"":""img/green_wl/8.jpg"",""time"":401},{""stimulus"":""img/green_wl/9.jpg"",""time"":451},{""stimulus"":""img/green_wl/10.jpg"",""time"":501},{""stimulus"":""img/green_wl/11.jpg"",""time"":551}]","[]"
"image-keyboard-response","54","68312","0.0-5.0-1.25","62acc04d0a7788636b0e9915","bdp_lott","Sun Apr 16 2023 10:54:00 GMT-0400 (Eastern Daylight Time)","226956","red","green","","307","","","","choice","","img/green_wl/choose11.jpg","2","200","red","0.5","0.5","0.5","w","",""
"animation","55","68914","0.0-5.0-2.25","62acc04d0a7788636b0e9915","bdp_lott","Sun Apr 16 2023 10:54:00 GMT-0400 (Eastern Daylight Time)","226956","red","green","","","","","","","","","","200","","","","","","[{""stimulus"":""img/red_ww/1.jpg"",""time"":53},{""stimulus"":""img/red_ww/2.jpg"",""time"":101},{""stimulus"":""img/red_ww/3.jpg"",""time"":151},{""stimulus"":""img/red_ww/4.jpg"",""time"":202},{""stimulus"":""img/red_ww/5.jpg"",""time"":251},{""stimulus"":""img/red_ww/6.jpg"",""time"":301},{""stimulus"":""img/red_ww/7.jpg"",""time"":352},{""stimulus"":""img/red_ww/8.jpg"",""time"":403},{""stimulus"":""img/red_ww/9.jpg"",""time"":452},{""stimulus"":""img/red_ww/10.jpg"",""time"":509},{""stimulus"":""img/red_ww/11.jpg"",""time"":552}]","[]"
"image-keyboard-response","56","69413","0.0-5.0-1.26","62acc04d0a7788636b0e9915","bdp_lott","Sun Apr 16 2023 10:54:00 GMT-0400 (Eastern Daylight Time)","226956","red","green","","499","","","","choice","","img/red_ww/choose11.jpg","1","199","green","0.5","0.5","0.5","l","",""
"animation","57","70015","0.0-5.0-2.26","62acc04d0a7788636b0e9915","bdp_lott","Sun Apr 16 2023 10:54:00 GMT-0400 (Eastern Daylight Time)","226956","red","green","","","","","","","","","","199","","","","","","[{""stimulus"":""img/green_lw/1.jpg"",""time"":52},{""stimulus"":""img/green_lw/2.jpg"",""time"":102},{""stimulus"":""img/green_lw/3.jpg"",""time"":152},{""stimulus"":""img/green_lw/4.jpg"",""time"":201},{""stimulus"":""img/green_lw/5.jpg"",""time"":251},{""stimulus"":""img/green_lw/6.jpg"",""time"":301},{""stimulus"":""img/green_lw/7.jpg"",""time"":351},{""stimulus"":""img/green_lw/8.jpg"",""time"":401},{""stimulus"":""img/green_lw/9.jpg"",""time"":451},{""stimulus"":""img/green_lw/10.jpg"",""time"":501},{""stimulus"":""img/green_lw/11.jpg"",""time"":551}]","[]"
"image-keyboard-response","58","70311","0.0-5.0-1.27","62acc04d0a7788636b0e9915","bdp_lott","Sun Apr 16 2023 10:54:00 GMT-0400 (Eastern Daylight Time)","226956","red","green","","295","","","","choice","","img/green_lw/choose11.jpg","2","198","red","0.5","0.5","0.5","l","",""
"animation","59","70912","0.0-5.0-2.27","62acc04d0a7788636b0e9915","bdp_lott","Sun Apr 16 2023 10:54:00 GMT-0400 (Eastern Daylight Time)","226956","red","green","","","","","","","","","","198","","","","","","[{""stimulus"":""img/red_ll/1.jpg"",""time"":52},{""stimulus"":""img/red_ll/2.jpg"",""time"":101},{""stimulus"":""img/red_ll/3.jpg"",""time"":151},{""stimulus"":""img/red_ll/4.jpg"",""time"":202},{""stimulus"":""img/red_ll/5.jpg"",""time"":251},{""stimulus"":""img/red_ll/6.jpg"",""time"":301},{""stimulus"":""img/red_ll/7.jpg"",""time"":352},{""stimulus"":""img/red_ll/8.jpg"",""time"":401},{""stimulus"":""img/red_ll/9.jpg"",""time"":451},{""stimulus"":""img/red_ll/10.jpg"",""time"":501},{""stimulus"":""img/red_ll/11.jpg"",""time"":552}]","[]"
"image-keyboard-response","60","71165","0.0-5.0-1.28","62acc04d0a7788636b0e9915","bdp_lott","Sun Apr 16 2023 10:54:00 GMT-0400 (Eastern Daylight Time)","226956","red","green","","253","","","","choice","","img/red_ll/choose11.jpg","1","197","green","0.5","0.5","0.5","w","",""
"animation","61","71766","0.0-5.0-2.28","62acc04d0a7788636b0e9915","bdp_lott","Sun Apr 16 2023 10:54:00 GMT-0400 (Eastern Daylight Time)","226956","red","green","","","","","","","","","","197","","","","","","[{""stimulus"":""img/green_wl/1.jpg"",""time"":51},{""stimulus"":""img/green_wl/2.jpg"",""time"":101},{""stimulus"":""img/green_wl/3.jpg"",""time"":151},{""stimulus"":""img/green_wl/4.jpg"",""time"":200},{""stimulus"":""img/green_wl/5.jpg"",""time"":251},{""stimulus"":""img/green_wl/6.jpg"",""time"":301},{""stimulus"":""img/green_wl/7.jpg"",""time"":350},{""stimulus"":""img/green_wl/8.jpg"",""time"":401},{""stimulus"":""img/green_wl/9.jpg"",""time"":450},{""stimulus"":""img/green_wl/10.jpg"",""time"":501},{""stimulus"":""img/green_wl/11.jpg"",""time"":550}]","[]"
"image-keyboard-response","62","72023","0.0-5.0-1.29","62acc04d0a7788636b0e9915","bdp_lott","Sun Apr 16 2023 10:54:00 GMT-0400 (Eastern Daylight Time)","226956","red","green","","256","","","","choice","","img/green_wl/choose11.jpg","2","196","red","0.5","0.5","0.5","w","",""
"animation","63","72625","0.0-5.0-2.29","62acc04d0a7788636b0e9915","bdp_lott","Sun Apr 16 2023 10:54:00 GMT-0400 (Eastern Daylight Time)","226956","red","green","","","","","","","","","","196","","","","","","[{""stimulus"":""img/red_ww/1.jpg"",""time"":52},{""stimulus"":""img/red_ww/2.jpg"",""time"":102},{""stimulus"":""img/red_ww/3.jpg"",""time"":152},{""stimulus"":""img/red_ww/4.jpg"",""time"":201},{""stimulus"":""img/red_ww/5.jpg"",""time"":252},{""stimulus"":""img/red_ww/6.jpg"",""time"":302},{""stimulus"":""img/red_ww/7.jpg"",""time"":352},{""stimulus"":""img/red_ww/8.jpg"",""time"":401},{""stimulus"":""img/red_ww/9.jpg"",""time"":452},{""stimulus"":""img/red_ww/10.jpg"",""time"":501},{""stimulus"":""img/red_ww/11.jpg"",""time"":552}]","[]"
"image-keyboard-response","64","73065","0.0-5.0-1.30","62acc04d0a7788636b0e9915","bdp_lott","Sun Apr 16 2023 10:54:00 GMT-0400 (Eastern Daylight Time)","226956","red","green","","439","","","","choice","","img/red_ww/choose11.jpg","1","195","green","0.5","0.5","0.5","l","",""
"animation","65","73666","0.0-5.0-2.30","62acc04d0a7788636b0e9915","bdp_lott","Sun Apr 16 2023 10:54:00 GMT-0400 (Eastern Daylight Time)","226956","red","green","","","","","","","","","","195","","","","","","[{""stimulus"":""img/green_lw/1.jpg"",""time"":52},{""stimulus"":""img/green_lw/2.jpg"",""time"":101},{""stimulus"":""img/green_lw/3.jpg"",""time"":152},{""stimulus"":""img/green_lw/4.jpg"",""time"":202},{""stimulus"":""img/green_lw/5.jpg"",""time"":252},{""stimulus"":""img/green_lw/6.jpg"",""time"":301},{""stimulus"":""img/green_lw/7.jpg"",""time"":351},{""stimulus"":""img/green_lw/8.jpg"",""time"":401},{""stimulus"":""img/green_lw/9.jpg"",""time"":452},{""stimulus"":""img/green_lw/10.jpg"",""time"":501},{""stimulus"":""img/green_lw/11.jpg"",""time"":551}]","[]"
"image-keyboard-response","66","73887","0.0-5.0-1.31","62acc04d0a7788636b0e9915","bdp_lott","Sun Apr 16 2023 10:54:00 GMT-0400 (Eastern Daylight Time)","226956","red","green","","221","","","","choice","","img/green_lw/choose11.jpg","2","194","red","0.5","0.5","0.5","l","",""
"animation","67","74489","0.0-5.0-2.31","62acc04d0a7788636b0e9915","bdp_lott","Sun Apr 16 2023 10:54:00 GMT-0400 (Eastern Daylight Time)","226956","red","green","","","","","","","","","","194","","","","","","[{""stimulus"":""img/red_ll/1.jpg"",""time"":51},{""stimulus"":""img/red_ll/2.jpg"",""time"":101},{""stimulus"":""img/red_ll/3.jpg"",""time"":150},{""stimulus"":""img/red_ll/4.jpg"",""time"":201},{""stimulus"":""img/red_ll/5.jpg"",""time"":250},{""stimulus"":""img/red_ll/6.jpg"",""time"":300},{""stimulus"":""img/red_ll/7.jpg"",""time"":350},{""stimulus"":""img/red_ll/8.jpg"",""time"":400},{""stimulus"":""img/red_ll/9.jpg"",""time"":450},{""stimulus"":""img/red_ll/10.jpg"",""time"":500},{""stimulus"":""img/red_ll/11.jpg"",""time"":550}]","[]"
"image-keyboard-response","68","74763","0.0-5.0-1.32","62acc04d0a7788636b0e9915","bdp_lott","Sun Apr 16 2023 10:54:00 GMT-0400 (Eastern Daylight Time)","226956","red","green","","274","","","","choice","","img/red_ll/choose11.jpg","1","193","green","0.5","0.5","0.5","w","",""
"animation","69","75364","0.0-5.0-2.32","62acc04d0a7788636b0e9915","bdp_lott","Sun Apr 16 2023 10:54:00 GMT-0400 (Eastern Daylight Time)","226956","red","green","","","","","","","","","","193","","","","","","[{""stimulus"":""img/green_wl/1.jpg"",""time"":51},{""stimulus"":""img/green_wl/2.jpg"",""time"":101},{""stimulus"":""img/green_wl/3.jpg"",""time"":152},{""stimulus"":""img/green_wl/4.jpg"",""time"":202},{""stimulus"":""img/green_wl/5.jpg"",""time"":251},{""stimulus"":""img/green_wl/6.jpg"",""time"":301},{""stimulus"":""img/green_wl/7.jpg"",""time"":351},{""stimulus"":""img/green_wl/8.jpg"",""time"":401},{""stimulus"":""img/green_wl/9.jpg"",""time"":452},{""stimulus"":""img/green_wl/10.jpg"",""time"":501},{""stimulus"":""img/green_wl/11.jpg"",""time"":551}]","[]"
"image-keyboard-response","70","75635","0.0-5.0-1.33","62acc04d0a7788636b0e9915","bdp_lott","Sun Apr 16 2023 10:54:00 GMT-0400 (Eastern Daylight Time)","226956","red","green","","270","","","","choice","","img/green_wl/choose11.jpg","2","192","red","0.5","0.5","0.5","l","",""
"animation","71","76236","0.0-5.0-2.33","62acc04d0a7788636b0e9915","bdp_lott","Sun Apr 16 2023 10:54:00 GMT-0400 (Eastern Daylight Time)","226956","red","green","","","","","","","","","","192","","","","","","[{""stimulus"":""img/red_wl/1.jpg"",""time"":52},{""stimulus"":""img/red_wl/2.jpg"",""time"":101},{""stimulus"":""img/red_wl/3.jpg"",""time"":151},{""stimulus"":""img/red_wl/4.jpg"",""time"":201},{""stimulus"":""img/red_wl/5.jpg"",""time"":251},{""stimulus"":""img/red_wl/6.jpg"",""time"":301},{""stimulus"":""img/red_wl/7.jpg"",""time"":351},{""stimulus"":""img/red_wl/8.jpg"",""time"":401},{""stimulus"":""img/red_wl/9.jpg"",""time"":451},{""stimulus"":""img/red_wl/10.jpg"",""time"":501},{""stimulus"":""img/red_wl/11.jpg"",""time"":551}]","[]"
"image-keyboard-response","72","76416","0.0-5.0-1.34","62acc04d0a7788636b0e9915","bdp_lott","Sun Apr 16 2023 10:54:00 GMT-0400 (Eastern Daylight Time)","226956","red","green","","179","","","","choice","","img/red_wl/choose11.jpg","1","191","green","0.5","0.5","0.5","l","",""
"animation","73","77016","0.0-5.0-2.34","62acc04d0a7788636b0e9915","bdp_lott","Sun Apr 16 2023 10:54:00 GMT-0400 (Eastern Daylight Time)","226956","red","green","","","","","","","","","","191","","","","","","[{""stimulus"":""img/green_ll/1.jpg"",""time"":51},{""stimulus"":""img/green_ll/2.jpg"",""time"":101},{""stimulus"":""img/green_ll/3.jpg"",""time"":151},{""stimulus"":""img/green_ll/4.jpg"",""time"":200},{""stimulus"":""img/green_ll/5.jpg"",""time"":250},{""stimulus"":""img/green_ll/6.jpg"",""time"":300},{""stimulus"":""img/green_ll/7.jpg"",""time"":351},{""stimulus"":""img/green_ll/8.jpg"",""time"":401},{""stimulus"":""img/green_ll/9.jpg"",""time"":450},{""stimulus"":""img/green_ll/10.jpg"",""time"":500},{""stimulus"":""img/green_ll/11.jpg"",""time"":551}]","[]"
"image-keyboard-response","74","77209","0.0-5.0-1.35","62acc04d0a7788636b0e9915","bdp_lott","Sun Apr 16 2023 10:54:00 GMT-0400 (Eastern Daylight Time)","226956","red","green","","192","","","","choice","","img/green_ll/choose11.jpg","2","190","red","0.5","0.5","0.5","l","",""
"animation","75","77810","0.0-5.0-2.35","62acc04d0a7788636b0e9915","bdp_lott","Sun Apr 16 2023 10:54:00 GMT-0400 (Eastern Daylight Time)","226956","red","green","","","","","","","","","","190","","","","","","[{""stimulus"":""img/red_ll/1.jpg"",""time"":51},{""stimulus"":""img/red_ll/2.jpg"",""time"":101},{""stimulus"":""img/red_ll/3.jpg"",""time"":151},{""stimulus"":""img/red_ll/4.jpg"",""time"":201},{""stimulus"":""img/red_ll/5.jpg"",""time"":251},{""stimulus"":""img/red_ll/6.jpg"",""time"":301},{""stimulus"":""img/red_ll/7.jpg"",""time"":351},{""stimulus"":""img/red_ll/8.jpg"",""time"":401},{""stimulus"":""img/red_ll/9.jpg"",""time"":452},{""stimulus"":""img/red_ll/10.jpg"",""time"":501},{""stimulus"":""img/red_ll/11.jpg"",""time"":551}]","[]"
"image-keyboard-response","76","78010","0.0-5.0-1.36","62acc04d0a7788636b0e9915","bdp_lott","Sun Apr 16 2023 10:54:00 GMT-0400 (Eastern Daylight Time)","226956","red","green","","198","","","","choice","","img/red_ll/choose11.jpg","1","189","green","0.5","0.5","0.5","w","",""
"animation","77","78611","0.0-5.0-2.36","62acc04d0a7788636b0e9915","bdp_lott","Sun Apr 16 2023 10:54:00 GMT-0400 (Eastern Daylight Time)","226956","red","green","","","","","","","","","","189","","","","","","[{""stimulus"":""img/green_wl/1.jpg"",""time"":51},{""stimulus"":""img/green_wl/2.jpg"",""time"":100},{""stimulus"":""img/green_wl/3.jpg"",""time"":151},{""stimulus"":""img/green_wl/4.jpg"",""time"":200},{""stimulus"":""img/green_wl/5.jpg"",""time"":251},{""stimulus"":""img/green_wl/6.jpg"",""time"":301},{""stimulus"":""img/green_wl/7.jpg"",""time"":350},{""stimulus"":""img/green_wl/8.jpg"",""time"":401},{""stimulus"":""img/green_wl/9.jpg"",""time"":450},{""stimulus"":""img/green_wl/10.jpg"",""time"":500},{""stimulus"":""img/green_wl/11.jpg"",""time"":551}]","[]"
"image-keyboard-response","78","78781","0.0-5.0-1.37","62acc04d0a7788636b0e9915","bdp_lott","Sun Apr 16 2023 10:54:00 GMT-0400 (Eastern Daylight Time)","226956","red","green","","170","","","","choice","","img/green_wl/choose11.jpg","2","188","red","0.5","0.5","0.5","w","",""
"animation","79","79381","0.0-5.0-2.37","62acc04d0a7788636b0e9915","bdp_lott","Sun Apr 16 2023 10:54:00 GMT-0400 (Eastern Daylight Time)","226956","red","green","","","","","","","","","","188","","","","","","[{""stimulus"":""img/red_ww/1.jpg"",""time"":51},{""stimulus"":""img/red_ww/2.jpg"",""time"":101},{""stimulus"":""img/red_ww/3.jpg"",""time"":151},{""stimulus"":""img/red_ww/4.jpg"",""time"":201},{""stimulus"":""img/red_ww/5.jpg"",""time"":251},{""stimulus"":""img/red_ww/6.jpg"",""time"":301},{""stimulus"":""img/red_ww/7.jpg"",""time"":351},{""stimulus"":""img/red_ww/8.jpg"",""time"":401},{""stimulus"":""img/red_ww/9.jpg"",""time"":451},{""stimulus"":""img/red_ww/10.jpg"",""time"":501},{""stimulus"":""img/red_ww/11.jpg"",""time"":551}]","[]"
"image-keyboard-response","80","79577","0.0-5.0-1.38","62acc04d0a7788636b0e9915","bdp_lott","Sun Apr 16 2023 10:54:00 GMT-0400 (Eastern Daylight Time)","226956","red","green","","195","","","","choice","","img/red_ww/choose11.jpg","1","187","green","0.5","0.5","0.5","w","",""
"animation","81","80178","0.0-5.0-2.38","62acc04d0a7788636b0e9915","bdp_lott","Sun Apr 16 2023 10:54:00 GMT-0400 (Eastern Daylight Time)","226956","red","green","","","","","","","","","","187","","","","","","[{""stimulus"":""img/green_ww/1.jpg"",""time"":51},{""stimulus"":""img/green_ww/2.jpg"",""time"":102},{""stimulus"":""img/green_ww/3.jpg"",""time"":151},{""stimulus"":""img/green_ww/4.jpg"",""time"":201},{""stimulus"":""img/green_ww/5.jpg"",""time"":252},{""stimulus"":""img/green_ww/6.jpg"",""time"":301},{""stimulus"":""img/green_ww/7.jpg"",""time"":351},{""stimulus"":""img/green_ww/8.jpg"",""time"":402},{""stimulus"":""img/green_ww/9.jpg"",""time"":452},{""stimulus"":""img/green_ww/10.jpg"",""time"":501},{""stimulus"":""img/green_ww/11.jpg"",""time"":552}]","[]"
"image-keyboard-response","82","80335","0.0-5.0-1.39","62acc04d0a7788636b0e9915","bdp_lott","Sun Apr 16 2023 10:54:00 GMT-0400 (Eastern Daylight Time)","226956","red","green","","156","","","","choice","","img/green_ww/choose11.jpg","2","186","red","0.5","0.5","0.5","l","",""
"animation","83","80936","0.0-5.0-2.39","62acc04d0a7788636b0e9915","bdp_lott","Sun Apr 16 2023 10:54:00 GMT-0400 (Eastern Daylight Time)","226956","red","green","","","","","","","","","","186","","","","","","[{""stimulus"":""img/red_wl/1.jpg"",""time"":51},{""stimulus"":""img/red_wl/2.jpg"",""time"":100},{""stimulus"":""img/red_wl/3.jpg"",""time"":151},{""stimulus"":""img/red_wl/4.jpg"",""time"":201},{""stimulus"":""img/red_wl/5.jpg"",""time"":251},{""stimulus"":""img/red_wl/6.jpg"",""time"":301},{""stimulus"":""img/red_wl/7.jpg"",""time"":351},{""stimulus"":""img/red_wl/8.jpg"",""time"":401},{""stimulus"":""img/red_wl/9.jpg"",""time"":451},{""stimulus"":""img/red_wl/10.jpg"",""time"":501},{""stimulus"":""img/red_wl/11.jpg"",""time"":551}]","[]"
"image-keyboard-response","84","81191","0.0-5.0-1.40","62acc04d0a7788636b0e9915","bdp_lott","Sun Apr 16 2023 10:54:00 GMT-0400 (Eastern Daylight Time)","226956","red","green","","253","","","","choice","","img/red_wl/choose11.jpg","1","185","green","0.5","0.5","0.5","w","",""
"animation","85","81791","0.0-5.0-2.40","62acc04d0a7788636b0e9915","bdp_lott","Sun Apr 16 2023 10:54:00 GMT-0400 (Eastern Daylight Time)","226956","red","green","","","","","","","","","","185","","","","","","[{""stimulus"":""img/green_wl/1.jpg"",""time"":51},{""stimulus"":""img/green_wl/2.jpg"",""time"":100},{""stimulus"":""img/green_wl/3.jpg"",""time"":151},{""stimulus"":""img/green_wl/4.jpg"",""time"":201},{""stimulus"":""img/green_wl/5.jpg"",""time"":251},{""stimulus"":""img/green_wl/6.jpg"",""time"":301},{""stimulus"":""img/green_wl/7.jpg"",""time"":351},{""stimulus"":""img/green_wl/8.jpg"",""time"":401},{""stimulus"":""img/green_wl/9.jpg"",""time"":451},{""stimulus"":""img/green_wl/10.jpg"",""time"":500},{""stimulus"":""img/green_wl/11.jpg"",""time"":551}]","[]"
"image-keyboard-response","86","81877","0.0-5.0-1.41","62acc04d0a7788636b0e9915","bdp_lott","Sun Apr 16 2023 10:54:00 GMT-0400 (Eastern Daylight Time)","226956","red","green","","85","","","","choice","","img/green_wl/choose11.jpg","2","184","red","0.5","0.5","0.5","l","",""
"animation","87","82478","0.0-5.0-2.41","62acc04d0a7788636b0e9915","bdp_lott","Sun Apr 16 2023 10:54:00 GMT-0400 (Eastern Daylight Time)","226956","red","green","","","","","","","","","","184","","","","","","[{""stimulus"":""img/red_wl/1.jpg"",""time"":52},{""stimulus"":""img/red_wl/2.jpg"",""time"":101},{""stimulus"":""img/red_wl/3.jpg"",""time"":151},{""stimulus"":""img/red_wl/4.jpg"",""time"":201},{""stimulus"":""img/red_wl/5.jpg"",""time"":260},{""stimulus"":""img/red_wl/6.jpg"",""time"":301},{""stimulus"":""img/red_wl/7.jpg"",""time"":351},{""stimulus"":""img/red_wl/8.jpg"",""time"":401},{""stimulus"":""img/red_wl/9.jpg"",""time"":451},{""stimulus"":""img/red_wl/10.jpg"",""time"":500},{""stimulus"":""img/red_wl/11.jpg"",""time"":551}]","[]"
"image-keyboard-response","88","82653","0.0-5.0-1.42","62acc04d0a7788636b0e9915","bdp_lott","Sun Apr 16 2023 10:54:00 GMT-0400 (Eastern Daylight Time)","226956","red","green","","174","","","","choice","","img/red_wl/choose11.jpg","1","183","green","0.5","0.5","0.5","l","",""
"animation","89","83256","0.0-5.0-2.42","62acc04d0a7788636b0e9915","bdp_lott","Sun Apr 16 2023 10:54:00 GMT-0400 (Eastern Daylight Time)","226956","red","green","","","","","","","","","","183","","","","","","[{""stimulus"":""img/green_ll/1.jpg"",""time"":52},{""stimulus"":""img/green_ll/2.jpg"",""time"":102},{""stimulus"":""img/green_ll/3.jpg"",""time"":151},{""stimulus"":""img/green_ll/4.jpg"",""time"":202},{""stimulus"":""img/green_ll/5.jpg"",""time"":251},{""stimulus"":""img/green_ll/6.jpg"",""time"":302},{""stimulus"":""img/green_ll/7.jpg"",""time"":351},{""stimulus"":""img/green_ll/8.jpg"",""time"":401},{""stimulus"":""img/green_ll/9.jpg"",""time"":451},{""stimulus"":""img/green_ll/10.jpg"",""time"":501},{""stimulus"":""img/green_ll/11.jpg"",""time"":552}]","[]"
"image-keyboard-response","90","83429","0.0-5.0-1.43","62acc04d0a7788636b0e9915","bdp_lott","Sun Apr 16 2023 10:54:00 GMT-0400 (Eastern Daylight Time)","226956","red","green","","173","","","","choice","","img/green_ll/choose11.jpg","2","182","red","0.5","0.5","0.5","l","",""
"animation","91","84030","0.0-5.0-2.43","62acc04d0a7788636b0e9915","bdp_lott","Sun Apr 16 2023 10:54:00 GMT-0400 (Eastern Daylight Time)","226956","red","green","","","","","","","","","","182","","","","","","[{""stimulus"":""img/red_ll/1.jpg"",""time"":51},{""stimulus"":""img/red_ll/2.jpg"",""time"":101},{""stimulus"":""img/red_ll/3.jpg"",""time"":151},{""stimulus"":""img/red_ll/4.jpg"",""time"":201},{""stimulus"":""img/red_ll/5.jpg"",""time"":251},{""stimulus"":""img/red_ll/6.jpg"",""time"":301},{""stimulus"":""img/red_ll/7.jpg"",""time"":351},{""stimulus"":""img/red_ll/8.jpg"",""time"":402},{""stimulus"":""img/red_ll/9.jpg"",""time"":451},{""stimulus"":""img/red_ll/10.jpg"",""time"":501},{""stimulus"":""img/red_ll/11.jpg"",""time"":551}]","[]"
"image-keyboard-response","92","84191","0.0-5.0-1.44","62acc04d0a7788636b0e9915","bdp_lott","Sun Apr 16 2023 10:54:00 GMT-0400 (Eastern Daylight Time)","226956","red","green","","160","","","","choice","","img/red_ll/choose11.jpg","1","181","green","0.5","0.5","0.5","w","",""
"animation","93","84792","0.0-5.0-2.44","62acc04d0a7788636b0e9915","bdp_lott","Sun Apr 16 2023 10:54:00 GMT-0400 (Eastern Daylight Time)","226956","red","green","","","","","","","","","","181","","","","","","[{""stimulus"":""img/green_wl/1.jpg"",""time"":51},{""stimulus"":""img/green_wl/2.jpg"",""time"":101},{""stimulus"":""img/green_wl/3.jpg"",""time"":151},{""stimulus"":""img/green_wl/4.jpg"",""time"":201},{""stimulus"":""img/green_wl/5.jpg"",""time"":251},{""stimulus"":""img/green_wl/6.jpg"",""time"":301},{""stimulus"":""img/green_wl/7.jpg"",""time"":351},{""stimulus"":""img/green_wl/8.jpg"",""time"":401},{""stimulus"":""img/green_wl/9.jpg"",""time"":451},{""stimulus"":""img/green_wl/10.jpg"",""time"":501},{""stimulus"":""img/green_wl/11.jpg"",""time"":551}]","[]"
"image-keyboard-response","94","84898","0.0-5.0-1.45","62acc04d0a7788636b0e9915","bdp_lott","Sun Apr 16 2023 10:54:00 GMT-0400 (Eastern Daylight Time)","226956","red","green","","105","","","","choice","","img/green_wl/choose11.jpg","2","180","red","0.5","0.5","0.5","w","",""
"animation","95","85499","0.0-5.0-2.45","62acc04d0a7788636b0e9915","bdp_lott","Sun Apr 16 2023 10:54:00 GMT-0400 (Eastern Daylight Time)","226956","red","green","","","","","","","","","","180","","","","","","[{""stimulus"":""img/red_ww/1.jpg"",""time"":51},{""stimulus"":""img/red_ww/2.jpg"",""time"":101},{""stimulus"":""img/red_ww/3.jpg"",""time"":151},{""stimulus"":""img/red_ww/4.jpg"",""time"":201},{""stimulus"":""img/red_ww/5.jpg"",""time"":251},{""stimulus"":""img/red_ww/6.jpg"",""time"":301},{""stimulus"":""img/red_ww/7.jpg"",""time"":351},{""stimulus"":""img/red_ww/8.jpg"",""time"":401},{""stimulus"":""img/red_ww/9.jpg"",""time"":451},{""stimulus"":""img/red_ww/10.jpg"",""time"":501},{""stimulus"":""img/red_ww/11.jpg"",""time"":551}]","[]"
"image-keyboard-response","96","85685","0.0-5.0-1.46","62acc04d0a7788636b0e9915","bdp_lott","Sun Apr 16 2023 10:54:00 GMT-0400 (Eastern Daylight Time)","226956","red","green","","185","","","","choice","","img/red_ww/choose11.jpg","1","179","green","0.5","0.5","0.5","w","",""
"animation","97","86285","0.0-5.0-2.46","62acc04d0a7788636b0e9915","bdp_lott","Sun Apr 16 2023 10:54:00 GMT-0400 (Eastern Daylight Time)","226956","red","green","","","","","","","","","","179","","","","","","[{""stimulus"":""img/green_ww/1.jpg"",""time"":51},{""stimulus"":""img/green_ww/2.jpg"",""time"":102},{""stimulus"":""img/green_ww/3.jpg"",""time"":151},{""stimulus"":""img/green_ww/4.jpg"",""time"":200},{""stimulus"":""img/green_ww/5.jpg"",""time"":251},{""stimulus"":""img/green_ww/6.jpg"",""time"":301},{""stimulus"":""img/green_ww/7.jpg"",""time"":352},{""stimulus"":""img/green_ww/8.jpg"",""time"":401},{""stimulus"":""img/green_ww/9.jpg"",""time"":451},{""stimulus"":""img/green_ww/10.jpg"",""time"":501},{""stimulus"":""img/green_ww/11.jpg"",""time"":551}]","[]"
"image-keyboard-response","98","86451","0.0-5.0-1.47","62acc04d0a7788636b0e9915","bdp_lott","Sun Apr 16 2023 10:54:00 GMT-0400 (Eastern Daylight Time)","226956","red","green","","165","","","","choice","","img/green_ww/choose11.jpg","2","178","red","0.5","0.5","0.5","w","",""
"animation","99","87052","0.0-5.0-2.47","62acc04d0a7788636b0e9915","bdp_lott","Sun Apr 16 2023 10:54:00 GMT-0400 (Eastern Daylight Time)","226956","red","green","","","","","","","","","","178","","","","","","[{""stimulus"":""img/red_ww/1.jpg"",""time"":51},{""stimulus"":""img/red_ww/2.jpg"",""time"":101},{""stimulus"":""img/red_ww/3.jpg"",""time"":151},{""stimulus"":""img/red_ww/4.jpg"",""time"":201},{""stimulus"":""img/red_ww/5.jpg"",""time"":251},{""stimulus"":""img/red_ww/6.jpg"",""time"":301},{""stimulus"":""img/red_ww/7.jpg"",""time"":351},{""stimulus"":""img/red_ww/8.jpg"",""time"":401},{""stimulus"":""img/red_ww/9.jpg"",""time"":451},{""stimulus"":""img/red_ww/10.jpg"",""time"":501},{""stimulus"":""img/red_ww/11.jpg"",""time"":552}]","[]"
"image-keyboard-response","100","87198","0.0-5.0-1.48","62acc04d0a7788636b0e9915","bdp_lott","Sun Apr 16 2023 10:54:00 GMT-0400 (Eastern Daylight Time)","226956","red","green","","145","","","","choice","","img/red_ww/choose11.jpg","1","177","green","0.5","0.5","0.5","w","",""
"animation","101","87799","0.0-5.0-2.48","62acc04d0a7788636b0e9915","bdp_lott","Sun Apr 16 2023 10:54:00 GMT-0400 (Eastern Daylight Time)","226956","red","green","","","","","","","","","","177","","","","","","[{""stimulus"":""img/green_ww/1.jpg"",""time"":51},{""stimulus"":""img/green_ww/2.jpg"",""time"":102},{""stimulus"":""img/green_ww/3.jpg"",""time"":152},{""stimulus"":""img/green_ww/4.jpg"",""time"":201},{""stimulus"":""img/green_ww/5.jpg"",""time"":251},{""stimulus"":""img/green_ww/6.jpg"",""time"":301},{""stimulus"":""img/green_ww/7.jpg"",""time"":351},{""stimulus"":""img/green_ww/8.jpg"",""time"":401},{""stimulus"":""img/green_ww/9.jpg"",""time"":451},{""stimulus"":""img/green_ww/10.jpg"",""time"":502},{""stimulus"":""img/green_ww/11.jpg"",""time"":551}]","[]"
"image-keyboard-response","102","87970","0.0-5.0-1.49","62acc04d0a7788636b0e9915","bdp_lott","Sun Apr 16 2023 10:54:00 GMT-0400 (Eastern Daylight Time)","226956","red","green","","170","","","","choice","","img/green_ww/choose11.jpg","2","176","red","0.5","0.5","0.5","l","",""
"animation","103","88571","0.0-5.0-2.49","62acc04d0a7788636b0e9915","bdp_lott","Sun Apr 16 2023 10:54:00 GMT-0400 (Eastern Daylight Time)","226956","red","green","","","","","","","","","","176","","","","","","[{""stimulus"":""img/red_wl/1.jpg"",""time"":51},{""stimulus"":""img/red_wl/2.jpg"",""time"":101},{""stimulus"":""img/red_wl/3.jpg"",""time"":151},{""stimulus"":""img/red_wl/4.jpg"",""time"":201},{""stimulus"":""img/red_wl/5.jpg"",""time"":251},{""stimulus"":""img/red_wl/6.jpg"",""time"":301},{""stimulus"":""img/red_wl/7.jpg"",""time"":351},{""stimulus"":""img/red_wl/8.jpg"",""time"":401},{""stimulus"":""img/red_wl/9.jpg"",""time"":451},{""stimulus"":""img/red_wl/10.jpg"",""time"":501},{""stimulus"":""img/red_wl/11.jpg"",""time"":551}]","[]"
"image-keyboard-response","104","88811","0.0-5.0-1.50","62acc04d0a7788636b0e9915","bdp_lott","Sun Apr 16 2023 10:54:00 GMT-0400 (Eastern Daylight Time)","226956","red","green","","239","","","","choice","","img/red_wl/choose11.jpg","1","175","green","0.5","0.5","0.5","w","",""
"animation","105","89412","0.0-5.0-2.50","62acc04d0a7788636b0e9915","bdp_lott","Sun Apr 16 2023 10:54:00 GMT-0400 (Eastern Daylight Time)","226956","red","green","","","","","","","","","","175","","","","","","[{""stimulus"":""img/green_wl/1.jpg"",""time"":51},{""stimulus"":""img/green_wl/2.jpg"",""time"":102},{""stimulus"":""img/green_wl/3.jpg"",""time"":151},{""stimulus"":""img/green_wl/4.jpg"",""time"":201},{""stimulus"":""img/green_wl/5.jpg"",""time"":251},{""stimulus"":""img/green_wl/6.jpg"",""time"":301},{""stimulus"":""img/green_wl/7.jpg"",""time"":352},{""stimulus"":""img/green_wl/8.jpg"",""time"":402},{""stimulus"":""img/green_wl/9.jpg"",""time"":452},{""stimulus"":""img/green_wl/10.jpg"",""time"":501},{""stimulus"":""img/green_wl/11.jpg"",""time"":552}]","[]"
"image-keyboard-response","106","89547","0.0-5.0-1.51","62acc04d0a7788636b0e9915","bdp_lott","Sun Apr 16 2023 10:54:00 GMT-0400 (Eastern Daylight Time)","226956","red","green","","134","","","","choice","","img/green_wl/choose11.jpg","2","174","red","0.5","0.5","0.5","w","",""
"animation","107","90148","0.0-5.0-2.51","62acc04d0a7788636b0e9915","bdp_lott","Sun Apr 16 2023 10:54:00 GMT-0400 (Eastern Daylight Time)","226956","red","green","","","","","","","","","","174","","","","","","[{""stimulus"":""img/red_ww/1.jpg"",""time"":50},{""stimulus"":""img/red_ww/2.jpg"",""time"":101},{""stimulus"":""img/red_ww/3.jpg"",""time"":151},{""stimulus"":""img/red_ww/4.jpg"",""time"":201},{""stimulus"":""img/red_ww/5.jpg"",""time"":250},{""stimulus"":""img/red_ww/6.jpg"",""time"":300},{""stimulus"":""img/red_ww/7.jpg"",""time"":351},{""stimulus"":""img/red_ww/8.jpg"",""time"":400},{""stimulus"":""img/red_ww/9.jpg"",""time"":451},{""stimulus"":""img/red_ww/10.jpg"",""time"":500},{""stimulus"":""img/red_ww/11.jpg"",""time"":551}]","[]"
"image-keyboard-response","108","90321","0.0-5.0-1.52","62acc04d0a7788636b0e9915","bdp_lott","Sun Apr 16 2023 10:54:00 GMT-0400 (Eastern Daylight Time)","226956","red","green","","172","","","","choice","","img/red_ww/choose11.jpg","1","173","green","0.5","0.5","0.5","l","",""
"animation","109","90921","0.0-5.0-2.52","62acc04d0a7788636b0e9915","bdp_lott","Sun Apr 16 2023 10:54:00 GMT-0400 (Eastern Daylight Time)","226956","red","green","","","","","","","","","","173","","","","","","[{""stimulus"":""img/green_lw/1.jpg"",""time"":51},{""stimulus"":""img/green_lw/2.jpg"",""time"":101},{""stimulus"":""img/green_lw/3.jpg"",""time"":151},{""stimulus"":""img/green_lw/4.jpg"",""time"":201},{""stimulus"":""img/green_lw/5.jpg"",""time"":252},{""stimulus"":""img/green_lw/6.jpg"",""time"":301},{""stimulus"":""img/green_lw/7.jpg"",""time"":351},{""stimulus"":""img/green_lw/8.jpg"",""time"":401},{""stimulus"":""img/green_lw/9.jpg"",""time"":451},{""stimulus"":""img/green_lw/10.jpg"",""time"":501},{""stimulus"":""img/green_lw/11.jpg"",""time"":551}]","[]"
"image-keyboard-response","110","91090","0.0-5.0-1.53","62acc04d0a7788636b0e9915","bdp_lott","Sun Apr 16 2023 10:54:00 GMT-0400 (Eastern Daylight Time)","226956","red","green","","168","","","","choice","","img/green_lw/choose11.jpg","2","172","red","0.5","0.5","0.5","l","",""
"animation","111","91692","0.0-5.0-2.53","62acc04d0a7788636b0e9915","bdp_lott","Sun Apr 16 2023 10:54:00 GMT-0400 (Eastern Daylight Time)","226956","red","green","","","","","","","","","","172","","","","","","[{""stimulus"":""img/red_ll/1.jpg"",""time"":51},{""stimulus"":""img/red_ll/2.jpg"",""time"":100},{""stimulus"":""img/red_ll/3.jpg"",""time"":150},{""stimulus"":""img/red_ll/4.jpg"",""time"":200},{""stimulus"":""img/red_ll/5.jpg"",""time"":251},{""stimulus"":""img/red_ll/6.jpg"",""time"":300},{""stimulus"":""img/red_ll/7.jpg"",""time"":351},{""stimulus"":""img/red_ll/8.jpg"",""time"":401},{""stimulus"":""img/red_ll/9.jpg"",""time"":450},{""stimulus"":""img/red_ll/10.jpg"",""time"":501},{""stimulus"":""img/red_ll/11.jpg"",""time"":551}]","[]"
"image-keyboard-response","112","91856","0.0-5.0-1.54","62acc04d0a7788636b0e9915","bdp_lott","Sun Apr 16 2023 10:54:00 GMT-0400 (Eastern Daylight Time)","226956","red","green","","164","","","","choice","","img/red_ll/choose11.jpg","1","171","green","0.5","0.5","0.5","w","",""
"animation","113","92457","0.0-5.0-2.54","62acc04d0a7788636b0e9915","bdp_lott","Sun Apr 16 2023 10:54:00 GMT-0400 (Eastern Daylight Time)","226956","red","green","","","","","","","","","","171","","","","","","[{""stimulus"":""img/green_wl/1.jpg"",""time"":51},{""stimulus"":""img/green_wl/2.jpg"",""time"":101},{""stimulus"":""img/green_wl/3.jpg"",""time"":151},{""stimulus"":""img/green_wl/4.jpg"",""time"":201},{""stimulus"":""img/green_wl/5.jpg"",""time"":252},{""stimulus"":""img/green_wl/6.jpg"",""time"":302},{""stimulus"":""img/green_wl/7.jpg"",""time"":352},{""stimulus"":""img/green_wl/8.jpg"",""time"":401},{""stimulus"":""img/green_wl/9.jpg"",""time"":451},{""stimulus"":""img/green_wl/10.jpg"",""time"":501},{""stimulus"":""img/green_wl/11.jpg"",""time"":552}]","[]"
"image-keyboard-response","114","92603","0.0-5.0-1.55","62acc04d0a7788636b0e9915","bdp_lott","Sun Apr 16 2023 10:54:00 GMT-0400 (Eastern Daylight Time)","226956","red","green","","146","","","","choice","","img/green_wl/choose11.jpg","2","170","red","0.5","0.5","0.5","l","",""
"animation","115","93205","0.0-5.0-2.55","62acc04d0a7788636b0e9915","bdp_lott","Sun Apr 16 2023 10:54:00 GMT-0400 (Eastern Daylight Time)","226956","red","green","","","","","","","","","","170","","","","","","[{""stimulus"":""img/red_wl/1.jpg"",""time"":50},{""stimulus"":""img/red_wl/2.jpg"",""time"":101},{""stimulus"":""img/red_wl/3.jpg"",""time"":150},{""stimulus"":""img/red_wl/4.jpg"",""time"":202},{""stimulus"":""img/red_wl/5.jpg"",""time"":251},{""stimulus"":""img/red_wl/6.jpg"",""time"":300},{""stimulus"":""img/red_wl/7.jpg"",""time"":351},{""stimulus"":""img/red_wl/8.jpg"",""time"":401},{""stimulus"":""img/red_wl/9.jpg"",""time"":452},{""stimulus"":""img/red_wl/10.jpg"",""time"":501},{""stimulus"":""img/red_wl/11.jpg"",""time"":550}]","[]"
"image-keyboard-response","116","93420","0.0-5.0-1.56","62acc04d0a7788636b0e9915","bdp_lott","Sun Apr 16 2023 10:54:00 GMT-0400 (Eastern Daylight Time)","226956","red","green","","214","","","","choice","","img/red_wl/choose11.jpg","1","169","green","0.5","0.5","0.5","l","",""
"animation","117","94021","0.0-5.0-2.56","62acc04d0a7788636b0e9915","bdp_lott","Sun Apr 16 2023 10:54:00 GMT-0400 (Eastern Daylight Time)","226956","red","green","","","","","","","","","","169","","","","","","[{""stimulus"":""img/green_ll/1.jpg"",""time"":51},{""stimulus"":""img/green_ll/2.jpg"",""time"":101},{""stimulus"":""img/green_ll/3.jpg"",""time"":151},{""stimulus"":""img/green_ll/4.jpg"",""time"":201},{""stimulus"":""img/green_ll/5.jpg"",""time"":252},{""stimulus"":""img/green_ll/6.jpg"",""time"":302},{""stimulus"":""img/green_ll/7.jpg"",""time"":351},{""stimulus"":""img/green_ll/8.jpg"",""time"":402},{""stimulus"":""img/green_ll/9.jpg"",""time"":451},{""stimulus"":""img/green_ll/10.jpg"",""time"":501},{""stimulus"":""img/green_ll/11.jpg"",""time"":552}]","[]"
"image-keyboard-response","118","94196","0.0-5.0-1.57","62acc04d0a7788636b0e9915","bdp_lott","Sun Apr 16 2023 10:54:00 GMT-0400 (Eastern Daylight Time)","226956","red","green","","174","","","","choice","","img/green_ll/choose11.jpg","2","168","red","0.5","0.5","0.5","l","",""
"animation","119","94797","0.0-5.0-2.57","62acc04d0a7788636b0e9915","bdp_lott","Sun Apr 16 2023 10:54:00 GMT-0400 (Eastern Daylight Time)","226956","red","green","","","","","","","","","","168","","","","","","[{""stimulus"":""img/red_ll/1.jpg"",""time"":51},{""stimulus"":""img/red_ll/2.jpg"",""time"":101},{""stimulus"":""img/red_ll/3.jpg"",""time"":151},{""stimulus"":""img/red_ll/4.jpg"",""time"":201},{""stimulus"":""img/red_ll/5.jpg"",""time"":250},{""stimulus"":""img/red_ll/6.jpg"",""time"":300},{""stimulus"":""img/red_ll/7.jpg"",""time"":351},{""stimulus"":""img/red_ll/8.jpg"",""time"":400},{""stimulus"":""img/red_ll/9.jpg"",""time"":451},{""stimulus"":""img/red_ll/10.jpg"",""time"":501},{""stimulus"":""img/red_ll/11.jpg"",""time"":551}]","[]"
"image-keyboard-response","120","95073","0.0-5.0-1.58","62acc04d0a7788636b0e9915","bdp_lott","Sun Apr 16 2023 10:54:00 GMT-0400 (Eastern Daylight Time)","226956","red","green","","275","","","","choice","","img/red_ll/choose11.jpg","1","167","green","0.5","0.5","0.5","w","",""
"animation","121","95674","0.0-5.0-2.58","62acc04d0a7788636b0e9915","bdp_lott","Sun Apr 16 2023 10:54:00 GMT-0400 (Eastern Daylight Time)","226956","red","green","","","","","","","","","","167","","","","","","[{""stimulus"":""img/green_wl/1.jpg"",""time"":51},{""stimulus"":""img/green_wl/2.jpg"",""time"":101},{""stimulus"":""img/green_wl/3.jpg"",""time"":152},{""stimulus"":""img/green_wl/4.jpg"",""time"":202},{""stimulus"":""img/green_wl/5.jpg"",""time"":251},{""stimulus"":""img/green_wl/6.jpg"",""time"":301},{""stimulus"":""img/green_wl/7.jpg"",""time"":351},{""stimulus"":""img/green_wl/8.jpg"",""time"":400},{""stimulus"":""img/green_wl/9.jpg"",""time"":452},{""stimulus"":""img/green_wl/10.jpg"",""time"":501},{""stimulus"":""img/green_wl/11.jpg"",""time"":551}]","[]"
"image-keyboard-response","122","95845","0.0-5.0-1.59","62acc04d0a7788636b0e9915","bdp_lott","Sun Apr 16 2023 10:54:00 GMT-0400 (Eastern Daylight Time)","226956","red","green","","170","","","","choice","","img/green_wl/choose11.jpg","2","166","red","0.5","0.5","0.5","w","",""
"animation","123","96447","0.0-5.0-2.59","62acc04d0a7788636b0e9915","bdp_lott","Sun Apr 16 2023 10:54:00 GMT-0400 (Eastern Daylight Time)","226956","red","green","","","","","","","","","","166","","","","","","[{""stimulus"":""img/red_ww/1.jpg"",""time"":52},{""stimulus"":""img/red_ww/2.jpg"",""time"":101},{""stimulus"":""img/red_ww/3.jpg"",""time"":151},{""stimulus"":""img/red_ww/4.jpg"",""time"":201},{""stimulus"":""img/red_ww/5.jpg"",""time"":251},{""stimulus"":""img/red_ww/6.jpg"",""time"":302},{""stimulus"":""img/red_ww/7.jpg"",""time"":352},{""stimulus"":""img/red_ww/8.jpg"",""time"":402},{""stimulus"":""img/red_ww/9.jpg"",""time"":451},{""stimulus"":""img/red_ww/10.jpg"",""time"":501},{""stimulus"":""img/red_ww/11.jpg"",""time"":551}]","[]"
"image-keyboard-response","124","96676","0.0-5.0-1.60","62acc04d0a7788636b0e9915","bdp_lott","Sun Apr 16 2023 10:54:00 GMT-0400 (Eastern Daylight Time)","226956","red","green","","229","","","","choice","","img/red_ww/choose11.jpg","1","165","green","0.5","0.5","0.5","w","",""
"animation","125","97277","0.0-5.0-2.60","62acc04d0a7788636b0e9915","bdp_lott","Sun Apr 16 2023 10:54:00 GMT-0400 (Eastern Daylight Time)","226956","red","green","","","","","","","","","","165","","","","","","[{""stimulus"":""img/green_ww/1.jpg"",""time"":51},{""stimulus"":""img/green_ww/2.jpg"",""time"":100},{""stimulus"":""img/green_ww/3.jpg"",""time"":151},{""stimulus"":""img/green_ww/4.jpg"",""time"":200},{""stimulus"":""img/green_ww/5.jpg"",""time"":251},{""stimulus"":""img/green_ww/6.jpg"",""time"":300},{""stimulus"":""img/green_ww/7.jpg"",""time"":351},{""stimulus"":""img/green_ww/8.jpg"",""time"":400},{""stimulus"":""img/green_ww/9.jpg"",""time"":450},{""stimulus"":""img/green_ww/10.jpg"",""time"":500},{""stimulus"":""img/green_ww/11.jpg"",""time"":550}]","[]"
"image-keyboard-response","126","97433","0.0-5.0-1.61","62acc04d0a7788636b0e9915","bdp_lott","Sun Apr 16 2023 10:54:00 GMT-0400 (Eastern Daylight Time)","226956","red","green","","155","","","","choice","","img/green_ww/choose11.jpg","2","164","red","0.5","0.5","0.5","w","",""
"animation","127","98035","0.0-5.0-2.61","62acc04d0a7788636b0e9915","bdp_lott","Sun Apr 16 2023 10:54:00 GMT-0400 (Eastern Daylight Time)","226956","red","green","","","","","","","","","","164","","","","","","[{""stimulus"":""img/red_ww/1.jpg"",""time"":52},{""stimulus"":""img/red_ww/2.jpg"",""time"":101},{""stimulus"":""img/red_ww/3.jpg"",""time"":151},{""stimulus"":""img/red_ww/4.jpg"",""time"":201},{""stimulus"":""img/red_ww/5.jpg"",""time"":251},{""stimulus"":""img/red_ww/6.jpg"",""time"":302},{""stimulus"":""img/red_ww/7.jpg"",""time"":351},{""stimulus"":""img/red_ww/8.jpg"",""time"":400},{""stimulus"":""img/red_ww/9.jpg"",""time"":451},{""stimulus"":""img/red_ww/10.jpg"",""time"":501},{""stimulus"":""img/red_ww/11.jpg"",""time"":551}]","[]"
"image-keyboard-response","128","98286","0.0-5.0-1.62","62acc04d0a7788636b0e9915","bdp_lott","Sun Apr 16 2023 10:54:00 GMT-0400 (Eastern Daylight Time)","226956","red","green","","251","","","","choice","","img/red_ww/choose11.jpg","1","163","green","0.5","0.5","0.5","l","",""
"animation","129","98887","0.0-5.0-2.62","62acc04d0a7788636b0e9915","bdp_lott","Sun Apr 16 2023 10:54:00 GMT-0400 (Eastern Daylight Time)","226956","red","green","","","","","","","","","","163","","","","","","[{""stimulus"":""img/green_lw/1.jpg"",""time"":51},{""stimulus"":""img/green_lw/2.jpg"",""time"":101},{""stimulus"":""img/green_lw/3.jpg"",""time"":152},{""stimulus"":""img/green_lw/4.jpg"",""time"":202},{""stimulus"":""img/green_lw/5.jpg"",""time"":251},{""stimulus"":""img/green_lw/6.jpg"",""time"":302},{""stimulus"":""img/green_lw/7.jpg"",""time"":351},{""stimulus"":""img/green_lw/8.jpg"",""time"":402},{""stimulus"":""img/green_lw/9.jpg"",""time"":452},{""stimulus"":""img/green_lw/10.jpg"",""time"":501},{""stimulus"":""img/green_lw/11.jpg"",""time"":552}]","[]"
"image-keyboard-response","130","99172","0.0-5.0-1.63","62acc04d0a7788636b0e9915","bdp_lott","Sun Apr 16 2023 10:54:00 GMT-0400 (Eastern Daylight Time)","226956","red","green","","284","","","","choice","","img/green_lw/choose11.jpg","2","162","red","0.5","0.5","0.5","l","",""
"animation","131","99774","0.0-5.0-2.63","62acc04d0a7788636b0e9915","bdp_lott","Sun Apr 16 2023 10:54:00 GMT-0400 (Eastern Daylight Time)","226956","red","green","","","","","","","","","","162","","","","","","[{""stimulus"":""img/red_ll/1.jpg"",""time"":51},{""stimulus"":""img/red_ll/2.jpg"",""time"":101},{""stimulus"":""img/red_ll/3.jpg"",""time"":151},{""stimulus"":""img/red_ll/4.jpg"",""time"":202},{""stimulus"":""img/red_ll/5.jpg"",""time"":251},{""stimulus"":""img/red_ll/6.jpg"",""time"":301},{""stimulus"":""img/red_ll/7.jpg"",""time"":352},{""stimulus"":""img/red_ll/8.jpg"",""time"":401},{""stimulus"":""img/red_ll/9.jpg"",""time"":451},{""stimulus"":""img/red_ll/10.jpg"",""time"":501},{""stimulus"":""img/red_ll/11.jpg"",""time"":552}]","[]"
"image-keyboard-response","132","100113","0.0-5.0-1.64","62acc04d0a7788636b0e9915","bdp_lott","Sun Apr 16 2023 10:54:00 GMT-0400 (Eastern Daylight Time)","226956","red","green","","338","","","","choice","","img/red_ll/choose11.jpg","1","161","green","0.5","0.5","0.5","w","",""
"animation","133","100723","0.0-5.0-2.64","62acc04d0a7788636b0e9915","bdp_lott","Sun Apr 16 2023 10:54:00 GMT-0400 (Eastern Daylight Time)","226956","red","green","","","","","","","","","","161","","","","","","[{""stimulus"":""img/green_wl/1.jpg"",""time"":52},{""stimulus"":""img/green_wl/2.jpg"",""time"":101},{""stimulus"":""img/green_wl/3.jpg"",""time"":152},{""stimulus"":""img/green_wl/4.jpg"",""time"":202},{""stimulus"":""img/green_wl/5.jpg"",""time"":251},{""stimulus"":""img/green_wl/6.jpg"",""time"":302},{""stimulus"":""img/green_wl/7.jpg"",""time"":352},{""stimulus"":""img/green_wl/8.jpg"",""time"":401},{""stimulus"":""img/green_wl/9.jpg"",""time"":452},{""stimulus"":""img/green_wl/10.jpg"",""time"":502},{""stimulus"":""img/green_wl/11.jpg"",""time"":551}]","[]"
"image-keyboard-response","134","100896","0.0-5.0-1.65","62acc04d0a7788636b0e9915","bdp_lott","Sun Apr 16 2023 10:54:00 GMT-0400 (Eastern Daylight Time)","226956","red","green","","172","","","","choice","","img/green_wl/choose11.jpg","2","160","red","0.5","0.5","0.5","l","",""
"animation","135","101497","0.0-5.0-2.65","62acc04d0a7788636b0e9915","bdp_lott","Sun Apr 16 2023 10:54:00 GMT-0400 (Eastern Daylight Time)","226956","red","green","","","","","","","","","","160","","","","","","[{""stimulus"":""img/red_wl/1.jpg"",""time"":51},{""stimulus"":""img/red_wl/2.jpg"",""time"":101},{""stimulus"":""img/red_wl/3.jpg"",""time"":151},{""stimulus"":""img/red_wl/4.jpg"",""time"":202},{""stimulus"":""img/red_wl/5.jpg"",""time"":251},{""stimulus"":""img/red_wl/6.jpg"",""time"":301},{""stimulus"":""img/red_wl/7.jpg"",""time"":351},{""stimulus"":""img/red_wl/8.jpg"",""time"":401},{""stimulus"":""img/red_wl/9.jpg"",""time"":451},{""stimulus"":""img/red_wl/10.jpg"",""time"":501},{""stimulus"":""img/red_wl/11.jpg"",""time"":551}]","[]"
"image-keyboard-response","136","101670","0.0-5.0-1.66","62acc04d0a7788636b0e9915","bdp_lott","Sun Apr 16 2023 10:54:00 GMT-0400 (Eastern Daylight Time)","226956","red","green","","173","","","","choice","","img/red_wl/choose11.jpg","1","159","green","0.5","0.5","0.5","l","",""
"animation","137","102271","0.0-5.0-2.66","62acc04d0a7788636b0e9915","bdp_lott","Sun Apr 16 2023 10:54:00 GMT-0400 (Eastern Daylight Time)","226956","red","green","","","","","","","","","","159","","","","","","[{""stimulus"":""img/green_ll/1.jpg"",""time"":51},{""stimulus"":""img/green_ll/2.jpg"",""time"":101},{""stimulus"":""img/green_ll/3.jpg"",""time"":151},{""stimulus"":""img/green_ll/4.jpg"",""time"":200},{""stimulus"":""img/green_ll/5.jpg"",""time"":250},{""stimulus"":""img/green_ll/6.jpg"",""time"":301},{""stimulus"":""img/green_ll/7.jpg"",""time"":351},{""stimulus"":""img/green_ll/8.jpg"",""time"":401},{""stimulus"":""img/green_ll/9.jpg"",""time"":451},{""stimulus"":""img/green_ll/10.jpg"",""time"":501},{""stimulus"":""img/green_ll/11.jpg"",""time"":551}]","[]"
"image-keyboard-response","138","102423","0.0-5.0-1.67","62acc04d0a7788636b0e9915","bdp_lott","Sun Apr 16 2023 10:54:00 GMT-0400 (Eastern Daylight Time)","226956","red","green","","151","","","","choice","","img/green_ll/choose11.jpg","2","158","red","0.5","0.5","0.5","w","",""
"animation","139","103024","0.0-5.0-2.67","62acc04d0a7788636b0e9915","bdp_lott","Sun Apr 16 2023 10:54:00 GMT-0400 (Eastern Daylight Time)","226956","red","green","","","","","","","","","","158","","","","","","[{""stimulus"":""img/red_lw/1.jpg"",""time"":52},{""stimulus"":""img/red_lw/2.jpg"",""time"":101},{""stimulus"":""img/red_lw/3.jpg"",""time"":163},{""stimulus"":""img/red_lw/4.jpg"",""time"":202},{""stimulus"":""img/red_lw/5.jpg"",""time"":251},{""stimulus"":""img/red_lw/6.jpg"",""time"":302},{""stimulus"":""img/red_lw/7.jpg"",""time"":352},{""stimulus"":""img/red_lw/8.jpg"",""time"":401},{""stimulus"":""img/red_lw/9.jpg"",""time"":451},{""stimulus"":""img/red_lw/10.jpg"",""time"":501},{""stimulus"":""img/red_lw/11.jpg"",""time"":552}]","[]"
"image-keyboard-response","140","103139","0.0-5.0-1.68","62acc04d0a7788636b0e9915","bdp_lott","Sun Apr 16 2023 10:54:00 GMT-0400 (Eastern Daylight Time)","226956","red","green","","115","","","","choice","","img/red_lw/choose11.jpg","1","157","green","0.5","0.5","0.5","l","",""
"animation","141","103740","0.0-5.0-2.68","62acc04d0a7788636b0e9915","bdp_lott","Sun Apr 16 2023 10:54:00 GMT-0400 (Eastern Daylight Time)","226956","red","green","","","","","","","","","","157","","","","","","[{""stimulus"":""img/green_lw/1.jpg"",""time"":51},{""stimulus"":""img/green_lw/2.jpg"",""time"":101},{""stimulus"":""img/green_lw/3.jpg"",""time"":152},{""stimulus"":""img/green_lw/4.jpg"",""time"":201},{""stimulus"":""img/green_lw/5.jpg"",""time"":251},{""stimulus"":""img/green_lw/6.jpg"",""time"":302},{""stimulus"":""img/green_lw/7.jpg"",""time"":352},{""stimulus"":""img/green_lw/8.jpg"",""time"":401},{""stimulus"":""img/green_lw/9.jpg"",""time"":451},{""stimulus"":""img/green_lw/10.jpg"",""time"":501},{""stimulus"":""img/green_lw/11.jpg"",""time"":551}]","[]"
"image-keyboard-response","142","103870","0.0-5.0-1.69","62acc04d0a7788636b0e9915","bdp_lott","Sun Apr 16 2023 10:54:00 GMT-0400 (Eastern Daylight Time)","226956","red","green","","129","","","","choice","","img/green_lw/choose11.jpg","2","156","red","0.5","0.5","0.5","w","",""
"animation","143","104472","0.0-5.0-2.69","62acc04d0a7788636b0e9915","bdp_lott","Sun Apr 16 2023 10:54:00 GMT-0400 (Eastern Daylight Time)","226956","red","green","","","","","","","","","","156","","","","","","[{""stimulus"":""img/red_lw/1.jpg"",""time"":52},{""stimulus"":""img/red_lw/2.jpg"",""time"":100},{""stimulus"":""img/red_lw/3.jpg"",""time"":151},{""stimulus"":""img/red_lw/4.jpg"",""time"":200},{""stimulus"":""img/red_lw/5.jpg"",""time"":251},{""stimulus"":""img/red_lw/6.jpg"",""time"":301},{""stimulus"":""img/red_lw/7.jpg"",""time"":350},{""stimulus"":""img/red_lw/8.jpg"",""time"":401},{""stimulus"":""img/red_lw/9.jpg"",""time"":451},{""stimulus"":""img/red_lw/10.jpg"",""time"":500},{""stimulus"":""img/red_lw/11.jpg"",""time"":552}]","[]"
"image-keyboard-response","144","104698","0.0-5.0-1.70","62acc04d0a7788636b0e9915","bdp_lott","Sun Apr 16 2023 10:54:00 GMT-0400 (Eastern Daylight Time)","226956","red","green","","226","","","","choice","","img/red_lw/choose11.jpg","1","155","green","0.5","0.5","0.5","l","",""
"animation","145","105300","0.0-5.0-2.70","62acc04d0a7788636b0e9915","bdp_lott","Sun Apr 16 2023 10:54:00 GMT-0400 (Eastern Daylight Time)","226956","red","green","","","","","","","","","","155","","","","","","[{""stimulus"":""img/green_lw/1.jpg"",""time"":51},{""stimulus"":""img/green_lw/2.jpg"",""time"":101},{""stimulus"":""img/green_lw/3.jpg"",""time"":152},{""stimulus"":""img/green_lw/4.jpg"",""time"":201},{""stimulus"":""img/green_lw/5.jpg"",""time"":251},{""stimulus"":""img/green_lw/6.jpg"",""time"":302},{""stimulus"":""img/green_lw/7.jpg"",""time"":352},{""stimulus"":""img/green_lw/8.jpg"",""time"":401},{""stimulus"":""img/green_lw/9.jpg"",""time"":451},{""stimulus"":""img/green_lw/10.jpg"",""time"":501},{""stimulus"":""img/green_lw/11.jpg"",""time"":551}]","[]"
"image-keyboard-response","146","105535","0.0-5.0-1.71","62acc04d0a7788636b0e9915","bdp_lott","Sun Apr 16 2023 10:54:00 GMT-0400 (Eastern Daylight Time)","226956","red","green","","235","","","","choice","","img/green_lw/choose11.jpg","2","154","red","0.5","0.5","0.5","w","",""
"animation","147","106137","0.0-5.0-2.71","62acc04d0a7788636b0e9915","bdp_lott","Sun Apr 16 2023 10:54:00 GMT-0400 (Eastern Daylight Time)","226956","red","green","","","","","","","","","","154","","","","","","[{""stimulus"":""img/red_lw/1.jpg"",""time"":50},{""stimulus"":""img/red_lw/2.jpg"",""time"":100},{""stimulus"":""img/red_lw/3.jpg"",""time"":150},{""stimulus"":""img/red_lw/4.jpg"",""time"":201},{""stimulus"":""img/red_lw/5.jpg"",""time"":250},{""stimulus"":""img/red_lw/6.jpg"",""time"":300},{""stimulus"":""img/red_lw/7.jpg"",""time"":350},{""stimulus"":""img/red_lw/8.jpg"",""time"":400},{""stimulus"":""img/red_lw/9.jpg"",""time"":450},{""stimulus"":""img/red_lw/10.jpg"",""time"":501},{""stimulus"":""img/red_lw/11.jpg"",""time"":550}]","[]"
"image-keyboard-response","148","106270","0.0-5.0-1.72","62acc04d0a7788636b0e9915","bdp_lott","Sun Apr 16 2023 10:54:00 GMT-0400 (Eastern Daylight Time)","226956","red","green","","133","","","","choice","","img/red_lw/choose11.jpg","1","153","green","0.5","0.5","0.5","w","",""
"animation","149","106871","0.0-5.0-2.72","62acc04d0a7788636b0e9915","bdp_lott","Sun Apr 16 2023 10:54:00 GMT-0400 (Eastern Daylight Time)","226956","red","green","","","","","","","","","","153","","","","","","[{""stimulus"":""img/green_ww/1.jpg"",""time"":52},{""stimulus"":""img/green_ww/2.jpg"",""time"":101},{""stimulus"":""img/green_ww/3.jpg"",""time"":151},{""stimulus"":""img/green_ww/4.jpg"",""time"":202},{""stimulus"":""img/green_ww/5.jpg"",""time"":251},{""stimulus"":""img/green_ww/6.jpg"",""time"":302},{""stimulus"":""img/green_ww/7.jpg"",""time"":352},{""stimulus"":""img/green_ww/8.jpg"",""time"":402},{""stimulus"":""img/green_ww/9.jpg"",""time"":451},{""stimulus"":""img/green_ww/10.jpg"",""time"":502},{""stimulus"":""img/green_ww/11.jpg"",""time"":551}]","[]"
"image-keyboard-response","150","107047","0.0-5.0-1.73","62acc04d0a7788636b0e9915","bdp_lott","Sun Apr 16 2023 10:54:00 GMT-0400 (Eastern Daylight Time)","226956","red","green","","176","","","","choice","","img/green_ww/choose11.jpg","2","152","red","0.5","0.5","0.5","w","",""
"animation","151","107647","0.0-5.0-2.73","62acc04d0a7788636b0e9915","bdp_lott","Sun Apr 16 2023 10:54:00 GMT-0400 (Eastern Daylight Time)","226956","red","green","","","","","","","","","","152","","","","","","[{""stimulus"":""img/red_ww/1.jpg"",""time"":51},{""stimulus"":""img/red_ww/2.jpg"",""time"":101},{""stimulus"":""img/red_ww/3.jpg"",""time"":151},{""stimulus"":""img/red_ww/4.jpg"",""time"":201},{""stimulus"":""img/red_ww/5.jpg"",""time"":251},{""stimulus"":""img/red_ww/6.jpg"",""time"":301},{""stimulus"":""img/red_ww/7.jpg"",""time"":351},{""stimulus"":""img/red_ww/8.jpg"",""time"":401},{""stimulus"":""img/red_ww/9.jpg"",""time"":451},{""stimulus"":""img/red_ww/10.jpg"",""time"":501},{""stimulus"":""img/red_ww/11.jpg"",""time"":551}]","[]"
"image-keyboard-response","152","107819","0.0-5.0-1.74","62acc04d0a7788636b0e9915","bdp_lott","Sun Apr 16 2023 10:54:00 GMT-0400 (Eastern Daylight Time)","226956","red","green","","171","","","","choice","","img/red_ww/choose11.jpg","1","151","green","0.5","0.5","0.5","l","",""
"animation","153","108420","0.0-5.0-2.74","62acc04d0a7788636b0e9915","bdp_lott","Sun Apr 16 2023 10:54:00 GMT-0400 (Eastern Daylight Time)","226956","red","green","","","","","","","","","","151","","","","","","[{""stimulus"":""img/green_lw/1.jpg"",""time"":51},{""stimulus"":""img/green_lw/2.jpg"",""time"":102},{""stimulus"":""img/green_lw/3.jpg"",""time"":151},{""stimulus"":""img/green_lw/4.jpg"",""time"":201},{""stimulus"":""img/green_lw/5.jpg"",""time"":252},{""stimulus"":""img/green_lw/6.jpg"",""time"":301},{""stimulus"":""img/green_lw/7.jpg"",""time"":351},{""stimulus"":""img/green_lw/8.jpg"",""time"":401},{""stimulus"":""img/green_lw/9.jpg"",""time"":451},{""stimulus"":""img/green_lw/10.jpg"",""time"":501},{""stimulus"":""img/green_lw/11.jpg"",""time"":551}]","[]"
"image-keyboard-response","154","108697","0.0-5.0-1.75","62acc04d0a7788636b0e9915","bdp_lott","Sun Apr 16 2023 10:54:00 GMT-0400 (Eastern Daylight Time)","226956","red","green","","277","","","","choice","","img/green_lw/choose11.jpg","2","150","red","0.5","0.5","0.5","l","",""
"animation","155","109298","0.0-5.0-2.75","62acc04d0a7788636b0e9915","bdp_lott","Sun Apr 16 2023 10:54:00 GMT-0400 (Eastern Daylight Time)","226956","red","green","","","","","","","","","","150","","","","","","[{""stimulus"":""img/red_ll/1.jpg"",""time"":51},{""stimulus"":""img/red_ll/2.jpg"",""time"":101},{""stimulus"":""img/red_ll/3.jpg"",""time"":151},{""stimulus"":""img/red_ll/4.jpg"",""time"":201},{""stimulus"":""img/red_ll/5.jpg"",""time"":251},{""stimulus"":""img/red_ll/6.jpg"",""time"":301},{""stimulus"":""img/red_ll/7.jpg"",""time"":351},{""stimulus"":""img/red_ll/8.jpg"",""time"":400},{""stimulus"":""img/red_ll/9.jpg"",""time"":451},{""stimulus"":""img/red_ll/10.jpg"",""time"":501},{""stimulus"":""img/red_ll/11.jpg"",""time"":551}]","[]"
"image-keyboard-response","156","109482","0.0-5.0-1.76","62acc04d0a7788636b0e9915","bdp_lott","Sun Apr 16 2023 10:54:00 GMT-0400 (Eastern Daylight Time)","226956","red","green","","184","","","","choice","","img/red_ll/choose11.jpg","1","149","green","0.5","0.1","0.1","l","",""
"animation","157","110084","0.0-5.0-2.76","62acc04d0a7788636b0e9915","bdp_lott","Sun Apr 16 2023 10:54:00 GMT-0400 (Eastern Daylight Time)","226956","red","green","","","","","","","","","","149","","","","","","[{""stimulus"":""img/green_ll/1.jpg"",""time"":52},{""stimulus"":""img/green_ll/2.jpg"",""time"":101},{""stimulus"":""img/green_ll/3.jpg"",""time"":151},{""stimulus"":""img/green_ll/4.jpg"",""time"":202},{""stimulus"":""img/green_ll/5.jpg"",""time"":251},{""stimulus"":""img/green_ll/6.jpg"",""time"":302},{""stimulus"":""img/green_ll/7.jpg"",""time"":351},{""stimulus"":""img/green_ll/8.jpg"",""time"":401},{""stimulus"":""img/green_ll/9.jpg"",""time"":452},{""stimulus"":""img/green_ll/10.jpg"",""time"":501},{""stimulus"":""img/green_ll/11.jpg"",""time"":552}]","[]"
"image-keyboard-response","158","110159","0.0-5.0-1.77","62acc04d0a7788636b0e9915","bdp_lott","Sun Apr 16 2023 10:54:00 GMT-0400 (Eastern Daylight Time)","226956","red","green","","73","","","","choice","","img/green_ll/choose11.jpg","2","148","red","0.5","0.1","0.5","l","",""
"animation","159","110759","0.0-5.0-2.77","62acc04d0a7788636b0e9915","bdp_lott","Sun Apr 16 2023 10:54:00 GMT-0400 (Eastern Daylight Time)","226956","red","green","","","","","","","","","","148","","","","","","[{""stimulus"":""img/red_ll/1.jpg"",""time"":51},{""stimulus"":""img/red_ll/2.jpg"",""time"":101},{""stimulus"":""img/red_ll/3.jpg"",""time"":150},{""stimulus"":""img/red_ll/4.jpg"",""time"":201},{""stimulus"":""img/red_ll/5.jpg"",""time"":251},{""stimulus"":""img/red_ll/6.jpg"",""time"":301},{""stimulus"":""img/red_ll/7.jpg"",""time"":351},{""stimulus"":""img/red_ll/8.jpg"",""time"":400},{""stimulus"":""img/red_ll/9.jpg"",""time"":450},{""stimulus"":""img/red_ll/10.jpg"",""time"":501},{""stimulus"":""img/red_ll/11.jpg"",""time"":551}]","[]"
"image-keyboard-response","160","110930","0.0-5.0-1.78","62acc04d0a7788636b0e9915","bdp_lott","Sun Apr 16 2023 10:54:00 GMT-0400 (Eastern Daylight Time)","226956","red","green","","170","","","","choice","","img/red_ll/choose11.jpg","2","147","red","0.5","0.1","0.5","l","",""
"animation","161","111532","0.0-5.0-2.78","62acc04d0a7788636b0e9915","bdp_lott","Sun Apr 16 2023 10:54:00 GMT-0400 (Eastern Daylight Time)","226956","red","green","","","","","","","","","","147","","","","","","[{""stimulus"":""img/red_ll/1.jpg"",""time"":51},{""stimulus"":""img/red_ll/2.jpg"",""time"":101},{""stimulus"":""img/red_ll/3.jpg"",""time"":151},{""stimulus"":""img/red_ll/4.jpg"",""time"":201},{""stimulus"":""img/red_ll/5.jpg"",""time"":251},{""stimulus"":""img/red_ll/6.jpg"",""time"":300},{""stimulus"":""img/red_ll/7.jpg"",""time"":351},{""stimulus"":""img/red_ll/8.jpg"",""time"":401},{""stimulus"":""img/red_ll/9.jpg"",""time"":451},{""stimulus"":""img/red_ll/10.jpg"",""time"":501},{""stimulus"":""img/red_ll/11.jpg"",""time"":551}]","[]"
"image-keyboard-response","162","111646","0.0-5.0-1.79","62acc04d0a7788636b0e9915","bdp_lott","Sun Apr 16 2023 10:54:00 GMT-0400 (Eastern Daylight Time)","226956","red","green","","114","","","","choice","","img/red_ll/choose11.jpg","1","146","green","0.5","0.1","0.1","l","",""
"animation","163","112246","0.0-5.0-2.79","62acc04d0a7788636b0e9915","bdp_lott","Sun Apr 16 2023 10:54:00 GMT-0400 (Eastern Daylight Time)","226956","red","green","","","","","","","","","","146","","","","","","[{""stimulus"":""img/green_ll/1.jpg"",""time"":51},{""stimulus"":""img/green_ll/2.jpg"",""time"":101},{""stimulus"":""img/green_ll/3.jpg"",""time"":151},{""stimulus"":""img/green_ll/4.jpg"",""time"":201},{""stimulus"":""img/green_ll/5.jpg"",""time"":251},{""stimulus"":""img/green_ll/6.jpg"",""time"":301},{""stimulus"":""img/green_ll/7.jpg"",""time"":351},{""stimulus"":""img/green_ll/8.jpg"",""time"":401},{""stimulus"":""img/green_ll/9.jpg"",""time"":451},{""stimulus"":""img/green_ll/10.jpg"",""time"":501},{""stimulus"":""img/green_ll/11.jpg"",""time"":551}]","[]"
"image-keyboard-response","164","112370","0.0-5.0-1.80","62acc04d0a7788636b0e9915","bdp_lott","Sun Apr 16 2023 10:54:00 GMT-0400 (Eastern Daylight Time)","226956","red","green","","123","","","","choice","","img/green_ll/choose11.jpg","1","145","green","0.5","0.1","0.1","l","",""
"animation","165","112971","0.0-5.0-2.80","62acc04d0a7788636b0e9915","bdp_lott","Sun Apr 16 2023 10:54:00 GMT-0400 (Eastern Daylight Time)","226956","red","green","","","","","","","","","","145","","","","","","[{""stimulus"":""img/green_ll/1.jpg"",""time"":51},{""stimulus"":""img/green_ll/2.jpg"",""time"":101},{""stimulus"":""img/green_ll/3.jpg"",""time"":152},{""stimulus"":""img/green_ll/4.jpg"",""time"":201},{""stimulus"":""img/green_ll/5.jpg"",""time"":251},{""stimulus"":""img/green_ll/6.jpg"",""time"":302},{""stimulus"":""img/green_ll/7.jpg"",""time"":351},{""stimulus"":""img/green_ll/8.jpg"",""time"":401},{""stimulus"":""img/green_ll/9.jpg"",""time"":451},{""stimulus"":""img/green_ll/10.jpg"",""time"":501},{""stimulus"":""img/green_ll/11.jpg"",""time"":551}]","[]"
"image-keyboard-response","166","113119","0.0-5.0-1.81","62acc04d0a7788636b0e9915","bdp_lott","Sun Apr 16 2023 10:54:00 GMT-0400 (Eastern Daylight Time)","226956","red","green","","147","","","","choice","","img/green_ll/choose11.jpg","2","144","red","0.5","0.1","0.5","l","",""
"animation","167","113721","0.0-5.0-2.81","62acc04d0a7788636b0e9915","bdp_lott","Sun Apr 16 2023 10:54:00 GMT-0400 (Eastern Daylight Time)","226956","red","green","","","","","","","","","","144","","","","","","[{""stimulus"":""img/red_ll/1.jpg"",""time"":51},{""stimulus"":""img/red_ll/2.jpg"",""time"":101},{""stimulus"":""img/red_ll/3.jpg"",""time"":151},{""stimulus"":""img/red_ll/4.jpg"",""time"":201},{""stimulus"":""img/red_ll/5.jpg"",""time"":251},{""stimulus"":""img/red_ll/6.jpg"",""time"":301},{""stimulus"":""img/red_ll/7.jpg"",""time"":350},{""stimulus"":""img/red_ll/8.jpg"",""time"":401},{""stimulus"":""img/red_ll/9.jpg"",""time"":451},{""stimulus"":""img/red_ll/10.jpg"",""time"":501},{""stimulus"":""img/red_ll/11.jpg"",""time"":550}]","[]"
"image-keyboard-response","168","113812","0.0-5.0-1.82","62acc04d0a7788636b0e9915","bdp_lott","Sun Apr 16 2023 10:54:00 GMT-0400 (Eastern Daylight Time)","226956","red","green","","90","","","","choice","","img/red_ll/choose11.jpg","1","143","green","0.5","0.1","0.1","l","",""
"animation","169","114427","0.0-5.0-2.82","62acc04d0a7788636b0e9915","bdp_lott","Sun Apr 16 2023 10:54:00 GMT-0400 (Eastern Daylight Time)","226956","red","green","","","","","","","","","","143","","","","","","[{""stimulus"":""img/green_ll/1.jpg"",""time"":53},{""stimulus"":""img/green_ll/2.jpg"",""time"":101},{""stimulus"":""img/green_ll/3.jpg"",""time"":152},{""stimulus"":""img/green_ll/4.jpg"",""time"":202},{""stimulus"":""img/green_ll/5.jpg"",""time"":252},{""stimulus"":""img/green_ll/6.jpg"",""time"":302},{""stimulus"":""img/green_ll/7.jpg"",""time"":352},{""stimulus"":""img/green_ll/8.jpg"",""time"":402},{""stimulus"":""img/green_ll/9.jpg"",""time"":452},{""stimulus"":""img/green_ll/10.jpg"",""time"":502},{""stimulus"":""img/green_ll/11.jpg"",""time"":553}]","[]"
"image-keyboard-response","170","114672","0.0-5.0-1.83","62acc04d0a7788636b0e9915","bdp_lott","Sun Apr 16 2023 10:54:00 GMT-0400 (Eastern Daylight Time)","226956","red","green","","245","","","","choice","","img/green_ll/choose11.jpg","2","142","red","0.5","0.1","0.5","w","",""
"animation","171","115273","0.0-5.0-2.83","62acc04d0a7788636b0e9915","bdp_lott","Sun Apr 16 2023 10:54:00 GMT-0400 (Eastern Daylight Time)","226956","red","green","","","","","","","","","","142","","","","","","[{""stimulus"":""img/red_lw/1.jpg"",""time"":51},{""stimulus"":""img/red_lw/2.jpg"",""time"":101},{""stimulus"":""img/red_lw/3.jpg"",""time"":151},{""stimulus"":""img/red_lw/4.jpg"",""time"":201},{""stimulus"":""img/red_lw/5.jpg"",""time"":251},{""stimulus"":""img/red_lw/6.jpg"",""time"":302},{""stimulus"":""img/red_lw/7.jpg"",""time"":351},{""stimulus"":""img/red_lw/8.jpg"",""time"":401},{""stimulus"":""img/red_lw/9.jpg"",""time"":452},{""stimulus"":""img/red_lw/10.jpg"",""time"":501},{""stimulus"":""img/red_lw/11.jpg"",""time"":551}]","[]"
"image-keyboard-response","172","115364","0.0-5.0-1.84","62acc04d0a7788636b0e9915","bdp_lott","Sun Apr 16 2023 10:54:00 GMT-0400 (Eastern Daylight Time)","226956","red","green","","90","","","","choice","","img/red_lw/choose11.jpg","1","141","green","0.5","0.1","0.1","l","",""
"animation","173","115965","0.0-5.0-2.84","62acc04d0a7788636b0e9915","bdp_lott","Sun Apr 16 2023 10:54:00 GMT-0400 (Eastern Daylight Time)","226956","red","green","","","","","","","","","","141","","","","","","[{""stimulus"":""img/green_lw/1.jpg"",""time"":53},{""stimulus"":""img/green_lw/2.jpg"",""time"":101},{""stimulus"":""img/green_lw/3.jpg"",""time"":158},{""stimulus"":""img/green_lw/4.jpg"",""time"":201},{""stimulus"":""img/green_lw/5.jpg"",""time"":252},{""stimulus"":""img/green_lw/6.jpg"",""time"":302},{""stimulus"":""img/green_lw/7.jpg"",""time"":351},{""stimulus"":""img/green_lw/8.jpg"",""time"":401},{""stimulus"":""img/green_lw/9.jpg"",""time"":451},{""stimulus"":""img/green_lw/10.jpg"",""time"":502},{""stimulus"":""img/green_lw/11.jpg"",""time"":551}]","[]"
"image-keyboard-response","174","116111","0.0-5.0-1.85","62acc04d0a7788636b0e9915","bdp_lott","Sun Apr 16 2023 10:54:00 GMT-0400 (Eastern Daylight Time)","226956","red","green","","145","","","","choice","","img/green_lw/choose11.jpg","2","140","red","0.5","0.1","0.5","l","",""
"animation","175","116713","0.0-5.0-2.85","62acc04d0a7788636b0e9915","bdp_lott","Sun Apr 16 2023 10:54:00 GMT-0400 (Eastern Daylight Time)","226956","red","green","","","","","","","","","","140","","","","","","[{""stimulus"":""img/red_ll/1.jpg"",""time"":51},{""stimulus"":""img/red_ll/2.jpg"",""time"":101},{""stimulus"":""img/red_ll/3.jpg"",""time"":151},{""stimulus"":""img/red_ll/4.jpg"",""time"":202},{""stimulus"":""img/red_ll/5.jpg"",""time"":252},{""stimulus"":""img/red_ll/6.jpg"",""time"":302},{""stimulus"":""img/red_ll/7.jpg"",""time"":351},{""stimulus"":""img/red_ll/8.jpg"",""time"":402},{""stimulus"":""img/red_ll/9.jpg"",""time"":451},{""stimulus"":""img/red_ll/10.jpg"",""time"":501},{""stimulus"":""img/red_ll/11.jpg"",""time"":551}]","[]"
"image-keyboard-response","176","116886","0.0-5.0-1.86","62acc04d0a7788636b0e9915","bdp_lott","Sun Apr 16 2023 10:54:00 GMT-0400 (Eastern Daylight Time)","226956","red","green","","173","","","","choice","","img/red_ll/choose11.jpg","1","139","green","0.5","0.1","0.1","l","",""
"animation","177","117488","0.0-5.0-2.86","62acc04d0a7788636b0e9915","bdp_lott","Sun Apr 16 2023 10:54:00 GMT-0400 (Eastern Daylight Time)","226956","red","green","","","","","","","","","","139","","","","","","[{""stimulus"":""img/green_ll/1.jpg"",""time"":51},{""stimulus"":""img/green_ll/2.jpg"",""time"":103},{""stimulus"":""img/green_ll/3.jpg"",""time"":151},{""stimulus"":""img/green_ll/4.jpg"",""time"":202},{""stimulus"":""img/green_ll/5.jpg"",""time"":252},{""stimulus"":""img/green_ll/6.jpg"",""time"":301},{""stimulus"":""img/green_ll/7.jpg"",""time"":351},{""stimulus"":""img/green_ll/8.jpg"",""time"":401},{""stimulus"":""img/green_ll/9.jpg"",""time"":451},{""stimulus"":""img/green_ll/10.jpg"",""time"":501},{""stimulus"":""img/green_ll/11.jpg"",""time"":551}]","[]"
"image-keyboard-response","178","117633","0.0-5.0-1.87","62acc04d0a7788636b0e9915","bdp_lott","Sun Apr 16 2023 10:54:00 GMT-0400 (Eastern Daylight Time)","226956","red","green","","144","","","","choice","","img/green_ll/choose11.jpg","2","138","red","0.5","0.1","0.5","l","",""
"animation","179","118234","0.0-5.0-2.87","62acc04d0a7788636b0e9915","bdp_lott","Sun Apr 16 2023 10:54:00 GMT-0400 (Eastern Daylight Time)","226956","red","green","","","","","","","","","","138","","","","","","[{""stimulus"":""img/red_ll/1.jpg"",""time"":51},{""stimulus"":""img/red_ll/2.jpg"",""time"":101},{""stimulus"":""img/red_ll/3.jpg"",""time"":151},{""stimulus"":""img/red_ll/4.jpg"",""time"":201},{""stimulus"":""img/red_ll/5.jpg"",""time"":251},{""stimulus"":""img/red_ll/6.jpg"",""time"":301},{""stimulus"":""img/red_ll/7.jpg"",""time"":351},{""stimulus"":""img/red_ll/8.jpg"",""time"":401},{""stimulus"":""img/red_ll/9.jpg"",""time"":451},{""stimulus"":""img/red_ll/10.jpg"",""time"":501},{""stimulus"":""img/red_ll/11.jpg"",""time"":551}]","[]"
"image-keyboard-response","180","118395","0.0-5.0-1.88","62acc04d0a7788636b0e9915","bdp_lott","Sun Apr 16 2023 10:54:00 GMT-0400 (Eastern Daylight Time)","226956","red","green","","161","","","","choice","","img/red_ll/choose11.jpg","1","137","green","0.5","0.1","0.1","l","",""
"animation","181","118996","0.0-5.0-2.88","62acc04d0a7788636b0e9915","bdp_lott","Sun Apr 16 2023 10:54:00 GMT-0400 (Eastern Daylight Time)","226956","red","green","","","","","","","","","","137","","","","","","[{""stimulus"":""img/green_ll/1.jpg"",""time"":50},{""stimulus"":""img/green_ll/2.jpg"",""time"":100},{""stimulus"":""img/green_ll/3.jpg"",""time"":151},{""stimulus"":""img/green_ll/4.jpg"",""time"":201},{""stimulus"":""img/green_ll/5.jpg"",""time"":251},{""stimulus"":""img/green_ll/6.jpg"",""time"":301},{""stimulus"":""img/green_ll/7.jpg"",""time"":351},{""stimulus"":""img/green_ll/8.jpg"",""time"":400},{""stimulus"":""img/green_ll/9.jpg"",""time"":451},{""stimulus"":""img/green_ll/10.jpg"",""time"":500},{""stimulus"":""img/green_ll/11.jpg"",""time"":551}]","[]"
"image-keyboard-response","182","119217","0.0-5.0-1.89","62acc04d0a7788636b0e9915","bdp_lott","Sun Apr 16 2023 10:54:00 GMT-0400 (Eastern Daylight Time)","226956","red","green","","220","","","","choice","","img/green_ll/choose11.jpg","2","136","red","0.5","0.1","0.5","w","",""
"animation","183","119819","0.0-5.0-2.89","62acc04d0a7788636b0e9915","bdp_lott","Sun Apr 16 2023 10:54:00 GMT-0400 (Eastern Daylight Time)","226956","red","green","","","","","","","","","","136","","","","","","[{""stimulus"":""img/red_lw/1.jpg"",""time"":50},{""stimulus"":""img/red_lw/2.jpg"",""time"":100},{""stimulus"":""img/red_lw/3.jpg"",""time"":151},{""stimulus"":""img/red_lw/4.jpg"",""time"":201},{""stimulus"":""img/red_lw/5.jpg"",""time"":250},{""stimulus"":""img/red_lw/6.jpg"",""time"":301},{""stimulus"":""img/red_lw/7.jpg"",""time"":351},{""stimulus"":""img/red_lw/8.jpg"",""time"":401},{""stimulus"":""img/red_lw/9.jpg"",""time"":452},{""stimulus"":""img/red_lw/10.jpg"",""time"":501},{""stimulus"":""img/red_lw/11.jpg"",""time"":552}]","[]"
"image-keyboard-response","184","120034","0.0-5.0-1.90","62acc04d0a7788636b0e9915","bdp_lott","Sun Apr 16 2023 10:54:00 GMT-0400 (Eastern Daylight Time)","226956","red","green","","214","","","","choice","","img/red_lw/choose11.jpg","1","135","green","0.5","0.1","0.1","l","",""
"animation","185","120636","0.0-5.0-2.90","62acc04d0a7788636b0e9915","bdp_lott","Sun Apr 16 2023 10:54:00 GMT-0400 (Eastern Daylight Time)","226956","red","green","","","","","","","","","","135","","","","","","[{""stimulus"":""img/green_lw/1.jpg"",""time"":51},{""stimulus"":""img/green_lw/2.jpg"",""time"":100},{""stimulus"":""img/green_lw/3.jpg"",""time"":150},{""stimulus"":""img/green_lw/4.jpg"",""time"":201},{""stimulus"":""img/green_lw/5.jpg"",""time"":251},{""stimulus"":""img/green_lw/6.jpg"",""time"":300},{""stimulus"":""img/green_lw/7.jpg"",""time"":351},{""stimulus"":""img/green_lw/8.jpg"",""time"":401},{""stimulus"":""img/green_lw/9.jpg"",""time"":451},{""stimulus"":""img/green_lw/10.jpg"",""time"":501},{""stimulus"":""img/green_lw/11.jpg"",""time"":550}]","[]"
"image-keyboard-response","186","120743","0.0-5.0-1.91","62acc04d0a7788636b0e9915","bdp_lott","Sun Apr 16 2023 10:54:00 GMT-0400 (Eastern Daylight Time)","226956","red","green","","106","","","","choice","","img/green_lw/choose11.jpg","2","134","red","0.5","0.1","0.5","l","",""
"animation","187","121344","0.0-5.0-2.91","62acc04d0a7788636b0e9915","bdp_lott","Sun Apr 16 2023 10:54:00 GMT-0400 (Eastern Daylight Time)","226956","red","green","","","","","","","","","","134","","","","","","[{""stimulus"":""img/red_ll/1.jpg"",""time"":52},{""stimulus"":""img/red_ll/2.jpg"",""time"":101},{""stimulus"":""img/red_ll/3.jpg"",""time"":152},{""stimulus"":""img/red_ll/4.jpg"",""time"":205},{""stimulus"":""img/red_ll/5.jpg"",""time"":251},{""stimulus"":""img/red_ll/6.jpg"",""time"":302},{""stimulus"":""img/red_ll/7.jpg"",""time"":352},{""stimulus"":""img/red_ll/8.jpg"",""time"":401},{""stimulus"":""img/red_ll/9.jpg"",""time"":451},{""stimulus"":""img/red_ll/10.jpg"",""time"":502},{""stimulus"":""img/red_ll/11.jpg"",""time"":552}]","[]"
"image-keyboard-response","188","121495","0.0-5.0-1.92","62acc04d0a7788636b0e9915","bdp_lott","Sun Apr 16 2023 10:54:00 GMT-0400 (Eastern Daylight Time)","226956","red","green","","150","","","","choice","","img/red_ll/choose11.jpg","1","133","green","0.5","0.1","0.1","l","",""
"animation","189","122096","0.0-5.0-2.92","62acc04d0a7788636b0e9915","bdp_lott","Sun Apr 16 2023 10:54:00 GMT-0400 (Eastern Daylight Time)","226956","red","green","","","","","","","","","","133","","","","","","[{""stimulus"":""img/green_ll/1.jpg"",""time"":51},{""stimulus"":""img/green_ll/2.jpg"",""time"":101},{""stimulus"":""img/green_ll/3.jpg"",""time"":151},{""stimulus"":""img/green_ll/4.jpg"",""time"":201},{""stimulus"":""img/green_ll/5.jpg"",""time"":251},{""stimulus"":""img/green_ll/6.jpg"",""time"":301},{""stimulus"":""img/green_ll/7.jpg"",""time"":350},{""stimulus"":""img/green_ll/8.jpg"",""time"":400},{""stimulus"":""img/green_ll/9.jpg"",""time"":451},{""stimulus"":""img/green_ll/10.jpg"",""time"":500},{""stimulus"":""img/green_ll/11.jpg"",""time"":550}]","[]"
"image-keyboard-response","190","122208","0.0-5.0-1.93","62acc04d0a7788636b0e9915","bdp_lott","Sun Apr 16 2023 10:54:00 GMT-0400 (Eastern Daylight Time)","226956","red","green","","112","","","","choice","","img/green_ll/choose11.jpg","2","132","red","0.5","0.1","0.5","w","",""
"animation","191","122809","0.0-5.0-2.93","62acc04d0a7788636b0e9915","bdp_lott","Sun Apr 16 2023 10:54:00 GMT-0400 (Eastern Daylight Time)","226956","red","green","","","","","","","","","","132","","","","","","[{""stimulus"":""img/red_lw/1.jpg"",""time"":51},{""stimulus"":""img/red_lw/2.jpg"",""time"":101},{""stimulus"":""img/red_lw/3.jpg"",""time"":151},{""stimulus"":""img/red_lw/4.jpg"",""time"":202},{""stimulus"":""img/red_lw/5.jpg"",""time"":251},{""stimulus"":""img/red_lw/6.jpg"",""time"":301},{""stimulus"":""img/red_lw/7.jpg"",""time"":351},{""stimulus"":""img/red_lw/8.jpg"",""time"":401},{""stimulus"":""img/red_lw/9.jpg"",""time"":451},{""stimulus"":""img/red_lw/10.jpg"",""time"":502},{""stimulus"":""img/red_lw/11.jpg"",""time"":551}]","[]"
