"event","trial","time","trialtype","numBlurs","subject_id","task","startTime","totalTime","fairMachine","unfairMachine","trial_type","trial_index","time_elapsed","internal_node_id","view_history","rt","success","stimulus","key_press","roundsLeft","chosen","pFairMachWin","pUnfairMachWin","pTrialWin","outcome","animation_sequence","responses"
"blur","0","0","blurevent","1","63e857fe022e159687d56f41","bdp_lott","Mon Mar 27 2023 16:40:50 GMT-0700 (Pacific Daylight Time)","384226","red","green","","","","","","","","","","","","","","","","",""
"focus","0","0","focusevent","","63e857fe022e159687d56f41","bdp_lott","Mon Mar 27 2023 16:40:50 GMT-0700 (Pacific Daylight Time)","384226","red","green","","","","","","","","","","","","","","","","",""
"","","","","","63e857fe022e159687d56f41","bdp_lott","Mon Mar 27 2023 16:40:50 GMT-0700 (Pacific Daylight Time)","384226","red","green","pavlovia","0","4","0.0-0.0","","","","","","","","","","","","",""
"","","","","","63e857fe022e159687d56f41","bdp_lott","Mon Mar 27 2023 16:40:50 GMT-0700 (Pacific Daylight Time)","384226","red","green","instructions","1","5583","0.0-1.0","[{""page_index"":0,""viewing_time"":5578}]","5578","","","","","","","","","","",""
"fullscreenenter","2","9590","fullscreenenter","","63e857fe022e159687d56f41","bdp_lott","Mon Mar 27 2023 16:40:50 GMT-0700 (Pacific Daylight Time)","384226","red","green","","","","","","","","","","","","","","","","",""
"","","","","","63e857fe022e159687d56f41","bdp_lott","Mon Mar 27 2023 16:40:50 GMT-0700 (Pacific Daylight Time)","384226","red","green","fullscreen","2","10579","0.0-2.0","","","true","","","","","","","","","",""
"","","","","","63e857fe022e159687d56f41","bdp_lott","Mon Mar 27 2023 16:40:50 GMT-0700 (Pacific Daylight Time)","384226","red","green","instructions","3","70821","0.0-4.0","[{""page_index"":0,""viewing_time"":60240}]","60240","","","","","","","","","","",""
"","","","blurwarn","1","63e857fe022e159687d56f41","bdp_lott","Mon Mar 27 2023 16:40:50 GMT-0700 (Pacific Daylight Time)","384226","red","green","image-keyboard-response","4","78086","0.0-5.0-0.0-0.0","","7262","","","49","","","","","","","",""
"","","","choice","","63e857fe022e159687d56f41","bdp_lott","Mon Mar 27 2023 16:40:50 GMT-0700 (Pacific Daylight Time)","384226","red","green","image-keyboard-response","5","81850","0.0-5.0-1.0","","3501","","img/red_ll/initchoose11.jpg","2","225","red","0.5","0.5","0.5","w","",""
"","","","","","63e857fe022e159687d56f41","bdp_lott","Mon Mar 27 2023 16:40:50 GMT-0700 (Pacific Daylight Time)","384226","red","green","animation","6","82461","0.0-5.0-2.0","","","","","","225","","","","","","[{""stimulus"":""img/red_lw/1.jpg"",""time"":63},{""stimulus"":""img/red_lw/2.jpg"",""time"":109},{""stimulus"":""img/red_lw/3.jpg"",""time"":155},{""stimulus"":""img/red_lw/4.jpg"",""time"":203},{""stimulus"":""img/red_lw/5.jpg"",""time"":267},{""stimulus"":""img/red_lw/6.jpg"",""time"":302},{""stimulus"":""img/red_lw/7.jpg"",""time"":360},{""stimulus"":""img/red_lw/8.jpg"",""time"":408},{""stimulus"":""img/red_lw/9.jpg"",""time"":454},{""stimulus"":""img/red_lw/10.jpg"",""time"":502},{""stimulus"":""img/red_lw/11.jpg"",""time"":563}]","[]"
"","","","choice","","63e857fe022e159687d56f41","bdp_lott","Mon Mar 27 2023 16:40:50 GMT-0700 (Pacific Daylight Time)","384226","red","green","image-keyboard-response","7","85100","0.0-5.0-1.1","","2637","","img/red_lw/choose11.jpg","2","224","red","0.5","0.5","0.5","l","",""
"","","","","","63e857fe022e159687d56f41","bdp_lott","Mon Mar 27 2023 16:40:50 GMT-0700 (Pacific Daylight Time)","384226","red","green","animation","8","85713","0.0-5.0-2.1","","","","","","224","","","","","","[{""stimulus"":""img/red_ll/1.jpg"",""time"":65},{""stimulus"":""img/red_ll/2.jpg"",""time"":111},{""stimulus"":""img/red_ll/3.jpg"",""time"":158},{""stimulus"":""img/red_ll/4.jpg"",""time"":205},{""stimulus"":""img/red_ll/5.jpg"",""time"":253},{""stimulus"":""img/red_ll/6.jpg"",""time"":314},{""stimulus"":""img/red_ll/7.jpg"",""time"":362},{""stimulus"":""img/red_ll/8.jpg"",""time"":409},{""stimulus"":""img/red_ll/9.jpg"",""time"":457},{""stimulus"":""img/red_ll/10.jpg"",""time"":503},{""stimulus"":""img/red_ll/11.jpg"",""time"":566}]","[]"
"","","","choice","","63e857fe022e159687d56f41","bdp_lott","Mon Mar 27 2023 16:40:50 GMT-0700 (Pacific Daylight Time)","384226","red","green","image-keyboard-response","9","88340","0.0-5.0-1.2","","2625","","img/red_ll/choose11.jpg","2","223","red","0.5","0.5","0.5","w","",""
"","","","","","63e857fe022e159687d56f41","bdp_lott","Mon Mar 27 2023 16:40:50 GMT-0700 (Pacific Daylight Time)","384226","red","green","animation","10","88950","0.0-5.0-2.2","","","","","","223","","","","","","[{""stimulus"":""img/red_lw/1.jpg"",""time"":60},{""stimulus"":""img/red_lw/2.jpg"",""time"":108},{""stimulus"":""img/red_lw/3.jpg"",""time"":154},{""stimulus"":""img/red_lw/4.jpg"",""time"":202},{""stimulus"":""img/red_lw/5.jpg"",""time"":265},{""stimulus"":""img/red_lw/6.jpg"",""time"":312},{""stimulus"":""img/red_lw/7.jpg"",""time"":358},{""stimulus"":""img/red_lw/8.jpg"",""time"":406},{""stimulus"":""img/red_lw/9.jpg"",""time"":453},{""stimulus"":""img/red_lw/10.jpg"",""time"":517},{""stimulus"":""img/red_lw/11.jpg"",""time"":563}]","[]"
"","","","choice","","63e857fe022e159687d56f41","bdp_lott","Mon Mar 27 2023 16:40:50 GMT-0700 (Pacific Daylight Time)","384226","red","green","image-keyboard-response","11","91902","0.0-5.0-1.3","","2950","","img/red_lw/choose11.jpg","2","222","red","0.5","0.5","0.5","w","",""
"","","","","","63e857fe022e159687d56f41","bdp_lott","Mon Mar 27 2023 16:40:50 GMT-0700 (Pacific Daylight Time)","384226","red","green","animation","12","92518","0.0-5.0-2.3","","","","","","222","","","","","","[{""stimulus"":""img/red_lw/1.jpg"",""time"":67},{""stimulus"":""img/red_lw/2.jpg"",""time"":113},{""stimulus"":""img/red_lw/3.jpg"",""time"":160},{""stimulus"":""img/red_lw/4.jpg"",""time"":206},{""stimulus"":""img/red_lw/5.jpg"",""time"":253},{""stimulus"":""img/red_lw/6.jpg"",""time"":302},{""stimulus"":""img/red_lw/7.jpg"",""time"":365},{""stimulus"":""img/red_lw/8.jpg"",""time"":412},{""stimulus"":""img/red_lw/9.jpg"",""time"":457},{""stimulus"":""img/red_lw/10.jpg"",""time"":505},{""stimulus"":""img/red_lw/11.jpg"",""time"":552}]","[]"
"","","","choice","","63e857fe022e159687d56f41","bdp_lott","Mon Mar 27 2023 16:40:50 GMT-0700 (Pacific Daylight Time)","384226","red","green","image-keyboard-response","13","94526","0.0-5.0-1.4","","2006","","img/red_lw/choose11.jpg","2","221","red","0.5","0.5","0.5","w","",""
"","","","","","63e857fe022e159687d56f41","bdp_lott","Mon Mar 27 2023 16:40:50 GMT-0700 (Pacific Daylight Time)","384226","red","green","animation","14","95132","0.0-5.0-2.4","","","","","","221","","","","","","[{""stimulus"":""img/red_lw/1.jpg"",""time"":66},{""stimulus"":""img/red_lw/2.jpg"",""time"":114},{""stimulus"":""img/red_lw/3.jpg"",""time"":161},{""stimulus"":""img/red_lw/4.jpg"",""time"":209},{""stimulus"":""img/red_lw/5.jpg"",""time"":256},{""stimulus"":""img/red_lw/6.jpg"",""time"":304},{""stimulus"":""img/red_lw/7.jpg"",""time"":351},{""stimulus"":""img/red_lw/8.jpg"",""time"":416},{""stimulus"":""img/red_lw/9.jpg"",""time"":462},{""stimulus"":""img/red_lw/10.jpg"",""time"":510},{""stimulus"":""img/red_lw/11.jpg"",""time"":558}]","[]"
"","","","choice","","63e857fe022e159687d56f41","bdp_lott","Mon Mar 27 2023 16:40:50 GMT-0700 (Pacific Daylight Time)","384226","red","green","image-keyboard-response","15","96955","0.0-5.0-1.5","","1821","","img/red_lw/choose11.jpg","2","220","red","0.5","0.5","0.5","w","",""
"","","","","","63e857fe022e159687d56f41","bdp_lott","Mon Mar 27 2023 16:40:50 GMT-0700 (Pacific Daylight Time)","384226","red","green","animation","16","97562","0.0-5.0-2.5","","","","","","220","","","","","","[{""stimulus"":""img/red_lw/1.jpg"",""time"":55},{""stimulus"":""img/red_lw/2.jpg"",""time"":104},{""stimulus"":""img/red_lw/3.jpg"",""time"":166},{""stimulus"":""img/red_lw/4.jpg"",""time"":215},{""stimulus"":""img/red_lw/5.jpg"",""time"":262},{""stimulus"":""img/red_lw/6.jpg"",""time"":308},{""stimulus"":""img/red_lw/7.jpg"",""time"":356},{""stimulus"":""img/red_lw/8.jpg"",""time"":403},{""stimulus"":""img/red_lw/9.jpg"",""time"":467},{""stimulus"":""img/red_lw/10.jpg"",""time"":513},{""stimulus"":""img/red_lw/11.jpg"",""time"":561}]","[]"
"","","","choice","","63e857fe022e159687d56f41","bdp_lott","Mon Mar 27 2023 16:40:50 GMT-0700 (Pacific Daylight Time)","384226","red","green","image-keyboard-response","17","99101","0.0-5.0-1.6","","1537","","img/red_lw/choose11.jpg","2","219","red","0.5","0.5","0.5","w","",""
"","","","","","63e857fe022e159687d56f41","bdp_lott","Mon Mar 27 2023 16:40:50 GMT-0700 (Pacific Daylight Time)","384226","red","green","animation","18","99707","0.0-5.0-2.6","","","","","","219","","","","","","[{""stimulus"":""img/red_lw/1.jpg"",""time"":52},{""stimulus"":""img/red_lw/2.jpg"",""time"":115},{""stimulus"":""img/red_lw/3.jpg"",""time"":155},{""stimulus"":""img/red_lw/4.jpg"",""time"":209},{""stimulus"":""img/red_lw/5.jpg"",""time"":258},{""stimulus"":""img/red_lw/6.jpg"",""time"":306},{""stimulus"":""img/red_lw/7.jpg"",""time"":354},{""stimulus"":""img/red_lw/8.jpg"",""time"":417},{""stimulus"":""img/red_lw/9.jpg"",""time"":453},{""stimulus"":""img/red_lw/10.jpg"",""time"":513},{""stimulus"":""img/red_lw/11.jpg"",""time"":559}]","[]"
"","","","choice","","63e857fe022e159687d56f41","bdp_lott","Mon Mar 27 2023 16:40:50 GMT-0700 (Pacific Daylight Time)","384226","red","green","image-keyboard-response","19","101158","0.0-5.0-1.7","","1450","","img/red_lw/choose11.jpg","2","218","red","0.5","0.5","0.5","l","",""
"","","","","","63e857fe022e159687d56f41","bdp_lott","Mon Mar 27 2023 16:40:50 GMT-0700 (Pacific Daylight Time)","384226","red","green","animation","20","101760","0.0-5.0-2.7","","","","","","218","","","","","","[{""stimulus"":""img/red_ll/1.jpg"",""time"":61},{""stimulus"":""img/red_ll/2.jpg"",""time"":108},{""stimulus"":""img/red_ll/3.jpg"",""time"":155},{""stimulus"":""img/red_ll/4.jpg"",""time"":203},{""stimulus"":""img/red_ll/5.jpg"",""time"":250},{""stimulus"":""img/red_ll/6.jpg"",""time"":315},{""stimulus"":""img/red_ll/7.jpg"",""time"":362},{""stimulus"":""img/red_ll/8.jpg"",""time"":411},{""stimulus"":""img/red_ll/9.jpg"",""time"":458},{""stimulus"":""img/red_ll/10.jpg"",""time"":506},{""stimulus"":""img/red_ll/11.jpg"",""time"":553}]","[]"
"","","","choice","","63e857fe022e159687d56f41","bdp_lott","Mon Mar 27 2023 16:40:50 GMT-0700 (Pacific Daylight Time)","384226","red","green","image-keyboard-response","21","103207","0.0-5.0-1.8","","1445","","img/red_ll/choose11.jpg","2","217","red","0.5","0.5","0.5","w","",""
"","","","","","63e857fe022e159687d56f41","bdp_lott","Mon Mar 27 2023 16:40:50 GMT-0700 (Pacific Daylight Time)","384226","red","green","animation","22","103816","0.0-5.0-2.8","","","","","","217","","","","","","[{""stimulus"":""img/red_lw/1.jpg"",""time"":53},{""stimulus"":""img/red_lw/2.jpg"",""time"":115},{""stimulus"":""img/red_lw/3.jpg"",""time"":163},{""stimulus"":""img/red_lw/4.jpg"",""time"":211},{""stimulus"":""img/red_lw/5.jpg"",""time"":258},{""stimulus"":""img/red_lw/6.jpg"",""time"":307},{""stimulus"":""img/red_lw/7.jpg"",""time"":354},{""stimulus"":""img/red_lw/8.jpg"",""time"":403},{""stimulus"":""img/red_lw/9.jpg"",""time"":466},{""stimulus"":""img/red_lw/10.jpg"",""time"":514},{""stimulus"":""img/red_lw/11.jpg"",""time"":563}]","[]"
"","","","choice","","63e857fe022e159687d56f41","bdp_lott","Mon Mar 27 2023 16:40:50 GMT-0700 (Pacific Daylight Time)","384226","red","green","image-keyboard-response","23","105109","0.0-5.0-1.9","","1291","","img/red_lw/choose11.jpg","2","216","red","0.5","0.5","0.5","l","",""
"","","","","","63e857fe022e159687d56f41","bdp_lott","Mon Mar 27 2023 16:40:50 GMT-0700 (Pacific Daylight Time)","384226","red","green","animation","24","105712","0.0-5.0-2.9","","","","","","216","","","","","","[{""stimulus"":""img/red_ll/1.jpg"",""time"":66},{""stimulus"":""img/red_ll/2.jpg"",""time"":113},{""stimulus"":""img/red_ll/3.jpg"",""time"":158},{""stimulus"":""img/red_ll/4.jpg"",""time"":205},{""stimulus"":""img/red_ll/5.jpg"",""time"":254},{""stimulus"":""img/red_ll/6.jpg"",""time"":318},{""stimulus"":""img/red_ll/7.jpg"",""time"":364},{""stimulus"":""img/red_ll/8.jpg"",""time"":412},{""stimulus"":""img/red_ll/9.jpg"",""time"":459},{""stimulus"":""img/red_ll/10.jpg"",""time"":507},{""stimulus"":""img/red_ll/11.jpg"",""time"":555}]","[]"
"","","","choice","","63e857fe022e159687d56f41","bdp_lott","Mon Mar 27 2023 16:40:50 GMT-0700 (Pacific Daylight Time)","384226","red","green","image-keyboard-response","25","106850","0.0-5.0-1.10","","1137","","img/red_ll/choose11.jpg","2","215","red","0.5","0.5","0.5","l","",""
"","","","","","63e857fe022e159687d56f41","bdp_lott","Mon Mar 27 2023 16:40:50 GMT-0700 (Pacific Daylight Time)","384226","red","green","animation","26","107453","0.0-5.0-2.10","","","","","","215","","","","","","[{""stimulus"":""img/red_ll/1.jpg"",""time"":62},{""stimulus"":""img/red_ll/2.jpg"",""time"":110},{""stimulus"":""img/red_ll/3.jpg"",""time"":159},{""stimulus"":""img/red_ll/4.jpg"",""time"":206},{""stimulus"":""img/red_ll/5.jpg"",""time"":253},{""stimulus"":""img/red_ll/6.jpg"",""time"":316},{""stimulus"":""img/red_ll/7.jpg"",""time"":364},{""stimulus"":""img/red_ll/8.jpg"",""time"":412},{""stimulus"":""img/red_ll/9.jpg"",""time"":461},{""stimulus"":""img/red_ll/10.jpg"",""time"":508},{""stimulus"":""img/red_ll/11.jpg"",""time"":556}]","[]"
"","","","choice","","63e857fe022e159687d56f41","bdp_lott","Mon Mar 27 2023 16:40:50 GMT-0700 (Pacific Daylight Time)","384226","red","green","image-keyboard-response","27","108293","0.0-5.0-1.11","","838","","img/red_ll/choose11.jpg","2","214","red","0.5","0.5","0.5","l","",""
"","","","","","63e857fe022e159687d56f41","bdp_lott","Mon Mar 27 2023 16:40:50 GMT-0700 (Pacific Daylight Time)","384226","red","green","animation","28","108908","0.0-5.0-2.11","","","","","","214","","","","","","[{""stimulus"":""img/red_ll/1.jpg"",""time"":63},{""stimulus"":""img/red_ll/2.jpg"",""time"":111},{""stimulus"":""img/red_ll/3.jpg"",""time"":156},{""stimulus"":""img/red_ll/4.jpg"",""time"":205},{""stimulus"":""img/red_ll/5.jpg"",""time"":253},{""stimulus"":""img/red_ll/6.jpg"",""time"":316},{""stimulus"":""img/red_ll/7.jpg"",""time"":364},{""stimulus"":""img/red_ll/8.jpg"",""time"":411},{""stimulus"":""img/red_ll/9.jpg"",""time"":458},{""stimulus"":""img/red_ll/10.jpg"",""time"":505},{""stimulus"":""img/red_ll/11.jpg"",""time"":551}]","[]"
"","","","choice","","63e857fe022e159687d56f41","bdp_lott","Mon Mar 27 2023 16:40:50 GMT-0700 (Pacific Daylight Time)","384226","red","green","image-keyboard-response","29","109522","0.0-5.0-1.12","","612","","img/red_ll/choose11.jpg","2","213","red","0.5","0.5","0.5","l","",""
"","","","","","63e857fe022e159687d56f41","bdp_lott","Mon Mar 27 2023 16:40:50 GMT-0700 (Pacific Daylight Time)","384226","red","green","animation","30","110125","0.0-5.0-2.12","","","","","","213","","","","","","[{""stimulus"":""img/red_ll/1.jpg"",""time"":64},{""stimulus"":""img/red_ll/2.jpg"",""time"":112},{""stimulus"":""img/red_ll/3.jpg"",""time"":159},{""stimulus"":""img/red_ll/4.jpg"",""time"":206},{""stimulus"":""img/red_ll/5.jpg"",""time"":254},{""stimulus"":""img/red_ll/6.jpg"",""time"":303},{""stimulus"":""img/red_ll/7.jpg"",""time"":366},{""stimulus"":""img/red_ll/8.jpg"",""time"":414},{""stimulus"":""img/red_ll/9.jpg"",""time"":461},{""stimulus"":""img/red_ll/10.jpg"",""time"":509},{""stimulus"":""img/red_ll/11.jpg"",""time"":556}]","[]"
"","","","choice","","63e857fe022e159687d56f41","bdp_lott","Mon Mar 27 2023 16:40:50 GMT-0700 (Pacific Daylight Time)","384226","red","green","image-keyboard-response","31","110515","0.0-5.0-1.13","","387","","img/red_ll/choose11.jpg","1","212","green","0.5","0.5","0.5","w","",""
"","","","","","63e857fe022e159687d56f41","bdp_lott","Mon Mar 27 2023 16:40:50 GMT-0700 (Pacific Daylight Time)","384226","red","green","animation","32","111123","0.0-5.0-2.13","","","","","","212","","","","","","[{""stimulus"":""img/green_wl/1.jpg"",""time"":53},{""stimulus"":""img/green_wl/2.jpg"",""time"":116},{""stimulus"":""img/green_wl/3.jpg"",""time"":163},{""stimulus"":""img/green_wl/4.jpg"",""time"":205},{""stimulus"":""img/green_wl/5.jpg"",""time"":259},{""stimulus"":""img/green_wl/6.jpg"",""time"":306},{""stimulus"":""img/green_wl/7.jpg"",""time"":352},{""stimulus"":""img/green_wl/8.jpg"",""time"":401},{""stimulus"":""img/green_wl/9.jpg"",""time"":464},{""stimulus"":""img/green_wl/10.jpg"",""time"":512},{""stimulus"":""img/green_wl/11.jpg"",""time"":559}]","[]"
"","","","choice","","63e857fe022e159687d56f41","bdp_lott","Mon Mar 27 2023 16:40:50 GMT-0700 (Pacific Daylight Time)","384226","red","green","image-keyboard-response","33","111877","0.0-5.0-1.14","","750","","img/green_wl/choose11.jpg","1","211","green","0.5","0.5","0.5","l","",""
"","","","","","63e857fe022e159687d56f41","bdp_lott","Mon Mar 27 2023 16:40:50 GMT-0700 (Pacific Daylight Time)","384226","red","green","animation","34","112484","0.0-5.0-2.14","","","","","","211","","","","","","[{""stimulus"":""img/green_ll/1.jpg"",""time"":52},{""stimulus"":""img/green_ll/2.jpg"",""time"":115},{""stimulus"":""img/green_ll/3.jpg"",""time"":151},{""stimulus"":""img/green_ll/4.jpg"",""time"":211},{""stimulus"":""img/green_ll/5.jpg"",""time"":258},{""stimulus"":""img/green_ll/6.jpg"",""time"":307},{""stimulus"":""img/green_ll/7.jpg"",""time"":353},{""stimulus"":""img/green_ll/8.jpg"",""time"":401},{""stimulus"":""img/green_ll/9.jpg"",""time"":466},{""stimulus"":""img/green_ll/10.jpg"",""time"":502},{""stimulus"":""img/green_ll/11.jpg"",""time"":560}]","[]"
"","","","choice","","63e857fe022e159687d56f41","bdp_lott","Mon Mar 27 2023 16:40:50 GMT-0700 (Pacific Daylight Time)","384226","red","green","image-keyboard-response","35","113225","0.0-5.0-1.15","","739","","img/green_ll/choose11.jpg","1","210","green","0.5","0.5","0.5","l","",""
"","","","","","63e857fe022e159687d56f41","bdp_lott","Mon Mar 27 2023 16:40:50 GMT-0700 (Pacific Daylight Time)","384226","red","green","animation","36","113879","0.0-5.0-2.15","","","","","","210","","","","","","[{""stimulus"":""img/green_ll/1.jpg"",""time"":52},{""stimulus"":""img/green_ll/2.jpg"",""time"":152},{""stimulus"":""img/green_ll/3.jpg"",""time"":210},{""stimulus"":""img/green_ll/4.jpg"",""time"":258},{""stimulus"":""img/green_ll/5.jpg"",""time"":306},{""stimulus"":""img/green_ll/6.jpg"",""time"":353},{""stimulus"":""img/green_ll/7.jpg"",""time"":417},{""stimulus"":""img/green_ll/8.jpg"",""time"":464},{""stimulus"":""img/green_ll/9.jpg"",""time"":512},{""stimulus"":""img/green_ll/10.jpg"",""time"":559},{""stimulus"":""img/green_ll/11.jpg"",""time"":606}]","[]"
"","","","choice","","63e857fe022e159687d56f41","bdp_lott","Mon Mar 27 2023 16:40:50 GMT-0700 (Pacific Daylight Time)","384226","red","green","image-keyboard-response","37","114445","0.0-5.0-1.16","","563","","img/green_ll/choose11.jpg","1","209","green","0.5","0.5","0.5","w","",""
"","","","","","63e857fe022e159687d56f41","bdp_lott","Mon Mar 27 2023 16:40:50 GMT-0700 (Pacific Daylight Time)","384226","red","green","animation","38","115050","0.0-5.0-2.16","","","","","","209","","","","","","[{""stimulus"":""img/green_wl/1.jpg"",""time"":66},{""stimulus"":""img/green_wl/2.jpg"",""time"":114},{""stimulus"":""img/green_wl/3.jpg"",""time"":161},{""stimulus"":""img/green_wl/4.jpg"",""time"":208},{""stimulus"":""img/green_wl/5.jpg"",""time"":256},{""stimulus"":""img/green_wl/6.jpg"",""time"":304},{""stimulus"":""img/green_wl/7.jpg"",""time"":352},{""stimulus"":""img/green_wl/8.jpg"",""time"":415},{""stimulus"":""img/green_wl/9.jpg"",""time"":463},{""stimulus"":""img/green_wl/10.jpg"",""time"":511},{""stimulus"":""img/green_wl/11.jpg"",""time"":558}]","[]"
"","","","choice","","63e857fe022e159687d56f41","bdp_lott","Mon Mar 27 2023 16:40:50 GMT-0700 (Pacific Daylight Time)","384226","red","green","image-keyboard-response","39","115740","0.0-5.0-1.17","","687","","img/green_wl/choose11.jpg","1","208","green","0.5","0.5","0.5","w","",""
"","","","","","63e857fe022e159687d56f41","bdp_lott","Mon Mar 27 2023 16:40:50 GMT-0700 (Pacific Daylight Time)","384226","red","green","animation","40","116348","0.0-5.0-2.17","","","","","","208","","","","","","[{""stimulus"":""img/green_wl/1.jpg"",""time"":55},{""stimulus"":""img/green_wl/2.jpg"",""time"":103},{""stimulus"":""img/green_wl/3.jpg"",""time"":166},{""stimulus"":""img/green_wl/4.jpg"",""time"":214},{""stimulus"":""img/green_wl/5.jpg"",""time"":262},{""stimulus"":""img/green_wl/6.jpg"",""time"":310},{""stimulus"":""img/green_wl/7.jpg"",""time"":357},{""stimulus"":""img/green_wl/8.jpg"",""time"":405},{""stimulus"":""img/green_wl/9.jpg"",""time"":467},{""stimulus"":""img/green_wl/10.jpg"",""time"":516},{""stimulus"":""img/green_wl/11.jpg"",""time"":567}]","[]"
"","","","choice","","63e857fe022e159687d56f41","bdp_lott","Mon Mar 27 2023 16:40:50 GMT-0700 (Pacific Daylight Time)","384226","red","green","image-keyboard-response","41","116941","0.0-5.0-1.18","","591","","img/green_wl/choose11.jpg","1","207","green","0.5","0.5","0.5","w","",""
"","","","","","63e857fe022e159687d56f41","bdp_lott","Mon Mar 27 2023 16:40:50 GMT-0700 (Pacific Daylight Time)","384226","red","green","animation","42","117551","0.0-5.0-2.18","","","","","","207","","","","","","[{""stimulus"":""img/green_wl/1.jpg"",""time"":58},{""stimulus"":""img/green_wl/2.jpg"",""time"":106},{""stimulus"":""img/green_wl/3.jpg"",""time"":154},{""stimulus"":""img/green_wl/4.jpg"",""time"":216},{""stimulus"":""img/green_wl/5.jpg"",""time"":264},{""stimulus"":""img/green_wl/6.jpg"",""time"":310},{""stimulus"":""img/green_wl/7.jpg"",""time"":358},{""stimulus"":""img/green_wl/8.jpg"",""time"":405},{""stimulus"":""img/green_wl/9.jpg"",""time"":453},{""stimulus"":""img/green_wl/10.jpg"",""time"":516},{""stimulus"":""img/green_wl/11.jpg"",""time"":564}]","[]"
"","","","choice","","63e857fe022e159687d56f41","bdp_lott","Mon Mar 27 2023 16:40:50 GMT-0700 (Pacific Daylight Time)","384226","red","green","image-keyboard-response","43","117956","0.0-5.0-1.19","","403","","img/green_wl/choose11.jpg","1","206","green","0.5","0.5","0.5","w","",""
"","","","","","63e857fe022e159687d56f41","bdp_lott","Mon Mar 27 2023 16:40:50 GMT-0700 (Pacific Daylight Time)","384226","red","green","animation","44","121955","0.0-5.0-2.19","","","","","","206","","","","","","[{""stimulus"":""img/green_wl/1.jpg"",""time"":57},{""stimulus"":""img/green_wl/2.jpg"",""time"":103},{""stimulus"":""img/green_wl/3.jpg"",""time"":166},{""stimulus"":""img/green_wl/4.jpg"",""time"":215},{""stimulus"":""img/green_wl/5.jpg"",""time"":261},{""stimulus"":""img/green_wl/6.jpg"",""time"":309},{""stimulus"":""img/green_wl/7.jpg"",""time"":357},{""stimulus"":""img/green_wl/8.jpg"",""time"":405},{""stimulus"":""img/green_wl/9.jpg"",""time"":1004},{""stimulus"":""img/green_wl/10.jpg"",""time"":1995},{""stimulus"":""img/green_wl/11.jpg"",""time"":3005}]","[]"
"","","","choice","","63e857fe022e159687d56f41","bdp_lott","Mon Mar 27 2023 16:40:50 GMT-0700 (Pacific Daylight Time)","384226","red","green","image-keyboard-response","45","122191","0.0-5.0-1.20","","231","","img/green_wl/choose11.jpg","1","205","green","0.5","0.5","0.5","l","",""
"","","","","","63e857fe022e159687d56f41","bdp_lott","Mon Mar 27 2023 16:40:50 GMT-0700 (Pacific Daylight Time)","384226","red","green","animation","46","122794","0.0-5.0-2.20","","","","","","205","","","","","","[{""stimulus"":""img/green_ll/1.jpg"",""time"":67},{""stimulus"":""img/green_ll/2.jpg"",""time"":114},{""stimulus"":""img/green_ll/3.jpg"",""time"":166},{""stimulus"":""img/green_ll/4.jpg"",""time"":207},{""stimulus"":""img/green_ll/5.jpg"",""time"":256},{""stimulus"":""img/green_ll/6.jpg"",""time"":303},{""stimulus"":""img/green_ll/7.jpg"",""time"":365},{""stimulus"":""img/green_ll/8.jpg"",""time"":413},{""stimulus"":""img/green_ll/9.jpg"",""time"":462},{""stimulus"":""img/green_ll/10.jpg"",""time"":510},{""stimulus"":""img/green_ll/11.jpg"",""time"":558}]","[]"
"","","","choice","","63e857fe022e159687d56f41","bdp_lott","Mon Mar 27 2023 16:40:50 GMT-0700 (Pacific Daylight Time)","384226","red","green","image-keyboard-response","47","123462","0.0-5.0-1.21","","666","","img/green_ll/choose11.jpg","1","204","green","0.5","0.5","0.5","w","",""
"","","","","","63e857fe022e159687d56f41","bdp_lott","Mon Mar 27 2023 16:40:50 GMT-0700 (Pacific Daylight Time)","384226","red","green","animation","48","124073","0.0-5.0-2.21","","","","","","204","","","","","","[{""stimulus"":""img/green_wl/1.jpg"",""time"":59},{""stimulus"":""img/green_wl/2.jpg"",""time"":105},{""stimulus"":""img/green_wl/3.jpg"",""time"":152},{""stimulus"":""img/green_wl/4.jpg"",""time"":216},{""stimulus"":""img/green_wl/5.jpg"",""time"":263},{""stimulus"":""img/green_wl/6.jpg"",""time"":310},{""stimulus"":""img/green_wl/7.jpg"",""time"":358},{""stimulus"":""img/green_wl/8.jpg"",""time"":406},{""stimulus"":""img/green_wl/9.jpg"",""time"":452},{""stimulus"":""img/green_wl/10.jpg"",""time"":501},{""stimulus"":""img/green_wl/11.jpg"",""time"":565}]","[]"
"","","","choice","","63e857fe022e159687d56f41","bdp_lott","Mon Mar 27 2023 16:40:50 GMT-0700 (Pacific Daylight Time)","384226","red","green","image-keyboard-response","49","124664","0.0-5.0-1.22","","591","","img/green_wl/choose11.jpg","1","203","green","0.5","0.5","0.5","w","",""
"","","","","","63e857fe022e159687d56f41","bdp_lott","Mon Mar 27 2023 16:40:50 GMT-0700 (Pacific Daylight Time)","384226","red","green","animation","50","125273","0.0-5.0-2.22","","","","","","203","","","","","","[{""stimulus"":""img/green_wl/1.jpg"",""time"":55},{""stimulus"":""img/green_wl/2.jpg"",""time"":104},{""stimulus"":""img/green_wl/3.jpg"",""time"":153},{""stimulus"":""img/green_wl/4.jpg"",""time"":215},{""stimulus"":""img/green_wl/5.jpg"",""time"":262},{""stimulus"":""img/green_wl/6.jpg"",""time"":309},{""stimulus"":""img/green_wl/7.jpg"",""time"":356},{""stimulus"":""img/green_wl/8.jpg"",""time"":403},{""stimulus"":""img/green_wl/9.jpg"",""time"":466},{""stimulus"":""img/green_wl/10.jpg"",""time"":502},{""stimulus"":""img/green_wl/11.jpg"",""time"":561}]","[]"
"","","","choice","","63e857fe022e159687d56f41","bdp_lott","Mon Mar 27 2023 16:40:50 GMT-0700 (Pacific Daylight Time)","384226","red","green","image-keyboard-response","51","125672","0.0-5.0-1.23","","395","","img/green_wl/choose11.jpg","1","202","green","0.5","0.5","0.5","l","",""
"","","","","","63e857fe022e159687d56f41","bdp_lott","Mon Mar 27 2023 16:40:50 GMT-0700 (Pacific Daylight Time)","384226","red","green","animation","52","126286","0.0-5.0-2.23","","","","","","202","","","","","","[{""stimulus"":""img/green_ll/1.jpg"",""time"":62},{""stimulus"":""img/green_ll/2.jpg"",""time"":109},{""stimulus"":""img/green_ll/3.jpg"",""time"":155},{""stimulus"":""img/green_ll/4.jpg"",""time"":203},{""stimulus"":""img/green_ll/5.jpg"",""time"":266},{""stimulus"":""img/green_ll/6.jpg"",""time"":313},{""stimulus"":""img/green_ll/7.jpg"",""time"":362},{""stimulus"":""img/green_ll/8.jpg"",""time"":409},{""stimulus"":""img/green_ll/9.jpg"",""time"":457},{""stimulus"":""img/green_ll/10.jpg"",""time"":506},{""stimulus"":""img/green_ll/11.jpg"",""time"":554}]","[]"
"","","","choice","","63e857fe022e159687d56f41","bdp_lott","Mon Mar 27 2023 16:40:50 GMT-0700 (Pacific Daylight Time)","384226","red","green","image-keyboard-response","53","127052","0.0-5.0-1.24","","765","","img/green_ll/choose11.jpg","1","201","green","0.5","0.5","0.5","l","",""
"","","","","","63e857fe022e159687d56f41","bdp_lott","Mon Mar 27 2023 16:40:50 GMT-0700 (Pacific Daylight Time)","384226","red","green","animation","54","127666","0.0-5.0-2.24","","","","","","201","","","","","","[{""stimulus"":""img/green_ll/1.jpg"",""time"":57},{""stimulus"":""img/green_ll/2.jpg"",""time"":105},{""stimulus"":""img/green_ll/3.jpg"",""time"":153},{""stimulus"":""img/green_ll/4.jpg"",""time"":217},{""stimulus"":""img/green_ll/5.jpg"",""time"":264},{""stimulus"":""img/green_ll/6.jpg"",""time"":312},{""stimulus"":""img/green_ll/7.jpg"",""time"":358},{""stimulus"":""img/green_ll/8.jpg"",""time"":406},{""stimulus"":""img/green_ll/9.jpg"",""time"":454},{""stimulus"":""img/green_ll/10.jpg"",""time"":502},{""stimulus"":""img/green_ll/11.jpg"",""time"":565}]","[]"
"","","","choice","","63e857fe022e159687d56f41","bdp_lott","Mon Mar 27 2023 16:40:50 GMT-0700 (Pacific Daylight Time)","384226","red","green","image-keyboard-response","55","128118","0.0-5.0-1.25","","449","","img/green_ll/choose11.jpg","1","200","green","0.5","0.5","0.5","l","",""
"","","","","","63e857fe022e159687d56f41","bdp_lott","Mon Mar 27 2023 16:40:50 GMT-0700 (Pacific Daylight Time)","384226","red","green","animation","56","128724","0.0-5.0-2.25","","","","","","200","","","","","","[{""stimulus"":""img/green_ll/1.jpg"",""time"":52},{""stimulus"":""img/green_ll/2.jpg"",""time"":117},{""stimulus"":""img/green_ll/3.jpg"",""time"":161},{""stimulus"":""img/green_ll/4.jpg"",""time"":209},{""stimulus"":""img/green_ll/5.jpg"",""time"":257},{""stimulus"":""img/green_ll/6.jpg"",""time"":305},{""stimulus"":""img/green_ll/7.jpg"",""time"":353},{""stimulus"":""img/green_ll/8.jpg"",""time"":401},{""stimulus"":""img/green_ll/9.jpg"",""time"":465},{""stimulus"":""img/green_ll/10.jpg"",""time"":512},{""stimulus"":""img/green_ll/11.jpg"",""time"":559}]","[]"
"","","","choice","","63e857fe022e159687d56f41","bdp_lott","Mon Mar 27 2023 16:40:50 GMT-0700 (Pacific Daylight Time)","384226","red","green","image-keyboard-response","57","129441","0.0-5.0-1.26","","714","","img/green_ll/choose11.jpg","1","199","green","0.5","0.5","0.5","l","",""
"","","","","","63e857fe022e159687d56f41","bdp_lott","Mon Mar 27 2023 16:40:50 GMT-0700 (Pacific Daylight Time)","384226","red","green","animation","58","130050","0.0-5.0-2.26","","","","","","199","","","","","","[{""stimulus"":""img/green_ll/1.jpg"",""time"":59},{""stimulus"":""img/green_ll/2.jpg"",""time"":107},{""stimulus"":""img/green_ll/3.jpg"",""time"":154},{""stimulus"":""img/green_ll/4.jpg"",""time"":217},{""stimulus"":""img/green_ll/5.jpg"",""time"":263},{""stimulus"":""img/green_ll/6.jpg"",""time"":311},{""stimulus"":""img/green_ll/7.jpg"",""time"":358},{""stimulus"":""img/green_ll/8.jpg"",""time"":404},{""stimulus"":""img/green_ll/9.jpg"",""time"":452},{""stimulus"":""img/green_ll/10.jpg"",""time"":515},{""stimulus"":""img/green_ll/11.jpg"",""time"":561}]","[]"
"","","","choice","","63e857fe022e159687d56f41","bdp_lott","Mon Mar 27 2023 16:40:50 GMT-0700 (Pacific Daylight Time)","384226","red","green","image-keyboard-response","59","130518","0.0-5.0-1.27","","464","","img/green_ll/choose11.jpg","2","198","red","0.5","0.5","0.5","l","",""
"","","","","","63e857fe022e159687d56f41","bdp_lott","Mon Mar 27 2023 16:40:50 GMT-0700 (Pacific Daylight Time)","384226","red","green","animation","60","131119","0.0-5.0-2.27","","","","","","198","","","","","","[{""stimulus"":""img/red_ll/1.jpg"",""time"":68},{""stimulus"":""img/red_ll/2.jpg"",""time"":115},{""stimulus"":""img/red_ll/3.jpg"",""time"":161},{""stimulus"":""img/red_ll/4.jpg"",""time"":209},{""stimulus"":""img/red_ll/5.jpg"",""time"":255},{""stimulus"":""img/red_ll/6.jpg"",""time"":303},{""stimulus"":""img/red_ll/7.jpg"",""time"":365},{""stimulus"":""img/red_ll/8.jpg"",""time"":413},{""stimulus"":""img/red_ll/9.jpg"",""time"":459},{""stimulus"":""img/red_ll/10.jpg"",""time"":507},{""stimulus"":""img/red_ll/11.jpg"",""time"":553}]","[]"
"","","","choice","","63e857fe022e159687d56f41","bdp_lott","Mon Mar 27 2023 16:40:50 GMT-0700 (Pacific Daylight Time)","384226","red","green","image-keyboard-response","61","131810","0.0-5.0-1.28","","689","","img/red_ll/choose11.jpg","2","197","red","0.5","0.5","0.5","w","",""
"","","","","","63e857fe022e159687d56f41","bdp_lott","Mon Mar 27 2023 16:40:50 GMT-0700 (Pacific Daylight Time)","384226","red","green","animation","62","136690","0.0-5.0-2.28","","","","","","197","","","","","","[{""stimulus"":""img/red_lw/1.jpg"",""time"":66},{""stimulus"":""img/red_lw/2.jpg"",""time"":113},{""stimulus"":""img/red_lw/3.jpg"",""time"":161},{""stimulus"":""img/red_lw/4.jpg"",""time"":208},{""stimulus"":""img/red_lw/5.jpg"",""time"":256},{""stimulus"":""img/red_lw/6.jpg"",""time"":302},{""stimulus"":""img/red_lw/7.jpg"",""time"":366},{""stimulus"":""img/red_lw/8.jpg"",""time"":1142},{""stimulus"":""img/red_lw/9.jpg"",""time"":2153},{""stimulus"":""img/red_lw/10.jpg"",""time"":3142},{""stimulus"":""img/red_lw/11.jpg"",""time"":4150}]","[]"
"","","","choice","","63e857fe022e159687d56f41","bdp_lott","Mon Mar 27 2023 16:40:50 GMT-0700 (Pacific Daylight Time)","384226","red","green","image-keyboard-response","63","137346","0.0-5.0-1.29","","653","","img/red_lw/choose11.jpg","2","196","red","0.5","0.5","0.5","w","",""
"","","","","","63e857fe022e159687d56f41","bdp_lott","Mon Mar 27 2023 16:40:50 GMT-0700 (Pacific Daylight Time)","384226","red","green","animation","64","137955","0.0-5.0-2.29","","","","","","196","","","","","","[{""stimulus"":""img/red_lw/1.jpg"",""time"":58},{""stimulus"":""img/red_lw/2.jpg"",""time"":105},{""stimulus"":""img/red_lw/3.jpg"",""time"":153},{""stimulus"":""img/red_lw/4.jpg"",""time"":216},{""stimulus"":""img/red_lw/5.jpg"",""time"":263},{""stimulus"":""img/red_lw/6.jpg"",""time"":310},{""stimulus"":""img/red_lw/7.jpg"",""time"":357},{""stimulus"":""img/red_lw/8.jpg"",""time"":404},{""stimulus"":""img/red_lw/9.jpg"",""time"":452},{""stimulus"":""img/red_lw/10.jpg"",""time"":515},{""stimulus"":""img/red_lw/11.jpg"",""time"":562}]","[]"
"","","","choice","","63e857fe022e159687d56f41","bdp_lott","Mon Mar 27 2023 16:40:50 GMT-0700 (Pacific Daylight Time)","384226","red","green","image-keyboard-response","65","138335","0.0-5.0-1.30","","378","","img/red_lw/choose11.jpg","2","195","red","0.5","0.5","0.5","l","",""
"","","","","","63e857fe022e159687d56f41","bdp_lott","Mon Mar 27 2023 16:40:50 GMT-0700 (Pacific Daylight Time)","384226","red","green","animation","66","138945","0.0-5.0-2.30","","","","","","195","","","","","","[{""stimulus"":""img/red_ll/1.jpg"",""time"":60},{""stimulus"":""img/red_ll/2.jpg"",""time"":107},{""stimulus"":""img/red_ll/3.jpg"",""time"":154},{""stimulus"":""img/red_ll/4.jpg"",""time"":202},{""stimulus"":""img/red_ll/5.jpg"",""time"":265},{""stimulus"":""img/red_ll/6.jpg"",""time"":312},{""stimulus"":""img/red_ll/7.jpg"",""time"":360},{""stimulus"":""img/red_ll/8.jpg"",""time"":405},{""stimulus"":""img/red_ll/9.jpg"",""time"":453},{""stimulus"":""img/red_ll/10.jpg"",""time"":518},{""stimulus"":""img/red_ll/11.jpg"",""time"":563}]","[]"
"","","","choice","","63e857fe022e159687d56f41","bdp_lott","Mon Mar 27 2023 16:40:50 GMT-0700 (Pacific Daylight Time)","384226","red","green","image-keyboard-response","67","139394","0.0-5.0-1.31","","446","","img/red_ll/choose11.jpg","2","194","red","0.5","0.5","0.5","w","",""
"","","","","","63e857fe022e159687d56f41","bdp_lott","Mon Mar 27 2023 16:40:50 GMT-0700 (Pacific Daylight Time)","384226","red","green","animation","68","139997","0.0-5.0-2.31","","","","","","194","","","","","","[{""stimulus"":""img/red_lw/1.jpg"",""time"":56},{""stimulus"":""img/red_lw/2.jpg"",""time"":103},{""stimulus"":""img/red_lw/3.jpg"",""time"":165},{""stimulus"":""img/red_lw/4.jpg"",""time"":212},{""stimulus"":""img/red_lw/5.jpg"",""time"":258},{""stimulus"":""img/red_lw/6.jpg"",""time"":307},{""stimulus"":""img/red_lw/7.jpg"",""time"":353},{""stimulus"":""img/red_lw/8.jpg"",""time"":417},{""stimulus"":""img/red_lw/9.jpg"",""time"":463},{""stimulus"":""img/red_lw/10.jpg"",""time"":510},{""stimulus"":""img/red_lw/11.jpg"",""time"":556}]","[]"
"","","","choice","","63e857fe022e159687d56f41","bdp_lott","Mon Mar 27 2023 16:40:50 GMT-0700 (Pacific Daylight Time)","384226","red","green","image-keyboard-response","69","140523","0.0-5.0-1.32","","524","","img/red_lw/choose11.jpg","2","193","red","0.5","0.5","0.5","w","",""
"","","","","","63e857fe022e159687d56f41","bdp_lott","Mon Mar 27 2023 16:40:50 GMT-0700 (Pacific Daylight Time)","384226","red","green","animation","70","141128","0.0-5.0-2.32","","","","","","193","","","","","","[{""stimulus"":""img/red_lw/1.jpg"",""time"":57},{""stimulus"":""img/red_lw/2.jpg"",""time"":104},{""stimulus"":""img/red_lw/3.jpg"",""time"":168},{""stimulus"":""img/red_lw/4.jpg"",""time"":213},{""stimulus"":""img/red_lw/5.jpg"",""time"":260},{""stimulus"":""img/red_lw/6.jpg"",""time"":307},{""stimulus"":""img/red_lw/7.jpg"",""time"":354},{""stimulus"":""img/red_lw/8.jpg"",""time"":401},{""stimulus"":""img/red_lw/9.jpg"",""time"":464},{""stimulus"":""img/red_lw/10.jpg"",""time"":512},{""stimulus"":""img/red_lw/11.jpg"",""time"":559}]","[]"
"","","","choice","","63e857fe022e159687d56f41","bdp_lott","Mon Mar 27 2023 16:40:50 GMT-0700 (Pacific Daylight Time)","384226","red","green","image-keyboard-response","71","141498","0.0-5.0-1.33","","368","","img/red_lw/choose11.jpg","2","192","red","0.5","0.5","0.5","w","",""
"","","","","","63e857fe022e159687d56f41","bdp_lott","Mon Mar 27 2023 16:40:50 GMT-0700 (Pacific Daylight Time)","384226","red","green","animation","72","149829","0.0-5.0-2.33","","","","","","192","","","","","","[{""stimulus"":""img/red_lw/1.jpg"",""time"":55},{""stimulus"":""img/red_lw/2.jpg"",""time"":103},{""stimulus"":""img/red_lw/3.jpg"",""time"":160},{""stimulus"":""img/red_lw/4.jpg"",""time"":464},{""stimulus"":""img/red_lw/5.jpg"",""time"":1455},{""stimulus"":""img/red_lw/6.jpg"",""time"":2463},{""stimulus"":""img/red_lw/7.jpg"",""time"":3468},{""stimulus"":""img/red_lw/8.jpg"",""time"":4459},{""stimulus"":""img/red_lw/9.jpg"",""time"":5466},{""stimulus"":""img/red_lw/10.jpg"",""time"":6459},{""stimulus"":""img/red_lw/11.jpg"",""time"":7467}]","[]"
"","","","choice","","63e857fe022e159687d56f41","bdp_lott","Mon Mar 27 2023 16:40:50 GMT-0700 (Pacific Daylight Time)","384226","red","green","image-keyboard-response","73","150438","0.0-5.0-1.34","","606","","img/red_lw/choose11.jpg","2","191","red","0.5","0.5","0.5","l","",""
"","","","","","63e857fe022e159687d56f41","bdp_lott","Mon Mar 27 2023 16:40:50 GMT-0700 (Pacific Daylight Time)","384226","red","green","animation","74","151040","0.0-5.0-2.34","","","","","","191","","","","","","[{""stimulus"":""img/red_ll/1.jpg"",""time"":52},{""stimulus"":""img/red_ll/2.jpg"",""time"":116},{""stimulus"":""img/red_ll/3.jpg"",""time"":163},{""stimulus"":""img/red_ll/4.jpg"",""time"":210},{""stimulus"":""img/red_ll/5.jpg"",""time"":257},{""stimulus"":""img/red_ll/6.jpg"",""time"":305},{""stimulus"":""img/red_ll/7.jpg"",""time"":351},{""stimulus"":""img/red_ll/8.jpg"",""time"":415},{""stimulus"":""img/red_ll/9.jpg"",""time"":461},{""stimulus"":""img/red_ll/10.jpg"",""time"":509},{""stimulus"":""img/red_ll/11.jpg"",""time"":556}]","[]"
"","","","choice","","63e857fe022e159687d56f41","bdp_lott","Mon Mar 27 2023 16:40:50 GMT-0700 (Pacific Daylight Time)","384226","red","green","image-keyboard-response","75","151548","0.0-5.0-1.35","","506","","img/red_ll/choose11.jpg","2","190","red","0.5","0.5","0.5","l","",""
"","","","","","63e857fe022e159687d56f41","bdp_lott","Mon Mar 27 2023 16:40:50 GMT-0700 (Pacific Daylight Time)","384226","red","green","animation","76","152157","0.0-5.0-2.35","","","","","","190","","","","","","[{""stimulus"":""img/red_ll/1.jpg"",""time"":60},{""stimulus"":""img/red_ll/2.jpg"",""time"":107},{""stimulus"":""img/red_ll/3.jpg"",""time"":154},{""stimulus"":""img/red_ll/4.jpg"",""time"":217},{""stimulus"":""img/red_ll/5.jpg"",""time"":263},{""stimulus"":""img/red_ll/6.jpg"",""time"":311},{""stimulus"":""img/red_ll/7.jpg"",""time"":357},{""stimulus"":""img/red_ll/8.jpg"",""time"":404},{""stimulus"":""img/red_ll/9.jpg"",""time"":451},{""stimulus"":""img/red_ll/10.jpg"",""time"":515},{""stimulus"":""img/red_ll/11.jpg"",""time"":562}]","[]"
"","","","choice","","63e857fe022e159687d56f41","bdp_lott","Mon Mar 27 2023 16:40:50 GMT-0700 (Pacific Daylight Time)","384226","red","green","image-keyboard-response","77","152890","0.0-5.0-1.36","","731","","img/red_ll/choose11.jpg","2","189","red","0.5","0.5","0.5","w","",""
"","","","","","63e857fe022e159687d56f41","bdp_lott","Mon Mar 27 2023 16:40:50 GMT-0700 (Pacific Daylight Time)","384226","red","green","animation","78","153494","0.0-5.0-2.36","","","","","","189","","","","","","[{""stimulus"":""img/red_lw/1.jpg"",""time"":54},{""stimulus"":""img/red_lw/2.jpg"",""time"":115},{""stimulus"":""img/red_lw/3.jpg"",""time"":152},{""stimulus"":""img/red_lw/4.jpg"",""time"":210},{""stimulus"":""img/red_lw/5.jpg"",""time"":258},{""stimulus"":""img/red_lw/6.jpg"",""time"":305},{""stimulus"":""img/red_lw/7.jpg"",""time"":353},{""stimulus"":""img/red_lw/8.jpg"",""time"":414},{""stimulus"":""img/red_lw/9.jpg"",""time"":462},{""stimulus"":""img/red_lw/10.jpg"",""time"":509},{""stimulus"":""img/red_lw/11.jpg"",""time"":557}]","[]"
"","","","choice","","63e857fe022e159687d56f41","bdp_lott","Mon Mar 27 2023 16:40:50 GMT-0700 (Pacific Daylight Time)","384226","red","green","image-keyboard-response","79","154078","0.0-5.0-1.37","","581","","img/red_lw/choose11.jpg","2","188","red","0.5","0.5","0.5","w","",""
"","","","","","63e857fe022e159687d56f41","bdp_lott","Mon Mar 27 2023 16:40:50 GMT-0700 (Pacific Daylight Time)","384226","red","green","animation","80","154690","0.0-5.0-2.37","","","","","","188","","","","","","[{""stimulus"":""img/red_lw/1.jpg"",""time"":62},{""stimulus"":""img/red_lw/2.jpg"",""time"":109},{""stimulus"":""img/red_lw/3.jpg"",""time"":155},{""stimulus"":""img/red_lw/4.jpg"",""time"":203},{""stimulus"":""img/red_lw/5.jpg"",""time"":265},{""stimulus"":""img/red_lw/6.jpg"",""time"":312},{""stimulus"":""img/red_lw/7.jpg"",""time"":360},{""stimulus"":""img/red_lw/8.jpg"",""time"":407},{""stimulus"":""img/red_lw/9.jpg"",""time"":455},{""stimulus"":""img/red_lw/10.jpg"",""time"":503},{""stimulus"":""img/red_lw/11.jpg"",""time"":566}]","[]"
"","","","choice","","63e857fe022e159687d56f41","bdp_lott","Mon Mar 27 2023 16:40:50 GMT-0700 (Pacific Daylight Time)","384226","red","green","image-keyboard-response","81","155105","0.0-5.0-1.38","","413","","img/red_lw/choose11.jpg","2","187","red","0.5","0.5","0.5","l","",""
"","","","","","63e857fe022e159687d56f41","bdp_lott","Mon Mar 27 2023 16:40:50 GMT-0700 (Pacific Daylight Time)","384226","red","green","animation","82","155711","0.0-5.0-2.38","","","","","","187","","","","","","[{""stimulus"":""img/red_ll/1.jpg"",""time"":58},{""stimulus"":""img/red_ll/2.jpg"",""time"":104},{""stimulus"":""img/red_ll/3.jpg"",""time"":167},{""stimulus"":""img/red_ll/4.jpg"",""time"":213},{""stimulus"":""img/red_ll/5.jpg"",""time"":261},{""stimulus"":""img/red_ll/6.jpg"",""time"":308},{""stimulus"":""img/red_ll/7.jpg"",""time"":355},{""stimulus"":""img/red_ll/8.jpg"",""time"":402},{""stimulus"":""img/red_ll/9.jpg"",""time"":465},{""stimulus"":""img/red_ll/10.jpg"",""time"":512},{""stimulus"":""img/red_ll/11.jpg"",""time"":559}]","[]"
"","","","choice","","63e857fe022e159687d56f41","bdp_lott","Mon Mar 27 2023 16:40:50 GMT-0700 (Pacific Daylight Time)","384226","red","green","image-keyboard-response","83","156123","0.0-5.0-1.39","","408","","img/red_ll/choose11.jpg","2","186","red","0.5","0.5","0.5","l","",""
"","","","","","63e857fe022e159687d56f41","bdp_lott","Mon Mar 27 2023 16:40:50 GMT-0700 (Pacific Daylight Time)","384226","red","green","animation","84","156732","0.0-5.0-2.39","","","","","","186","","","","","","[{""stimulus"":""img/red_ll/1.jpg"",""time"":61},{""stimulus"":""img/red_ll/2.jpg"",""time"":108},{""stimulus"":""img/red_ll/3.jpg"",""time"":155},{""stimulus"":""img/red_ll/4.jpg"",""time"":201},{""stimulus"":""img/red_ll/5.jpg"",""time"":264},{""stimulus"":""img/red_ll/6.jpg"",""time"":312},{""stimulus"":""img/red_ll/7.jpg"",""time"":359},{""stimulus"":""img/red_ll/8.jpg"",""time"":406},{""stimulus"":""img/red_ll/9.jpg"",""time"":453},{""stimulus"":""img/red_ll/10.jpg"",""time"":515},{""stimulus"":""img/red_ll/11.jpg"",""time"":552}]","[]"
"","","","choice","","63e857fe022e159687d56f41","bdp_lott","Mon Mar 27 2023 16:40:50 GMT-0700 (Pacific Daylight Time)","384226","red","green","image-keyboard-response","85","157209","0.0-5.0-1.40","","475","","img/red_ll/choose11.jpg","2","185","red","0.5","0.5","0.5","l","",""
"","","","","","63e857fe022e159687d56f41","bdp_lott","Mon Mar 27 2023 16:40:50 GMT-0700 (Pacific Daylight Time)","384226","red","green","animation","86","157817","0.0-5.0-2.40","","","","","","185","","","","","","[{""stimulus"":""img/red_ll/1.jpg"",""time"":58},{""stimulus"":""img/red_ll/2.jpg"",""time"":104},{""stimulus"":""img/red_ll/3.jpg"",""time"":151},{""stimulus"":""img/red_ll/4.jpg"",""time"":214},{""stimulus"":""img/red_ll/5.jpg"",""time"":262},{""stimulus"":""img/red_ll/6.jpg"",""time"":308},{""stimulus"":""img/red_ll/7.jpg"",""time"":357},{""stimulus"":""img/red_ll/8.jpg"",""time"":402},{""stimulus"":""img/red_ll/9.jpg"",""time"":451},{""stimulus"":""img/red_ll/10.jpg"",""time"":513},{""stimulus"":""img/red_ll/11.jpg"",""time"":561}]","[]"
"","","","choice","","63e857fe022e159687d56f41","bdp_lott","Mon Mar 27 2023 16:40:50 GMT-0700 (Pacific Daylight Time)","384226","red","green","image-keyboard-response","87","158175","0.0-5.0-1.41","","355","","img/red_ll/choose11.jpg","1","184","green","0.5","0.5","0.5","l","",""
"","","","","","63e857fe022e159687d56f41","bdp_lott","Mon Mar 27 2023 16:40:50 GMT-0700 (Pacific Daylight Time)","384226","red","green","animation","88","158777","0.0-5.0-2.41","","","","","","184","","","","","","[{""stimulus"":""img/green_ll/1.jpg"",""time"":53},{""stimulus"":""img/green_ll/2.jpg"",""time"":117},{""stimulus"":""img/green_ll/3.jpg"",""time"":163},{""stimulus"":""img/green_ll/4.jpg"",""time"":210},{""stimulus"":""img/green_ll/5.jpg"",""time"":257},{""stimulus"":""img/green_ll/6.jpg"",""time"":305},{""stimulus"":""img/green_ll/7.jpg"",""time"":368},{""stimulus"":""img/green_ll/8.jpg"",""time"":414},{""stimulus"":""img/green_ll/9.jpg"",""time"":461},{""stimulus"":""img/green_ll/10.jpg"",""time"":509},{""stimulus"":""img/green_ll/11.jpg"",""time"":555}]","[]"
"","","","choice","","63e857fe022e159687d56f41","bdp_lott","Mon Mar 27 2023 16:40:50 GMT-0700 (Pacific Daylight Time)","384226","red","green","image-keyboard-response","89","159218","0.0-5.0-1.42","","439","","img/green_ll/choose11.jpg","1","183","green","0.5","0.5","0.5","l","",""
"","","","","","63e857fe022e159687d56f41","bdp_lott","Mon Mar 27 2023 16:40:50 GMT-0700 (Pacific Daylight Time)","384226","red","green","animation","90","159832","0.0-5.0-2.42","","","","","","183","","","","","","[{""stimulus"":""img/green_ll/1.jpg"",""time"":61},{""stimulus"":""img/green_ll/2.jpg"",""time"":108},{""stimulus"":""img/green_ll/3.jpg"",""time"":156},{""stimulus"":""img/green_ll/4.jpg"",""time"":203},{""stimulus"":""img/green_ll/5.jpg"",""time"":266},{""stimulus"":""img/green_ll/6.jpg"",""time"":312},{""stimulus"":""img/green_ll/7.jpg"",""time"":360},{""stimulus"":""img/green_ll/8.jpg"",""time"":407},{""stimulus"":""img/green_ll/9.jpg"",""time"":455},{""stimulus"":""img/green_ll/10.jpg"",""time"":503},{""stimulus"":""img/green_ll/11.jpg"",""time"":552}]","[]"
"","","","choice","","63e857fe022e159687d56f41","bdp_lott","Mon Mar 27 2023 16:40:50 GMT-0700 (Pacific Daylight Time)","384226","red","green","image-keyboard-response","91","160224","0.0-5.0-1.43","","389","","img/green_ll/choose11.jpg","1","182","green","0.5","0.5","0.5","l","",""
"","","","","","63e857fe022e159687d56f41","bdp_lott","Mon Mar 27 2023 16:40:50 GMT-0700 (Pacific Daylight Time)","384226","red","green","animation","92","160829","0.0-5.0-2.43","","","","","","182","","","","","","[{""stimulus"":""img/green_ll/1.jpg"",""time"":67},{""stimulus"":""img/green_ll/2.jpg"",""time"":115},{""stimulus"":""img/green_ll/3.jpg"",""time"":161},{""stimulus"":""img/green_ll/4.jpg"",""time"":209},{""stimulus"":""img/green_ll/5.jpg"",""time"":258},{""stimulus"":""img/green_ll/6.jpg"",""time"":305},{""stimulus"":""img/green_ll/7.jpg"",""time"":353},{""stimulus"":""img/green_ll/8.jpg"",""time"":416},{""stimulus"":""img/green_ll/9.jpg"",""time"":463},{""stimulus"":""img/green_ll/10.jpg"",""time"":511},{""stimulus"":""img/green_ll/11.jpg"",""time"":558}]","[]"
"","","","choice","","63e857fe022e159687d56f41","bdp_lott","Mon Mar 27 2023 16:40:50 GMT-0700 (Pacific Daylight Time)","384226","red","green","image-keyboard-response","93","161236","0.0-5.0-1.44","","405","","img/green_ll/choose11.jpg","2","181","red","0.5","0.5","0.5","w","",""
"","","","","","63e857fe022e159687d56f41","bdp_lott","Mon Mar 27 2023 16:40:50 GMT-0700 (Pacific Daylight Time)","384226","red","green","animation","94","161842","0.0-5.0-2.44","","","","","","181","","","","","","[{""stimulus"":""img/red_lw/1.jpg"",""time"":53},{""stimulus"":""img/red_lw/2.jpg"",""time"":118},{""stimulus"":""img/red_lw/3.jpg"",""time"":164},{""stimulus"":""img/red_lw/4.jpg"",""time"":212},{""stimulus"":""img/red_lw/5.jpg"",""time"":259},{""stimulus"":""img/red_lw/6.jpg"",""time"":307},{""stimulus"":""img/red_lw/7.jpg"",""time"":354},{""stimulus"":""img/red_lw/8.jpg"",""time"":401},{""stimulus"":""img/red_lw/9.jpg"",""time"":465},{""stimulus"":""img/red_lw/10.jpg"",""time"":513},{""stimulus"":""img/red_lw/11.jpg"",""time"":560}]","[]"
"","","","choice","","63e857fe022e159687d56f41","bdp_lott","Mon Mar 27 2023 16:40:50 GMT-0700 (Pacific Daylight Time)","384226","red","green","image-keyboard-response","95","162518","0.0-5.0-1.45","","673","","img/red_lw/choose11.jpg","2","180","red","0.5","0.5","0.5","l","",""
"","","","","","63e857fe022e159687d56f41","bdp_lott","Mon Mar 27 2023 16:40:50 GMT-0700 (Pacific Daylight Time)","384226","red","green","animation","96","163126","0.0-5.0-2.45","","","","","","180","","","","","","[{""stimulus"":""img/red_ll/1.jpg"",""time"":53},{""stimulus"":""img/red_ll/2.jpg"",""time"":118},{""stimulus"":""img/red_ll/3.jpg"",""time"":154},{""stimulus"":""img/red_ll/4.jpg"",""time"":213},{""stimulus"":""img/red_ll/5.jpg"",""time"":260},{""stimulus"":""img/red_ll/6.jpg"",""time"":309},{""stimulus"":""img/red_ll/7.jpg"",""time"":356},{""stimulus"":""img/red_ll/8.jpg"",""time"":404},{""stimulus"":""img/red_ll/9.jpg"",""time"":466},{""stimulus"":""img/red_ll/10.jpg"",""time"":514},{""stimulus"":""img/red_ll/11.jpg"",""time"":561}]","[]"
"","","","choice","","63e857fe022e159687d56f41","bdp_lott","Mon Mar 27 2023 16:40:50 GMT-0700 (Pacific Daylight Time)","384226","red","green","image-keyboard-response","97","163535","0.0-5.0-1.46","","406","","img/red_ll/choose11.jpg","2","179","red","0.5","0.5","0.5","w","",""
"","","","","","63e857fe022e159687d56f41","bdp_lott","Mon Mar 27 2023 16:40:50 GMT-0700 (Pacific Daylight Time)","384226","red","green","animation","98","164138","0.0-5.0-2.46","","","","","","179","","","","","","[{""stimulus"":""img/red_lw/1.jpg"",""time"":66},{""stimulus"":""img/red_lw/2.jpg"",""time"":114},{""stimulus"":""img/red_lw/3.jpg"",""time"":161},{""stimulus"":""img/red_lw/4.jpg"",""time"":208},{""stimulus"":""img/red_lw/5.jpg"",""time"":256},{""stimulus"":""img/red_lw/6.jpg"",""time"":305},{""stimulus"":""img/red_lw/7.jpg"",""time"":366},{""stimulus"":""img/red_lw/8.jpg"",""time"":401},{""stimulus"":""img/red_lw/9.jpg"",""time"":462},{""stimulus"":""img/red_lw/10.jpg"",""time"":511},{""stimulus"":""img/red_lw/11.jpg"",""time"":558}]","[]"
"","","","choice","","63e857fe022e159687d56f41","bdp_lott","Mon Mar 27 2023 16:40:50 GMT-0700 (Pacific Daylight Time)","384226","red","green","image-keyboard-response","99","164759","0.0-5.0-1.47","","618","","img/red_lw/choose11.jpg","2","178","red","0.5","0.5","0.5","l","",""
"","","","","","63e857fe022e159687d56f41","bdp_lott","Mon Mar 27 2023 16:40:50 GMT-0700 (Pacific Daylight Time)","384226","red","green","animation","100","167414","0.0-5.0-2.47","","","","","","178","","","","","","[{""stimulus"":""img/red_ll/1.jpg"",""time"":60},{""stimulus"":""img/red_ll/2.jpg"",""time"":107},{""stimulus"":""img/red_ll/3.jpg"",""time"":154},{""stimulus"":""img/red_ll/4.jpg"",""time"":217},{""stimulus"":""img/red_ll/5.jpg"",""time"":263},{""stimulus"":""img/red_ll/6.jpg"",""time"":310},{""stimulus"":""img/red_ll/7.jpg"",""time"":358},{""stimulus"":""img/red_ll/8.jpg"",""time"":405},{""stimulus"":""img/red_ll/9.jpg"",""time"":467},{""stimulus"":""img/red_ll/10.jpg"",""time"":1207},{""stimulus"":""img/red_ll/11.jpg"",""time"":2202}]","[]"
"","","","choice","","63e857fe022e159687d56f41","bdp_lott","Mon Mar 27 2023 16:40:50 GMT-0700 (Pacific Daylight Time)","384226","red","green","image-keyboard-response","101","168320","0.0-5.0-1.48","","903","","img/red_ll/choose11.jpg","2","177","red","0.5","0.5","0.5","w","",""
"","","","","","63e857fe022e159687d56f41","bdp_lott","Mon Mar 27 2023 16:40:50 GMT-0700 (Pacific Daylight Time)","384226","red","green","animation","102","168937","0.0-5.0-2.48","","","","","","177","","","","","","[{""stimulus"":""img/red_lw/1.jpg"",""time"":64},{""stimulus"":""img/red_lw/2.jpg"",""time"":112},{""stimulus"":""img/red_lw/3.jpg"",""time"":159},{""stimulus"":""img/red_lw/4.jpg"",""time"":207},{""stimulus"":""img/red_lw/5.jpg"",""time"":253},{""stimulus"":""img/red_lw/6.jpg"",""time"":315},{""stimulus"":""img/red_lw/7.jpg"",""time"":363},{""stimulus"":""img/red_lw/8.jpg"",""time"":411},{""stimulus"":""img/red_lw/9.jpg"",""time"":458},{""stimulus"":""img/red_lw/10.jpg"",""time"":505},{""stimulus"":""img/red_lw/11.jpg"",""time"":553}]","[]"
"","","","choice","","63e857fe022e159687d56f41","bdp_lott","Mon Mar 27 2023 16:40:50 GMT-0700 (Pacific Daylight Time)","384226","red","green","image-keyboard-response","103","169423","0.0-5.0-1.49","","484","","img/red_lw/choose11.jpg","2","176","red","0.5","0.5","0.5","l","",""
"","","","","","63e857fe022e159687d56f41","bdp_lott","Mon Mar 27 2023 16:40:50 GMT-0700 (Pacific Daylight Time)","384226","red","green","animation","104","170029","0.0-5.0-2.49","","","","","","176","","","","","","[{""stimulus"":""img/red_ll/1.jpg"",""time"":51},{""stimulus"":""img/red_ll/2.jpg"",""time"":117},{""stimulus"":""img/red_ll/3.jpg"",""time"":156},{""stimulus"":""img/red_ll/4.jpg"",""time"":210},{""stimulus"":""img/red_ll/5.jpg"",""time"":257},{""stimulus"":""img/red_ll/6.jpg"",""time"":306},{""stimulus"":""img/red_ll/7.jpg"",""time"":355},{""stimulus"":""img/red_ll/8.jpg"",""time"":416},{""stimulus"":""img/red_ll/9.jpg"",""time"":463},{""stimulus"":""img/red_ll/10.jpg"",""time"":511},{""stimulus"":""img/red_ll/11.jpg"",""time"":558}]","[]"
"","","","choice","","63e857fe022e159687d56f41","bdp_lott","Mon Mar 27 2023 16:40:50 GMT-0700 (Pacific Daylight Time)","384226","red","green","image-keyboard-response","105","170554","0.0-5.0-1.50","","524","","img/red_ll/choose11.jpg","2","175","red","0.5","0.5","0.5","w","",""
"","","","","","63e857fe022e159687d56f41","bdp_lott","Mon Mar 27 2023 16:40:50 GMT-0700 (Pacific Daylight Time)","384226","red","green","animation","106","171168","0.0-5.0-2.50","","","","","","175","","","","","","[{""stimulus"":""img/red_lw/1.jpg"",""time"":58},{""stimulus"":""img/red_lw/2.jpg"",""time"":106},{""stimulus"":""img/red_lw/3.jpg"",""time"":153},{""stimulus"":""img/red_lw/4.jpg"",""time"":201},{""stimulus"":""img/red_lw/5.jpg"",""time"":265},{""stimulus"":""img/red_lw/6.jpg"",""time"":313},{""stimulus"":""img/red_lw/7.jpg"",""time"":360},{""stimulus"":""img/red_lw/8.jpg"",""time"":407},{""stimulus"":""img/red_lw/9.jpg"",""time"":456},{""stimulus"":""img/red_lw/10.jpg"",""time"":503},{""stimulus"":""img/red_lw/11.jpg"",""time"":565}]","[]"
"","","","choice","","63e857fe022e159687d56f41","bdp_lott","Mon Mar 27 2023 16:40:50 GMT-0700 (Pacific Daylight Time)","384226","red","green","image-keyboard-response","107","171674","0.0-5.0-1.51","","504","","img/red_lw/choose11.jpg","2","174","red","0.5","0.5","0.5","l","",""
"","","","","","63e857fe022e159687d56f41","bdp_lott","Mon Mar 27 2023 16:40:50 GMT-0700 (Pacific Daylight Time)","384226","red","green","animation","108","172277","0.0-5.0-2.51","","","","","","174","","","","","","[{""stimulus"":""img/red_ll/1.jpg"",""time"":63},{""stimulus"":""img/red_ll/2.jpg"",""time"":112},{""stimulus"":""img/red_ll/3.jpg"",""time"":155},{""stimulus"":""img/red_ll/4.jpg"",""time"":206},{""stimulus"":""img/red_ll/5.jpg"",""time"":254},{""stimulus"":""img/red_ll/6.jpg"",""time"":317},{""stimulus"":""img/red_ll/7.jpg"",""time"":364},{""stimulus"":""img/red_ll/8.jpg"",""time"":414},{""stimulus"":""img/red_ll/9.jpg"",""time"":461},{""stimulus"":""img/red_ll/10.jpg"",""time"":509},{""stimulus"":""img/red_ll/11.jpg"",""time"":556}]","[]"
"","","","choice","","63e857fe022e159687d56f41","bdp_lott","Mon Mar 27 2023 16:40:50 GMT-0700 (Pacific Daylight Time)","384226","red","green","image-keyboard-response","109","172712","0.0-5.0-1.52","","432","","img/red_ll/choose11.jpg","2","173","red","0.5","0.5","0.5","w","",""
"","","","","","63e857fe022e159687d56f41","bdp_lott","Mon Mar 27 2023 16:40:50 GMT-0700 (Pacific Daylight Time)","384226","red","green","animation","110","173325","0.0-5.0-2.52","","","","","","173","","","","","","[{""stimulus"":""img/red_lw/1.jpg"",""time"":56},{""stimulus"":""img/red_lw/2.jpg"",""time"":104},{""stimulus"":""img/red_lw/3.jpg"",""time"":154},{""stimulus"":""img/red_lw/4.jpg"",""time"":217},{""stimulus"":""img/red_lw/5.jpg"",""time"":263},{""stimulus"":""img/red_lw/6.jpg"",""time"":311},{""stimulus"":""img/red_lw/7.jpg"",""time"":358},{""stimulus"":""img/red_lw/8.jpg"",""time"":407},{""stimulus"":""img/red_lw/9.jpg"",""time"":455},{""stimulus"":""img/red_lw/10.jpg"",""time"":502},{""stimulus"":""img/red_lw/11.jpg"",""time"":565}]","[]"
"","","","choice","","63e857fe022e159687d56f41","bdp_lott","Mon Mar 27 2023 16:40:50 GMT-0700 (Pacific Daylight Time)","384226","red","green","image-keyboard-response","111","173807","0.0-5.0-1.53","","481","","img/red_lw/choose11.jpg","2","172","red","0.5","0.5","0.5","w","",""
"","","","","","63e857fe022e159687d56f41","bdp_lott","Mon Mar 27 2023 16:40:50 GMT-0700 (Pacific Daylight Time)","384226","red","green","animation","112","174417","0.0-5.0-2.53","","","","","","172","","","","","","[{""stimulus"":""img/red_lw/1.jpg"",""time"":58},{""stimulus"":""img/red_lw/2.jpg"",""time"":105},{""stimulus"":""img/red_lw/3.jpg"",""time"":152},{""stimulus"":""img/red_lw/4.jpg"",""time"":215},{""stimulus"":""img/red_lw/5.jpg"",""time"":263},{""stimulus"":""img/red_lw/6.jpg"",""time"":310},{""stimulus"":""img/red_lw/7.jpg"",""time"":358},{""stimulus"":""img/red_lw/8.jpg"",""time"":405},{""stimulus"":""img/red_lw/9.jpg"",""time"":452},{""stimulus"":""img/red_lw/10.jpg"",""time"":515},{""stimulus"":""img/red_lw/11.jpg"",""time"":564}]","[]"
"","","","choice","","63e857fe022e159687d56f41","bdp_lott","Mon Mar 27 2023 16:40:50 GMT-0700 (Pacific Daylight Time)","384226","red","green","image-keyboard-response","113","174927","0.0-5.0-1.54","","507","","img/red_lw/choose11.jpg","2","171","red","0.5","0.5","0.5","l","",""
"","","","","","63e857fe022e159687d56f41","bdp_lott","Mon Mar 27 2023 16:40:50 GMT-0700 (Pacific Daylight Time)","384226","red","green","animation","114","175540","0.0-5.0-2.54","","","","","","171","","","","","","[{""stimulus"":""img/red_ll/1.jpg"",""time"":61},{""stimulus"":""img/red_ll/2.jpg"",""time"":107},{""stimulus"":""img/red_ll/3.jpg"",""time"":155},{""stimulus"":""img/red_ll/4.jpg"",""time"":204},{""stimulus"":""img/red_ll/5.jpg"",""time"":267},{""stimulus"":""img/red_ll/6.jpg"",""time"":316},{""stimulus"":""img/red_ll/7.jpg"",""time"":361},{""stimulus"":""img/red_ll/8.jpg"",""time"":409},{""stimulus"":""img/red_ll/9.jpg"",""time"":456},{""stimulus"":""img/red_ll/10.jpg"",""time"":503},{""stimulus"":""img/red_ll/11.jpg"",""time"":568}]","[]"
"","","","choice","","63e857fe022e159687d56f41","bdp_lott","Mon Mar 27 2023 16:40:50 GMT-0700 (Pacific Daylight Time)","384226","red","green","image-keyboard-response","115","176042","0.0-5.0-1.55","","501","","img/red_ll/choose11.jpg","2","170","red","0.5","0.5","0.5","l","",""
"","","","","","63e857fe022e159687d56f41","bdp_lott","Mon Mar 27 2023 16:40:50 GMT-0700 (Pacific Daylight Time)","384226","red","green","animation","116","176651","0.0-5.0-2.55","","","","","","170","","","","","","[{""stimulus"":""img/red_ll/1.jpg"",""time"":55},{""stimulus"":""img/red_ll/2.jpg"",""time"":102},{""stimulus"":""img/red_ll/3.jpg"",""time"":164},{""stimulus"":""img/red_ll/4.jpg"",""time"":213},{""stimulus"":""img/red_ll/5.jpg"",""time"":261},{""stimulus"":""img/red_ll/6.jpg"",""time"":308},{""stimulus"":""img/red_ll/7.jpg"",""time"":357},{""stimulus"":""img/red_ll/8.jpg"",""time"":403},{""stimulus"":""img/red_ll/9.jpg"",""time"":468},{""stimulus"":""img/red_ll/10.jpg"",""time"":515},{""stimulus"":""img/red_ll/11.jpg"",""time"":563}]","[]"
"","","","choice","","63e857fe022e159687d56f41","bdp_lott","Mon Mar 27 2023 16:40:50 GMT-0700 (Pacific Daylight Time)","384226","red","green","image-keyboard-response","117","176977","0.0-5.0-1.56","","325","","img/red_ll/choose11.jpg","2","169","red","0.5","0.5","0.5","w","",""
"","","","","","63e857fe022e159687d56f41","bdp_lott","Mon Mar 27 2023 16:40:50 GMT-0700 (Pacific Daylight Time)","384226","red","green","animation","118","177588","0.0-5.0-2.56","","","","","","169","","","","","","[{""stimulus"":""img/red_lw/1.jpg"",""time"":55},{""stimulus"":""img/red_lw/2.jpg"",""time"":102},{""stimulus"":""img/red_lw/3.jpg"",""time"":167},{""stimulus"":""img/red_lw/4.jpg"",""time"":213},{""stimulus"":""img/red_lw/5.jpg"",""time"":261},{""stimulus"":""img/red_lw/6.jpg"",""time"":307},{""stimulus"":""img/red_lw/7.jpg"",""time"":356},{""stimulus"":""img/red_lw/8.jpg"",""time"":403},{""stimulus"":""img/red_lw/9.jpg"",""time"":451},{""stimulus"":""img/red_lw/10.jpg"",""time"":516},{""stimulus"":""img/red_lw/11.jpg"",""time"":562}]","[]"
"","","","choice","","63e857fe022e159687d56f41","bdp_lott","Mon Mar 27 2023 16:40:50 GMT-0700 (Pacific Daylight Time)","384226","red","green","image-keyboard-response","119","178231","0.0-5.0-1.57","","642","","img/red_lw/choose11.jpg","2","168","red","0.5","0.5","0.5","l","",""
"","","","","","63e857fe022e159687d56f41","bdp_lott","Mon Mar 27 2023 16:40:50 GMT-0700 (Pacific Daylight Time)","384226","red","green","animation","120","178838","0.0-5.0-2.57","","","","","","168","","","","","","[{""stimulus"":""img/red_ll/1.jpg"",""time"":53},{""stimulus"":""img/red_ll/2.jpg"",""time"":116},{""stimulus"":""img/red_ll/3.jpg"",""time"":164},{""stimulus"":""img/red_ll/4.jpg"",""time"":212},{""stimulus"":""img/red_ll/5.jpg"",""time"":259},{""stimulus"":""img/red_ll/6.jpg"",""time"":306},{""stimulus"":""img/red_ll/7.jpg"",""time"":354},{""stimulus"":""img/red_ll/8.jpg"",""time"":401},{""stimulus"":""img/red_ll/9.jpg"",""time"":464},{""stimulus"":""img/red_ll/10.jpg"",""time"":512},{""stimulus"":""img/red_ll/11.jpg"",""time"":559}]","[]"
"","","","choice","","63e857fe022e159687d56f41","bdp_lott","Mon Mar 27 2023 16:40:50 GMT-0700 (Pacific Daylight Time)","384226","red","green","image-keyboard-response","121","179305","0.0-5.0-1.58","","464","","img/red_ll/choose11.jpg","2","167","red","0.5","0.5","0.5","l","",""
"","","","","","63e857fe022e159687d56f41","bdp_lott","Mon Mar 27 2023 16:40:50 GMT-0700 (Pacific Daylight Time)","384226","red","green","animation","122","179913","0.0-5.0-2.58","","","","","","167","","","","","","[{""stimulus"":""img/red_ll/1.jpg"",""time"":52},{""stimulus"":""img/red_ll/2.jpg"",""time"":115},{""stimulus"":""img/red_ll/3.jpg"",""time"":155},{""stimulus"":""img/red_ll/4.jpg"",""time"":209},{""stimulus"":""img/red_ll/5.jpg"",""time"":257},{""stimulus"":""img/red_ll/6.jpg"",""time"":305},{""stimulus"":""img/red_ll/7.jpg"",""time"":352},{""stimulus"":""img/red_ll/8.jpg"",""time"":417},{""stimulus"":""img/red_ll/9.jpg"",""time"":465},{""stimulus"":""img/red_ll/10.jpg"",""time"":512},{""stimulus"":""img/red_ll/11.jpg"",""time"":560}]","[]"
"","","","choice","","63e857fe022e159687d56f41","bdp_lott","Mon Mar 27 2023 16:40:50 GMT-0700 (Pacific Daylight Time)","384226","red","green","image-keyboard-response","123","180300","0.0-5.0-1.59","","384","","img/red_ll/choose11.jpg","2","166","red","0.5","0.5","0.5","w","",""
"","","","","","63e857fe022e159687d56f41","bdp_lott","Mon Mar 27 2023 16:40:50 GMT-0700 (Pacific Daylight Time)","384226","red","green","animation","124","180914","0.0-5.0-2.59","","","","","","166","","","","","","[{""stimulus"":""img/red_lw/1.jpg"",""time"":58},{""stimulus"":""img/red_lw/2.jpg"",""time"":105},{""stimulus"":""img/red_lw/3.jpg"",""time"":153},{""stimulus"":""img/red_lw/4.jpg"",""time"":216},{""stimulus"":""img/red_lw/5.jpg"",""time"":265},{""stimulus"":""img/red_lw/6.jpg"",""time"":313},{""stimulus"":""img/red_lw/7.jpg"",""time"":360},{""stimulus"":""img/red_lw/8.jpg"",""time"":408},{""stimulus"":""img/red_lw/9.jpg"",""time"":456},{""stimulus"":""img/red_lw/10.jpg"",""time"":503},{""stimulus"":""img/red_lw/11.jpg"",""time"":550}]","[]"
"","","","choice","","63e857fe022e159687d56f41","bdp_lott","Mon Mar 27 2023 16:40:50 GMT-0700 (Pacific Daylight Time)","384226","red","green","image-keyboard-response","125","181413","0.0-5.0-1.60","","496","","img/red_lw/choose11.jpg","2","165","red","0.5","0.5","0.5","l","",""
"","","","","","63e857fe022e159687d56f41","bdp_lott","Mon Mar 27 2023 16:40:50 GMT-0700 (Pacific Daylight Time)","384226","red","green","animation","126","182021","0.0-5.0-2.60","","","","","","165","","","","","","[{""stimulus"":""img/red_ll/1.jpg"",""time"":55},{""stimulus"":""img/red_ll/2.jpg"",""time"":104},{""stimulus"":""img/red_ll/3.jpg"",""time"":152},{""stimulus"":""img/red_ll/4.jpg"",""time"":214},{""stimulus"":""img/red_ll/5.jpg"",""time"":262},{""stimulus"":""img/red_ll/6.jpg"",""time"":310},{""stimulus"":""img/red_ll/7.jpg"",""time"":357},{""stimulus"":""img/red_ll/8.jpg"",""time"":404},{""stimulus"":""img/red_ll/9.jpg"",""time"":451},{""stimulus"":""img/red_ll/10.jpg"",""time"":514},{""stimulus"":""img/red_ll/11.jpg"",""time"":561}]","[]"
"","","","choice","","63e857fe022e159687d56f41","bdp_lott","Mon Mar 27 2023 16:40:50 GMT-0700 (Pacific Daylight Time)","384226","red","green","image-keyboard-response","127","182516","0.0-5.0-1.61","","492","","img/red_ll/choose11.jpg","2","164","red","0.5","0.5","0.5","l","",""
"","","","","","63e857fe022e159687d56f41","bdp_lott","Mon Mar 27 2023 16:40:50 GMT-0700 (Pacific Daylight Time)","384226","red","green","animation","128","183122","0.0-5.0-2.61","","","","","","164","","","","","","[{""stimulus"":""img/red_ll/1.jpg"",""time"":56},{""stimulus"":""img/red_ll/2.jpg"",""time"":101},{""stimulus"":""img/red_ll/3.jpg"",""time"":165},{""stimulus"":""img/red_ll/4.jpg"",""time"":214},{""stimulus"":""img/red_ll/5.jpg"",""time"":259},{""stimulus"":""img/red_ll/6.jpg"",""time"":307},{""stimulus"":""img/red_ll/7.jpg"",""time"":354},{""stimulus"":""img/red_ll/8.jpg"",""time"":401},{""stimulus"":""img/red_ll/9.jpg"",""time"":464},{""stimulus"":""img/red_ll/10.jpg"",""time"":512},{""stimulus"":""img/red_ll/11.jpg"",""time"":559}]","[]"
"","","","choice","","63e857fe022e159687d56f41","bdp_lott","Mon Mar 27 2023 16:40:50 GMT-0700 (Pacific Daylight Time)","384226","red","green","image-keyboard-response","129","183502","0.0-5.0-1.62","","379","","img/red_ll/choose11.jpg","2","163","red","0.5","0.5","0.5","l","",""
"","","","","","63e857fe022e159687d56f41","bdp_lott","Mon Mar 27 2023 16:40:50 GMT-0700 (Pacific Daylight Time)","384226","red","green","animation","130","184107","0.0-5.0-2.62","","","","","","163","","","","","","[{""stimulus"":""img/red_ll/1.jpg"",""time"":65},{""stimulus"":""img/red_ll/2.jpg"",""time"":113},{""stimulus"":""img/red_ll/3.jpg"",""time"":160},{""stimulus"":""img/red_ll/4.jpg"",""time"":208},{""stimulus"":""img/red_ll/5.jpg"",""time"":256},{""stimulus"":""img/red_ll/6.jpg"",""time"":304},{""stimulus"":""img/red_ll/7.jpg"",""time"":352},{""stimulus"":""img/red_ll/8.jpg"",""time"":415},{""stimulus"":""img/red_ll/9.jpg"",""time"":463},{""stimulus"":""img/red_ll/10.jpg"",""time"":511},{""stimulus"":""img/red_ll/11.jpg"",""time"":559}]","[]"
"","","","choice","","63e857fe022e159687d56f41","bdp_lott","Mon Mar 27 2023 16:40:50 GMT-0700 (Pacific Daylight Time)","384226","red","green","image-keyboard-response","131","184453","0.0-5.0-1.63","","344","","img/red_ll/choose11.jpg","1","162","green","0.5","0.5","0.5","w","",""
"","","","","","63e857fe022e159687d56f41","bdp_lott","Mon Mar 27 2023 16:40:50 GMT-0700 (Pacific Daylight Time)","384226","red","green","animation","132","185066","0.0-5.0-2.63","","","","","","162","","","","","","[{""stimulus"":""img/green_wl/1.jpg"",""time"":66},{""stimulus"":""img/green_wl/2.jpg"",""time"":111},{""stimulus"":""img/green_wl/3.jpg"",""time"":158},{""stimulus"":""img/green_wl/4.jpg"",""time"":206},{""stimulus"":""img/green_wl/5.jpg"",""time"":253},{""stimulus"":""img/green_wl/6.jpg"",""time"":316},{""stimulus"":""img/green_wl/7.jpg"",""time"":363},{""stimulus"":""img/green_wl/8.jpg"",""time"":410},{""stimulus"":""img/green_wl/9.jpg"",""time"":458},{""stimulus"":""img/green_wl/10.jpg"",""time"":505},{""stimulus"":""img/green_wl/11.jpg"",""time"":566}]","[]"
"","","","choice","","63e857fe022e159687d56f41","bdp_lott","Mon Mar 27 2023 16:40:50 GMT-0700 (Pacific Daylight Time)","384226","red","green","image-keyboard-response","133","185419","0.0-5.0-1.64","","352","","img/green_wl/choose11.jpg","1","161","green","0.5","0.5","0.5","w","",""
"","","","","","63e857fe022e159687d56f41","bdp_lott","Mon Mar 27 2023 16:40:50 GMT-0700 (Pacific Daylight Time)","384226","red","green","animation","134","186026","0.0-5.0-2.64","","","","","","161","","","","","","[{""stimulus"":""img/green_wl/1.jpg"",""time"":55},{""stimulus"":""img/green_wl/2.jpg"",""time"":102},{""stimulus"":""img/green_wl/3.jpg"",""time"":165},{""stimulus"":""img/green_wl/4.jpg"",""time"":212},{""stimulus"":""img/green_wl/5.jpg"",""time"":259},{""stimulus"":""img/green_wl/6.jpg"",""time"":306},{""stimulus"":""img/green_wl/7.jpg"",""time"":354},{""stimulus"":""img/green_wl/8.jpg"",""time"":401},{""stimulus"":""img/green_wl/9.jpg"",""time"":465},{""stimulus"":""img/green_wl/10.jpg"",""time"":513},{""stimulus"":""img/green_wl/11.jpg"",""time"":561}]","[]"
"","","","choice","","63e857fe022e159687d56f41","bdp_lott","Mon Mar 27 2023 16:40:50 GMT-0700 (Pacific Daylight Time)","384226","red","green","image-keyboard-response","135","186331","0.0-5.0-1.65","","303","","img/green_wl/choose11.jpg","1","160","green","0.5","0.5","0.5","w","",""
"","","","","","63e857fe022e159687d56f41","bdp_lott","Mon Mar 27 2023 16:40:50 GMT-0700 (Pacific Daylight Time)","384226","red","green","animation","136","186942","0.0-5.0-2.65","","","","","","160","","","","","","[{""stimulus"":""img/green_wl/1.jpg"",""time"":57},{""stimulus"":""img/green_wl/2.jpg"",""time"":105},{""stimulus"":""img/green_wl/3.jpg"",""time"":152},{""stimulus"":""img/green_wl/4.jpg"",""time"":216},{""stimulus"":""img/green_wl/5.jpg"",""time"":252},{""stimulus"":""img/green_wl/6.jpg"",""time"":310},{""stimulus"":""img/green_wl/7.jpg"",""time"":357},{""stimulus"":""img/green_wl/8.jpg"",""time"":405},{""stimulus"":""img/green_wl/9.jpg"",""time"":453},{""stimulus"":""img/green_wl/10.jpg"",""time"":516},{""stimulus"":""img/green_wl/11.jpg"",""time"":563}]","[]"
"","","","choice","","63e857fe022e159687d56f41","bdp_lott","Mon Mar 27 2023 16:40:50 GMT-0700 (Pacific Daylight Time)","384226","red","green","image-keyboard-response","137","187302","0.0-5.0-1.66","","359","","img/green_wl/choose11.jpg","1","159","green","0.5","0.5","0.5","l","",""
"","","","","","63e857fe022e159687d56f41","bdp_lott","Mon Mar 27 2023 16:40:50 GMT-0700 (Pacific Daylight Time)","384226","red","green","animation","138","187904","0.0-5.0-2.66","","","","","","159","","","","","","[{""stimulus"":""img/green_ll/1.jpg"",""time"":66},{""stimulus"":""img/green_ll/2.jpg"",""time"":101},{""stimulus"":""img/green_ll/3.jpg"",""time"":162},{""stimulus"":""img/green_ll/4.jpg"",""time"":209},{""stimulus"":""img/green_ll/5.jpg"",""time"":256},{""stimulus"":""img/green_ll/6.jpg"",""time"":304},{""stimulus"":""img/green_ll/7.jpg"",""time"":368},{""stimulus"":""img/green_ll/8.jpg"",""time"":414},{""stimulus"":""img/green_ll/9.jpg"",""time"":461},{""stimulus"":""img/green_ll/10.jpg"",""time"":508},{""stimulus"":""img/green_ll/11.jpg"",""time"":556}]","[]"
"","","","choice","","63e857fe022e159687d56f41","bdp_lott","Mon Mar 27 2023 16:40:50 GMT-0700 (Pacific Daylight Time)","384226","red","green","image-keyboard-response","139","188768","0.0-5.0-1.67","","862","","img/green_ll/choose11.jpg","1","158","green","0.5","0.5","0.5","w","",""
"","","","","","63e857fe022e159687d56f41","bdp_lott","Mon Mar 27 2023 16:40:50 GMT-0700 (Pacific Daylight Time)","384226","red","green","animation","140","189371","0.0-5.0-2.67","","","","","","158","","","","","","[{""stimulus"":""img/green_wl/1.jpg"",""time"":66},{""stimulus"":""img/green_wl/2.jpg"",""time"":102},{""stimulus"":""img/green_wl/3.jpg"",""time"":160},{""stimulus"":""img/green_wl/4.jpg"",""time"":208},{""stimulus"":""img/green_wl/5.jpg"",""time"":256},{""stimulus"":""img/green_wl/6.jpg"",""time"":303},{""stimulus"":""img/green_wl/7.jpg"",""time"":365},{""stimulus"":""img/green_wl/8.jpg"",""time"":412},{""stimulus"":""img/green_wl/9.jpg"",""time"":460},{""stimulus"":""img/green_wl/10.jpg"",""time"":506},{""stimulus"":""img/green_wl/11.jpg"",""time"":554}]","[]"
"","","","choice","","63e857fe022e159687d56f41","bdp_lott","Mon Mar 27 2023 16:40:50 GMT-0700 (Pacific Daylight Time)","384226","red","green","image-keyboard-response","141","189938","0.0-5.0-1.68","","565","","img/green_wl/choose11.jpg","1","157","green","0.5","0.5","0.5","w","",""
"","","","","","63e857fe022e159687d56f41","bdp_lott","Mon Mar 27 2023 16:40:50 GMT-0700 (Pacific Daylight Time)","384226","red","green","animation","142","190549","0.0-5.0-2.68","","","","","","157","","","","","","[{""stimulus"":""img/green_wl/1.jpg"",""time"":61},{""stimulus"":""img/green_wl/2.jpg"",""time"":108},{""stimulus"":""img/green_wl/3.jpg"",""time"":152},{""stimulus"":""img/green_wl/4.jpg"",""time"":202},{""stimulus"":""img/green_wl/5.jpg"",""time"":265},{""stimulus"":""img/green_wl/6.jpg"",""time"":312},{""stimulus"":""img/green_wl/7.jpg"",""time"":359},{""stimulus"":""img/green_wl/8.jpg"",""time"":407},{""stimulus"":""img/green_wl/9.jpg"",""time"":453},{""stimulus"":""img/green_wl/10.jpg"",""time"":516},{""stimulus"":""img/green_wl/11.jpg"",""time"":563}]","[]"
"","","","choice","","63e857fe022e159687d56f41","bdp_lott","Mon Mar 27 2023 16:40:50 GMT-0700 (Pacific Daylight Time)","384226","red","green","image-keyboard-response","143","191002","0.0-5.0-1.69","","451","","img/green_wl/choose11.jpg","1","156","green","0.5","0.5","0.5","l","",""
"","","","","","63e857fe022e159687d56f41","bdp_lott","Mon Mar 27 2023 16:40:50 GMT-0700 (Pacific Daylight Time)","384226","red","green","animation","144","191608","0.0-5.0-2.69","","","","","","156","","","","","","[{""stimulus"":""img/green_ll/1.jpg"",""time"":54},{""stimulus"":""img/green_ll/2.jpg"",""time"":101},{""stimulus"":""img/green_ll/3.jpg"",""time"":165},{""stimulus"":""img/green_ll/4.jpg"",""time"":211},{""stimulus"":""img/green_ll/5.jpg"",""time"":261},{""stimulus"":""img/green_ll/6.jpg"",""time"":306},{""stimulus"":""img/green_ll/7.jpg"",""time"":354},{""stimulus"":""img/green_ll/8.jpg"",""time"":417},{""stimulus"":""img/green_ll/9.jpg"",""time"":465},{""stimulus"":""img/green_ll/10.jpg"",""time"":511},{""stimulus"":""img/green_ll/11.jpg"",""time"":560}]","[]"
"","","","choice","","63e857fe022e159687d56f41","bdp_lott","Mon Mar 27 2023 16:40:50 GMT-0700 (Pacific Daylight Time)","384226","red","green","image-keyboard-response","145","191946","0.0-5.0-1.70","","336","","img/green_ll/choose11.jpg","1","155","green","0.5","0.5","0.5","w","",""
"","","","","","63e857fe022e159687d56f41","bdp_lott","Mon Mar 27 2023 16:40:50 GMT-0700 (Pacific Daylight Time)","384226","red","green","animation","146","192556","0.0-5.0-2.70","","","","","","155","","","","","","[{""stimulus"":""img/green_wl/1.jpg"",""time"":56},{""stimulus"":""img/green_wl/2.jpg"",""time"":105},{""stimulus"":""img/green_wl/3.jpg"",""time"":167},{""stimulus"":""img/green_wl/4.jpg"",""time"":215},{""stimulus"":""img/green_wl/5.jpg"",""time"":261},{""stimulus"":""img/green_wl/6.jpg"",""time"":308},{""stimulus"":""img/green_wl/7.jpg"",""time"":355},{""stimulus"":""img/green_wl/8.jpg"",""time"":404},{""stimulus"":""img/green_wl/9.jpg"",""time"":453},{""stimulus"":""img/green_wl/10.jpg"",""time"":516},{""stimulus"":""img/green_wl/11.jpg"",""time"":563}]","[]"
"","","","choice","","63e857fe022e159687d56f41","bdp_lott","Mon Mar 27 2023 16:40:50 GMT-0700 (Pacific Daylight Time)","384226","red","green","image-keyboard-response","147","192982","0.0-5.0-1.71","","425","","img/green_wl/choose11.jpg","1","154","green","0.5","0.5","0.5","l","",""
"","","","","","63e857fe022e159687d56f41","bdp_lott","Mon Mar 27 2023 16:40:50 GMT-0700 (Pacific Daylight Time)","384226","red","green","animation","148","193587","0.0-5.0-2.71","","","","","","154","","","","","","[{""stimulus"":""img/green_ll/1.jpg"",""time"":64},{""stimulus"":""img/green_ll/2.jpg"",""time"":113},{""stimulus"":""img/green_ll/3.jpg"",""time"":159},{""stimulus"":""img/green_ll/4.jpg"",""time"":207},{""stimulus"":""img/green_ll/5.jpg"",""time"":255},{""stimulus"":""img/green_ll/6.jpg"",""time"":303},{""stimulus"":""img/green_ll/7.jpg"",""time"":366},{""stimulus"":""img/green_ll/8.jpg"",""time"":415},{""stimulus"":""img/green_ll/9.jpg"",""time"":462},{""stimulus"":""img/green_ll/10.jpg"",""time"":510},{""stimulus"":""img/green_ll/11.jpg"",""time"":557}]","[]"
"","","","choice","","63e857fe022e159687d56f41","bdp_lott","Mon Mar 27 2023 16:40:50 GMT-0700 (Pacific Daylight Time)","384226","red","green","image-keyboard-response","149","194020","0.0-5.0-1.72","","432","","img/green_ll/choose11.jpg","1","153","green","0.5","0.5","0.5","w","",""
"","","","","","63e857fe022e159687d56f41","bdp_lott","Mon Mar 27 2023 16:40:50 GMT-0700 (Pacific Daylight Time)","384226","red","green","animation","150","194634","0.0-5.0-2.72","","","","","","153","","","","","","[{""stimulus"":""img/green_wl/1.jpg"",""time"":57},{""stimulus"":""img/green_wl/2.jpg"",""time"":106},{""stimulus"":""img/green_wl/3.jpg"",""time"":153},{""stimulus"":""img/green_wl/4.jpg"",""time"":216},{""stimulus"":""img/green_wl/5.jpg"",""time"":265},{""stimulus"":""img/green_wl/6.jpg"",""time"":313},{""stimulus"":""img/green_wl/7.jpg"",""time"":360},{""stimulus"":""img/green_wl/8.jpg"",""time"":408},{""stimulus"":""img/green_wl/9.jpg"",""time"":455},{""stimulus"":""img/green_wl/10.jpg"",""time"":502},{""stimulus"":""img/green_wl/11.jpg"",""time"":566}]","[]"
"","","","choice","","63e857fe022e159687d56f41","bdp_lott","Mon Mar 27 2023 16:40:50 GMT-0700 (Pacific Daylight Time)","384226","red","green","image-keyboard-response","151","195011","0.0-5.0-1.73","","375","","img/green_wl/choose11.jpg","1","152","green","0.5","0.5","0.5","w","",""
"","","","","","63e857fe022e159687d56f41","bdp_lott","Mon Mar 27 2023 16:40:50 GMT-0700 (Pacific Daylight Time)","384226","red","green","animation","152","195612","0.0-5.0-2.73","","","","","","152","","","","","","[{""stimulus"":""img/green_wl/1.jpg"",""time"":53},{""stimulus"":""img/green_wl/2.jpg"",""time"":115},{""stimulus"":""img/green_wl/3.jpg"",""time"":162},{""stimulus"":""img/green_wl/4.jpg"",""time"":209},{""stimulus"":""img/green_wl/5.jpg"",""time"":256},{""stimulus"":""img/green_wl/6.jpg"",""time"":303},{""stimulus"":""img/green_wl/7.jpg"",""time"":367},{""stimulus"":""img/green_wl/8.jpg"",""time"":414},{""stimulus"":""img/green_wl/9.jpg"",""time"":461},{""stimulus"":""img/green_wl/10.jpg"",""time"":507},{""stimulus"":""img/green_wl/11.jpg"",""time"":554}]","[]"
"","","","choice","","63e857fe022e159687d56f41","bdp_lott","Mon Mar 27 2023 16:40:50 GMT-0700 (Pacific Daylight Time)","384226","red","green","image-keyboard-response","153","196013","0.0-5.0-1.74","","399","","img/green_wl/choose11.jpg","2","151","red","0.5","0.5","0.5","w","",""
"","","","","","63e857fe022e159687d56f41","bdp_lott","Mon Mar 27 2023 16:40:50 GMT-0700 (Pacific Daylight Time)","384226","red","green","animation","154","196618","0.0-5.0-2.74","","","","","","151","","","","","","[{""stimulus"":""img/red_ww/1.jpg"",""time"":56},{""stimulus"":""img/red_ww/2.jpg"",""time"":102},{""stimulus"":""img/red_ww/3.jpg"",""time"":166},{""stimulus"":""img/red_ww/4.jpg"",""time"":212},{""stimulus"":""img/red_ww/5.jpg"",""time"":260},{""stimulus"":""img/red_ww/6.jpg"",""time"":306},{""stimulus"":""img/red_ww/7.jpg"",""time"":354},{""stimulus"":""img/red_ww/8.jpg"",""time"":417},{""stimulus"":""img/red_ww/9.jpg"",""time"":453},{""stimulus"":""img/red_ww/10.jpg"",""time"":511},{""stimulus"":""img/red_ww/11.jpg"",""time"":558}]","[]"
"","","","choice","","63e857fe022e159687d56f41","bdp_lott","Mon Mar 27 2023 16:40:50 GMT-0700 (Pacific Daylight Time)","384226","red","green","image-keyboard-response","155","197543","0.0-5.0-1.75","","923","","img/red_ww/choose11.jpg","2","150","red","0.5","0.5","0.5","w","",""
"","","","","","63e857fe022e159687d56f41","bdp_lott","Mon Mar 27 2023 16:40:50 GMT-0700 (Pacific Daylight Time)","384226","red","green","animation","156","198158","0.0-5.0-2.75","","","","","","150","","","","","","[{""stimulus"":""img/red_ww/1.jpg"",""time"":66},{""stimulus"":""img/red_ww/2.jpg"",""time"":113},{""stimulus"":""img/red_ww/3.jpg"",""time"":160},{""stimulus"":""img/red_ww/4.jpg"",""time"":206},{""stimulus"":""img/red_ww/5.jpg"",""time"":254},{""stimulus"":""img/red_ww/6.jpg"",""time"":316},{""stimulus"":""img/red_ww/7.jpg"",""time"":364},{""stimulus"":""img/red_ww/8.jpg"",""time"":411},{""stimulus"":""img/red_ww/9.jpg"",""time"":459},{""stimulus"":""img/red_ww/10.jpg"",""time"":505},{""stimulus"":""img/red_ww/11.jpg"",""time"":552}]","[]"
"","","","choice","","63e857fe022e159687d56f41","bdp_lott","Mon Mar 27 2023 16:40:50 GMT-0700 (Pacific Daylight Time)","384226","red","green","image-keyboard-response","157","198843","0.0-5.0-1.76","","682","","img/red_ww/choose11.jpg","2","149","red","0.5","0.1","0.5","l","",""
"","","","","","63e857fe022e159687d56f41","bdp_lott","Mon Mar 27 2023 16:40:50 GMT-0700 (Pacific Daylight Time)","384226","red","green","animation","158","207762","0.0-5.0-2.76","","","","","","149","","","","","","[{""stimulus"":""img/red_wl/1.jpg"",""time"":53},{""stimulus"":""img/red_wl/2.jpg"",""time"":115},{""stimulus"":""img/red_wl/3.jpg"",""time"":163},{""stimulus"":""img/red_wl/4.jpg"",""time"":1122},{""stimulus"":""img/red_wl/5.jpg"",""time"":2113},{""stimulus"":""img/red_wl/6.jpg"",""time"":3118},{""stimulus"":""img/red_wl/7.jpg"",""time"":4123},{""stimulus"":""img/red_wl/8.jpg"",""time"":5111},{""stimulus"":""img/red_wl/9.jpg"",""time"":6119},{""stimulus"":""img/red_wl/10.jpg"",""time"":7108},{""stimulus"":""img/red_wl/11.jpg"",""time"":8111}]","[]"
"","","","choice","","63e857fe022e159687d56f41","bdp_lott","Mon Mar 27 2023 16:40:50 GMT-0700 (Pacific Daylight Time)","384226","red","green","image-keyboard-response","159","209203","0.0-5.0-1.77","","1439","","img/red_wl/choose11.jpg","1","148","green","0.5","0.1","0.1","l","",""
"","","","","","63e857fe022e159687d56f41","bdp_lott","Mon Mar 27 2023 16:40:50 GMT-0700 (Pacific Daylight Time)","384226","red","green","animation","160","209806","0.0-5.0-2.77","","","","","","148","","","","","","[{""stimulus"":""img/green_ll/1.jpg"",""time"":65},{""stimulus"":""img/green_ll/2.jpg"",""time"":114},{""stimulus"":""img/green_ll/3.jpg"",""time"":161},{""stimulus"":""img/green_ll/4.jpg"",""time"":208},{""stimulus"":""img/green_ll/5.jpg"",""time"":256},{""stimulus"":""img/green_ll/6.jpg"",""time"":305},{""stimulus"":""img/green_ll/7.jpg"",""time"":351},{""stimulus"":""img/green_ll/8.jpg"",""time"":416},{""stimulus"":""img/green_ll/9.jpg"",""time"":462},{""stimulus"":""img/green_ll/10.jpg"",""time"":510},{""stimulus"":""img/green_ll/11.jpg"",""time"":557}]","[]"
"","","","choice","","63e857fe022e159687d56f41","bdp_lott","Mon Mar 27 2023 16:40:50 GMT-0700 (Pacific Daylight Time)","384226","red","green","image-keyboard-response","161","210354","0.0-5.0-1.78","","546","","img/green_ll/choose11.jpg","1","147","green","0.5","0.1","0.1","l","",""
"","","","","","63e857fe022e159687d56f41","bdp_lott","Mon Mar 27 2023 16:40:50 GMT-0700 (Pacific Daylight Time)","384226","red","green","animation","162","210970","0.0-5.0-2.78","","","","","","147","","","","","","[{""stimulus"":""img/green_ll/1.jpg"",""time"":52},{""stimulus"":""img/green_ll/2.jpg"",""time"":115},{""stimulus"":""img/green_ll/3.jpg"",""time"":153},{""stimulus"":""img/green_ll/4.jpg"",""time"":208},{""stimulus"":""img/green_ll/5.jpg"",""time"":256},{""stimulus"":""img/green_ll/6.jpg"",""time"":302},{""stimulus"":""img/green_ll/7.jpg"",""time"":365},{""stimulus"":""img/green_ll/8.jpg"",""time"":412},{""stimulus"":""img/green_ll/9.jpg"",""time"":459},{""stimulus"":""img/green_ll/10.jpg"",""time"":506},{""stimulus"":""img/green_ll/11.jpg"",""time"":553}]","[]"
"","","","choice","","63e857fe022e159687d56f41","bdp_lott","Mon Mar 27 2023 16:40:50 GMT-0700 (Pacific Daylight Time)","384226","red","green","image-keyboard-response","163","211386","0.0-5.0-1.79","","415","","img/green_ll/choose11.jpg","2","146","red","0.5","0.1","0.5","w","",""
"","","","","","63e857fe022e159687d56f41","bdp_lott","Mon Mar 27 2023 16:40:50 GMT-0700 (Pacific Daylight Time)","384226","red","green","animation","164","211992","0.0-5.0-2.79","","","","","","146","","","","","","[{""stimulus"":""img/red_lw/1.jpg"",""time"":56},{""stimulus"":""img/red_lw/2.jpg"",""time"":104},{""stimulus"":""img/red_lw/3.jpg"",""time"":152},{""stimulus"":""img/red_lw/4.jpg"",""time"":213},{""stimulus"":""img/red_lw/5.jpg"",""time"":261},{""stimulus"":""img/red_lw/6.jpg"",""time"":307},{""stimulus"":""img/red_lw/7.jpg"",""time"":355},{""stimulus"":""img/red_lw/8.jpg"",""time"":402},{""stimulus"":""img/red_lw/9.jpg"",""time"":465},{""stimulus"":""img/red_lw/10.jpg"",""time"":512},{""stimulus"":""img/red_lw/11.jpg"",""time"":559}]","[]"
"","","","choice","","63e857fe022e159687d56f41","bdp_lott","Mon Mar 27 2023 16:40:50 GMT-0700 (Pacific Daylight Time)","384226","red","green","image-keyboard-response","165","212335","0.0-5.0-1.80","","340","","img/red_lw/choose11.jpg","2","145","red","0.5","0.1","0.5","l","",""
"","","","","","63e857fe022e159687d56f41","bdp_lott","Mon Mar 27 2023 16:40:50 GMT-0700 (Pacific Daylight Time)","384226","red","green","animation","166","213842","0.0-5.0-2.80","","","","","","145","","","","","","[{""stimulus"":""img/red_ll/1.jpg"",""time"":65},{""stimulus"":""img/red_ll/2.jpg"",""time"":115},{""stimulus"":""img/red_ll/3.jpg"",""time"":151},{""stimulus"":""img/red_ll/4.jpg"",""time"":209},{""stimulus"":""img/red_ll/5.jpg"",""time"":257},{""stimulus"":""img/red_ll/6.jpg"",""time"":304},{""stimulus"":""img/red_ll/7.jpg"",""time"":352},{""stimulus"":""img/red_ll/8.jpg"",""time"":416},{""stimulus"":""img/red_ll/9.jpg"",""time"":622},{""stimulus"":""img/red_ll/10.jpg"",""time"":1399},{""stimulus"":""img/red_ll/11.jpg"",""time"":1460}]","[]"
"","","","choice","","63e857fe022e159687d56f41","bdp_lott","Mon Mar 27 2023 16:40:50 GMT-0700 (Pacific Daylight Time)","384226","red","green","image-keyboard-response","167","214613","0.0-5.0-1.81","","770","","img/red_ll/choose11.jpg","2","144","red","0.5","0.1","0.5","l","",""
"","","","","","63e857fe022e159687d56f41","bdp_lott","Mon Mar 27 2023 16:40:50 GMT-0700 (Pacific Daylight Time)","384226","red","green","animation","168","215217","0.0-5.0-2.81","","","","","","144","","","","","","[{""stimulus"":""img/red_ll/1.jpg"",""time"":65},{""stimulus"":""img/red_ll/2.jpg"",""time"":114},{""stimulus"":""img/red_ll/3.jpg"",""time"":161},{""stimulus"":""img/red_ll/4.jpg"",""time"":209},{""stimulus"":""img/red_ll/5.jpg"",""time"":257},{""stimulus"":""img/red_ll/6.jpg"",""time"":303},{""stimulus"":""img/red_ll/7.jpg"",""time"":352},{""stimulus"":""img/red_ll/8.jpg"",""time"":414},{""stimulus"":""img/red_ll/9.jpg"",""time"":461},{""stimulus"":""img/red_ll/10.jpg"",""time"":509},{""stimulus"":""img/red_ll/11.jpg"",""time"":557}]","[]"
"","","","choice","","63e857fe022e159687d56f41","bdp_lott","Mon Mar 27 2023 16:40:50 GMT-0700 (Pacific Daylight Time)","384226","red","green","image-keyboard-response","169","215550","0.0-5.0-1.82","","331","","img/red_ll/choose11.jpg","2","143","red","0.5","0.1","0.5","l","",""
"","","","","","63e857fe022e159687d56f41","bdp_lott","Mon Mar 27 2023 16:40:50 GMT-0700 (Pacific Daylight Time)","384226","red","green","animation","170","216152","0.0-5.0-2.82","","","","","","143","","","","","","[{""stimulus"":""img/red_ll/1.jpg"",""time"":62},{""stimulus"":""img/red_ll/2.jpg"",""time"":110},{""stimulus"":""img/red_ll/3.jpg"",""time"":157},{""stimulus"":""img/red_ll/4.jpg"",""time"":205},{""stimulus"":""img/red_ll/5.jpg"",""time"":253},{""stimulus"":""img/red_ll/6.jpg"",""time"":301},{""stimulus"":""img/red_ll/7.jpg"",""time"":364},{""stimulus"":""img/red_ll/8.jpg"",""time"":411},{""stimulus"":""img/red_ll/9.jpg"",""time"":459},{""stimulus"":""img/red_ll/10.jpg"",""time"":507},{""stimulus"":""img/red_ll/11.jpg"",""time"":555}]","[]"
"","","","choice","","63e857fe022e159687d56f41","bdp_lott","Mon Mar 27 2023 16:40:50 GMT-0700 (Pacific Daylight Time)","384226","red","green","image-keyboard-response","171","216512","0.0-5.0-1.83","","357","","img/red_ll/choose11.jpg","1","142","green","0.5","0.1","0.1","l","",""
"","","","","","63e857fe022e159687d56f41","bdp_lott","Mon Mar 27 2023 16:40:50 GMT-0700 (Pacific Daylight Time)","384226","red","green","animation","172","217120","0.0-5.0-2.83","","","","","","142","","","","","","[{""stimulus"":""img/green_ll/1.jpg"",""time"":54},{""stimulus"":""img/green_ll/2.jpg"",""time"":102},{""stimulus"":""img/green_ll/3.jpg"",""time"":164},{""stimulus"":""img/green_ll/4.jpg"",""time"":211},{""stimulus"":""img/green_ll/5.jpg"",""time"":258},{""stimulus"":""img/green_ll/6.jpg"",""time"":306},{""stimulus"":""img/green_ll/7.jpg"",""time"":355},{""stimulus"":""img/green_ll/8.jpg"",""time"":417},{""stimulus"":""img/green_ll/9.jpg"",""time"":465},{""stimulus"":""img/green_ll/10.jpg"",""time"":513},{""stimulus"":""img/green_ll/11.jpg"",""time"":560}]","[]"
"","","","choice","","63e857fe022e159687d56f41","bdp_lott","Mon Mar 27 2023 16:40:50 GMT-0700 (Pacific Daylight Time)","384226","red","green","image-keyboard-response","173","217511","0.0-5.0-1.84","","390","","img/green_ll/choose11.jpg","1","141","green","0.5","0.1","0.1","w","",""
"","","","","","63e857fe022e159687d56f41","bdp_lott","Mon Mar 27 2023 16:40:50 GMT-0700 (Pacific Daylight Time)","384226","red","green","animation","174","218117","0.0-5.0-2.84","","","","","","141","","","","","","[{""stimulus"":""img/green_wl/1.jpg"",""time"":52},{""stimulus"":""img/green_wl/2.jpg"",""time"":118},{""stimulus"":""img/green_wl/3.jpg"",""time"":164},{""stimulus"":""img/green_wl/4.jpg"",""time"":211},{""stimulus"":""img/green_wl/5.jpg"",""time"":260},{""stimulus"":""img/green_wl/6.jpg"",""time"":306},{""stimulus"":""img/green_wl/7.jpg"",""time"":354},{""stimulus"":""img/green_wl/8.jpg"",""time"":402},{""stimulus"":""img/green_wl/9.jpg"",""time"":463},{""stimulus"":""img/green_wl/10.jpg"",""time"":510},{""stimulus"":""img/green_wl/11.jpg"",""time"":559}]","[]"
"","","","choice","","63e857fe022e159687d56f41","bdp_lott","Mon Mar 27 2023 16:40:50 GMT-0700 (Pacific Daylight Time)","384226","red","green","image-keyboard-response","175","218595","0.0-5.0-1.85","","476","","img/green_wl/choose11.jpg","2","140","red","0.5","0.1","0.5","l","",""
"","","","","","63e857fe022e159687d56f41","bdp_lott","Mon Mar 27 2023 16:40:50 GMT-0700 (Pacific Daylight Time)","384226","red","green","animation","176","225806","0.0-5.0-2.85","","","","","","140","","","","","","[{""stimulus"":""img/red_wl/1.jpg"",""time"":62},{""stimulus"":""img/red_wl/2.jpg"",""time"":107},{""stimulus"":""img/red_wl/3.jpg"",""time"":359},{""stimulus"":""img/red_wl/4.jpg"",""time"":1359},{""stimulus"":""img/red_wl/5.jpg"",""time"":2359},{""stimulus"":""img/red_wl/6.jpg"",""time"":3358},{""stimulus"":""img/red_wl/7.jpg"",""time"":4369},{""stimulus"":""img/red_wl/8.jpg"",""time"":5364},{""stimulus"":""img/red_wl/9.jpg"",""time"":6358},{""stimulus"":""img/red_wl/10.jpg"",""time"":7135},{""stimulus"":""img/red_wl/11.jpg"",""time"":7162}]","[]"
"","","","choice","","63e857fe022e159687d56f41","bdp_lott","Mon Mar 27 2023 16:40:50 GMT-0700 (Pacific Daylight Time)","384226","red","green","image-keyboard-response","177","226831","0.0-5.0-1.86","","1023","","img/red_wl/choose11.jpg","1","139","green","0.5","0.1","0.1","l","",""
"","","","","","63e857fe022e159687d56f41","bdp_lott","Mon Mar 27 2023 16:40:50 GMT-0700 (Pacific Daylight Time)","384226","red","green","animation","178","227436","0.0-5.0-2.86","","","","","","139","","","","","","[{""stimulus"":""img/green_ll/1.jpg"",""time"":52},{""stimulus"":""img/green_ll/2.jpg"",""time"":115},{""stimulus"":""img/green_ll/3.jpg"",""time"":162},{""stimulus"":""img/green_ll/4.jpg"",""time"":209},{""stimulus"":""img/green_ll/5.jpg"",""time"":258},{""stimulus"":""img/green_ll/6.jpg"",""time"":305},{""stimulus"":""img/green_ll/7.jpg"",""time"":352},{""stimulus"":""img/green_ll/8.jpg"",""time"":415},{""stimulus"":""img/green_ll/9.jpg"",""time"":464},{""stimulus"":""img/green_ll/10.jpg"",""time"":510},{""stimulus"":""img/green_ll/11.jpg"",""time"":559}]","[]"
"","","","choice","","63e857fe022e159687d56f41","bdp_lott","Mon Mar 27 2023 16:40:50 GMT-0700 (Pacific Daylight Time)","384226","red","green","image-keyboard-response","179","227922","0.0-5.0-1.87","","483","","img/green_ll/choose11.jpg","1","138","green","0.5","0.1","0.1","l","",""
"","","","","","63e857fe022e159687d56f41","bdp_lott","Mon Mar 27 2023 16:40:50 GMT-0700 (Pacific Daylight Time)","384226","red","green","animation","180","228529","0.0-5.0-2.87","","","","","","138","","","","","","[{""stimulus"":""img/green_ll/1.jpg"",""time"":69},{""stimulus"":""img/green_ll/2.jpg"",""time"":116},{""stimulus"":""img/green_ll/3.jpg"",""time"":163},{""stimulus"":""img/green_ll/4.jpg"",""time"":211},{""stimulus"":""img/green_ll/5.jpg"",""time"":259},{""stimulus"":""img/green_ll/6.jpg"",""time"":307},{""stimulus"":""img/green_ll/7.jpg"",""time"":352},{""stimulus"":""img/green_ll/8.jpg"",""time"":417},{""stimulus"":""img/green_ll/9.jpg"",""time"":465},{""stimulus"":""img/green_ll/10.jpg"",""time"":514},{""stimulus"":""img/green_ll/11.jpg"",""time"":560}]","[]"
"","","","choice","","63e857fe022e159687d56f41","bdp_lott","Mon Mar 27 2023 16:40:50 GMT-0700 (Pacific Daylight Time)","384226","red","green","image-keyboard-response","181","229007","0.0-5.0-1.88","","476","","img/green_ll/choose11.jpg","1","137","green","0.5","0.1","0.1","l","",""
"","","","","","63e857fe022e159687d56f41","bdp_lott","Mon Mar 27 2023 16:40:50 GMT-0700 (Pacific Daylight Time)","384226","red","green","animation","182","229623","0.0-5.0-2.88","","","","","","137","","","","","","[{""stimulus"":""img/green_ll/1.jpg"",""time"":58},{""stimulus"":""img/green_ll/2.jpg"",""time"":106},{""stimulus"":""img/green_ll/3.jpg"",""time"":153},{""stimulus"":""img/green_ll/4.jpg"",""time"":217},{""stimulus"":""img/green_ll/5.jpg"",""time"":266},{""stimulus"":""img/green_ll/6.jpg"",""time"":313},{""stimulus"":""img/green_ll/7.jpg"",""time"":361},{""stimulus"":""img/green_ll/8.jpg"",""time"":409},{""stimulus"":""img/green_ll/9.jpg"",""time"":456},{""stimulus"":""img/green_ll/10.jpg"",""time"":504},{""stimulus"":""img/green_ll/11.jpg"",""time"":552}]","[]"
"","","","choice","","63e857fe022e159687d56f41","bdp_lott","Mon Mar 27 2023 16:40:50 GMT-0700 (Pacific Daylight Time)","384226","red","green","image-keyboard-response","183","229955","0.0-5.0-1.89","","331","","img/green_ll/choose11.jpg","1","136","green","0.5","0.1","0.1","l","",""
"","","","","","63e857fe022e159687d56f41","bdp_lott","Mon Mar 27 2023 16:40:50 GMT-0700 (Pacific Daylight Time)","384226","red","green","animation","184","230572","0.0-5.0-2.89","","","","","","136","","","","","","[{""stimulus"":""img/green_ll/1.jpg"",""time"":63},{""stimulus"":""img/green_ll/2.jpg"",""time"":110},{""stimulus"":""img/green_ll/3.jpg"",""time"":159},{""stimulus"":""img/green_ll/4.jpg"",""time"":205},{""stimulus"":""img/green_ll/5.jpg"",""time"":253},{""stimulus"":""img/green_ll/6.jpg"",""time"":317},{""stimulus"":""img/green_ll/7.jpg"",""time"":365},{""stimulus"":""img/green_ll/8.jpg"",""time"":412},{""stimulus"":""img/green_ll/9.jpg"",""time"":457},{""stimulus"":""img/green_ll/10.jpg"",""time"":506},{""stimulus"":""img/green_ll/11.jpg"",""time"":552}]","[]"
"","","","choice","","63e857fe022e159687d56f41","bdp_lott","Mon Mar 27 2023 16:40:50 GMT-0700 (Pacific Daylight Time)","384226","red","green","image-keyboard-response","185","231026","0.0-5.0-1.90","","452","","img/green_ll/choose11.jpg","2","135","red","0.5","0.1","0.5","l","",""
"","","","","","63e857fe022e159687d56f41","bdp_lott","Mon Mar 27 2023 16:40:50 GMT-0700 (Pacific Daylight Time)","384226","red","green","animation","186","231635","0.0-5.0-2.90","","","","","","135","","","","","","[{""stimulus"":""img/red_ll/1.jpg"",""time"":55},{""stimulus"":""img/red_ll/2.jpg"",""time"":103},{""stimulus"":""img/red_ll/3.jpg"",""time"":165},{""stimulus"":""img/red_ll/4.jpg"",""time"":212},{""stimulus"":""img/red_ll/5.jpg"",""time"":258},{""stimulus"":""img/red_ll/6.jpg"",""time"":306},{""stimulus"":""img/red_ll/7.jpg"",""time"":354},{""stimulus"":""img/red_ll/8.jpg"",""time"":401},{""stimulus"":""img/red_ll/9.jpg"",""time"":465},{""stimulus"":""img/red_ll/10.jpg"",""time"":513},{""stimulus"":""img/red_ll/11.jpg"",""time"":562}]","[]"
"","","","choice","","63e857fe022e159687d56f41","bdp_lott","Mon Mar 27 2023 16:40:50 GMT-0700 (Pacific Daylight Time)","384226","red","green","image-keyboard-response","187","231911","0.0-5.0-1.91","","274","","img/red_ll/choose11.jpg","2","134","red","0.5","0.1","0.5","l","",""
"","","","","","63e857fe022e159687d56f41","bdp_lott","Mon Mar 27 2023 16:40:50 GMT-0700 (Pacific Daylight Time)","384226","red","green","animation","188","232520","0.0-5.0-2.91","","","","","","134","","","","","","[{""stimulus"":""img/red_ll/1.jpg"",""time"":57},{""stimulus"":""img/red_ll/2.jpg"",""time"":104},{""stimulus"":""img/red_ll/3.jpg"",""time"":151},{""stimulus"":""img/red_ll/4.jpg"",""time"":216},{""stimulus"":""img/red_ll/5.jpg"",""time"":261},{""stimulus"":""img/red_ll/6.jpg"",""time"":309},{""stimulus"":""img/red_ll/7.jpg"",""time"":357},{""stimulus"":""img/red_ll/8.jpg"",""time"":404},{""stimulus"":""img/red_ll/9.jpg"",""time"":453},{""stimulus"":""img/red_ll/10.jpg"",""time"":514},{""stimulus"":""img/red_ll/11.jpg"",""time"":562}]","[]"
"","","","choice","","63e857fe022e159687d56f41","bdp_lott","Mon Mar 27 2023 16:40:50 GMT-0700 (Pacific Daylight Time)","384226","red","green","image-keyboard-response","189","232858","0.0-5.0-1.92","","335","","img/red_ll/choose11.jpg","2","133","red","0.5","0.1","0.5","w","",""
