"trial_type","trial_index","time_elapsed","internal_node_id","subject_id","task","startTime","totalTime","fairMachine","unfairMachine","view_history","rt","event","trial","time","trialtype","success","stimulus","key_press","roundsLeft","chosen","pFairMachWin","pUnfairMachWin","pTrialWin","outcome","animation_sequence","responses"
"pavlovia","0","5","0.0-0.0","640feb5e49b723bcfaad6437","bdp_lott","Sat Mar 25 2023 21:17:38 GMT-0400 (Eastern Daylight Time)","217491","red","green","","","","","","","","","","","","","","","","",""
"instructions","1","2719","0.0-1.0","640feb5e49b723bcfaad6437","bdp_lott","Sat Mar 25 2023 21:17:38 GMT-0400 (Eastern Daylight Time)","217491","red","green","[{""page_index"":0,""viewing_time"":2713}]","2713","","","","","","","","","","","","","","",""
"","","","","640feb5e49b723bcfaad6437","bdp_lott","Sat Mar 25 2023 21:17:38 GMT-0400 (Eastern Daylight Time)","217491","red","green","","","fullscreenenter","2","3887","fullscreenenter","","","","","","","","","","",""
"fullscreen","2","4886","0.0-2.0","640feb5e49b723bcfaad6437","bdp_lott","Sat Mar 25 2023 21:17:38 GMT-0400 (Eastern Daylight Time)","217491","red","green","","","","","","","true","","","","","","","","","",""
"instructions","3","24020","0.0-4.0","640feb5e49b723bcfaad6437","bdp_lott","Sat Mar 25 2023 21:17:38 GMT-0400 (Eastern Daylight Time)","217491","red","green","[{""page_index"":0,""viewing_time"":19132}]","19132","","","","","","","","","","","","","","",""
"image-keyboard-response","4","25620","0.0-5.0-1.0","640feb5e49b723bcfaad6437","bdp_lott","Sat Mar 25 2023 21:17:38 GMT-0400 (Eastern Daylight Time)","217491","red","green","","1597","","","","choice","","img/red_ll/initchoose11.jpg","1","225","green","0.5","0.5","0.5","w","",""
"animation","5","26228","0.0-5.0-2.0","640feb5e49b723bcfaad6437","bdp_lott","Sat Mar 25 2023 21:17:38 GMT-0400 (Eastern Daylight Time)","217491","red","green","","","","","","","","","","225","","","","","","[{""stimulus"":""img/green_wl/1.jpg"",""time"":56},{""stimulus"":""img/green_wl/2.jpg"",""time"":107},{""stimulus"":""img/green_wl/3.jpg"",""time"":155},{""stimulus"":""img/green_wl/4.jpg"",""time"":209},{""stimulus"":""img/green_wl/5.jpg"",""time"":261},{""stimulus"":""img/green_wl/6.jpg"",""time"":306},{""stimulus"":""img/green_wl/7.jpg"",""time"":355},{""stimulus"":""img/green_wl/8.jpg"",""time"":408},{""stimulus"":""img/green_wl/9.jpg"",""time"":456},{""stimulus"":""img/green_wl/10.jpg"",""time"":505},{""stimulus"":""img/green_wl/11.jpg"",""time"":555}]","[]"
"image-keyboard-response","6","27631","0.0-5.0-1.1","640feb5e49b723bcfaad6437","bdp_lott","Sat Mar 25 2023 21:17:38 GMT-0400 (Eastern Daylight Time)","217491","red","green","","1401","","","","choice","","img/green_wl/choose11.jpg","2","224","red","0.5","0.5","0.5","w","",""
"animation","7","28236","0.0-5.0-2.1","640feb5e49b723bcfaad6437","bdp_lott","Sat Mar 25 2023 21:17:38 GMT-0400 (Eastern Daylight Time)","217491","red","green","","","","","","","","","","224","","","","","","[{""stimulus"":""img/red_ww/1.jpg"",""time"":54},{""stimulus"":""img/red_ww/2.jpg"",""time"":101},{""stimulus"":""img/red_ww/3.jpg"",""time"":161},{""stimulus"":""img/red_ww/4.jpg"",""time"":205},{""stimulus"":""img/red_ww/5.jpg"",""time"":252},{""stimulus"":""img/red_ww/6.jpg"",""time"":311},{""stimulus"":""img/red_ww/7.jpg"",""time"":361},{""stimulus"":""img/red_ww/8.jpg"",""time"":403},{""stimulus"":""img/red_ww/9.jpg"",""time"":453},{""stimulus"":""img/red_ww/10.jpg"",""time"":509},{""stimulus"":""img/red_ww/11.jpg"",""time"":561}]","[]"
"image-keyboard-response","8","29660","0.0-5.0-1.2","640feb5e49b723bcfaad6437","bdp_lott","Sat Mar 25 2023 21:17:38 GMT-0400 (Eastern Daylight Time)","217491","red","green","","1423","","","","choice","","img/red_ww/choose11.jpg","1","223","green","0.5","0.5","0.5","l","",""
"animation","9","30269","0.0-5.0-2.2","640feb5e49b723bcfaad6437","bdp_lott","Sat Mar 25 2023 21:17:38 GMT-0400 (Eastern Daylight Time)","217491","red","green","","","","","","","","","","223","","","","","","[{""stimulus"":""img/green_lw/1.jpg"",""time"":56},{""stimulus"":""img/green_lw/2.jpg"",""time"":104},{""stimulus"":""img/green_lw/3.jpg"",""time"":154},{""stimulus"":""img/green_lw/4.jpg"",""time"":209},{""stimulus"":""img/green_lw/5.jpg"",""time"":255},{""stimulus"":""img/green_lw/6.jpg"",""time"":304},{""stimulus"":""img/green_lw/7.jpg"",""time"":355},{""stimulus"":""img/green_lw/8.jpg"",""time"":408},{""stimulus"":""img/green_lw/9.jpg"",""time"":456},{""stimulus"":""img/green_lw/10.jpg"",""time"":504},{""stimulus"":""img/green_lw/11.jpg"",""time"":555}]","[]"
"image-keyboard-response","10","31496","0.0-5.0-1.3","640feb5e49b723bcfaad6437","bdp_lott","Sat Mar 25 2023 21:17:38 GMT-0400 (Eastern Daylight Time)","217491","red","green","","1225","","","","choice","","img/green_lw/choose11.jpg","2","222","red","0.5","0.5","0.5","l","",""
"animation","11","32101","0.0-5.0-2.3","640feb5e49b723bcfaad6437","bdp_lott","Sat Mar 25 2023 21:17:38 GMT-0400 (Eastern Daylight Time)","217491","red","green","","","","","","","","","","222","","","","","","[{""stimulus"":""img/red_ll/1.jpg"",""time"":51},{""stimulus"":""img/red_ll/2.jpg"",""time"":106},{""stimulus"":""img/red_ll/3.jpg"",""time"":155},{""stimulus"":""img/red_ll/4.jpg"",""time"":204},{""stimulus"":""img/red_ll/5.jpg"",""time"":251},{""stimulus"":""img/red_ll/6.jpg"",""time"":313},{""stimulus"":""img/red_ll/7.jpg"",""time"":356},{""stimulus"":""img/red_ll/8.jpg"",""time"":404},{""stimulus"":""img/red_ll/9.jpg"",""time"":453},{""stimulus"":""img/red_ll/10.jpg"",""time"":510},{""stimulus"":""img/red_ll/11.jpg"",""time"":556}]","[]"
"image-keyboard-response","12","33214","0.0-5.0-1.4","640feb5e49b723bcfaad6437","bdp_lott","Sat Mar 25 2023 21:17:38 GMT-0400 (Eastern Daylight Time)","217491","red","green","","1112","","","","choice","","img/red_ll/choose11.jpg","1","221","green","0.5","0.5","0.5","l","",""
"animation","13","33819","0.0-5.0-2.4","640feb5e49b723bcfaad6437","bdp_lott","Sat Mar 25 2023 21:17:38 GMT-0400 (Eastern Daylight Time)","217491","red","green","","","","","","","","","","221","","","","","","[{""stimulus"":""img/green_ll/1.jpg"",""time"":57},{""stimulus"":""img/green_ll/2.jpg"",""time"":105},{""stimulus"":""img/green_ll/3.jpg"",""time"":161},{""stimulus"":""img/green_ll/4.jpg"",""time"":209},{""stimulus"":""img/green_ll/5.jpg"",""time"":254},{""stimulus"":""img/green_ll/6.jpg"",""time"":305},{""stimulus"":""img/green_ll/7.jpg"",""time"":361},{""stimulus"":""img/green_ll/8.jpg"",""time"":410},{""stimulus"":""img/green_ll/9.jpg"",""time"":453},{""stimulus"":""img/green_ll/10.jpg"",""time"":501},{""stimulus"":""img/green_ll/11.jpg"",""time"":561}]","[]"
"image-keyboard-response","14","34847","0.0-5.0-1.5","640feb5e49b723bcfaad6437","bdp_lott","Sat Mar 25 2023 21:17:38 GMT-0400 (Eastern Daylight Time)","217491","red","green","","1027","","","","choice","","img/green_ll/choose11.jpg","2","220","red","0.5","0.5","0.5","w","",""
"animation","15","35452","0.0-5.0-2.5","640feb5e49b723bcfaad6437","bdp_lott","Sat Mar 25 2023 21:17:38 GMT-0400 (Eastern Daylight Time)","217491","red","green","","","","","","","","","","220","","","","","","[{""stimulus"":""img/red_lw/1.jpg"",""time"":52},{""stimulus"":""img/red_lw/2.jpg"",""time"":102},{""stimulus"":""img/red_lw/3.jpg"",""time"":157},{""stimulus"":""img/red_lw/4.jpg"",""time"":205},{""stimulus"":""img/red_lw/5.jpg"",""time"":253},{""stimulus"":""img/red_lw/6.jpg"",""time"":312},{""stimulus"":""img/red_lw/7.jpg"",""time"":356},{""stimulus"":""img/red_lw/8.jpg"",""time"":405},{""stimulus"":""img/red_lw/9.jpg"",""time"":456},{""stimulus"":""img/red_lw/10.jpg"",""time"":511},{""stimulus"":""img/red_lw/11.jpg"",""time"":558}]","[]"
"image-keyboard-response","16","36688","0.0-5.0-1.6","640feb5e49b723bcfaad6437","bdp_lott","Sat Mar 25 2023 21:17:38 GMT-0400 (Eastern Daylight Time)","217491","red","green","","1235","","","","choice","","img/red_lw/choose11.jpg","1","219","green","0.5","0.5","0.5","l","",""
"animation","17","37291","0.0-5.0-2.6","640feb5e49b723bcfaad6437","bdp_lott","Sat Mar 25 2023 21:17:38 GMT-0400 (Eastern Daylight Time)","217491","red","green","","","","","","","","","","219","","","","","","[{""stimulus"":""img/green_lw/1.jpg"",""time"":53},{""stimulus"":""img/green_lw/2.jpg"",""time"":104},{""stimulus"":""img/green_lw/3.jpg"",""time"":156},{""stimulus"":""img/green_lw/4.jpg"",""time"":202},{""stimulus"":""img/green_lw/5.jpg"",""time"":252},{""stimulus"":""img/green_lw/6.jpg"",""time"":306},{""stimulus"":""img/green_lw/7.jpg"",""time"":355},{""stimulus"":""img/green_lw/8.jpg"",""time"":403},{""stimulus"":""img/green_lw/9.jpg"",""time"":453},{""stimulus"":""img/green_lw/10.jpg"",""time"":508},{""stimulus"":""img/green_lw/11.jpg"",""time"":555}]","[]"
"image-keyboard-response","18","37995","0.0-5.0-1.7","640feb5e49b723bcfaad6437","bdp_lott","Sat Mar 25 2023 21:17:38 GMT-0400 (Eastern Daylight Time)","217491","red","green","","703","","","","choice","","img/green_lw/choose11.jpg","2","218","red","0.5","0.5","0.5","w","",""
"animation","19","38604","0.0-5.0-2.7","640feb5e49b723bcfaad6437","bdp_lott","Sat Mar 25 2023 21:17:38 GMT-0400 (Eastern Daylight Time)","217491","red","green","","","","","","","","","","218","","","","","","[{""stimulus"":""img/red_lw/1.jpg"",""time"":57},{""stimulus"":""img/red_lw/2.jpg"",""time"":102},{""stimulus"":""img/red_lw/3.jpg"",""time"":151},{""stimulus"":""img/red_lw/4.jpg"",""time"":208},{""stimulus"":""img/red_lw/5.jpg"",""time"":257},{""stimulus"":""img/red_lw/6.jpg"",""time"":305},{""stimulus"":""img/red_lw/7.jpg"",""time"":351},{""stimulus"":""img/red_lw/8.jpg"",""time"":408},{""stimulus"":""img/red_lw/9.jpg"",""time"":455},{""stimulus"":""img/red_lw/10.jpg"",""time"":504},{""stimulus"":""img/red_lw/11.jpg"",""time"":553}]","[]"
"image-keyboard-response","20","39309","0.0-5.0-1.8","640feb5e49b723bcfaad6437","bdp_lott","Sat Mar 25 2023 21:17:38 GMT-0400 (Eastern Daylight Time)","217491","red","green","","703","","","","choice","","img/red_lw/choose11.jpg","2","217","red","0.5","0.5","0.5","l","",""
"animation","21","39915","0.0-5.0-2.8","640feb5e49b723bcfaad6437","bdp_lott","Sat Mar 25 2023 21:17:38 GMT-0400 (Eastern Daylight Time)","217491","red","green","","","","","","","","","","217","","","","","","[{""stimulus"":""img/red_ll/1.jpg"",""time"":55},{""stimulus"":""img/red_ll/2.jpg"",""time"":106},{""stimulus"":""img/red_ll/3.jpg"",""time"":159},{""stimulus"":""img/red_ll/4.jpg"",""time"":208},{""stimulus"":""img/red_ll/5.jpg"",""time"":255},{""stimulus"":""img/red_ll/6.jpg"",""time"":307},{""stimulus"":""img/red_ll/7.jpg"",""time"":359},{""stimulus"":""img/red_ll/8.jpg"",""time"":407},{""stimulus"":""img/red_ll/9.jpg"",""time"":457},{""stimulus"":""img/red_ll/10.jpg"",""time"":505},{""stimulus"":""img/red_ll/11.jpg"",""time"":559}]","[]"
"image-keyboard-response","22","40622","0.0-5.0-1.9","640feb5e49b723bcfaad6437","bdp_lott","Sat Mar 25 2023 21:17:38 GMT-0400 (Eastern Daylight Time)","217491","red","green","","706","","","","choice","","img/red_ll/choose11.jpg","2","216","red","0.5","0.5","0.5","w","",""
"animation","23","41230","0.0-5.0-2.9","640feb5e49b723bcfaad6437","bdp_lott","Sat Mar 25 2023 21:17:38 GMT-0400 (Eastern Daylight Time)","217491","red","green","","","","","","","","","","216","","","","","","[{""stimulus"":""img/red_lw/1.jpg"",""time"":54},{""stimulus"":""img/red_lw/2.jpg"",""time"":103},{""stimulus"":""img/red_lw/3.jpg"",""time"":158},{""stimulus"":""img/red_lw/4.jpg"",""time"":206},{""stimulus"":""img/red_lw/5.jpg"",""time"":256},{""stimulus"":""img/red_lw/6.jpg"",""time"":303},{""stimulus"":""img/red_lw/7.jpg"",""time"":358},{""stimulus"":""img/red_lw/8.jpg"",""time"":405},{""stimulus"":""img/red_lw/9.jpg"",""time"":453},{""stimulus"":""img/red_lw/10.jpg"",""time"":502},{""stimulus"":""img/red_lw/11.jpg"",""time"":559}]","[]"
"image-keyboard-response","24","41716","0.0-5.0-1.10","640feb5e49b723bcfaad6437","bdp_lott","Sat Mar 25 2023 21:17:38 GMT-0400 (Eastern Daylight Time)","217491","red","green","","485","","","","choice","","img/red_lw/choose11.jpg","2","215","red","0.5","0.5","0.5","w","",""
"animation","25","42325","0.0-5.0-2.10","640feb5e49b723bcfaad6437","bdp_lott","Sat Mar 25 2023 21:17:38 GMT-0400 (Eastern Daylight Time)","217491","red","green","","","","","","","","","","215","","","","","","[{""stimulus"":""img/red_lw/1.jpg"",""time"":60},{""stimulus"":""img/red_lw/2.jpg"",""time"":103},{""stimulus"":""img/red_lw/3.jpg"",""time"":153},{""stimulus"":""img/red_lw/4.jpg"",""time"":209},{""stimulus"":""img/red_lw/5.jpg"",""time"":260},{""stimulus"":""img/red_lw/6.jpg"",""time"":305},{""stimulus"":""img/red_lw/7.jpg"",""time"":351},{""stimulus"":""img/red_lw/8.jpg"",""time"":410},{""stimulus"":""img/red_lw/9.jpg"",""time"":460},{""stimulus"":""img/red_lw/10.jpg"",""time"":504},{""stimulus"":""img/red_lw/11.jpg"",""time"":552}]","[]"
"image-keyboard-response","26","42749","0.0-5.0-1.11","640feb5e49b723bcfaad6437","bdp_lott","Sat Mar 25 2023 21:17:38 GMT-0400 (Eastern Daylight Time)","217491","red","green","","423","","","","choice","","img/red_lw/choose11.jpg","2","214","red","0.5","0.5","0.5","w","",""
"animation","27","43358","0.0-5.0-2.11","640feb5e49b723bcfaad6437","bdp_lott","Sat Mar 25 2023 21:17:38 GMT-0400 (Eastern Daylight Time)","217491","red","green","","","","","","","","","","214","","","","","","[{""stimulus"":""img/red_lw/1.jpg"",""time"":57},{""stimulus"":""img/red_lw/2.jpg"",""time"":104},{""stimulus"":""img/red_lw/3.jpg"",""time"":160},{""stimulus"":""img/red_lw/4.jpg"",""time"":209},{""stimulus"":""img/red_lw/5.jpg"",""time"":254},{""stimulus"":""img/red_lw/6.jpg"",""time"":304},{""stimulus"":""img/red_lw/7.jpg"",""time"":359},{""stimulus"":""img/red_lw/8.jpg"",""time"":410},{""stimulus"":""img/red_lw/9.jpg"",""time"":455},{""stimulus"":""img/red_lw/10.jpg"",""time"":504},{""stimulus"":""img/red_lw/11.jpg"",""time"":560}]","[]"
"image-keyboard-response","28","43623","0.0-5.0-1.12","640feb5e49b723bcfaad6437","bdp_lott","Sat Mar 25 2023 21:17:38 GMT-0400 (Eastern Daylight Time)","217491","red","green","","264","","","","choice","","img/red_lw/choose11.jpg","2","213","red","0.5","0.5","0.5","l","",""
"animation","29","44229","0.0-5.0-2.12","640feb5e49b723bcfaad6437","bdp_lott","Sat Mar 25 2023 21:17:38 GMT-0400 (Eastern Daylight Time)","217491","red","green","","","","","","","","","","213","","","","","","[{""stimulus"":""img/red_ll/1.jpg"",""time"":52},{""stimulus"":""img/red_ll/2.jpg"",""time"":106},{""stimulus"":""img/red_ll/3.jpg"",""time"":157},{""stimulus"":""img/red_ll/4.jpg"",""time"":206},{""stimulus"":""img/red_ll/5.jpg"",""time"":254},{""stimulus"":""img/red_ll/6.jpg"",""time"":309},{""stimulus"":""img/red_ll/7.jpg"",""time"":357},{""stimulus"":""img/red_ll/8.jpg"",""time"":405},{""stimulus"":""img/red_ll/9.jpg"",""time"":452},{""stimulus"":""img/red_ll/10.jpg"",""time"":510},{""stimulus"":""img/red_ll/11.jpg"",""time"":558}]","[]"
"image-keyboard-response","30","44598","0.0-5.0-1.13","640feb5e49b723bcfaad6437","bdp_lott","Sat Mar 25 2023 21:17:38 GMT-0400 (Eastern Daylight Time)","217491","red","green","","368","","","","choice","","img/red_ll/choose11.jpg","2","212","red","0.5","0.5","0.5","l","",""
"animation","31","45205","0.0-5.0-2.13","640feb5e49b723bcfaad6437","bdp_lott","Sat Mar 25 2023 21:17:38 GMT-0400 (Eastern Daylight Time)","217491","red","green","","","","","","","","","","212","","","","","","[{""stimulus"":""img/red_ll/1.jpg"",""time"":58},{""stimulus"":""img/red_ll/2.jpg"",""time"":103},{""stimulus"":""img/red_ll/3.jpg"",""time"":161},{""stimulus"":""img/red_ll/4.jpg"",""time"":208},{""stimulus"":""img/red_ll/5.jpg"",""time"":258},{""stimulus"":""img/red_ll/6.jpg"",""time"":302},{""stimulus"":""img/red_ll/7.jpg"",""time"":360},{""stimulus"":""img/red_ll/8.jpg"",""time"":407},{""stimulus"":""img/red_ll/9.jpg"",""time"":458},{""stimulus"":""img/red_ll/10.jpg"",""time"":502},{""stimulus"":""img/red_ll/11.jpg"",""time"":559}]","[]"
"image-keyboard-response","32","45517","0.0-5.0-1.14","640feb5e49b723bcfaad6437","bdp_lott","Sat Mar 25 2023 21:17:38 GMT-0400 (Eastern Daylight Time)","217491","red","green","","311","","","","choice","","img/red_ll/choose11.jpg","2","211","red","0.5","0.5","0.5","w","",""
"animation","33","46125","0.0-5.0-2.14","640feb5e49b723bcfaad6437","bdp_lott","Sat Mar 25 2023 21:17:38 GMT-0400 (Eastern Daylight Time)","217491","red","green","","","","","","","","","","211","","","","","","[{""stimulus"":""img/red_lw/1.jpg"",""time"":59},{""stimulus"":""img/red_lw/2.jpg"",""time"":103},{""stimulus"":""img/red_lw/3.jpg"",""time"":159},{""stimulus"":""img/red_lw/4.jpg"",""time"":208},{""stimulus"":""img/red_lw/5.jpg"",""time"":259},{""stimulus"":""img/red_lw/6.jpg"",""time"":303},{""stimulus"":""img/red_lw/7.jpg"",""time"":361},{""stimulus"":""img/red_lw/8.jpg"",""time"":408},{""stimulus"":""img/red_lw/9.jpg"",""time"":458},{""stimulus"":""img/red_lw/10.jpg"",""time"":502},{""stimulus"":""img/red_lw/11.jpg"",""time"":559}]","[]"
"image-keyboard-response","34","46331","0.0-5.0-1.15","640feb5e49b723bcfaad6437","bdp_lott","Sat Mar 25 2023 21:17:38 GMT-0400 (Eastern Daylight Time)","217491","red","green","","205","","","","choice","","img/red_lw/choose11.jpg","2","210","red","0.5","0.5","0.5","w","",""
"animation","35","46941","0.0-5.0-2.15","640feb5e49b723bcfaad6437","bdp_lott","Sat Mar 25 2023 21:17:38 GMT-0400 (Eastern Daylight Time)","217491","red","green","","","","","","","","","","210","","","","","","[{""stimulus"":""img/red_lw/1.jpg"",""time"":61},{""stimulus"":""img/red_lw/2.jpg"",""time"":108},{""stimulus"":""img/red_lw/3.jpg"",""time"":157},{""stimulus"":""img/red_lw/4.jpg"",""time"":211},{""stimulus"":""img/red_lw/5.jpg"",""time"":261},{""stimulus"":""img/red_lw/6.jpg"",""time"":307},{""stimulus"":""img/red_lw/7.jpg"",""time"":357},{""stimulus"":""img/red_lw/8.jpg"",""time"":411},{""stimulus"":""img/red_lw/9.jpg"",""time"":461},{""stimulus"":""img/red_lw/10.jpg"",""time"":507},{""stimulus"":""img/red_lw/11.jpg"",""time"":557}]","[]"
"image-keyboard-response","36","47221","0.0-5.0-1.16","640feb5e49b723bcfaad6437","bdp_lott","Sat Mar 25 2023 21:17:38 GMT-0400 (Eastern Daylight Time)","217491","red","green","","279","","","","choice","","img/red_lw/choose11.jpg","2","209","red","0.5","0.5","0.5","w","",""
"animation","37","47828","0.0-5.0-2.16","640feb5e49b723bcfaad6437","bdp_lott","Sat Mar 25 2023 21:17:38 GMT-0400 (Eastern Daylight Time)","217491","red","green","","","","","","","","","","209","","","","","","[{""stimulus"":""img/red_lw/1.jpg"",""time"":53},{""stimulus"":""img/red_lw/2.jpg"",""time"":102},{""stimulus"":""img/red_lw/3.jpg"",""time"":159},{""stimulus"":""img/red_lw/4.jpg"",""time"":207},{""stimulus"":""img/red_lw/5.jpg"",""time"":254},{""stimulus"":""img/red_lw/6.jpg"",""time"":304},{""stimulus"":""img/red_lw/7.jpg"",""time"":358},{""stimulus"":""img/red_lw/8.jpg"",""time"":406},{""stimulus"":""img/red_lw/9.jpg"",""time"":454},{""stimulus"":""img/red_lw/10.jpg"",""time"":503},{""stimulus"":""img/red_lw/11.jpg"",""time"":559}]","[]"
"image-keyboard-response","38","48085","0.0-5.0-1.17","640feb5e49b723bcfaad6437","bdp_lott","Sat Mar 25 2023 21:17:38 GMT-0400 (Eastern Daylight Time)","217491","red","green","","255","","","","choice","","img/red_lw/choose11.jpg","2","208","red","0.5","0.5","0.5","w","",""
"animation","39","48692","0.0-5.0-2.17","640feb5e49b723bcfaad6437","bdp_lott","Sat Mar 25 2023 21:17:38 GMT-0400 (Eastern Daylight Time)","217491","red","green","","","","","","","","","","208","","","","","","[{""stimulus"":""img/red_lw/1.jpg"",""time"":57},{""stimulus"":""img/red_lw/2.jpg"",""time"":102},{""stimulus"":""img/red_lw/3.jpg"",""time"":160},{""stimulus"":""img/red_lw/4.jpg"",""time"":207},{""stimulus"":""img/red_lw/5.jpg"",""time"":257},{""stimulus"":""img/red_lw/6.jpg"",""time"":307},{""stimulus"":""img/red_lw/7.jpg"",""time"":362},{""stimulus"":""img/red_lw/8.jpg"",""time"":407},{""stimulus"":""img/red_lw/9.jpg"",""time"":459},{""stimulus"":""img/red_lw/10.jpg"",""time"":507},{""stimulus"":""img/red_lw/11.jpg"",""time"":559}]","[]"
"image-keyboard-response","40","48974","0.0-5.0-1.18","640feb5e49b723bcfaad6437","bdp_lott","Sat Mar 25 2023 21:17:38 GMT-0400 (Eastern Daylight Time)","217491","red","green","","281","","","","choice","","img/red_lw/choose11.jpg","2","207","red","0.5","0.5","0.5","w","",""
"animation","41","49581","0.0-5.0-2.18","640feb5e49b723bcfaad6437","bdp_lott","Sat Mar 25 2023 21:17:38 GMT-0400 (Eastern Daylight Time)","217491","red","green","","","","","","","","","","207","","","","","","[{""stimulus"":""img/red_lw/1.jpg"",""time"":55},{""stimulus"":""img/red_lw/2.jpg"",""time"":102},{""stimulus"":""img/red_lw/3.jpg"",""time"":160},{""stimulus"":""img/red_lw/4.jpg"",""time"":201},{""stimulus"":""img/red_lw/5.jpg"",""time"":255},{""stimulus"":""img/red_lw/6.jpg"",""time"":303},{""stimulus"":""img/red_lw/7.jpg"",""time"":359},{""stimulus"":""img/red_lw/8.jpg"",""time"":407},{""stimulus"":""img/red_lw/9.jpg"",""time"":455},{""stimulus"":""img/red_lw/10.jpg"",""time"":502},{""stimulus"":""img/red_lw/11.jpg"",""time"":558}]","[]"
"image-keyboard-response","42","49877","0.0-5.0-1.19","640feb5e49b723bcfaad6437","bdp_lott","Sat Mar 25 2023 21:17:38 GMT-0400 (Eastern Daylight Time)","217491","red","green","","295","","","","choice","","img/red_lw/choose11.jpg","2","206","red","0.5","0.5","0.5","l","",""
"animation","43","50484","0.0-5.0-2.19","640feb5e49b723bcfaad6437","bdp_lott","Sat Mar 25 2023 21:17:38 GMT-0400 (Eastern Daylight Time)","217491","red","green","","","","","","","","","","206","","","","","","[{""stimulus"":""img/red_ll/1.jpg"",""time"":55},{""stimulus"":""img/red_ll/2.jpg"",""time"":103},{""stimulus"":""img/red_ll/3.jpg"",""time"":161},{""stimulus"":""img/red_ll/4.jpg"",""time"":206},{""stimulus"":""img/red_ll/5.jpg"",""time"":254},{""stimulus"":""img/red_ll/6.jpg"",""time"":302},{""stimulus"":""img/red_ll/7.jpg"",""time"":359},{""stimulus"":""img/red_ll/8.jpg"",""time"":406},{""stimulus"":""img/red_ll/9.jpg"",""time"":455},{""stimulus"":""img/red_ll/10.jpg"",""time"":503},{""stimulus"":""img/red_ll/11.jpg"",""time"":558}]","[]"
"image-keyboard-response","44","50973","0.0-5.0-1.20","640feb5e49b723bcfaad6437","bdp_lott","Sat Mar 25 2023 21:17:38 GMT-0400 (Eastern Daylight Time)","217491","red","green","","489","","","","choice","","img/red_ll/choose11.jpg","2","205","red","0.5","0.5","0.5","l","",""
"animation","45","51583","0.0-5.0-2.20","640feb5e49b723bcfaad6437","bdp_lott","Sat Mar 25 2023 21:17:38 GMT-0400 (Eastern Daylight Time)","217491","red","green","","","","","","","","","","205","","","","","","[{""stimulus"":""img/red_ll/1.jpg"",""time"":59},{""stimulus"":""img/red_ll/2.jpg"",""time"":107},{""stimulus"":""img/red_ll/3.jpg"",""time"":159},{""stimulus"":""img/red_ll/4.jpg"",""time"":208},{""stimulus"":""img/red_ll/5.jpg"",""time"":258},{""stimulus"":""img/red_ll/6.jpg"",""time"":303},{""stimulus"":""img/red_ll/7.jpg"",""time"":359},{""stimulus"":""img/red_ll/8.jpg"",""time"":409},{""stimulus"":""img/red_ll/9.jpg"",""time"":455},{""stimulus"":""img/red_ll/10.jpg"",""time"":506},{""stimulus"":""img/red_ll/11.jpg"",""time"":560}]","[]"
"image-keyboard-response","46","51901","0.0-5.0-1.21","640feb5e49b723bcfaad6437","bdp_lott","Sat Mar 25 2023 21:17:38 GMT-0400 (Eastern Daylight Time)","217491","red","green","","317","","","","choice","","img/red_ll/choose11.jpg","2","204","red","0.5","0.5","0.5","l","",""
"animation","47","52508","0.0-5.0-2.21","640feb5e49b723bcfaad6437","bdp_lott","Sat Mar 25 2023 21:17:38 GMT-0400 (Eastern Daylight Time)","217491","red","green","","","","","","","","","","204","","","","","","[{""stimulus"":""img/red_ll/1.jpg"",""time"":57},{""stimulus"":""img/red_ll/2.jpg"",""time"":102},{""stimulus"":""img/red_ll/3.jpg"",""time"":158},{""stimulus"":""img/red_ll/4.jpg"",""time"":206},{""stimulus"":""img/red_ll/5.jpg"",""time"":257},{""stimulus"":""img/red_ll/6.jpg"",""time"":304},{""stimulus"":""img/red_ll/7.jpg"",""time"":359},{""stimulus"":""img/red_ll/8.jpg"",""time"":407},{""stimulus"":""img/red_ll/9.jpg"",""time"":456},{""stimulus"":""img/red_ll/10.jpg"",""time"":502},{""stimulus"":""img/red_ll/11.jpg"",""time"":559}]","[]"
"image-keyboard-response","48","52829","0.0-5.0-1.22","640feb5e49b723bcfaad6437","bdp_lott","Sat Mar 25 2023 21:17:38 GMT-0400 (Eastern Daylight Time)","217491","red","green","","320","","","","choice","","img/red_ll/choose11.jpg","2","203","red","0.5","0.5","0.5","l","",""
"animation","49","53435","0.0-5.0-2.22","640feb5e49b723bcfaad6437","bdp_lott","Sat Mar 25 2023 21:17:38 GMT-0400 (Eastern Daylight Time)","217491","red","green","","","","","","","","","","203","","","","","","[{""stimulus"":""img/red_ll/1.jpg"",""time"":56},{""stimulus"":""img/red_ll/2.jpg"",""time"":103},{""stimulus"":""img/red_ll/3.jpg"",""time"":163},{""stimulus"":""img/red_ll/4.jpg"",""time"":207},{""stimulus"":""img/red_ll/5.jpg"",""time"":256},{""stimulus"":""img/red_ll/6.jpg"",""time"":304},{""stimulus"":""img/red_ll/7.jpg"",""time"":363},{""stimulus"":""img/red_ll/8.jpg"",""time"":408},{""stimulus"":""img/red_ll/9.jpg"",""time"":457},{""stimulus"":""img/red_ll/10.jpg"",""time"":503},{""stimulus"":""img/red_ll/11.jpg"",""time"":563}]","[]"
"image-keyboard-response","50","53760","0.0-5.0-1.23","640feb5e49b723bcfaad6437","bdp_lott","Sat Mar 25 2023 21:17:38 GMT-0400 (Eastern Daylight Time)","217491","red","green","","324","","","","choice","","img/red_ll/choose11.jpg","2","202","red","0.5","0.5","0.5","w","",""
"animation","51","54365","0.0-5.0-2.23","640feb5e49b723bcfaad6437","bdp_lott","Sat Mar 25 2023 21:17:38 GMT-0400 (Eastern Daylight Time)","217491","red","green","","","","","","","","","","202","","","","","","[{""stimulus"":""img/red_lw/1.jpg"",""time"":54},{""stimulus"":""img/red_lw/2.jpg"",""time"":108},{""stimulus"":""img/red_lw/3.jpg"",""time"":156},{""stimulus"":""img/red_lw/4.jpg"",""time"":203},{""stimulus"":""img/red_lw/5.jpg"",""time"":253},{""stimulus"":""img/red_lw/6.jpg"",""time"":309},{""stimulus"":""img/red_lw/7.jpg"",""time"":358},{""stimulus"":""img/red_lw/8.jpg"",""time"":404},{""stimulus"":""img/red_lw/9.jpg"",""time"":454},{""stimulus"":""img/red_lw/10.jpg"",""time"":509},{""stimulus"":""img/red_lw/11.jpg"",""time"":556}]","[]"
"image-keyboard-response","52","54555","0.0-5.0-1.24","640feb5e49b723bcfaad6437","bdp_lott","Sat Mar 25 2023 21:17:38 GMT-0400 (Eastern Daylight Time)","217491","red","green","","189","","","","choice","","img/red_lw/choose11.jpg","1","201","green","0.5","0.5","0.5","l","",""
"animation","53","55166","0.0-5.0-2.24","640feb5e49b723bcfaad6437","bdp_lott","Sat Mar 25 2023 21:17:38 GMT-0400 (Eastern Daylight Time)","217491","red","green","","","","","","","","","","201","","","","","","[{""stimulus"":""img/green_lw/1.jpg"",""time"":57},{""stimulus"":""img/green_lw/2.jpg"",""time"":105},{""stimulus"":""img/green_lw/3.jpg"",""time"":154},{""stimulus"":""img/green_lw/4.jpg"",""time"":211},{""stimulus"":""img/green_lw/5.jpg"",""time"":258},{""stimulus"":""img/green_lw/6.jpg"",""time"":305},{""stimulus"":""img/green_lw/7.jpg"",""time"":354},{""stimulus"":""img/green_lw/8.jpg"",""time"":410},{""stimulus"":""img/green_lw/9.jpg"",""time"":459},{""stimulus"":""img/green_lw/10.jpg"",""time"":507},{""stimulus"":""img/green_lw/11.jpg"",""time"":554}]","[]"
"image-keyboard-response","54","55604","0.0-5.0-1.25","640feb5e49b723bcfaad6437","bdp_lott","Sat Mar 25 2023 21:17:38 GMT-0400 (Eastern Daylight Time)","217491","red","green","","437","","","","choice","","img/green_lw/choose11.jpg","2","200","red","0.5","0.5","0.5","l","",""
"animation","55","56208","0.0-5.0-2.25","640feb5e49b723bcfaad6437","bdp_lott","Sat Mar 25 2023 21:17:38 GMT-0400 (Eastern Daylight Time)","217491","red","green","","","","","","","","","","200","","","","","","[{""stimulus"":""img/red_ll/1.jpg"",""time"":56},{""stimulus"":""img/red_ll/2.jpg"",""time"":104},{""stimulus"":""img/red_ll/3.jpg"",""time"":153},{""stimulus"":""img/red_ll/4.jpg"",""time"":208},{""stimulus"":""img/red_ll/5.jpg"",""time"":258},{""stimulus"":""img/red_ll/6.jpg"",""time"":303},{""stimulus"":""img/red_ll/7.jpg"",""time"":354},{""stimulus"":""img/red_ll/8.jpg"",""time"":407},{""stimulus"":""img/red_ll/9.jpg"",""time"":454},{""stimulus"":""img/red_ll/10.jpg"",""time"":504},{""stimulus"":""img/red_ll/11.jpg"",""time"":562}]","[]"
"image-keyboard-response","56","56365","0.0-5.0-1.26","640feb5e49b723bcfaad6437","bdp_lott","Sat Mar 25 2023 21:17:38 GMT-0400 (Eastern Daylight Time)","217491","red","green","","157","","","","choice","","img/red_ll/choose11.jpg","2","199","red","0.5","0.5","0.5","w","",""
"animation","57","56975","0.0-5.0-2.26","640feb5e49b723bcfaad6437","bdp_lott","Sat Mar 25 2023 21:17:38 GMT-0400 (Eastern Daylight Time)","217491","red","green","","","","","","","","","","199","","","","","","[{""stimulus"":""img/red_lw/1.jpg"",""time"":55},{""stimulus"":""img/red_lw/2.jpg"",""time"":102},{""stimulus"":""img/red_lw/3.jpg"",""time"":150},{""stimulus"":""img/red_lw/4.jpg"",""time"":211},{""stimulus"":""img/red_lw/5.jpg"",""time"":255},{""stimulus"":""img/red_lw/6.jpg"",""time"":303},{""stimulus"":""img/red_lw/7.jpg"",""time"":352},{""stimulus"":""img/red_lw/8.jpg"",""time"":411},{""stimulus"":""img/red_lw/9.jpg"",""time"":455},{""stimulus"":""img/red_lw/10.jpg"",""time"":502},{""stimulus"":""img/red_lw/11.jpg"",""time"":551}]","[]"
"image-keyboard-response","58","57390","0.0-5.0-1.27","640feb5e49b723bcfaad6437","bdp_lott","Sat Mar 25 2023 21:17:38 GMT-0400 (Eastern Daylight Time)","217491","red","green","","414","","","","choice","","img/red_lw/choose11.jpg","2","198","red","0.5","0.5","0.5","w","",""
"animation","59","57996","0.0-5.0-2.27","640feb5e49b723bcfaad6437","bdp_lott","Sat Mar 25 2023 21:17:38 GMT-0400 (Eastern Daylight Time)","217491","red","green","","","","","","","","","","198","","","","","","[{""stimulus"":""img/red_lw/1.jpg"",""time"":55},{""stimulus"":""img/red_lw/2.jpg"",""time"":102},{""stimulus"":""img/red_lw/3.jpg"",""time"":159},{""stimulus"":""img/red_lw/4.jpg"",""time"":206},{""stimulus"":""img/red_lw/5.jpg"",""time"":254},{""stimulus"":""img/red_lw/6.jpg"",""time"":303},{""stimulus"":""img/red_lw/7.jpg"",""time"":358},{""stimulus"":""img/red_lw/8.jpg"",""time"":406},{""stimulus"":""img/red_lw/9.jpg"",""time"":454},{""stimulus"":""img/red_lw/10.jpg"",""time"":502},{""stimulus"":""img/red_lw/11.jpg"",""time"":559}]","[]"
"image-keyboard-response","60","58318","0.0-5.0-1.28","640feb5e49b723bcfaad6437","bdp_lott","Sat Mar 25 2023 21:17:38 GMT-0400 (Eastern Daylight Time)","217491","red","green","","321","","","","choice","","img/red_lw/choose11.jpg","2","197","red","0.5","0.5","0.5","l","",""
"animation","61","58925","0.0-5.0-2.28","640feb5e49b723bcfaad6437","bdp_lott","Sat Mar 25 2023 21:17:38 GMT-0400 (Eastern Daylight Time)","217491","red","green","","","","","","","","","","197","","","","","","[{""stimulus"":""img/red_ll/1.jpg"",""time"":57},{""stimulus"":""img/red_ll/2.jpg"",""time"":102},{""stimulus"":""img/red_ll/3.jpg"",""time"":158},{""stimulus"":""img/red_ll/4.jpg"",""time"":210},{""stimulus"":""img/red_ll/5.jpg"",""time"":258},{""stimulus"":""img/red_ll/6.jpg"",""time"":302},{""stimulus"":""img/red_ll/7.jpg"",""time"":357},{""stimulus"":""img/red_ll/8.jpg"",""time"":408},{""stimulus"":""img/red_ll/9.jpg"",""time"":457},{""stimulus"":""img/red_ll/10.jpg"",""time"":502},{""stimulus"":""img/red_ll/11.jpg"",""time"":558}]","[]"
"image-keyboard-response","62","59254","0.0-5.0-1.29","640feb5e49b723bcfaad6437","bdp_lott","Sat Mar 25 2023 21:17:38 GMT-0400 (Eastern Daylight Time)","217491","red","green","","328","","","","choice","","img/red_ll/choose11.jpg","2","196","red","0.5","0.5","0.5","w","",""
"animation","63","59860","0.0-5.0-2.29","640feb5e49b723bcfaad6437","bdp_lott","Sat Mar 25 2023 21:17:38 GMT-0400 (Eastern Daylight Time)","217491","red","green","","","","","","","","","","196","","","","","","[{""stimulus"":""img/red_lw/1.jpg"",""time"":55},{""stimulus"":""img/red_lw/2.jpg"",""time"":104},{""stimulus"":""img/red_lw/3.jpg"",""time"":158},{""stimulus"":""img/red_lw/4.jpg"",""time"":207},{""stimulus"":""img/red_lw/5.jpg"",""time"":256},{""stimulus"":""img/red_lw/6.jpg"",""time"":305},{""stimulus"":""img/red_lw/7.jpg"",""time"":359},{""stimulus"":""img/red_lw/8.jpg"",""time"":408},{""stimulus"":""img/red_lw/9.jpg"",""time"":455},{""stimulus"":""img/red_lw/10.jpg"",""time"":505},{""stimulus"":""img/red_lw/11.jpg"",""time"":561}]","[]"
"image-keyboard-response","64","60175","0.0-5.0-1.30","640feb5e49b723bcfaad6437","bdp_lott","Sat Mar 25 2023 21:17:38 GMT-0400 (Eastern Daylight Time)","217491","red","green","","314","","","","choice","","img/red_lw/choose11.jpg","2","195","red","0.5","0.5","0.5","w","",""
"animation","65","60781","0.0-5.0-2.30","640feb5e49b723bcfaad6437","bdp_lott","Sat Mar 25 2023 21:17:38 GMT-0400 (Eastern Daylight Time)","217491","red","green","","","","","","","","","","195","","","","","","[{""stimulus"":""img/red_lw/1.jpg"",""time"":54},{""stimulus"":""img/red_lw/2.jpg"",""time"":101},{""stimulus"":""img/red_lw/3.jpg"",""time"":159},{""stimulus"":""img/red_lw/4.jpg"",""time"":205},{""stimulus"":""img/red_lw/5.jpg"",""time"":255},{""stimulus"":""img/red_lw/6.jpg"",""time"":309},{""stimulus"":""img/red_lw/7.jpg"",""time"":357},{""stimulus"":""img/red_lw/8.jpg"",""time"":406},{""stimulus"":""img/red_lw/9.jpg"",""time"":456},{""stimulus"":""img/red_lw/10.jpg"",""time"":501},{""stimulus"":""img/red_lw/11.jpg"",""time"":557}]","[]"
"image-keyboard-response","66","61117","0.0-5.0-1.31","640feb5e49b723bcfaad6437","bdp_lott","Sat Mar 25 2023 21:17:38 GMT-0400 (Eastern Daylight Time)","217491","red","green","","336","","","","choice","","img/red_lw/choose11.jpg","2","194","red","0.5","0.5","0.5","l","",""
"animation","67","61725","0.0-5.0-2.31","640feb5e49b723bcfaad6437","bdp_lott","Sat Mar 25 2023 21:17:38 GMT-0400 (Eastern Daylight Time)","217491","red","green","","","","","","","","","","194","","","","","","[{""stimulus"":""img/red_ll/1.jpg"",""time"":58},{""stimulus"":""img/red_ll/2.jpg"",""time"":104},{""stimulus"":""img/red_ll/3.jpg"",""time"":158},{""stimulus"":""img/red_ll/4.jpg"",""time"":207},{""stimulus"":""img/red_ll/5.jpg"",""time"":258},{""stimulus"":""img/red_ll/6.jpg"",""time"":303},{""stimulus"":""img/red_ll/7.jpg"",""time"":359},{""stimulus"":""img/red_ll/8.jpg"",""time"":407},{""stimulus"":""img/red_ll/9.jpg"",""time"":458},{""stimulus"":""img/red_ll/10.jpg"",""time"":504},{""stimulus"":""img/red_ll/11.jpg"",""time"":558}]","[]"
"image-keyboard-response","68","61989","0.0-5.0-1.32","640feb5e49b723bcfaad6437","bdp_lott","Sat Mar 25 2023 21:17:38 GMT-0400 (Eastern Daylight Time)","217491","red","green","","263","","","","choice","","img/red_ll/choose11.jpg","2","193","red","0.5","0.5","0.5","l","",""
"animation","69","62596","0.0-5.0-2.32","640feb5e49b723bcfaad6437","bdp_lott","Sat Mar 25 2023 21:17:38 GMT-0400 (Eastern Daylight Time)","217491","red","green","","","","","","","","","","193","","","","","","[{""stimulus"":""img/red_ll/1.jpg"",""time"":55},{""stimulus"":""img/red_ll/2.jpg"",""time"":102},{""stimulus"":""img/red_ll/3.jpg"",""time"":161},{""stimulus"":""img/red_ll/4.jpg"",""time"":207},{""stimulus"":""img/red_ll/5.jpg"",""time"":256},{""stimulus"":""img/red_ll/6.jpg"",""time"":302},{""stimulus"":""img/red_ll/7.jpg"",""time"":359},{""stimulus"":""img/red_ll/8.jpg"",""time"":406},{""stimulus"":""img/red_ll/9.jpg"",""time"":456},{""stimulus"":""img/red_ll/10.jpg"",""time"":503},{""stimulus"":""img/red_ll/11.jpg"",""time"":559}]","[]"
"image-keyboard-response","70","62895","0.0-5.0-1.33","640feb5e49b723bcfaad6437","bdp_lott","Sat Mar 25 2023 21:17:38 GMT-0400 (Eastern Daylight Time)","217491","red","green","","298","","","","choice","","img/red_ll/choose11.jpg","2","192","red","0.5","0.5","0.5","l","",""
"animation","71","63499","0.0-5.0-2.33","640feb5e49b723bcfaad6437","bdp_lott","Sat Mar 25 2023 21:17:38 GMT-0400 (Eastern Daylight Time)","217491","red","green","","","","","","","","","","192","","","","","","[{""stimulus"":""img/red_ll/1.jpg"",""time"":53},{""stimulus"":""img/red_ll/2.jpg"",""time"":101},{""stimulus"":""img/red_ll/3.jpg"",""time"":159},{""stimulus"":""img/red_ll/4.jpg"",""time"":205},{""stimulus"":""img/red_ll/5.jpg"",""time"":254},{""stimulus"":""img/red_ll/6.jpg"",""time"":310},{""stimulus"":""img/red_ll/7.jpg"",""time"":357},{""stimulus"":""img/red_ll/8.jpg"",""time"":406},{""stimulus"":""img/red_ll/9.jpg"",""time"":455},{""stimulus"":""img/red_ll/10.jpg"",""time"":501},{""stimulus"":""img/red_ll/11.jpg"",""time"":559}]","[]"
"image-keyboard-response","72","63809","0.0-5.0-1.34","640feb5e49b723bcfaad6437","bdp_lott","Sat Mar 25 2023 21:17:38 GMT-0400 (Eastern Daylight Time)","217491","red","green","","309","","","","choice","","img/red_ll/choose11.jpg","1","191","green","0.5","0.5","0.5","w","",""
"animation","73","64411","0.0-5.0-2.34","640feb5e49b723bcfaad6437","bdp_lott","Sat Mar 25 2023 21:17:38 GMT-0400 (Eastern Daylight Time)","217491","red","green","","","","","","","","","","191","","","","","","[{""stimulus"":""img/green_wl/1.jpg"",""time"":52},{""stimulus"":""img/green_wl/2.jpg"",""time"":109},{""stimulus"":""img/green_wl/3.jpg"",""time"":157},{""stimulus"":""img/green_wl/4.jpg"",""time"":204},{""stimulus"":""img/green_wl/5.jpg"",""time"":251},{""stimulus"":""img/green_wl/6.jpg"",""time"":309},{""stimulus"":""img/green_wl/7.jpg"",""time"":356},{""stimulus"":""img/green_wl/8.jpg"",""time"":408},{""stimulus"":""img/green_wl/9.jpg"",""time"":452},{""stimulus"":""img/green_wl/10.jpg"",""time"":507},{""stimulus"":""img/green_wl/11.jpg"",""time"":555}]","[]"
"image-keyboard-response","74","64817","0.0-5.0-1.35","640feb5e49b723bcfaad6437","bdp_lott","Sat Mar 25 2023 21:17:38 GMT-0400 (Eastern Daylight Time)","217491","red","green","","405","","","","choice","","img/green_wl/choose11.jpg","1","190","green","0.5","0.5","0.5","l","",""
"animation","75","65421","0.0-5.0-2.35","640feb5e49b723bcfaad6437","bdp_lott","Sat Mar 25 2023 21:17:38 GMT-0400 (Eastern Daylight Time)","217491","red","green","","","","","","","","","","190","","","","","","[{""stimulus"":""img/green_ll/1.jpg"",""time"":64},{""stimulus"":""img/green_ll/2.jpg"",""time"":108},{""stimulus"":""img/green_ll/3.jpg"",""time"":159},{""stimulus"":""img/green_ll/4.jpg"",""time"":203},{""stimulus"":""img/green_ll/5.jpg"",""time"":259},{""stimulus"":""img/green_ll/6.jpg"",""time"":309},{""stimulus"":""img/green_ll/7.jpg"",""time"":359},{""stimulus"":""img/green_ll/8.jpg"",""time"":407},{""stimulus"":""img/green_ll/9.jpg"",""time"":459},{""stimulus"":""img/green_ll/10.jpg"",""time"":509},{""stimulus"":""img/green_ll/11.jpg"",""time"":559}]","[]"
"image-keyboard-response","76","65797","0.0-5.0-1.36","640feb5e49b723bcfaad6437","bdp_lott","Sat Mar 25 2023 21:17:38 GMT-0400 (Eastern Daylight Time)","217491","red","green","","376","","","","choice","","img/green_ll/choose11.jpg","1","189","green","0.5","0.5","0.5","w","",""
"animation","77","66404","0.0-5.0-2.36","640feb5e49b723bcfaad6437","bdp_lott","Sat Mar 25 2023 21:17:38 GMT-0400 (Eastern Daylight Time)","217491","red","green","","","","","","","","","","189","","","","","","[{""stimulus"":""img/green_wl/1.jpg"",""time"":58},{""stimulus"":""img/green_wl/2.jpg"",""time"":103},{""stimulus"":""img/green_wl/3.jpg"",""time"":161},{""stimulus"":""img/green_wl/4.jpg"",""time"":208},{""stimulus"":""img/green_wl/5.jpg"",""time"":256},{""stimulus"":""img/green_wl/6.jpg"",""time"":303},{""stimulus"":""img/green_wl/7.jpg"",""time"":362},{""stimulus"":""img/green_wl/8.jpg"",""time"":407},{""stimulus"":""img/green_wl/9.jpg"",""time"":460},{""stimulus"":""img/green_wl/10.jpg"",""time"":503},{""stimulus"":""img/green_wl/11.jpg"",""time"":561}]","[]"
"image-keyboard-response","78","66701","0.0-5.0-1.37","640feb5e49b723bcfaad6437","bdp_lott","Sat Mar 25 2023 21:17:38 GMT-0400 (Eastern Daylight Time)","217491","red","green","","297","","","","choice","","img/green_wl/choose11.jpg","1","188","green","0.5","0.5","0.5","w","",""
"animation","79","67309","0.0-5.0-2.37","640feb5e49b723bcfaad6437","bdp_lott","Sat Mar 25 2023 21:17:38 GMT-0400 (Eastern Daylight Time)","217491","red","green","","","","","","","","","","188","","","","","","[{""stimulus"":""img/green_wl/1.jpg"",""time"":58},{""stimulus"":""img/green_wl/2.jpg"",""time"":103},{""stimulus"":""img/green_wl/3.jpg"",""time"":162},{""stimulus"":""img/green_wl/4.jpg"",""time"":208},{""stimulus"":""img/green_wl/5.jpg"",""time"":258},{""stimulus"":""img/green_wl/6.jpg"",""time"":305},{""stimulus"":""img/green_wl/7.jpg"",""time"":359},{""stimulus"":""img/green_wl/8.jpg"",""time"":408},{""stimulus"":""img/green_wl/9.jpg"",""time"":458},{""stimulus"":""img/green_wl/10.jpg"",""time"":503},{""stimulus"":""img/green_wl/11.jpg"",""time"":560}]","[]"
"image-keyboard-response","80","67664","0.0-5.0-1.38","640feb5e49b723bcfaad6437","bdp_lott","Sat Mar 25 2023 21:17:38 GMT-0400 (Eastern Daylight Time)","217491","red","green","","355","","","","choice","","img/green_wl/choose11.jpg","1","187","green","0.5","0.5","0.5","l","",""
"animation","81","68268","0.0-5.0-2.38","640feb5e49b723bcfaad6437","bdp_lott","Sat Mar 25 2023 21:17:38 GMT-0400 (Eastern Daylight Time)","217491","red","green","","","","","","","","","","187","","","","","","[{""stimulus"":""img/green_ll/1.jpg"",""time"":52},{""stimulus"":""img/green_ll/2.jpg"",""time"":111},{""stimulus"":""img/green_ll/3.jpg"",""time"":158},{""stimulus"":""img/green_ll/4.jpg"",""time"":204},{""stimulus"":""img/green_ll/5.jpg"",""time"":252},{""stimulus"":""img/green_ll/6.jpg"",""time"":312},{""stimulus"":""img/green_ll/7.jpg"",""time"":358},{""stimulus"":""img/green_ll/8.jpg"",""time"":407},{""stimulus"":""img/green_ll/9.jpg"",""time"":455},{""stimulus"":""img/green_ll/10.jpg"",""time"":512},{""stimulus"":""img/green_ll/11.jpg"",""time"":556}]","[]"
"image-keyboard-response","82","68386","0.0-5.0-1.39","640feb5e49b723bcfaad6437","bdp_lott","Sat Mar 25 2023 21:17:38 GMT-0400 (Eastern Daylight Time)","217491","red","green","","117","","","","choice","","img/green_ll/choose11.jpg","1","186","green","0.5","0.5","0.5","l","",""
"animation","83","68992","0.0-5.0-2.39","640feb5e49b723bcfaad6437","bdp_lott","Sat Mar 25 2023 21:17:38 GMT-0400 (Eastern Daylight Time)","217491","red","green","","","","","","","","","","186","","","","","","[{""stimulus"":""img/green_ll/1.jpg"",""time"":58},{""stimulus"":""img/green_ll/2.jpg"",""time"":107},{""stimulus"":""img/green_ll/3.jpg"",""time"":156},{""stimulus"":""img/green_ll/4.jpg"",""time"":206},{""stimulus"":""img/green_ll/5.jpg"",""time"":258},{""stimulus"":""img/green_ll/6.jpg"",""time"":307},{""stimulus"":""img/green_ll/7.jpg"",""time"":358},{""stimulus"":""img/green_ll/8.jpg"",""time"":407},{""stimulus"":""img/green_ll/9.jpg"",""time"":459},{""stimulus"":""img/green_ll/10.jpg"",""time"":508},{""stimulus"":""img/green_ll/11.jpg"",""time"":557}]","[]"
"image-keyboard-response","84","69204","0.0-5.0-1.40","640feb5e49b723bcfaad6437","bdp_lott","Sat Mar 25 2023 21:17:38 GMT-0400 (Eastern Daylight Time)","217491","red","green","","211","","","","choice","","img/green_ll/choose11.jpg","1","185","green","0.5","0.5","0.5","w","",""
"animation","85","69813","0.0-5.0-2.40","640feb5e49b723bcfaad6437","bdp_lott","Sat Mar 25 2023 21:17:38 GMT-0400 (Eastern Daylight Time)","217491","red","green","","","","","","","","","","185","","","","","","[{""stimulus"":""img/green_wl/1.jpg"",""time"":58},{""stimulus"":""img/green_wl/2.jpg"",""time"":103},{""stimulus"":""img/green_wl/3.jpg"",""time"":155},{""stimulus"":""img/green_wl/4.jpg"",""time"":209},{""stimulus"":""img/green_wl/5.jpg"",""time"":258},{""stimulus"":""img/green_wl/6.jpg"",""time"":305},{""stimulus"":""img/green_wl/7.jpg"",""time"":355},{""stimulus"":""img/green_wl/8.jpg"",""time"":408},{""stimulus"":""img/green_wl/9.jpg"",""time"":456},{""stimulus"":""img/green_wl/10.jpg"",""time"":505},{""stimulus"":""img/green_wl/11.jpg"",""time"":555}]","[]"
"image-keyboard-response","86","70126","0.0-5.0-1.41","640feb5e49b723bcfaad6437","bdp_lott","Sat Mar 25 2023 21:17:38 GMT-0400 (Eastern Daylight Time)","217491","red","green","","312","","","","choice","","img/green_wl/choose11.jpg","1","184","green","0.5","0.5","0.5","w","",""
"animation","87","70732","0.0-5.0-2.41","640feb5e49b723bcfaad6437","bdp_lott","Sat Mar 25 2023 21:17:38 GMT-0400 (Eastern Daylight Time)","217491","red","green","","","","","","","","","","184","","","","","","[{""stimulus"":""img/green_wl/1.jpg"",""time"":54},{""stimulus"":""img/green_wl/2.jpg"",""time"":106},{""stimulus"":""img/green_wl/3.jpg"",""time"":158},{""stimulus"":""img/green_wl/4.jpg"",""time"":206},{""stimulus"":""img/green_wl/5.jpg"",""time"":259},{""stimulus"":""img/green_wl/6.jpg"",""time"":303},{""stimulus"":""img/green_wl/7.jpg"",""time"":360},{""stimulus"":""img/green_wl/8.jpg"",""time"":407},{""stimulus"":""img/green_wl/9.jpg"",""time"":455},{""stimulus"":""img/green_wl/10.jpg"",""time"":505},{""stimulus"":""img/green_wl/11.jpg"",""time"":560}]","[]"
"image-keyboard-response","88","71042","0.0-5.0-1.42","640feb5e49b723bcfaad6437","bdp_lott","Sat Mar 25 2023 21:17:38 GMT-0400 (Eastern Daylight Time)","217491","red","green","","309","","","","choice","","img/green_wl/choose11.jpg","1","183","green","0.5","0.5","0.5","l","",""
"animation","89","71645","0.0-5.0-2.42","640feb5e49b723bcfaad6437","bdp_lott","Sat Mar 25 2023 21:17:38 GMT-0400 (Eastern Daylight Time)","217491","red","green","","","","","","","","","","183","","","","","","[{""stimulus"":""img/green_ll/1.jpg"",""time"":58},{""stimulus"":""img/green_ll/2.jpg"",""time"":105},{""stimulus"":""img/green_ll/3.jpg"",""time"":155},{""stimulus"":""img/green_ll/4.jpg"",""time"":203},{""stimulus"":""img/green_ll/5.jpg"",""time"":258},{""stimulus"":""img/green_ll/6.jpg"",""time"":305},{""stimulus"":""img/green_ll/7.jpg"",""time"":353},{""stimulus"":""img/green_ll/8.jpg"",""time"":401},{""stimulus"":""img/green_ll/9.jpg"",""time"":458},{""stimulus"":""img/green_ll/10.jpg"",""time"":505},{""stimulus"":""img/green_ll/11.jpg"",""time"":553}]","[]"
"image-keyboard-response","90","71973","0.0-5.0-1.43","640feb5e49b723bcfaad6437","bdp_lott","Sat Mar 25 2023 21:17:38 GMT-0400 (Eastern Daylight Time)","217491","red","green","","327","","","","choice","","img/green_ll/choose11.jpg","1","182","green","0.5","0.5","0.5","w","",""
"animation","91","72582","0.0-5.0-2.43","640feb5e49b723bcfaad6437","bdp_lott","Sat Mar 25 2023 21:17:38 GMT-0400 (Eastern Daylight Time)","217491","red","green","","","","","","","","","","182","","","","","","[{""stimulus"":""img/green_wl/1.jpg"",""time"":55},{""stimulus"":""img/green_wl/2.jpg"",""time"":106},{""stimulus"":""img/green_wl/3.jpg"",""time"":159},{""stimulus"":""img/green_wl/4.jpg"",""time"":207},{""stimulus"":""img/green_wl/5.jpg"",""time"":255},{""stimulus"":""img/green_wl/6.jpg"",""time"":304},{""stimulus"":""img/green_wl/7.jpg"",""time"":358},{""stimulus"":""img/green_wl/8.jpg"",""time"":408},{""stimulus"":""img/green_wl/9.jpg"",""time"":455},{""stimulus"":""img/green_wl/10.jpg"",""time"":502},{""stimulus"":""img/green_wl/11.jpg"",""time"":560}]","[]"
"image-keyboard-response","92","72877","0.0-5.0-1.44","640feb5e49b723bcfaad6437","bdp_lott","Sat Mar 25 2023 21:17:38 GMT-0400 (Eastern Daylight Time)","217491","red","green","","294","","","","choice","","img/green_wl/choose11.jpg","1","181","green","0.5","0.5","0.5","l","",""
"animation","93","73485","0.0-5.0-2.44","640feb5e49b723bcfaad6437","bdp_lott","Sat Mar 25 2023 21:17:38 GMT-0400 (Eastern Daylight Time)","217491","red","green","","","","","","","","","","181","","","","","","[{""stimulus"":""img/green_ll/1.jpg"",""time"":54},{""stimulus"":""img/green_ll/2.jpg"",""time"":102},{""stimulus"":""img/green_ll/3.jpg"",""time"":158},{""stimulus"":""img/green_ll/4.jpg"",""time"":209},{""stimulus"":""img/green_ll/5.jpg"",""time"":255},{""stimulus"":""img/green_ll/6.jpg"",""time"":303},{""stimulus"":""img/green_ll/7.jpg"",""time"":358},{""stimulus"":""img/green_ll/8.jpg"",""time"":407},{""stimulus"":""img/green_ll/9.jpg"",""time"":454},{""stimulus"":""img/green_ll/10.jpg"",""time"":502},{""stimulus"":""img/green_ll/11.jpg"",""time"":558}]","[]"
"image-keyboard-response","94","73752","0.0-5.0-1.45","640feb5e49b723bcfaad6437","bdp_lott","Sat Mar 25 2023 21:17:38 GMT-0400 (Eastern Daylight Time)","217491","red","green","","266","","","","choice","","img/green_ll/choose11.jpg","1","180","green","0.5","0.5","0.5","l","",""
"animation","95","74359","0.0-5.0-2.45","640feb5e49b723bcfaad6437","bdp_lott","Sat Mar 25 2023 21:17:38 GMT-0400 (Eastern Daylight Time)","217491","red","green","","","","","","","","","","180","","","","","","[{""stimulus"":""img/green_ll/1.jpg"",""time"":53},{""stimulus"":""img/green_ll/2.jpg"",""time"":109},{""stimulus"":""img/green_ll/3.jpg"",""time"":157},{""stimulus"":""img/green_ll/4.jpg"",""time"":207},{""stimulus"":""img/green_ll/5.jpg"",""time"":252},{""stimulus"":""img/green_ll/6.jpg"",""time"":310},{""stimulus"":""img/green_ll/7.jpg"",""time"":357},{""stimulus"":""img/green_ll/8.jpg"",""time"":407},{""stimulus"":""img/green_ll/9.jpg"",""time"":454},{""stimulus"":""img/green_ll/10.jpg"",""time"":512},{""stimulus"":""img/green_ll/11.jpg"",""time"":558}]","[]"
"image-keyboard-response","96","74559","0.0-5.0-1.46","640feb5e49b723bcfaad6437","bdp_lott","Sat Mar 25 2023 21:17:38 GMT-0400 (Eastern Daylight Time)","217491","red","green","","199","","","","choice","","img/green_ll/choose11.jpg","1","179","green","0.5","0.5","0.5","w","",""
"animation","97","75164","0.0-5.0-2.46","640feb5e49b723bcfaad6437","bdp_lott","Sat Mar 25 2023 21:17:38 GMT-0400 (Eastern Daylight Time)","217491","red","green","","","","","","","","","","179","","","","","","[{""stimulus"":""img/green_wl/1.jpg"",""time"":54},{""stimulus"":""img/green_wl/2.jpg"",""time"":111},{""stimulus"":""img/green_wl/3.jpg"",""time"":159},{""stimulus"":""img/green_wl/4.jpg"",""time"":205},{""stimulus"":""img/green_wl/5.jpg"",""time"":253},{""stimulus"":""img/green_wl/6.jpg"",""time"":310},{""stimulus"":""img/green_wl/7.jpg"",""time"":359},{""stimulus"":""img/green_wl/8.jpg"",""time"":406},{""stimulus"":""img/green_wl/9.jpg"",""time"":453},{""stimulus"":""img/green_wl/10.jpg"",""time"":503},{""stimulus"":""img/green_wl/11.jpg"",""time"":559}]","[]"
"image-keyboard-response","98","75584","0.0-5.0-1.47","640feb5e49b723bcfaad6437","bdp_lott","Sat Mar 25 2023 21:17:38 GMT-0400 (Eastern Daylight Time)","217491","red","green","","419","","","","choice","","img/green_wl/choose11.jpg","1","178","green","0.5","0.5","0.5","l","",""
"animation","99","76192","0.0-5.0-2.47","640feb5e49b723bcfaad6437","bdp_lott","Sat Mar 25 2023 21:17:38 GMT-0400 (Eastern Daylight Time)","217491","red","green","","","","","","","","","","178","","","","","","[{""stimulus"":""img/green_ll/1.jpg"",""time"":54},{""stimulus"":""img/green_ll/2.jpg"",""time"":110},{""stimulus"":""img/green_ll/3.jpg"",""time"":159},{""stimulus"":""img/green_ll/4.jpg"",""time"":209},{""stimulus"":""img/green_ll/5.jpg"",""time"":253},{""stimulus"":""img/green_ll/6.jpg"",""time"":309},{""stimulus"":""img/green_ll/7.jpg"",""time"":359},{""stimulus"":""img/green_ll/8.jpg"",""time"":409},{""stimulus"":""img/green_ll/9.jpg"",""time"":452},{""stimulus"":""img/green_ll/10.jpg"",""time"":508},{""stimulus"":""img/green_ll/11.jpg"",""time"":561}]","[]"
"image-keyboard-response","100","76368","0.0-5.0-1.48","640feb5e49b723bcfaad6437","bdp_lott","Sat Mar 25 2023 21:17:38 GMT-0400 (Eastern Daylight Time)","217491","red","green","","175","","","","choice","","img/green_ll/choose11.jpg","1","177","green","0.5","0.5","0.5","w","",""
"animation","101","76975","0.0-5.0-2.48","640feb5e49b723bcfaad6437","bdp_lott","Sat Mar 25 2023 21:17:38 GMT-0400 (Eastern Daylight Time)","217491","red","green","","","","","","","","","","177","","","","","","[{""stimulus"":""img/green_wl/1.jpg"",""time"":52},{""stimulus"":""img/green_wl/2.jpg"",""time"":101},{""stimulus"":""img/green_wl/3.jpg"",""time"":157},{""stimulus"":""img/green_wl/4.jpg"",""time"":207},{""stimulus"":""img/green_wl/5.jpg"",""time"":251},{""stimulus"":""img/green_wl/6.jpg"",""time"":307},{""stimulus"":""img/green_wl/7.jpg"",""time"":357},{""stimulus"":""img/green_wl/8.jpg"",""time"":407},{""stimulus"":""img/green_wl/9.jpg"",""time"":451},{""stimulus"":""img/green_wl/10.jpg"",""time"":507},{""stimulus"":""img/green_wl/11.jpg"",""time"":557}]","[]"
"image-keyboard-response","102","77297","0.0-5.0-1.49","640feb5e49b723bcfaad6437","bdp_lott","Sat Mar 25 2023 21:17:38 GMT-0400 (Eastern Daylight Time)","217491","red","green","","321","","","","choice","","img/green_wl/choose11.jpg","1","176","green","0.5","0.5","0.5","l","",""
"animation","103","77900","0.0-5.0-2.49","640feb5e49b723bcfaad6437","bdp_lott","Sat Mar 25 2023 21:17:38 GMT-0400 (Eastern Daylight Time)","217491","red","green","","","","","","","","","","176","","","","","","[{""stimulus"":""img/green_ll/1.jpg"",""time"":52},{""stimulus"":""img/green_ll/2.jpg"",""time"":107},{""stimulus"":""img/green_ll/3.jpg"",""time"":157},{""stimulus"":""img/green_ll/4.jpg"",""time"":205},{""stimulus"":""img/green_ll/5.jpg"",""time"":252},{""stimulus"":""img/green_ll/6.jpg"",""time"":310},{""stimulus"":""img/green_ll/7.jpg"",""time"":355},{""stimulus"":""img/green_ll/8.jpg"",""time"":404},{""stimulus"":""img/green_ll/9.jpg"",""time"":455},{""stimulus"":""img/green_ll/10.jpg"",""time"":507},{""stimulus"":""img/green_ll/11.jpg"",""time"":556}]","[]"
"image-keyboard-response","104","78183","0.0-5.0-1.50","640feb5e49b723bcfaad6437","bdp_lott","Sat Mar 25 2023 21:17:38 GMT-0400 (Eastern Daylight Time)","217491","red","green","","282","","","","choice","","img/green_ll/choose11.jpg","1","175","green","0.5","0.5","0.5","l","",""
"animation","105","78792","0.0-5.0-2.50","640feb5e49b723bcfaad6437","bdp_lott","Sat Mar 25 2023 21:17:38 GMT-0400 (Eastern Daylight Time)","217491","red","green","","","","","","","","","","175","","","","","","[{""stimulus"":""img/green_ll/1.jpg"",""time"":55},{""stimulus"":""img/green_ll/2.jpg"",""time"":103},{""stimulus"":""img/green_ll/3.jpg"",""time"":159},{""stimulus"":""img/green_ll/4.jpg"",""time"":210},{""stimulus"":""img/green_ll/5.jpg"",""time"":253},{""stimulus"":""img/green_ll/6.jpg"",""time"":305},{""stimulus"":""img/green_ll/7.jpg"",""time"":360},{""stimulus"":""img/green_ll/8.jpg"",""time"":409},{""stimulus"":""img/green_ll/9.jpg"",""time"":453},{""stimulus"":""img/green_ll/10.jpg"",""time"":502},{""stimulus"":""img/green_ll/11.jpg"",""time"":560}]","[]"
"image-keyboard-response","106","79143","0.0-5.0-1.51","640feb5e49b723bcfaad6437","bdp_lott","Sat Mar 25 2023 21:17:38 GMT-0400 (Eastern Daylight Time)","217491","red","green","","350","","","","choice","","img/green_ll/choose11.jpg","1","174","green","0.5","0.5","0.5","l","",""
"animation","107","79748","0.0-5.0-2.51","640feb5e49b723bcfaad6437","bdp_lott","Sat Mar 25 2023 21:17:38 GMT-0400 (Eastern Daylight Time)","217491","red","green","","","","","","","","","","174","","","","","","[{""stimulus"":""img/green_ll/1.jpg"",""time"":54},{""stimulus"":""img/green_ll/2.jpg"",""time"":109},{""stimulus"":""img/green_ll/3.jpg"",""time"":165},{""stimulus"":""img/green_ll/4.jpg"",""time"":206},{""stimulus"":""img/green_ll/5.jpg"",""time"":253},{""stimulus"":""img/green_ll/6.jpg"",""time"":308},{""stimulus"":""img/green_ll/7.jpg"",""time"":356},{""stimulus"":""img/green_ll/8.jpg"",""time"":405},{""stimulus"":""img/green_ll/9.jpg"",""time"":455},{""stimulus"":""img/green_ll/10.jpg"",""time"":508},{""stimulus"":""img/green_ll/11.jpg"",""time"":557}]","[]"
"image-keyboard-response","108","80119","0.0-5.0-1.52","640feb5e49b723bcfaad6437","bdp_lott","Sat Mar 25 2023 21:17:38 GMT-0400 (Eastern Daylight Time)","217491","red","green","","370","","","","choice","","img/green_ll/choose11.jpg","2","173","red","0.5","0.5","0.5","w","",""
"animation","109","80726","0.0-5.0-2.52","640feb5e49b723bcfaad6437","bdp_lott","Sat Mar 25 2023 21:17:38 GMT-0400 (Eastern Daylight Time)","217491","red","green","","","","","","","","","","173","","","","","","[{""stimulus"":""img/red_lw/1.jpg"",""time"":56},{""stimulus"":""img/red_lw/2.jpg"",""time"":101},{""stimulus"":""img/red_lw/3.jpg"",""time"":157},{""stimulus"":""img/red_lw/4.jpg"",""time"":206},{""stimulus"":""img/red_lw/5.jpg"",""time"":254},{""stimulus"":""img/red_lw/6.jpg"",""time"":309},{""stimulus"":""img/red_lw/7.jpg"",""time"":357},{""stimulus"":""img/red_lw/8.jpg"",""time"":406},{""stimulus"":""img/red_lw/9.jpg"",""time"":456},{""stimulus"":""img/red_lw/10.jpg"",""time"":500},{""stimulus"":""img/red_lw/11.jpg"",""time"":556}]","[]"
"image-keyboard-response","110","80973","0.0-5.0-1.53","640feb5e49b723bcfaad6437","bdp_lott","Sat Mar 25 2023 21:17:38 GMT-0400 (Eastern Daylight Time)","217491","red","green","","246","","","","choice","","img/red_lw/choose11.jpg","2","172","red","0.5","0.5","0.5","w","",""
"animation","111","81584","0.0-5.0-2.53","640feb5e49b723bcfaad6437","bdp_lott","Sat Mar 25 2023 21:17:38 GMT-0400 (Eastern Daylight Time)","217491","red","green","","","","","","","","","","172","","","","","","[{""stimulus"":""img/red_lw/1.jpg"",""time"":58},{""stimulus"":""img/red_lw/2.jpg"",""time"":102},{""stimulus"":""img/red_lw/3.jpg"",""time"":158},{""stimulus"":""img/red_lw/4.jpg"",""time"":207},{""stimulus"":""img/red_lw/5.jpg"",""time"":257},{""stimulus"":""img/red_lw/6.jpg"",""time"":303},{""stimulus"":""img/red_lw/7.jpg"",""time"":359},{""stimulus"":""img/red_lw/8.jpg"",""time"":408},{""stimulus"":""img/red_lw/9.jpg"",""time"":455},{""stimulus"":""img/red_lw/10.jpg"",""time"":503},{""stimulus"":""img/red_lw/11.jpg"",""time"":560}]","[]"
"image-keyboard-response","112","81838","0.0-5.0-1.54","640feb5e49b723bcfaad6437","bdp_lott","Sat Mar 25 2023 21:17:38 GMT-0400 (Eastern Daylight Time)","217491","red","green","","253","","","","choice","","img/red_lw/choose11.jpg","2","171","red","0.5","0.5","0.5","w","",""
"animation","113","82444","0.0-5.0-2.54","640feb5e49b723bcfaad6437","bdp_lott","Sat Mar 25 2023 21:17:38 GMT-0400 (Eastern Daylight Time)","217491","red","green","","","","","","","","","","171","","","","","","[{""stimulus"":""img/red_lw/1.jpg"",""time"":55},{""stimulus"":""img/red_lw/2.jpg"",""time"":105},{""stimulus"":""img/red_lw/3.jpg"",""time"":159},{""stimulus"":""img/red_lw/4.jpg"",""time"":207},{""stimulus"":""img/red_lw/5.jpg"",""time"":255},{""stimulus"":""img/red_lw/6.jpg"",""time"":305},{""stimulus"":""img/red_lw/7.jpg"",""time"":358},{""stimulus"":""img/red_lw/8.jpg"",""time"":406},{""stimulus"":""img/red_lw/9.jpg"",""time"":455},{""stimulus"":""img/red_lw/10.jpg"",""time"":505},{""stimulus"":""img/red_lw/11.jpg"",""time"":558}]","[]"
"image-keyboard-response","114","82733","0.0-5.0-1.55","640feb5e49b723bcfaad6437","bdp_lott","Sat Mar 25 2023 21:17:38 GMT-0400 (Eastern Daylight Time)","217491","red","green","","288","","","","choice","","img/red_lw/choose11.jpg","2","170","red","0.5","0.5","0.5","l","",""
"animation","115","83342","0.0-5.0-2.55","640feb5e49b723bcfaad6437","bdp_lott","Sat Mar 25 2023 21:17:38 GMT-0400 (Eastern Daylight Time)","217491","red","green","","","","","","","","","","170","","","","","","[{""stimulus"":""img/red_ll/1.jpg"",""time"":60},{""stimulus"":""img/red_ll/2.jpg"",""time"":105},{""stimulus"":""img/red_ll/3.jpg"",""time"":152},{""stimulus"":""img/red_ll/4.jpg"",""time"":209},{""stimulus"":""img/red_ll/5.jpg"",""time"":260},{""stimulus"":""img/red_ll/6.jpg"",""time"":305},{""stimulus"":""img/red_ll/7.jpg"",""time"":352},{""stimulus"":""img/red_ll/8.jpg"",""time"":410},{""stimulus"":""img/red_ll/9.jpg"",""time"":460},{""stimulus"":""img/red_ll/10.jpg"",""time"":504},{""stimulus"":""img/red_ll/11.jpg"",""time"":552}]","[]"
"image-keyboard-response","116","83589","0.0-5.0-1.56","640feb5e49b723bcfaad6437","bdp_lott","Sat Mar 25 2023 21:17:38 GMT-0400 (Eastern Daylight Time)","217491","red","green","","246","","","","choice","","img/red_ll/choose11.jpg","2","169","red","0.5","0.5","0.5","l","",""
"animation","117","84196","0.0-5.0-2.56","640feb5e49b723bcfaad6437","bdp_lott","Sat Mar 25 2023 21:17:38 GMT-0400 (Eastern Daylight Time)","217491","red","green","","","","","","","","","","169","","","","","","[{""stimulus"":""img/red_ll/1.jpg"",""time"":59},{""stimulus"":""img/red_ll/2.jpg"",""time"":104},{""stimulus"":""img/red_ll/3.jpg"",""time"":154},{""stimulus"":""img/red_ll/4.jpg"",""time"":208},{""stimulus"":""img/red_ll/5.jpg"",""time"":255},{""stimulus"":""img/red_ll/6.jpg"",""time"":304},{""stimulus"":""img/red_ll/7.jpg"",""time"":354},{""stimulus"":""img/red_ll/8.jpg"",""time"":407},{""stimulus"":""img/red_ll/9.jpg"",""time"":456},{""stimulus"":""img/red_ll/10.jpg"",""time"":504},{""stimulus"":""img/red_ll/11.jpg"",""time"":556}]","[]"
"image-keyboard-response","118","84372","0.0-5.0-1.57","640feb5e49b723bcfaad6437","bdp_lott","Sat Mar 25 2023 21:17:38 GMT-0400 (Eastern Daylight Time)","217491","red","green","","176","","","","choice","","img/red_ll/choose11.jpg","2","168","red","0.5","0.5","0.5","l","",""
"animation","119","84981","0.0-5.0-2.57","640feb5e49b723bcfaad6437","bdp_lott","Sat Mar 25 2023 21:17:38 GMT-0400 (Eastern Daylight Time)","217491","red","green","","","","","","","","","","168","","","","","","[{""stimulus"":""img/red_ll/1.jpg"",""time"":57},{""stimulus"":""img/red_ll/2.jpg"",""time"":105},{""stimulus"":""img/red_ll/3.jpg"",""time"":154},{""stimulus"":""img/red_ll/4.jpg"",""time"":210},{""stimulus"":""img/red_ll/5.jpg"",""time"":260},{""stimulus"":""img/red_ll/6.jpg"",""time"":304},{""stimulus"":""img/red_ll/7.jpg"",""time"":354},{""stimulus"":""img/red_ll/8.jpg"",""time"":410},{""stimulus"":""img/red_ll/9.jpg"",""time"":458},{""stimulus"":""img/red_ll/10.jpg"",""time"":509},{""stimulus"":""img/red_ll/11.jpg"",""time"":554}]","[]"
"image-keyboard-response","120","85168","0.0-5.0-1.58","640feb5e49b723bcfaad6437","bdp_lott","Sat Mar 25 2023 21:17:38 GMT-0400 (Eastern Daylight Time)","217491","red","green","","186","","","","choice","","img/red_ll/choose11.jpg","2","167","red","0.5","0.5","0.5","w","",""
"animation","121","85776","0.0-5.0-2.58","640feb5e49b723bcfaad6437","bdp_lott","Sat Mar 25 2023 21:17:38 GMT-0400 (Eastern Daylight Time)","217491","red","green","","","","","","","","","","167","","","","","","[{""stimulus"":""img/red_lw/1.jpg"",""time"":53},{""stimulus"":""img/red_lw/2.jpg"",""time"":108},{""stimulus"":""img/red_lw/3.jpg"",""time"":158},{""stimulus"":""img/red_lw/4.jpg"",""time"":208},{""stimulus"":""img/red_lw/5.jpg"",""time"":253},{""stimulus"":""img/red_lw/6.jpg"",""time"":308},{""stimulus"":""img/red_lw/7.jpg"",""time"":358},{""stimulus"":""img/red_lw/8.jpg"",""time"":408},{""stimulus"":""img/red_lw/9.jpg"",""time"":452},{""stimulus"":""img/red_lw/10.jpg"",""time"":510},{""stimulus"":""img/red_lw/11.jpg"",""time"":558}]","[]"
"image-keyboard-response","122","86180","0.0-5.0-1.59","640feb5e49b723bcfaad6437","bdp_lott","Sat Mar 25 2023 21:17:38 GMT-0400 (Eastern Daylight Time)","217491","red","green","","404","","","","choice","","img/red_lw/choose11.jpg","2","166","red","0.5","0.5","0.5","w","",""
"animation","123","86792","0.0-5.0-2.59","640feb5e49b723bcfaad6437","bdp_lott","Sat Mar 25 2023 21:17:38 GMT-0400 (Eastern Daylight Time)","217491","red","green","","","","","","","","","","166","","","","","","[{""stimulus"":""img/red_lw/1.jpg"",""time"":58},{""stimulus"":""img/red_lw/2.jpg"",""time"":105},{""stimulus"":""img/red_lw/3.jpg"",""time"":153},{""stimulus"":""img/red_lw/4.jpg"",""time"":213},{""stimulus"":""img/red_lw/5.jpg"",""time"":260},{""stimulus"":""img/red_lw/6.jpg"",""time"":305},{""stimulus"":""img/red_lw/7.jpg"",""time"":353},{""stimulus"":""img/red_lw/8.jpg"",""time"":413},{""stimulus"":""img/red_lw/9.jpg"",""time"":457},{""stimulus"":""img/red_lw/10.jpg"",""time"":505},{""stimulus"":""img/red_lw/11.jpg"",""time"":554}]","[]"
"image-keyboard-response","124","87031","0.0-5.0-1.60","640feb5e49b723bcfaad6437","bdp_lott","Sat Mar 25 2023 21:17:38 GMT-0400 (Eastern Daylight Time)","217491","red","green","","238","","","","choice","","img/red_lw/choose11.jpg","2","165","red","0.5","0.5","0.5","w","",""
"animation","125","87637","0.0-5.0-2.60","640feb5e49b723bcfaad6437","bdp_lott","Sat Mar 25 2023 21:17:38 GMT-0400 (Eastern Daylight Time)","217491","red","green","","","","","","","","","","165","","","","","","[{""stimulus"":""img/red_lw/1.jpg"",""time"":53},{""stimulus"":""img/red_lw/2.jpg"",""time"":102},{""stimulus"":""img/red_lw/3.jpg"",""time"":161},{""stimulus"":""img/red_lw/4.jpg"",""time"":205},{""stimulus"":""img/red_lw/5.jpg"",""time"":253},{""stimulus"":""img/red_lw/6.jpg"",""time"":313},{""stimulus"":""img/red_lw/7.jpg"",""time"":360},{""stimulus"":""img/red_lw/8.jpg"",""time"":404},{""stimulus"":""img/red_lw/9.jpg"",""time"":454},{""stimulus"":""img/red_lw/10.jpg"",""time"":500},{""stimulus"":""img/red_lw/11.jpg"",""time"":561}]","[]"
"image-keyboard-response","126","87928","0.0-5.0-1.61","640feb5e49b723bcfaad6437","bdp_lott","Sat Mar 25 2023 21:17:38 GMT-0400 (Eastern Daylight Time)","217491","red","green","","290","","","","choice","","img/red_lw/choose11.jpg","2","164","red","0.5","0.5","0.5","l","",""
"animation","127","88533","0.0-5.0-2.61","640feb5e49b723bcfaad6437","bdp_lott","Sat Mar 25 2023 21:17:38 GMT-0400 (Eastern Daylight Time)","217491","red","green","","","","","","","","","","164","","","","","","[{""stimulus"":""img/red_ll/1.jpg"",""time"":53},{""stimulus"":""img/red_ll/2.jpg"",""time"":108},{""stimulus"":""img/red_ll/3.jpg"",""time"":159},{""stimulus"":""img/red_ll/4.jpg"",""time"":207},{""stimulus"":""img/red_ll/5.jpg"",""time"":253},{""stimulus"":""img/red_ll/6.jpg"",""time"":308},{""stimulus"":""img/red_ll/7.jpg"",""time"":357},{""stimulus"":""img/red_ll/8.jpg"",""time"":406},{""stimulus"":""img/red_ll/9.jpg"",""time"":454},{""stimulus"":""img/red_ll/10.jpg"",""time"":501},{""stimulus"":""img/red_ll/11.jpg"",""time"":560}]","[]"
"image-keyboard-response","128","88782","0.0-5.0-1.62","640feb5e49b723bcfaad6437","bdp_lott","Sat Mar 25 2023 21:17:38 GMT-0400 (Eastern Daylight Time)","217491","red","green","","248","","","","choice","","img/red_ll/choose11.jpg","2","163","red","0.5","0.5","0.5","l","",""
"animation","129","89393","0.0-5.0-2.62","640feb5e49b723bcfaad6437","bdp_lott","Sat Mar 25 2023 21:17:38 GMT-0400 (Eastern Daylight Time)","217491","red","green","","","","","","","","","","163","","","","","","[{""stimulus"":""img/red_ll/1.jpg"",""time"":55},{""stimulus"":""img/red_ll/2.jpg"",""time"":102},{""stimulus"":""img/red_ll/3.jpg"",""time"":161},{""stimulus"":""img/red_ll/4.jpg"",""time"":211},{""stimulus"":""img/red_ll/5.jpg"",""time"":255},{""stimulus"":""img/red_ll/6.jpg"",""time"":303},{""stimulus"":""img/red_ll/7.jpg"",""time"":361},{""stimulus"":""img/red_ll/8.jpg"",""time"":411},{""stimulus"":""img/red_ll/9.jpg"",""time"":455},{""stimulus"":""img/red_ll/10.jpg"",""time"":503},{""stimulus"":""img/red_ll/11.jpg"",""time"":561}]","[]"
"image-keyboard-response","130","89687","0.0-5.0-1.63","640feb5e49b723bcfaad6437","bdp_lott","Sat Mar 25 2023 21:17:38 GMT-0400 (Eastern Daylight Time)","217491","red","green","","293","","","","choice","","img/red_ll/choose11.jpg","2","162","red","0.5","0.5","0.5","l","",""
"animation","131","90293","0.0-5.0-2.63","640feb5e49b723bcfaad6437","bdp_lott","Sat Mar 25 2023 21:17:38 GMT-0400 (Eastern Daylight Time)","217491","red","green","","","","","","","","","","162","","","","","","[{""stimulus"":""img/red_ll/1.jpg"",""time"":56},{""stimulus"":""img/red_ll/2.jpg"",""time"":106},{""stimulus"":""img/red_ll/3.jpg"",""time"":159},{""stimulus"":""img/red_ll/4.jpg"",""time"":206},{""stimulus"":""img/red_ll/5.jpg"",""time"":256},{""stimulus"":""img/red_ll/6.jpg"",""time"":306},{""stimulus"":""img/red_ll/7.jpg"",""time"":360},{""stimulus"":""img/red_ll/8.jpg"",""time"":406},{""stimulus"":""img/red_ll/9.jpg"",""time"":456},{""stimulus"":""img/red_ll/10.jpg"",""time"":506},{""stimulus"":""img/red_ll/11.jpg"",""time"":559}]","[]"
"image-keyboard-response","132","90557","0.0-5.0-1.64","640feb5e49b723bcfaad6437","bdp_lott","Sat Mar 25 2023 21:17:38 GMT-0400 (Eastern Daylight Time)","217491","red","green","","263","","","","choice","","img/red_ll/choose11.jpg","1","161","green","0.5","0.5","0.5","w","",""
"animation","133","91165","0.0-5.0-2.64","640feb5e49b723bcfaad6437","bdp_lott","Sat Mar 25 2023 21:17:38 GMT-0400 (Eastern Daylight Time)","217491","red","green","","","","","","","","","","161","","","","","","[{""stimulus"":""img/green_wl/1.jpg"",""time"":58},{""stimulus"":""img/green_wl/2.jpg"",""time"":103},{""stimulus"":""img/green_wl/3.jpg"",""time"":158},{""stimulus"":""img/green_wl/4.jpg"",""time"":206},{""stimulus"":""img/green_wl/5.jpg"",""time"":257},{""stimulus"":""img/green_wl/6.jpg"",""time"":303},{""stimulus"":""img/green_wl/7.jpg"",""time"":358},{""stimulus"":""img/green_wl/8.jpg"",""time"":408},{""stimulus"":""img/green_wl/9.jpg"",""time"":456},{""stimulus"":""img/green_wl/10.jpg"",""time"":503},{""stimulus"":""img/green_wl/11.jpg"",""time"":561}]","[]"
"image-keyboard-response","134","91414","0.0-5.0-1.65","640feb5e49b723bcfaad6437","bdp_lott","Sat Mar 25 2023 21:17:38 GMT-0400 (Eastern Daylight Time)","217491","red","green","","248","","","","choice","","img/green_wl/choose11.jpg","1","160","green","0.5","0.5","0.5","w","",""
"animation","135","92024","0.0-5.0-2.65","640feb5e49b723bcfaad6437","bdp_lott","Sat Mar 25 2023 21:17:38 GMT-0400 (Eastern Daylight Time)","217491","red","green","","","","","","","","","","160","","","","","","[{""stimulus"":""img/green_wl/1.jpg"",""time"":54},{""stimulus"":""img/green_wl/2.jpg"",""time"":104},{""stimulus"":""img/green_wl/3.jpg"",""time"":162},{""stimulus"":""img/green_wl/4.jpg"",""time"":210},{""stimulus"":""img/green_wl/5.jpg"",""time"":255},{""stimulus"":""img/green_wl/6.jpg"",""time"":304},{""stimulus"":""img/green_wl/7.jpg"",""time"":362},{""stimulus"":""img/green_wl/8.jpg"",""time"":407},{""stimulus"":""img/green_wl/9.jpg"",""time"":456},{""stimulus"":""img/green_wl/10.jpg"",""time"":504},{""stimulus"":""img/green_wl/11.jpg"",""time"":562}]","[]"
"image-keyboard-response","136","92333","0.0-5.0-1.66","640feb5e49b723bcfaad6437","bdp_lott","Sat Mar 25 2023 21:17:38 GMT-0400 (Eastern Daylight Time)","217491","red","green","","308","","","","choice","","img/green_wl/choose11.jpg","1","159","green","0.5","0.5","0.5","w","",""
"animation","137","92943","0.0-5.0-2.66","640feb5e49b723bcfaad6437","bdp_lott","Sat Mar 25 2023 21:17:38 GMT-0400 (Eastern Daylight Time)","217491","red","green","","","","","","","","","","159","","","","","","[{""stimulus"":""img/green_wl/1.jpg"",""time"":59},{""stimulus"":""img/green_wl/2.jpg"",""time"":103},{""stimulus"":""img/green_wl/3.jpg"",""time"":150},{""stimulus"":""img/green_wl/4.jpg"",""time"":209},{""stimulus"":""img/green_wl/5.jpg"",""time"":259},{""stimulus"":""img/green_wl/6.jpg"",""time"":304},{""stimulus"":""img/green_wl/7.jpg"",""time"":351},{""stimulus"":""img/green_wl/8.jpg"",""time"":409},{""stimulus"":""img/green_wl/9.jpg"",""time"":459},{""stimulus"":""img/green_wl/10.jpg"",""time"":503},{""stimulus"":""img/green_wl/11.jpg"",""time"":550}]","[]"
"image-keyboard-response","138","93215","0.0-5.0-1.67","640feb5e49b723bcfaad6437","bdp_lott","Sat Mar 25 2023 21:17:38 GMT-0400 (Eastern Daylight Time)","217491","red","green","","271","","","","choice","","img/green_wl/choose11.jpg","1","158","green","0.5","0.5","0.5","w","",""
"animation","139","93822","0.0-5.0-2.67","640feb5e49b723bcfaad6437","bdp_lott","Sat Mar 25 2023 21:17:38 GMT-0400 (Eastern Daylight Time)","217491","red","green","","","","","","","","","","158","","","","","","[{""stimulus"":""img/green_wl/1.jpg"",""time"":57},{""stimulus"":""img/green_wl/2.jpg"",""time"":102},{""stimulus"":""img/green_wl/3.jpg"",""time"":161},{""stimulus"":""img/green_wl/4.jpg"",""time"":206},{""stimulus"":""img/green_wl/5.jpg"",""time"":258},{""stimulus"":""img/green_wl/6.jpg"",""time"":302},{""stimulus"":""img/green_wl/7.jpg"",""time"":361},{""stimulus"":""img/green_wl/8.jpg"",""time"":408},{""stimulus"":""img/green_wl/9.jpg"",""time"":453},{""stimulus"":""img/green_wl/10.jpg"",""time"":504},{""stimulus"":""img/green_wl/11.jpg"",""time"":561}]","[]"
"image-keyboard-response","140","94111","0.0-5.0-1.68","640feb5e49b723bcfaad6437","bdp_lott","Sat Mar 25 2023 21:17:38 GMT-0400 (Eastern Daylight Time)","217491","red","green","","288","","","","choice","","img/green_wl/choose11.jpg","1","157","green","0.5","0.5","0.5","l","",""
"animation","141","94717","0.0-5.0-2.68","640feb5e49b723bcfaad6437","bdp_lott","Sat Mar 25 2023 21:17:38 GMT-0400 (Eastern Daylight Time)","217491","red","green","","","","","","","","","","157","","","","","","[{""stimulus"":""img/green_ll/1.jpg"",""time"":53},{""stimulus"":""img/green_ll/2.jpg"",""time"":100},{""stimulus"":""img/green_ll/3.jpg"",""time"":158},{""stimulus"":""img/green_ll/4.jpg"",""time"":204},{""stimulus"":""img/green_ll/5.jpg"",""time"":253},{""stimulus"":""img/green_ll/6.jpg"",""time"":310},{""stimulus"":""img/green_ll/7.jpg"",""time"":357},{""stimulus"":""img/green_ll/8.jpg"",""time"":406},{""stimulus"":""img/green_ll/9.jpg"",""time"":454},{""stimulus"":""img/green_ll/10.jpg"",""time"":502},{""stimulus"":""img/green_ll/11.jpg"",""time"":556}]","[]"
"image-keyboard-response","142","95039","0.0-5.0-1.69","640feb5e49b723bcfaad6437","bdp_lott","Sat Mar 25 2023 21:17:38 GMT-0400 (Eastern Daylight Time)","217491","red","green","","321","","","","choice","","img/green_ll/choose11.jpg","1","156","green","0.5","0.5","0.5","l","",""
"animation","143","95644","0.0-5.0-2.69","640feb5e49b723bcfaad6437","bdp_lott","Sat Mar 25 2023 21:17:38 GMT-0400 (Eastern Daylight Time)","217491","red","green","","","","","","","","","","156","","","","","","[{""stimulus"":""img/green_ll/1.jpg"",""time"":54},{""stimulus"":""img/green_ll/2.jpg"",""time"":104},{""stimulus"":""img/green_ll/3.jpg"",""time"":159},{""stimulus"":""img/green_ll/4.jpg"",""time"":206},{""stimulus"":""img/green_ll/5.jpg"",""time"":254},{""stimulus"":""img/green_ll/6.jpg"",""time"":304},{""stimulus"":""img/green_ll/7.jpg"",""time"":359},{""stimulus"":""img/green_ll/8.jpg"",""time"":406},{""stimulus"":""img/green_ll/9.jpg"",""time"":454},{""stimulus"":""img/green_ll/10.jpg"",""time"":504},{""stimulus"":""img/green_ll/11.jpg"",""time"":558}]","[]"
"image-keyboard-response","144","95966","0.0-5.0-1.70","640feb5e49b723bcfaad6437","bdp_lott","Sat Mar 25 2023 21:17:38 GMT-0400 (Eastern Daylight Time)","217491","red","green","","321","","","","choice","","img/green_ll/choose11.jpg","1","155","green","0.5","0.5","0.5","l","",""
"animation","145","96576","0.0-5.0-2.70","640feb5e49b723bcfaad6437","bdp_lott","Sat Mar 25 2023 21:17:38 GMT-0400 (Eastern Daylight Time)","217491","red","green","","","","","","","","","","155","","","","","","[{""stimulus"":""img/green_ll/1.jpg"",""time"":56},{""stimulus"":""img/green_ll/2.jpg"",""time"":104},{""stimulus"":""img/green_ll/3.jpg"",""time"":163},{""stimulus"":""img/green_ll/4.jpg"",""time"":210},{""stimulus"":""img/green_ll/5.jpg"",""time"":257},{""stimulus"":""img/green_ll/6.jpg"",""time"":307},{""stimulus"":""img/green_ll/7.jpg"",""time"":360},{""stimulus"":""img/green_ll/8.jpg"",""time"":411},{""stimulus"":""img/green_ll/9.jpg"",""time"":455},{""stimulus"":""img/green_ll/10.jpg"",""time"":503},{""stimulus"":""img/green_ll/11.jpg"",""time"":563}]","[]"
"image-keyboard-response","146","96861","0.0-5.0-1.71","640feb5e49b723bcfaad6437","bdp_lott","Sat Mar 25 2023 21:17:38 GMT-0400 (Eastern Daylight Time)","217491","red","green","","284","","","","choice","","img/green_ll/choose11.jpg","2","154","red","0.5","0.5","0.5","l","",""
"animation","147","97468","0.0-5.0-2.71","640feb5e49b723bcfaad6437","bdp_lott","Sat Mar 25 2023 21:17:38 GMT-0400 (Eastern Daylight Time)","217491","red","green","","","","","","","","","","154","","","","","","[{""stimulus"":""img/red_ll/1.jpg"",""time"":55},{""stimulus"":""img/red_ll/2.jpg"",""time"":103},{""stimulus"":""img/red_ll/3.jpg"",""time"":151},{""stimulus"":""img/red_ll/4.jpg"",""time"":207},{""stimulus"":""img/red_ll/5.jpg"",""time"":258},{""stimulus"":""img/red_ll/6.jpg"",""time"":304},{""stimulus"":""img/red_ll/7.jpg"",""time"":352},{""stimulus"":""img/red_ll/8.jpg"",""time"":408},{""stimulus"":""img/red_ll/9.jpg"",""time"":456},{""stimulus"":""img/red_ll/10.jpg"",""time"":505},{""stimulus"":""img/red_ll/11.jpg"",""time"":550}]","[]"
"image-keyboard-response","148","97799","0.0-5.0-1.72","640feb5e49b723bcfaad6437","bdp_lott","Sat Mar 25 2023 21:17:38 GMT-0400 (Eastern Daylight Time)","217491","red","green","","330","","","","choice","","img/red_ll/choose11.jpg","2","153","red","0.5","0.5","0.5","l","",""
"animation","149","98404","0.0-5.0-2.72","640feb5e49b723bcfaad6437","bdp_lott","Sat Mar 25 2023 21:17:38 GMT-0400 (Eastern Daylight Time)","217491","red","green","","","","","","","","","","153","","","","","","[{""stimulus"":""img/red_ll/1.jpg"",""time"":54},{""stimulus"":""img/red_ll/2.jpg"",""time"":102},{""stimulus"":""img/red_ll/3.jpg"",""time"":161},{""stimulus"":""img/red_ll/4.jpg"",""time"":207},{""stimulus"":""img/red_ll/5.jpg"",""time"":254},{""stimulus"":""img/red_ll/6.jpg"",""time"":302},{""stimulus"":""img/red_ll/7.jpg"",""time"":360},{""stimulus"":""img/red_ll/8.jpg"",""time"":407},{""stimulus"":""img/red_ll/9.jpg"",""time"":455},{""stimulus"":""img/red_ll/10.jpg"",""time"":503},{""stimulus"":""img/red_ll/11.jpg"",""time"":560}]","[]"
"image-keyboard-response","150","98693","0.0-5.0-1.73","640feb5e49b723bcfaad6437","bdp_lott","Sat Mar 25 2023 21:17:38 GMT-0400 (Eastern Daylight Time)","217491","red","green","","289","","","","choice","","img/red_ll/choose11.jpg","1","152","green","0.5","0.5","0.5","l","",""
"animation","151","99304","0.0-5.0-2.73","640feb5e49b723bcfaad6437","bdp_lott","Sat Mar 25 2023 21:17:38 GMT-0400 (Eastern Daylight Time)","217491","red","green","","","","","","","","","","152","","","","","","[{""stimulus"":""img/green_ll/1.jpg"",""time"":56},{""stimulus"":""img/green_ll/2.jpg"",""time"":106},{""stimulus"":""img/green_ll/3.jpg"",""time"":153},{""stimulus"":""img/green_ll/4.jpg"",""time"":209},{""stimulus"":""img/green_ll/5.jpg"",""time"":256},{""stimulus"":""img/green_ll/6.jpg"",""time"":303},{""stimulus"":""img/green_ll/7.jpg"",""time"":352},{""stimulus"":""img/green_ll/8.jpg"",""time"":408},{""stimulus"":""img/green_ll/9.jpg"",""time"":457},{""stimulus"":""img/green_ll/10.jpg"",""time"":505},{""stimulus"":""img/green_ll/11.jpg"",""time"":551}]","[]"
"image-keyboard-response","152","99590","0.0-5.0-1.74","640feb5e49b723bcfaad6437","bdp_lott","Sat Mar 25 2023 21:17:38 GMT-0400 (Eastern Daylight Time)","217491","red","green","","285","","","","choice","","img/green_ll/choose11.jpg","1","151","green","0.5","0.5","0.5","l","",""
"animation","153","100196","0.0-5.0-2.74","640feb5e49b723bcfaad6437","bdp_lott","Sat Mar 25 2023 21:17:38 GMT-0400 (Eastern Daylight Time)","217491","red","green","","","","","","","","","","151","","","","","","[{""stimulus"":""img/green_ll/1.jpg"",""time"":57},{""stimulus"":""img/green_ll/2.jpg"",""time"":103},{""stimulus"":""img/green_ll/3.jpg"",""time"":159},{""stimulus"":""img/green_ll/4.jpg"",""time"":207},{""stimulus"":""img/green_ll/5.jpg"",""time"":256},{""stimulus"":""img/green_ll/6.jpg"",""time"":303},{""stimulus"":""img/green_ll/7.jpg"",""time"":360},{""stimulus"":""img/green_ll/8.jpg"",""time"":407},{""stimulus"":""img/green_ll/9.jpg"",""time"":456},{""stimulus"":""img/green_ll/10.jpg"",""time"":503},{""stimulus"":""img/green_ll/11.jpg"",""time"":559}]","[]"
"image-keyboard-response","154","100510","0.0-5.0-1.75","640feb5e49b723bcfaad6437","bdp_lott","Sat Mar 25 2023 21:17:38 GMT-0400 (Eastern Daylight Time)","217491","red","green","","313","","","","choice","","img/green_ll/choose11.jpg","1","150","green","0.5","0.5","0.5","l","",""
"animation","155","101120","0.0-5.0-2.75","640feb5e49b723bcfaad6437","bdp_lott","Sat Mar 25 2023 21:17:38 GMT-0400 (Eastern Daylight Time)","217491","red","green","","","","","","","","","","150","","","","","","[{""stimulus"":""img/green_ll/1.jpg"",""time"":54},{""stimulus"":""img/green_ll/2.jpg"",""time"":102},{""stimulus"":""img/green_ll/3.jpg"",""time"":159},{""stimulus"":""img/green_ll/4.jpg"",""time"":209},{""stimulus"":""img/green_ll/5.jpg"",""time"":254},{""stimulus"":""img/green_ll/6.jpg"",""time"":303},{""stimulus"":""img/green_ll/7.jpg"",""time"":357},{""stimulus"":""img/green_ll/8.jpg"",""time"":407},{""stimulus"":""img/green_ll/9.jpg"",""time"":455},{""stimulus"":""img/green_ll/10.jpg"",""time"":502},{""stimulus"":""img/green_ll/11.jpg"",""time"":559}]","[]"
"image-keyboard-response","156","101424","0.0-5.0-1.76","640feb5e49b723bcfaad6437","bdp_lott","Sat Mar 25 2023 21:17:38 GMT-0400 (Eastern Daylight Time)","217491","red","green","","303","","","","choice","","img/green_ll/choose11.jpg","2","149","red","0.5","0.1","0.5","l","",""
"animation","157","102028","0.0-5.0-2.76","640feb5e49b723bcfaad6437","bdp_lott","Sat Mar 25 2023 21:17:38 GMT-0400 (Eastern Daylight Time)","217491","red","green","","","","","","","","","","149","","","","","","[{""stimulus"":""img/red_ll/1.jpg"",""time"":53},{""stimulus"":""img/red_ll/2.jpg"",""time"":108},{""stimulus"":""img/red_ll/3.jpg"",""time"":161},{""stimulus"":""img/red_ll/4.jpg"",""time"":208},{""stimulus"":""img/red_ll/5.jpg"",""time"":253},{""stimulus"":""img/red_ll/6.jpg"",""time"":310},{""stimulus"":""img/red_ll/7.jpg"",""time"":358},{""stimulus"":""img/red_ll/8.jpg"",""time"":406},{""stimulus"":""img/red_ll/9.jpg"",""time"":453},{""stimulus"":""img/red_ll/10.jpg"",""time"":502},{""stimulus"":""img/red_ll/11.jpg"",""time"":558}]","[]"
"image-keyboard-response","158","102381","0.0-5.0-1.77","640feb5e49b723bcfaad6437","bdp_lott","Sat Mar 25 2023 21:17:38 GMT-0400 (Eastern Daylight Time)","217491","red","green","","352","","","","choice","","img/red_ll/choose11.jpg","2","148","red","0.5","0.1","0.5","l","",""
"animation","159","102993","0.0-5.0-2.77","640feb5e49b723bcfaad6437","bdp_lott","Sat Mar 25 2023 21:17:38 GMT-0400 (Eastern Daylight Time)","217491","red","green","","","","","","","","","","148","","","","","","[{""stimulus"":""img/red_ll/1.jpg"",""time"":55},{""stimulus"":""img/red_ll/2.jpg"",""time"":104},{""stimulus"":""img/red_ll/3.jpg"",""time"":151},{""stimulus"":""img/red_ll/4.jpg"",""time"":211},{""stimulus"":""img/red_ll/5.jpg"",""time"":258},{""stimulus"":""img/red_ll/6.jpg"",""time"":304},{""stimulus"":""img/red_ll/7.jpg"",""time"":352},{""stimulus"":""img/red_ll/8.jpg"",""time"":411},{""stimulus"":""img/red_ll/9.jpg"",""time"":458},{""stimulus"":""img/red_ll/10.jpg"",""time"":503},{""stimulus"":""img/red_ll/11.jpg"",""time"":551}]","[]"
"image-keyboard-response","160","103214","0.0-5.0-1.78","640feb5e49b723bcfaad6437","bdp_lott","Sat Mar 25 2023 21:17:38 GMT-0400 (Eastern Daylight Time)","217491","red","green","","220","","","","choice","","img/red_ll/choose11.jpg","2","147","red","0.5","0.1","0.5","w","",""
"animation","161","103820","0.0-5.0-2.78","640feb5e49b723bcfaad6437","bdp_lott","Sat Mar 25 2023 21:17:38 GMT-0400 (Eastern Daylight Time)","217491","red","green","","","","","","","","","","147","","","","","","[{""stimulus"":""img/red_lw/1.jpg"",""time"":57},{""stimulus"":""img/red_lw/2.jpg"",""time"":104},{""stimulus"":""img/red_lw/3.jpg"",""time"":162},{""stimulus"":""img/red_lw/4.jpg"",""time"":207},{""stimulus"":""img/red_lw/5.jpg"",""time"":255},{""stimulus"":""img/red_lw/6.jpg"",""time"":302},{""stimulus"":""img/red_lw/7.jpg"",""time"":363},{""stimulus"":""img/red_lw/8.jpg"",""time"":407},{""stimulus"":""img/red_lw/9.jpg"",""time"":456},{""stimulus"":""img/red_lw/10.jpg"",""time"":504},{""stimulus"":""img/red_lw/11.jpg"",""time"":562}]","[]"
"image-keyboard-response","162","104023","0.0-5.0-1.79","640feb5e49b723bcfaad6437","bdp_lott","Sat Mar 25 2023 21:17:38 GMT-0400 (Eastern Daylight Time)","217491","red","green","","202","","","","choice","","img/red_lw/choose11.jpg","2","146","red","0.5","0.1","0.5","l","",""
"animation","163","104628","0.0-5.0-2.79","640feb5e49b723bcfaad6437","bdp_lott","Sat Mar 25 2023 21:17:38 GMT-0400 (Eastern Daylight Time)","217491","red","green","","","","","","","","","","146","","","","","","[{""stimulus"":""img/red_ll/1.jpg"",""time"":54},{""stimulus"":""img/red_ll/2.jpg"",""time"":104},{""stimulus"":""img/red_ll/3.jpg"",""time"":159},{""stimulus"":""img/red_ll/4.jpg"",""time"":208},{""stimulus"":""img/red_ll/5.jpg"",""time"":254},{""stimulus"":""img/red_ll/6.jpg"",""time"":303},{""stimulus"":""img/red_ll/7.jpg"",""time"":359},{""stimulus"":""img/red_ll/8.jpg"",""time"":407},{""stimulus"":""img/red_ll/9.jpg"",""time"":454},{""stimulus"":""img/red_ll/10.jpg"",""time"":503},{""stimulus"":""img/red_ll/11.jpg"",""time"":561}]","[]"
"image-keyboard-response","164","104911","0.0-5.0-1.80","640feb5e49b723bcfaad6437","bdp_lott","Sat Mar 25 2023 21:17:38 GMT-0400 (Eastern Daylight Time)","217491","red","green","","282","","","","choice","","img/red_ll/choose11.jpg","2","145","red","0.5","0.1","0.5","w","",""
"animation","165","105516","0.0-5.0-2.80","640feb5e49b723bcfaad6437","bdp_lott","Sat Mar 25 2023 21:17:38 GMT-0400 (Eastern Daylight Time)","217491","red","green","","","","","","","","","","145","","","","","","[{""stimulus"":""img/red_lw/1.jpg"",""time"":56},{""stimulus"":""img/red_lw/2.jpg"",""time"":103},{""stimulus"":""img/red_lw/3.jpg"",""time"":159},{""stimulus"":""img/red_lw/4.jpg"",""time"":209},{""stimulus"":""img/red_lw/5.jpg"",""time"":258},{""stimulus"":""img/red_lw/6.jpg"",""time"":306},{""stimulus"":""img/red_lw/7.jpg"",""time"":359},{""stimulus"":""img/red_lw/8.jpg"",""time"":407},{""stimulus"":""img/red_lw/9.jpg"",""time"":453},{""stimulus"":""img/red_lw/10.jpg"",""time"":502},{""stimulus"":""img/red_lw/11.jpg"",""time"":560}]","[]"
"image-keyboard-response","166","105704","0.0-5.0-1.81","640feb5e49b723bcfaad6437","bdp_lott","Sat Mar 25 2023 21:17:38 GMT-0400 (Eastern Daylight Time)","217491","red","green","","188","","","","choice","","img/red_lw/choose11.jpg","2","144","red","0.5","0.1","0.5","l","",""
"animation","167","106310","0.0-5.0-2.81","640feb5e49b723bcfaad6437","bdp_lott","Sat Mar 25 2023 21:17:38 GMT-0400 (Eastern Daylight Time)","217491","red","green","","","","","","","","","","144","","","","","","[{""stimulus"":""img/red_ll/1.jpg"",""time"":57},{""stimulus"":""img/red_ll/2.jpg"",""time"":109},{""stimulus"":""img/red_ll/3.jpg"",""time"":157},{""stimulus"":""img/red_ll/4.jpg"",""time"":206},{""stimulus"":""img/red_ll/5.jpg"",""time"":255},{""stimulus"":""img/red_ll/6.jpg"",""time"":311},{""stimulus"":""img/red_ll/7.jpg"",""time"":358},{""stimulus"":""img/red_ll/8.jpg"",""time"":406},{""stimulus"":""img/red_ll/9.jpg"",""time"":456},{""stimulus"":""img/red_ll/10.jpg"",""time"":510},{""stimulus"":""img/red_ll/11.jpg"",""time"":558}]","[]"
"image-keyboard-response","168","106468","0.0-5.0-1.82","640feb5e49b723bcfaad6437","bdp_lott","Sat Mar 25 2023 21:17:38 GMT-0400 (Eastern Daylight Time)","217491","red","green","","157","","","","choice","","img/red_ll/choose11.jpg","2","143","red","0.5","0.1","0.5","w","",""
"animation","169","107076","0.0-5.0-2.82","640feb5e49b723bcfaad6437","bdp_lott","Sat Mar 25 2023 21:17:38 GMT-0400 (Eastern Daylight Time)","217491","red","green","","","","","","","","","","143","","","","","","[{""stimulus"":""img/red_lw/1.jpg"",""time"":58},{""stimulus"":""img/red_lw/2.jpg"",""time"":107},{""stimulus"":""img/red_lw/3.jpg"",""time"":154},{""stimulus"":""img/red_lw/4.jpg"",""time"":211},{""stimulus"":""img/red_lw/5.jpg"",""time"":259},{""stimulus"":""img/red_lw/6.jpg"",""time"":307},{""stimulus"":""img/red_lw/7.jpg"",""time"":355},{""stimulus"":""img/red_lw/8.jpg"",""time"":408},{""stimulus"":""img/red_lw/9.jpg"",""time"":459},{""stimulus"":""img/red_lw/10.jpg"",""time"":508},{""stimulus"":""img/red_lw/11.jpg"",""time"":554}]","[]"
"image-keyboard-response","170","107237","0.0-5.0-1.83","640feb5e49b723bcfaad6437","bdp_lott","Sat Mar 25 2023 21:17:38 GMT-0400 (Eastern Daylight Time)","217491","red","green","","159","","","","choice","","img/red_lw/choose11.jpg","2","142","red","0.5","0.1","0.5","l","",""
"animation","171","107847","0.0-5.0-2.83","640feb5e49b723bcfaad6437","bdp_lott","Sat Mar 25 2023 21:17:38 GMT-0400 (Eastern Daylight Time)","217491","red","green","","","","","","","","","","142","","","","","","[{""stimulus"":""img/red_ll/1.jpg"",""time"":57},{""stimulus"":""img/red_ll/2.jpg"",""time"":106},{""stimulus"":""img/red_ll/3.jpg"",""time"":156},{""stimulus"":""img/red_ll/4.jpg"",""time"":209},{""stimulus"":""img/red_ll/5.jpg"",""time"":257},{""stimulus"":""img/red_ll/6.jpg"",""time"":306},{""stimulus"":""img/red_ll/7.jpg"",""time"":356},{""stimulus"":""img/red_ll/8.jpg"",""time"":410},{""stimulus"":""img/red_ll/9.jpg"",""time"":456},{""stimulus"":""img/red_ll/10.jpg"",""time"":506},{""stimulus"":""img/red_ll/11.jpg"",""time"":556}]","[]"
"image-keyboard-response","172","108041","0.0-5.0-1.84","640feb5e49b723bcfaad6437","bdp_lott","Sat Mar 25 2023 21:17:38 GMT-0400 (Eastern Daylight Time)","217491","red","green","","193","","","","choice","","img/red_ll/choose11.jpg","2","141","red","0.5","0.1","0.5","l","",""
"animation","173","108644","0.0-5.0-2.84","640feb5e49b723bcfaad6437","bdp_lott","Sat Mar 25 2023 21:17:38 GMT-0400 (Eastern Daylight Time)","217491","red","green","","","","","","","","","","141","","","","","","[{""stimulus"":""img/red_ll/1.jpg"",""time"":55},{""stimulus"":""img/red_ll/2.jpg"",""time"":108},{""stimulus"":""img/red_ll/3.jpg"",""time"":156},{""stimulus"":""img/red_ll/4.jpg"",""time"":205},{""stimulus"":""img/red_ll/5.jpg"",""time"":252},{""stimulus"":""img/red_ll/6.jpg"",""time"":309},{""stimulus"":""img/red_ll/7.jpg"",""time"":358},{""stimulus"":""img/red_ll/8.jpg"",""time"":405},{""stimulus"":""img/red_ll/9.jpg"",""time"":452},{""stimulus"":""img/red_ll/10.jpg"",""time"":510},{""stimulus"":""img/red_ll/11.jpg"",""time"":557}]","[]"
"image-keyboard-response","174","108816","0.0-5.0-1.85","640feb5e49b723bcfaad6437","bdp_lott","Sat Mar 25 2023 21:17:38 GMT-0400 (Eastern Daylight Time)","217491","red","green","","171","","","","choice","","img/red_ll/choose11.jpg","2","140","red","0.5","0.1","0.5","l","",""
"animation","175","109421","0.0-5.0-2.85","640feb5e49b723bcfaad6437","bdp_lott","Sat Mar 25 2023 21:17:38 GMT-0400 (Eastern Daylight Time)","217491","red","green","","","","","","","","","","140","","","","","","[{""stimulus"":""img/red_ll/1.jpg"",""time"":53},{""stimulus"":""img/red_ll/2.jpg"",""time"":111},{""stimulus"":""img/red_ll/3.jpg"",""time"":161},{""stimulus"":""img/red_ll/4.jpg"",""time"":205},{""stimulus"":""img/red_ll/5.jpg"",""time"":253},{""stimulus"":""img/red_ll/6.jpg"",""time"":311},{""stimulus"":""img/red_ll/7.jpg"",""time"":361},{""stimulus"":""img/red_ll/8.jpg"",""time"":407},{""stimulus"":""img/red_ll/9.jpg"",""time"":454},{""stimulus"":""img/red_ll/10.jpg"",""time"":511},{""stimulus"":""img/red_ll/11.jpg"",""time"":561}]","[]"
"image-keyboard-response","176","109647","0.0-5.0-1.86","640feb5e49b723bcfaad6437","bdp_lott","Sat Mar 25 2023 21:17:38 GMT-0400 (Eastern Daylight Time)","217491","red","green","","225","","","","choice","","img/red_ll/choose11.jpg","2","139","red","0.5","0.1","0.5","l","",""
"animation","177","110253","0.0-5.0-2.86","640feb5e49b723bcfaad6437","bdp_lott","Sat Mar 25 2023 21:17:38 GMT-0400 (Eastern Daylight Time)","217491","red","green","","","","","","","","","","139","","","","","","[{""stimulus"":""img/red_ll/1.jpg"",""time"":55},{""stimulus"":""img/red_ll/2.jpg"",""time"":104},{""stimulus"":""img/red_ll/3.jpg"",""time"":159},{""stimulus"":""img/red_ll/4.jpg"",""time"":206},{""stimulus"":""img/red_ll/5.jpg"",""time"":255},{""stimulus"":""img/red_ll/6.jpg"",""time"":302},{""stimulus"":""img/red_ll/7.jpg"",""time"":359},{""stimulus"":""img/red_ll/8.jpg"",""time"":407},{""stimulus"":""img/red_ll/9.jpg"",""time"":458},{""stimulus"":""img/red_ll/10.jpg"",""time"":505},{""stimulus"":""img/red_ll/11.jpg"",""time"":560}]","[]"
"image-keyboard-response","178","110479","0.0-5.0-1.87","640feb5e49b723bcfaad6437","bdp_lott","Sat Mar 25 2023 21:17:38 GMT-0400 (Eastern Daylight Time)","217491","red","green","","225","","","","choice","","img/red_ll/choose11.jpg","1","138","green","0.5","0.1","0.1","l","",""
"animation","179","111085","0.0-5.0-2.87","640feb5e49b723bcfaad6437","bdp_lott","Sat Mar 25 2023 21:17:38 GMT-0400 (Eastern Daylight Time)","217491","red","green","","","","","","","","","","138","","","","","","[{""stimulus"":""img/green_ll/1.jpg"",""time"":54},{""stimulus"":""img/green_ll/2.jpg"",""time"":102},{""stimulus"":""img/green_ll/3.jpg"",""time"":159},{""stimulus"":""img/green_ll/4.jpg"",""time"":207},{""stimulus"":""img/green_ll/5.jpg"",""time"":254},{""stimulus"":""img/green_ll/6.jpg"",""time"":302},{""stimulus"":""img/green_ll/7.jpg"",""time"":358},{""stimulus"":""img/green_ll/8.jpg"",""time"":406},{""stimulus"":""img/green_ll/9.jpg"",""time"":456},{""stimulus"":""img/green_ll/10.jpg"",""time"":503},{""stimulus"":""img/green_ll/11.jpg"",""time"":558}]","[]"
"image-keyboard-response","180","111287","0.0-5.0-1.88","640feb5e49b723bcfaad6437","bdp_lott","Sat Mar 25 2023 21:17:38 GMT-0400 (Eastern Daylight Time)","217491","red","green","","201","","","","choice","","img/green_ll/choose11.jpg","1","137","green","0.5","0.1","0.1","l","",""
"animation","181","111894","0.0-5.0-2.88","640feb5e49b723bcfaad6437","bdp_lott","Sat Mar 25 2023 21:17:38 GMT-0400 (Eastern Daylight Time)","217491","red","green","","","","","","","","","","137","","","","","","[{""stimulus"":""img/green_ll/1.jpg"",""time"":57},{""stimulus"":""img/green_ll/2.jpg"",""time"":107},{""stimulus"":""img/green_ll/3.jpg"",""time"":159},{""stimulus"":""img/green_ll/4.jpg"",""time"":207},{""stimulus"":""img/green_ll/5.jpg"",""time"":256},{""stimulus"":""img/green_ll/6.jpg"",""time"":306},{""stimulus"":""img/green_ll/7.jpg"",""time"":359},{""stimulus"":""img/green_ll/8.jpg"",""time"":407},{""stimulus"":""img/green_ll/9.jpg"",""time"":456},{""stimulus"":""img/green_ll/10.jpg"",""time"":507},{""stimulus"":""img/green_ll/11.jpg"",""time"":560}]","[]"
"image-keyboard-response","182","112157","0.0-5.0-1.89","640feb5e49b723bcfaad6437","bdp_lott","Sat Mar 25 2023 21:17:38 GMT-0400 (Eastern Daylight Time)","217491","red","green","","263","","","","choice","","img/green_ll/choose11.jpg","1","136","green","0.5","0.1","0.1","l","",""
"animation","183","112765","0.0-5.0-2.89","640feb5e49b723bcfaad6437","bdp_lott","Sat Mar 25 2023 21:17:38 GMT-0400 (Eastern Daylight Time)","217491","red","green","","","","","","","","","","136","","","","","","[{""stimulus"":""img/green_ll/1.jpg"",""time"":58},{""stimulus"":""img/green_ll/2.jpg"",""time"":105},{""stimulus"":""img/green_ll/3.jpg"",""time"":153},{""stimulus"":""img/green_ll/4.jpg"",""time"":209},{""stimulus"":""img/green_ll/5.jpg"",""time"":258},{""stimulus"":""img/green_ll/6.jpg"",""time"":305},{""stimulus"":""img/green_ll/7.jpg"",""time"":353},{""stimulus"":""img/green_ll/8.jpg"",""time"":408},{""stimulus"":""img/green_ll/9.jpg"",""time"":457},{""stimulus"":""img/green_ll/10.jpg"",""time"":504},{""stimulus"":""img/green_ll/11.jpg"",""time"":553}]","[]"
"image-keyboard-response","184","113062","0.0-5.0-1.90","640feb5e49b723bcfaad6437","bdp_lott","Sat Mar 25 2023 21:17:38 GMT-0400 (Eastern Daylight Time)","217491","red","green","","295","","","","choice","","img/green_ll/choose11.jpg","2","135","red","0.5","0.1","0.5","l","",""
"animation","185","113670","0.0-5.0-2.90","640feb5e49b723bcfaad6437","bdp_lott","Sat Mar 25 2023 21:17:38 GMT-0400 (Eastern Daylight Time)","217491","red","green","","","","","","","","","","135","","","","","","[{""stimulus"":""img/red_ll/1.jpg"",""time"":55},{""stimulus"":""img/red_ll/2.jpg"",""time"":107},{""stimulus"":""img/red_ll/3.jpg"",""time"":156},{""stimulus"":""img/red_ll/4.jpg"",""time"":211},{""stimulus"":""img/red_ll/5.jpg"",""time"":257},{""stimulus"":""img/red_ll/6.jpg"",""time"":305},{""stimulus"":""img/red_ll/7.jpg"",""time"":351},{""stimulus"":""img/red_ll/8.jpg"",""time"":408},{""stimulus"":""img/red_ll/9.jpg"",""time"":456},{""stimulus"":""img/red_ll/10.jpg"",""time"":506},{""stimulus"":""img/red_ll/11.jpg"",""time"":552}]","[]"
"image-keyboard-response","186","113847","0.0-5.0-1.91","640feb5e49b723bcfaad6437","bdp_lott","Sat Mar 25 2023 21:17:38 GMT-0400 (Eastern Daylight Time)","217491","red","green","","176","","","","choice","","img/red_ll/choose11.jpg","2","134","red","0.5","0.1","0.5","w","",""
"animation","187","114453","0.0-5.0-2.91","640feb5e49b723bcfaad6437","bdp_lott","Sat Mar 25 2023 21:17:38 GMT-0400 (Eastern Daylight Time)","217491","red","green","","","","","","","","","","134","","","","","","[{""stimulus"":""img/red_lw/1.jpg"",""time"":55},{""stimulus"":""img/red_lw/2.jpg"",""time"":104},{""stimulus"":""img/red_lw/3.jpg"",""time"":160},{""stimulus"":""img/red_lw/4.jpg"",""time"":206},{""stimulus"":""img/red_lw/5.jpg"",""time"":254},{""stimulus"":""img/red_lw/6.jpg"",""time"":302},{""stimulus"":""img/red_lw/7.jpg"",""time"":359},{""stimulus"":""img/red_lw/8.jpg"",""time"":410},{""stimulus"":""img/red_lw/9.jpg"",""time"":454},{""stimulus"":""img/red_lw/10.jpg"",""time"":503},{""stimulus"":""img/red_lw/11.jpg"",""time"":558}]","[]"
"image-keyboard-response","188","114870","0.0-5.0-1.92","640feb5e49b723bcfaad6437","bdp_lott","Sat Mar 25 2023 21:17:38 GMT-0400 (Eastern Daylight Time)","217491","red","green","","417","","","","choice","","img/red_lw/choose11.jpg","2","133","red","0.5","0.1","0.5","l","",""
"animation","189","115476","0.0-5.0-2.92","640feb5e49b723bcfaad6437","bdp_lott","Sat Mar 25 2023 21:17:38 GMT-0400 (Eastern Daylight Time)","217491","red","green","","","","","","","","","","133","","","","","","[{""stimulus"":""img/red_ll/1.jpg"",""time"":56},{""stimulus"":""img/red_ll/2.jpg"",""time"":107},{""stimulus"":""img/red_ll/3.jpg"",""time"":151},{""stimulus"":""img/red_ll/4.jpg"",""time"":207},{""stimulus"":""img/red_ll/5.jpg"",""time"":256},{""stimulus"":""img/red_ll/6.jpg"",""time"":307},{""stimulus"":""img/red_ll/7.jpg"",""time"":352},{""stimulus"":""img/red_ll/8.jpg"",""time"":408},{""stimulus"":""img/red_ll/9.jpg"",""time"":457},{""stimulus"":""img/red_ll/10.jpg"",""time"":507},{""stimulus"":""img/red_ll/11.jpg"",""time"":553}]","[]"
"image-keyboard-response","190","115654","0.0-5.0-1.93","640feb5e49b723bcfaad6437","bdp_lott","Sat Mar 25 2023 21:17:38 GMT-0400 (Eastern Daylight Time)","217491","red","green","","177","","","","choice","","img/red_ll/choose11.jpg","2","132","red","0.5","0.1","0.5","w","",""
"animation","191","116261","0.0-5.0-2.93","640feb5e49b723bcfaad6437","bdp_lott","Sat Mar 25 2023 21:17:38 GMT-0400 (Eastern Daylight Time)","217491","red","green","","","","","","","","","","132","","","","","","[{""stimulus"":""img/red_lw/1.jpg"",""time"":55},{""stimulus"":""img/red_lw/2.jpg"",""time"":105},{""stimulus"":""img/red_lw/3.jpg"",""time"":160},{""stimulus"":""img/red_lw/4.jpg"",""time"":207},{""stimulus"":""img/red_lw/5.jpg"",""time"":257},{""stimulus"":""img/red_lw/6.jpg"",""time"":305},{""stimulus"":""img/red_lw/7.jpg"",""time"":358},{""stimulus"":""img/red_lw/8.jpg"",""time"":407},{""stimulus"":""img/red_lw/9.jpg"",""time"":455},{""stimulus"":""img/red_lw/10.jpg"",""time"":506},{""stimulus"":""img/red_lw/11.jpg"",""time"":562}]","[]"
"image-keyboard-response","192","116449","0.0-5.0-1.94","640feb5e49b723bcfaad6437","bdp_lott","Sat Mar 25 2023 21:17:38 GMT-0400 (Eastern Daylight Time)","217491","red","green","","188","","","","choice","","img/red_lw/choose11.jpg","2","131","red","0.5","0.1","0.5","w","",""
