"trial_type","trial_index","time_elapsed","internal_node_id","subject_id","task","startTime","totalTime","fairMachine","unfairMachine","event","trial","time","trialtype","numBlurs","view_history","rt","success","stimulus","key_press","roundsLeft","chosen","pFairMachWin","pUnfairMachWin","pTrialWin","outcome","animation_sequence","responses"
"pavlovia","0","2","0.0-0.0","5d412a9013864b0015b14b31","bdp_lott","Mon Mar 27 2023 15:49:12 GMT-0500 (Central Daylight Time)","276065","green","red","","","","","","","","","","","","","","","","","",""
"","","","","5d412a9013864b0015b14b31","bdp_lott","Mon Mar 27 2023 15:49:12 GMT-0500 (Central Daylight Time)","276065","green","red","blur","1","1759","blurevent","1","","","","","","","","","","","","",""
"","","","","5d412a9013864b0015b14b31","bdp_lott","Mon Mar 27 2023 15:49:12 GMT-0500 (Central Daylight Time)","276065","green","red","focus","1","8598","focusevent","","","","","","","","","","","","","",""
"","","","","5d412a9013864b0015b14b31","bdp_lott","Mon Mar 27 2023 15:49:12 GMT-0500 (Central Daylight Time)","276065","green","red","blur","1","10672","blurevent","","","","","","","","","","","","","",""
"","","","","5d412a9013864b0015b14b31","bdp_lott","Mon Mar 27 2023 15:49:12 GMT-0500 (Central Daylight Time)","276065","green","red","focus","1","18885","focusevent","","","","","","","","","","","","","",""
"instructions","1","19292","0.0-1.0","5d412a9013864b0015b14b31","bdp_lott","Mon Mar 27 2023 15:49:12 GMT-0500 (Central Daylight Time)","276065","green","red","","","","","","[{""page_index"":0,""viewing_time"":19290}]","19290","","","","","","","","","","",""
"","","","","5d412a9013864b0015b14b31","bdp_lott","Mon Mar 27 2023 15:49:12 GMT-0500 (Central Daylight Time)","276065","green","red","fullscreenenter","2","21425","fullscreenenter","","","","","","","","","","","","","",""
"fullscreen","2","22417","0.0-2.0","5d412a9013864b0015b14b31","bdp_lott","Mon Mar 27 2023 15:49:12 GMT-0500 (Central Daylight Time)","276065","green","red","","","","","","","","true","","","","","","","","","",""
"instructions","3","37141","0.0-4.0","5d412a9013864b0015b14b31","bdp_lott","Mon Mar 27 2023 15:49:12 GMT-0500 (Central Daylight Time)","276065","green","red","","","","","","[{""page_index"":0,""viewing_time"":14723}]","14724","","","","","","","","","","",""
"image-keyboard-response","4","46396","0.0-5.0-0.0-0.0","5d412a9013864b0015b14b31","bdp_lott","Mon Mar 27 2023 15:49:12 GMT-0500 (Central Daylight Time)","276065","green","red","","","","blurwarn","1","","9255","","","49","","","","","","","",""
"image-keyboard-response","5","50501","0.0-5.0-1.0","5d412a9013864b0015b14b31","bdp_lott","Mon Mar 27 2023 15:49:12 GMT-0500 (Central Daylight Time)","276065","green","red","","","","choice","","","3853","","img/red_ll/initchoose11.jpg","1","225","green","0.5","0.5","0.5","w","",""
"animation","6","51103","0.0-5.0-2.0","5d412a9013864b0015b14b31","bdp_lott","Mon Mar 27 2023 15:49:12 GMT-0500 (Central Daylight Time)","276065","green","red","","","","","","","","","","","225","","","","","","[{""stimulus"":""img/green_wl/1.jpg"",""time"":51},{""stimulus"":""img/green_wl/2.jpg"",""time"":101},{""stimulus"":""img/green_wl/3.jpg"",""time"":150},{""stimulus"":""img/green_wl/4.jpg"",""time"":201},{""stimulus"":""img/green_wl/5.jpg"",""time"":250},{""stimulus"":""img/green_wl/6.jpg"",""time"":300},{""stimulus"":""img/green_wl/7.jpg"",""time"":352},{""stimulus"":""img/green_wl/8.jpg"",""time"":400},{""stimulus"":""img/green_wl/9.jpg"",""time"":451},{""stimulus"":""img/green_wl/10.jpg"",""time"":500},{""stimulus"":""img/green_wl/11.jpg"",""time"":550}]","[]"
"image-keyboard-response","7","52578","0.0-5.0-1.1","5d412a9013864b0015b14b31","bdp_lott","Mon Mar 27 2023 15:49:12 GMT-0500 (Central Daylight Time)","276065","green","red","","","","choice","","","1475","","img/green_wl/choose11.jpg","2","224","red","0.5","0.5","0.5","l","",""
"animation","8","53179","0.0-5.0-2.1","5d412a9013864b0015b14b31","bdp_lott","Mon Mar 27 2023 15:49:12 GMT-0500 (Central Daylight Time)","276065","green","red","","","","","","","","","","","224","","","","","","[{""stimulus"":""img/red_wl/1.jpg"",""time"":51},{""stimulus"":""img/red_wl/2.jpg"",""time"":101},{""stimulus"":""img/red_wl/3.jpg"",""time"":152},{""stimulus"":""img/red_wl/4.jpg"",""time"":201},{""stimulus"":""img/red_wl/5.jpg"",""time"":251},{""stimulus"":""img/red_wl/6.jpg"",""time"":301},{""stimulus"":""img/red_wl/7.jpg"",""time"":351},{""stimulus"":""img/red_wl/8.jpg"",""time"":401},{""stimulus"":""img/red_wl/9.jpg"",""time"":452},{""stimulus"":""img/red_wl/10.jpg"",""time"":501},{""stimulus"":""img/red_wl/11.jpg"",""time"":551}]","[]"
"image-keyboard-response","9","53751","0.0-5.0-1.2","5d412a9013864b0015b14b31","bdp_lott","Mon Mar 27 2023 15:49:12 GMT-0500 (Central Daylight Time)","276065","green","red","","","","choice","","","572","","img/red_wl/choose11.jpg","1","223","green","0.5","0.5","0.5","w","",""
"animation","10","54352","0.0-5.0-2.2","5d412a9013864b0015b14b31","bdp_lott","Mon Mar 27 2023 15:49:12 GMT-0500 (Central Daylight Time)","276065","green","red","","","","","","","","","","","223","","","","","","[{""stimulus"":""img/green_wl/1.jpg"",""time"":51},{""stimulus"":""img/green_wl/2.jpg"",""time"":100},{""stimulus"":""img/green_wl/3.jpg"",""time"":150},{""stimulus"":""img/green_wl/4.jpg"",""time"":201},{""stimulus"":""img/green_wl/5.jpg"",""time"":251},{""stimulus"":""img/green_wl/6.jpg"",""time"":300},{""stimulus"":""img/green_wl/7.jpg"",""time"":350},{""stimulus"":""img/green_wl/8.jpg"",""time"":401},{""stimulus"":""img/green_wl/9.jpg"",""time"":451},{""stimulus"":""img/green_wl/10.jpg"",""time"":500},{""stimulus"":""img/green_wl/11.jpg"",""time"":550}]","[]"
"image-keyboard-response","11","55027","0.0-5.0-1.3","5d412a9013864b0015b14b31","bdp_lott","Mon Mar 27 2023 15:49:12 GMT-0500 (Central Daylight Time)","276065","green","red","","","","choice","","","675","","img/green_wl/choose11.jpg","1","222","green","0.5","0.5","0.5","l","",""
"animation","12","55628","0.0-5.0-2.3","5d412a9013864b0015b14b31","bdp_lott","Mon Mar 27 2023 15:49:12 GMT-0500 (Central Daylight Time)","276065","green","red","","","","","","","","","","","222","","","","","","[{""stimulus"":""img/green_ll/1.jpg"",""time"":51},{""stimulus"":""img/green_ll/2.jpg"",""time"":102},{""stimulus"":""img/green_ll/3.jpg"",""time"":155},{""stimulus"":""img/green_ll/4.jpg"",""time"":202},{""stimulus"":""img/green_ll/5.jpg"",""time"":257},{""stimulus"":""img/green_ll/6.jpg"",""time"":301},{""stimulus"":""img/green_ll/7.jpg"",""time"":351},{""stimulus"":""img/green_ll/8.jpg"",""time"":401},{""stimulus"":""img/green_ll/9.jpg"",""time"":451},{""stimulus"":""img/green_ll/10.jpg"",""time"":500},{""stimulus"":""img/green_ll/11.jpg"",""time"":552}]","[]"
"image-keyboard-response","13","56414","0.0-5.0-1.4","5d412a9013864b0015b14b31","bdp_lott","Mon Mar 27 2023 15:49:12 GMT-0500 (Central Daylight Time)","276065","green","red","","","","choice","","","785","","img/green_ll/choose11.jpg","1","221","green","0.5","0.5","0.5","l","",""
"animation","14","57015","0.0-5.0-2.4","5d412a9013864b0015b14b31","bdp_lott","Mon Mar 27 2023 15:49:12 GMT-0500 (Central Daylight Time)","276065","green","red","","","","","","","","","","","221","","","","","","[{""stimulus"":""img/green_ll/1.jpg"",""time"":50},{""stimulus"":""img/green_ll/2.jpg"",""time"":101},{""stimulus"":""img/green_ll/3.jpg"",""time"":151},{""stimulus"":""img/green_ll/4.jpg"",""time"":200},{""stimulus"":""img/green_ll/5.jpg"",""time"":250},{""stimulus"":""img/green_ll/6.jpg"",""time"":300},{""stimulus"":""img/green_ll/7.jpg"",""time"":351},{""stimulus"":""img/green_ll/8.jpg"",""time"":401},{""stimulus"":""img/green_ll/9.jpg"",""time"":451},{""stimulus"":""img/green_ll/10.jpg"",""time"":501},{""stimulus"":""img/green_ll/11.jpg"",""time"":551}]","[]"
"image-keyboard-response","15","57515","0.0-5.0-1.5","5d412a9013864b0015b14b31","bdp_lott","Mon Mar 27 2023 15:49:12 GMT-0500 (Central Daylight Time)","276065","green","red","","","","choice","","","500","","img/green_ll/choose11.jpg","2","220","red","0.5","0.5","0.5","w","",""
"animation","16","58116","0.0-5.0-2.5","5d412a9013864b0015b14b31","bdp_lott","Mon Mar 27 2023 15:49:12 GMT-0500 (Central Daylight Time)","276065","green","red","","","","","","","","","","","220","","","","","","[{""stimulus"":""img/red_lw/1.jpg"",""time"":50},{""stimulus"":""img/red_lw/2.jpg"",""time"":102},{""stimulus"":""img/red_lw/3.jpg"",""time"":151},{""stimulus"":""img/red_lw/4.jpg"",""time"":202},{""stimulus"":""img/red_lw/5.jpg"",""time"":250},{""stimulus"":""img/red_lw/6.jpg"",""time"":301},{""stimulus"":""img/red_lw/7.jpg"",""time"":351},{""stimulus"":""img/red_lw/8.jpg"",""time"":402},{""stimulus"":""img/red_lw/9.jpg"",""time"":451},{""stimulus"":""img/red_lw/10.jpg"",""time"":501},{""stimulus"":""img/red_lw/11.jpg"",""time"":551}]","[]"
"image-keyboard-response","17","59147","0.0-5.0-1.6","5d412a9013864b0015b14b31","bdp_lott","Mon Mar 27 2023 15:49:12 GMT-0500 (Central Daylight Time)","276065","green","red","","","","choice","","","1030","","img/red_lw/choose11.jpg","2","219","red","0.5","0.5","0.5","w","",""
"animation","18","59748","0.0-5.0-2.6","5d412a9013864b0015b14b31","bdp_lott","Mon Mar 27 2023 15:49:12 GMT-0500 (Central Daylight Time)","276065","green","red","","","","","","","","","","","219","","","","","","[{""stimulus"":""img/red_lw/1.jpg"",""time"":51},{""stimulus"":""img/red_lw/2.jpg"",""time"":101},{""stimulus"":""img/red_lw/3.jpg"",""time"":151},{""stimulus"":""img/red_lw/4.jpg"",""time"":202},{""stimulus"":""img/red_lw/5.jpg"",""time"":252},{""stimulus"":""img/red_lw/6.jpg"",""time"":301},{""stimulus"":""img/red_lw/7.jpg"",""time"":351},{""stimulus"":""img/red_lw/8.jpg"",""time"":401},{""stimulus"":""img/red_lw/9.jpg"",""time"":451},{""stimulus"":""img/red_lw/10.jpg"",""time"":501},{""stimulus"":""img/red_lw/11.jpg"",""time"":551}]","[]"
"image-keyboard-response","19","60452","0.0-5.0-1.7","5d412a9013864b0015b14b31","bdp_lott","Mon Mar 27 2023 15:49:12 GMT-0500 (Central Daylight Time)","276065","green","red","","","","choice","","","703","","img/red_lw/choose11.jpg","2","218","red","0.5","0.5","0.5","w","",""
"animation","20","61053","0.0-5.0-2.7","5d412a9013864b0015b14b31","bdp_lott","Mon Mar 27 2023 15:49:12 GMT-0500 (Central Daylight Time)","276065","green","red","","","","","","","","","","","218","","","","","","[{""stimulus"":""img/red_lw/1.jpg"",""time"":51},{""stimulus"":""img/red_lw/2.jpg"",""time"":100},{""stimulus"":""img/red_lw/3.jpg"",""time"":150},{""stimulus"":""img/red_lw/4.jpg"",""time"":201},{""stimulus"":""img/red_lw/5.jpg"",""time"":250},{""stimulus"":""img/red_lw/6.jpg"",""time"":300},{""stimulus"":""img/red_lw/7.jpg"",""time"":351},{""stimulus"":""img/red_lw/8.jpg"",""time"":401},{""stimulus"":""img/red_lw/9.jpg"",""time"":452},{""stimulus"":""img/red_lw/10.jpg"",""time"":501},{""stimulus"":""img/red_lw/11.jpg"",""time"":551}]","[]"
"image-keyboard-response","21","62036","0.0-5.0-1.8","5d412a9013864b0015b14b31","bdp_lott","Mon Mar 27 2023 15:49:12 GMT-0500 (Central Daylight Time)","276065","green","red","","","","choice","","","982","","img/red_lw/choose11.jpg","2","217","red","0.5","0.5","0.5","w","",""
"animation","22","62638","0.0-5.0-2.8","5d412a9013864b0015b14b31","bdp_lott","Mon Mar 27 2023 15:49:12 GMT-0500 (Central Daylight Time)","276065","green","red","","","","","","","","","","","217","","","","","","[{""stimulus"":""img/red_lw/1.jpg"",""time"":51},{""stimulus"":""img/red_lw/2.jpg"",""time"":101},{""stimulus"":""img/red_lw/3.jpg"",""time"":151},{""stimulus"":""img/red_lw/4.jpg"",""time"":202},{""stimulus"":""img/red_lw/5.jpg"",""time"":251},{""stimulus"":""img/red_lw/6.jpg"",""time"":302},{""stimulus"":""img/red_lw/7.jpg"",""time"":352},{""stimulus"":""img/red_lw/8.jpg"",""time"":401},{""stimulus"":""img/red_lw/9.jpg"",""time"":451},{""stimulus"":""img/red_lw/10.jpg"",""time"":501},{""stimulus"":""img/red_lw/11.jpg"",""time"":551}]","[]"
"image-keyboard-response","23","63188","0.0-5.0-1.9","5d412a9013864b0015b14b31","bdp_lott","Mon Mar 27 2023 15:49:12 GMT-0500 (Central Daylight Time)","276065","green","red","","","","choice","","","550","","img/red_lw/choose11.jpg","2","216","red","0.5","0.5","0.5","w","",""
"animation","24","63789","0.0-5.0-2.9","5d412a9013864b0015b14b31","bdp_lott","Mon Mar 27 2023 15:49:12 GMT-0500 (Central Daylight Time)","276065","green","red","","","","","","","","","","","216","","","","","","[{""stimulus"":""img/red_lw/1.jpg"",""time"":51},{""stimulus"":""img/red_lw/2.jpg"",""time"":101},{""stimulus"":""img/red_lw/3.jpg"",""time"":150},{""stimulus"":""img/red_lw/4.jpg"",""time"":201},{""stimulus"":""img/red_lw/5.jpg"",""time"":251},{""stimulus"":""img/red_lw/6.jpg"",""time"":307},{""stimulus"":""img/red_lw/7.jpg"",""time"":351},{""stimulus"":""img/red_lw/8.jpg"",""time"":401},{""stimulus"":""img/red_lw/9.jpg"",""time"":451},{""stimulus"":""img/red_lw/10.jpg"",""time"":511},{""stimulus"":""img/red_lw/11.jpg"",""time"":551}]","[]"
"image-keyboard-response","25","64198","0.0-5.0-1.10","5d412a9013864b0015b14b31","bdp_lott","Mon Mar 27 2023 15:49:12 GMT-0500 (Central Daylight Time)","276065","green","red","","","","choice","","","409","","img/red_lw/choose11.jpg","2","215","red","0.5","0.5","0.5","w","",""
"animation","26","64799","0.0-5.0-2.10","5d412a9013864b0015b14b31","bdp_lott","Mon Mar 27 2023 15:49:12 GMT-0500 (Central Daylight Time)","276065","green","red","","","","","","","","","","","215","","","","","","[{""stimulus"":""img/red_lw/1.jpg"",""time"":51},{""stimulus"":""img/red_lw/2.jpg"",""time"":101},{""stimulus"":""img/red_lw/3.jpg"",""time"":151},{""stimulus"":""img/red_lw/4.jpg"",""time"":201},{""stimulus"":""img/red_lw/5.jpg"",""time"":251},{""stimulus"":""img/red_lw/6.jpg"",""time"":301},{""stimulus"":""img/red_lw/7.jpg"",""time"":351},{""stimulus"":""img/red_lw/8.jpg"",""time"":401},{""stimulus"":""img/red_lw/9.jpg"",""time"":451},{""stimulus"":""img/red_lw/10.jpg"",""time"":501},{""stimulus"":""img/red_lw/11.jpg"",""time"":551}]","[]"
"image-keyboard-response","27","65278","0.0-5.0-1.11","5d412a9013864b0015b14b31","bdp_lott","Mon Mar 27 2023 15:49:12 GMT-0500 (Central Daylight Time)","276065","green","red","","","","choice","","","479","","img/red_lw/choose11.jpg","2","214","red","0.5","0.5","0.5","l","",""
"animation","28","65879","0.0-5.0-2.11","5d412a9013864b0015b14b31","bdp_lott","Mon Mar 27 2023 15:49:12 GMT-0500 (Central Daylight Time)","276065","green","red","","","","","","","","","","","214","","","","","","[{""stimulus"":""img/red_ll/1.jpg"",""time"":51},{""stimulus"":""img/red_ll/2.jpg"",""time"":101},{""stimulus"":""img/red_ll/3.jpg"",""time"":152},{""stimulus"":""img/red_ll/4.jpg"",""time"":201},{""stimulus"":""img/red_ll/5.jpg"",""time"":251},{""stimulus"":""img/red_ll/6.jpg"",""time"":301},{""stimulus"":""img/red_ll/7.jpg"",""time"":351},{""stimulus"":""img/red_ll/8.jpg"",""time"":401},{""stimulus"":""img/red_ll/9.jpg"",""time"":451},{""stimulus"":""img/red_ll/10.jpg"",""time"":501},{""stimulus"":""img/red_ll/11.jpg"",""time"":551}]","[]"
"image-keyboard-response","29","66257","0.0-5.0-1.12","5d412a9013864b0015b14b31","bdp_lott","Mon Mar 27 2023 15:49:12 GMT-0500 (Central Daylight Time)","276065","green","red","","","","choice","","","378","","img/red_ll/choose11.jpg","1","213","green","0.5","0.5","0.5","l","",""
"animation","30","66858","0.0-5.0-2.12","5d412a9013864b0015b14b31","bdp_lott","Mon Mar 27 2023 15:49:12 GMT-0500 (Central Daylight Time)","276065","green","red","","","","","","","","","","","213","","","","","","[{""stimulus"":""img/green_ll/1.jpg"",""time"":51},{""stimulus"":""img/green_ll/2.jpg"",""time"":101},{""stimulus"":""img/green_ll/3.jpg"",""time"":151},{""stimulus"":""img/green_ll/4.jpg"",""time"":201},{""stimulus"":""img/green_ll/5.jpg"",""time"":252},{""stimulus"":""img/green_ll/6.jpg"",""time"":301},{""stimulus"":""img/green_ll/7.jpg"",""time"":351},{""stimulus"":""img/green_ll/8.jpg"",""time"":401},{""stimulus"":""img/green_ll/9.jpg"",""time"":452},{""stimulus"":""img/green_ll/10.jpg"",""time"":502},{""stimulus"":""img/green_ll/11.jpg"",""time"":550}]","[]"
"image-keyboard-response","31","67269","0.0-5.0-1.13","5d412a9013864b0015b14b31","bdp_lott","Mon Mar 27 2023 15:49:12 GMT-0500 (Central Daylight Time)","276065","green","red","","","","choice","","","411","","img/green_ll/choose11.jpg","2","212","red","0.5","0.5","0.5","w","",""
"animation","32","67871","0.0-5.0-2.13","5d412a9013864b0015b14b31","bdp_lott","Mon Mar 27 2023 15:49:12 GMT-0500 (Central Daylight Time)","276065","green","red","","","","","","","","","","","212","","","","","","[{""stimulus"":""img/red_lw/1.jpg"",""time"":51},{""stimulus"":""img/red_lw/2.jpg"",""time"":101},{""stimulus"":""img/red_lw/3.jpg"",""time"":151},{""stimulus"":""img/red_lw/4.jpg"",""time"":201},{""stimulus"":""img/red_lw/5.jpg"",""time"":251},{""stimulus"":""img/red_lw/6.jpg"",""time"":301},{""stimulus"":""img/red_lw/7.jpg"",""time"":351},{""stimulus"":""img/red_lw/8.jpg"",""time"":403},{""stimulus"":""img/red_lw/9.jpg"",""time"":452},{""stimulus"":""img/red_lw/10.jpg"",""time"":501},{""stimulus"":""img/red_lw/11.jpg"",""time"":551}]","[]"
"image-keyboard-response","33","68414","0.0-5.0-1.14","5d412a9013864b0015b14b31","bdp_lott","Mon Mar 27 2023 15:49:12 GMT-0500 (Central Daylight Time)","276065","green","red","","","","choice","","","543","","img/red_lw/choose11.jpg","2","211","red","0.5","0.5","0.5","l","",""
"animation","34","69016","0.0-5.0-2.14","5d412a9013864b0015b14b31","bdp_lott","Mon Mar 27 2023 15:49:12 GMT-0500 (Central Daylight Time)","276065","green","red","","","","","","","","","","","211","","","","","","[{""stimulus"":""img/red_ll/1.jpg"",""time"":51},{""stimulus"":""img/red_ll/2.jpg"",""time"":101},{""stimulus"":""img/red_ll/3.jpg"",""time"":150},{""stimulus"":""img/red_ll/4.jpg"",""time"":200},{""stimulus"":""img/red_ll/5.jpg"",""time"":250},{""stimulus"":""img/red_ll/6.jpg"",""time"":301},{""stimulus"":""img/red_ll/7.jpg"",""time"":351},{""stimulus"":""img/red_ll/8.jpg"",""time"":401},{""stimulus"":""img/red_ll/9.jpg"",""time"":451},{""stimulus"":""img/red_ll/10.jpg"",""time"":500},{""stimulus"":""img/red_ll/11.jpg"",""time"":551}]","[]"
"image-keyboard-response","35","69879","0.0-5.0-1.15","5d412a9013864b0015b14b31","bdp_lott","Mon Mar 27 2023 15:49:12 GMT-0500 (Central Daylight Time)","276065","green","red","","","","choice","","","863","","img/red_ll/choose11.jpg","2","210","red","0.5","0.5","0.5","w","",""
"animation","36","70479","0.0-5.0-2.15","5d412a9013864b0015b14b31","bdp_lott","Mon Mar 27 2023 15:49:12 GMT-0500 (Central Daylight Time)","276065","green","red","","","","","","","","","","","210","","","","","","[{""stimulus"":""img/red_lw/1.jpg"",""time"":51},{""stimulus"":""img/red_lw/2.jpg"",""time"":100},{""stimulus"":""img/red_lw/3.jpg"",""time"":151},{""stimulus"":""img/red_lw/4.jpg"",""time"":201},{""stimulus"":""img/red_lw/5.jpg"",""time"":251},{""stimulus"":""img/red_lw/6.jpg"",""time"":301},{""stimulus"":""img/red_lw/7.jpg"",""time"":351},{""stimulus"":""img/red_lw/8.jpg"",""time"":401},{""stimulus"":""img/red_lw/9.jpg"",""time"":451},{""stimulus"":""img/red_lw/10.jpg"",""time"":501},{""stimulus"":""img/red_lw/11.jpg"",""time"":551}]","[]"
"image-keyboard-response","37","70979","0.0-5.0-1.16","5d412a9013864b0015b14b31","bdp_lott","Mon Mar 27 2023 15:49:12 GMT-0500 (Central Daylight Time)","276065","green","red","","","","choice","","","500","","img/red_lw/choose11.jpg","2","209","red","0.5","0.5","0.5","w","",""
"animation","38","71579","0.0-5.0-2.16","5d412a9013864b0015b14b31","bdp_lott","Mon Mar 27 2023 15:49:12 GMT-0500 (Central Daylight Time)","276065","green","red","","","","","","","","","","","209","","","","","","[{""stimulus"":""img/red_lw/1.jpg"",""time"":51},{""stimulus"":""img/red_lw/2.jpg"",""time"":102},{""stimulus"":""img/red_lw/3.jpg"",""time"":151},{""stimulus"":""img/red_lw/4.jpg"",""time"":201},{""stimulus"":""img/red_lw/5.jpg"",""time"":252},{""stimulus"":""img/red_lw/6.jpg"",""time"":301},{""stimulus"":""img/red_lw/7.jpg"",""time"":351},{""stimulus"":""img/red_lw/8.jpg"",""time"":402},{""stimulus"":""img/red_lw/9.jpg"",""time"":451},{""stimulus"":""img/red_lw/10.jpg"",""time"":501},{""stimulus"":""img/red_lw/11.jpg"",""time"":552}]","[]"
"image-keyboard-response","39","71957","0.0-5.0-1.17","5d412a9013864b0015b14b31","bdp_lott","Mon Mar 27 2023 15:49:12 GMT-0500 (Central Daylight Time)","276065","green","red","","","","choice","","","377","","img/red_lw/choose11.jpg","2","208","red","0.5","0.5","0.5","l","",""
"animation","40","72557","0.0-5.0-2.17","5d412a9013864b0015b14b31","bdp_lott","Mon Mar 27 2023 15:49:12 GMT-0500 (Central Daylight Time)","276065","green","red","","","","","","","","","","","208","","","","","","[{""stimulus"":""img/red_ll/1.jpg"",""time"":52},{""stimulus"":""img/red_ll/2.jpg"",""time"":101},{""stimulus"":""img/red_ll/3.jpg"",""time"":152},{""stimulus"":""img/red_ll/4.jpg"",""time"":201},{""stimulus"":""img/red_ll/5.jpg"",""time"":251},{""stimulus"":""img/red_ll/6.jpg"",""time"":301},{""stimulus"":""img/red_ll/7.jpg"",""time"":351},{""stimulus"":""img/red_ll/8.jpg"",""time"":401},{""stimulus"":""img/red_ll/9.jpg"",""time"":451},{""stimulus"":""img/red_ll/10.jpg"",""time"":501},{""stimulus"":""img/red_ll/11.jpg"",""time"":552}]","[]"
"image-keyboard-response","41","73161","0.0-5.0-1.18","5d412a9013864b0015b14b31","bdp_lott","Mon Mar 27 2023 15:49:12 GMT-0500 (Central Daylight Time)","276065","green","red","","","","choice","","","603","","img/red_ll/choose11.jpg","2","207","red","0.5","0.5","0.5","w","",""
"animation","42","73762","0.0-5.0-2.18","5d412a9013864b0015b14b31","bdp_lott","Mon Mar 27 2023 15:49:12 GMT-0500 (Central Daylight Time)","276065","green","red","","","","","","","","","","","207","","","","","","[{""stimulus"":""img/red_lw/1.jpg"",""time"":51},{""stimulus"":""img/red_lw/2.jpg"",""time"":102},{""stimulus"":""img/red_lw/3.jpg"",""time"":151},{""stimulus"":""img/red_lw/4.jpg"",""time"":202},{""stimulus"":""img/red_lw/5.jpg"",""time"":251},{""stimulus"":""img/red_lw/6.jpg"",""time"":301},{""stimulus"":""img/red_lw/7.jpg"",""time"":352},{""stimulus"":""img/red_lw/8.jpg"",""time"":414},{""stimulus"":""img/red_lw/9.jpg"",""time"":451},{""stimulus"":""img/red_lw/10.jpg"",""time"":501},{""stimulus"":""img/red_lw/11.jpg"",""time"":551}]","[]"
"image-keyboard-response","43","74128","0.0-5.0-1.19","5d412a9013864b0015b14b31","bdp_lott","Mon Mar 27 2023 15:49:12 GMT-0500 (Central Daylight Time)","276065","green","red","","","","choice","","","366","","img/red_lw/choose11.jpg","2","206","red","0.5","0.5","0.5","l","",""
"animation","44","74729","0.0-5.0-2.19","5d412a9013864b0015b14b31","bdp_lott","Mon Mar 27 2023 15:49:12 GMT-0500 (Central Daylight Time)","276065","green","red","","","","","","","","","","","206","","","","","","[{""stimulus"":""img/red_ll/1.jpg"",""time"":51},{""stimulus"":""img/red_ll/2.jpg"",""time"":101},{""stimulus"":""img/red_ll/3.jpg"",""time"":151},{""stimulus"":""img/red_ll/4.jpg"",""time"":200},{""stimulus"":""img/red_ll/5.jpg"",""time"":252},{""stimulus"":""img/red_ll/6.jpg"",""time"":304},{""stimulus"":""img/red_ll/7.jpg"",""time"":352},{""stimulus"":""img/red_ll/8.jpg"",""time"":401},{""stimulus"":""img/red_ll/9.jpg"",""time"":451},{""stimulus"":""img/red_ll/10.jpg"",""time"":506},{""stimulus"":""img/red_ll/11.jpg"",""time"":551}]","[]"
"image-keyboard-response","45","75146","0.0-5.0-1.20","5d412a9013864b0015b14b31","bdp_lott","Mon Mar 27 2023 15:49:12 GMT-0500 (Central Daylight Time)","276065","green","red","","","","choice","","","417","","img/red_ll/choose11.jpg","2","205","red","0.5","0.5","0.5","l","",""
"animation","46","75748","0.0-5.0-2.20","5d412a9013864b0015b14b31","bdp_lott","Mon Mar 27 2023 15:49:12 GMT-0500 (Central Daylight Time)","276065","green","red","","","","","","","","","","","205","","","","","","[{""stimulus"":""img/red_ll/1.jpg"",""time"":52},{""stimulus"":""img/red_ll/2.jpg"",""time"":101},{""stimulus"":""img/red_ll/3.jpg"",""time"":151},{""stimulus"":""img/red_ll/4.jpg"",""time"":201},{""stimulus"":""img/red_ll/5.jpg"",""time"":251},{""stimulus"":""img/red_ll/6.jpg"",""time"":301},{""stimulus"":""img/red_ll/7.jpg"",""time"":352},{""stimulus"":""img/red_ll/8.jpg"",""time"":401},{""stimulus"":""img/red_ll/9.jpg"",""time"":451},{""stimulus"":""img/red_ll/10.jpg"",""time"":501},{""stimulus"":""img/red_ll/11.jpg"",""time"":551}]","[]"
"image-keyboard-response","47","76229","0.0-5.0-1.21","5d412a9013864b0015b14b31","bdp_lott","Mon Mar 27 2023 15:49:12 GMT-0500 (Central Daylight Time)","276065","green","red","","","","choice","","","481","","img/red_ll/choose11.jpg","2","204","red","0.5","0.5","0.5","w","",""
"animation","48","76829","0.0-5.0-2.21","5d412a9013864b0015b14b31","bdp_lott","Mon Mar 27 2023 15:49:12 GMT-0500 (Central Daylight Time)","276065","green","red","","","","","","","","","","","204","","","","","","[{""stimulus"":""img/red_lw/1.jpg"",""time"":51},{""stimulus"":""img/red_lw/2.jpg"",""time"":101},{""stimulus"":""img/red_lw/3.jpg"",""time"":151},{""stimulus"":""img/red_lw/4.jpg"",""time"":200},{""stimulus"":""img/red_lw/5.jpg"",""time"":251},{""stimulus"":""img/red_lw/6.jpg"",""time"":301},{""stimulus"":""img/red_lw/7.jpg"",""time"":351},{""stimulus"":""img/red_lw/8.jpg"",""time"":401},{""stimulus"":""img/red_lw/9.jpg"",""time"":451},{""stimulus"":""img/red_lw/10.jpg"",""time"":500},{""stimulus"":""img/red_lw/11.jpg"",""time"":550}]","[]"
"image-keyboard-response","49","77286","0.0-5.0-1.22","5d412a9013864b0015b14b31","bdp_lott","Mon Mar 27 2023 15:49:12 GMT-0500 (Central Daylight Time)","276065","green","red","","","","choice","","","456","","img/red_lw/choose11.jpg","2","203","red","0.5","0.5","0.5","w","",""
"animation","50","77887","0.0-5.0-2.22","5d412a9013864b0015b14b31","bdp_lott","Mon Mar 27 2023 15:49:12 GMT-0500 (Central Daylight Time)","276065","green","red","","","","","","","","","","","203","","","","","","[{""stimulus"":""img/red_lw/1.jpg"",""time"":50},{""stimulus"":""img/red_lw/2.jpg"",""time"":100},{""stimulus"":""img/red_lw/3.jpg"",""time"":150},{""stimulus"":""img/red_lw/4.jpg"",""time"":200},{""stimulus"":""img/red_lw/5.jpg"",""time"":250},{""stimulus"":""img/red_lw/6.jpg"",""time"":300},{""stimulus"":""img/red_lw/7.jpg"",""time"":351},{""stimulus"":""img/red_lw/8.jpg"",""time"":401},{""stimulus"":""img/red_lw/9.jpg"",""time"":450},{""stimulus"":""img/red_lw/10.jpg"",""time"":500},{""stimulus"":""img/red_lw/11.jpg"",""time"":550}]","[]"
"image-keyboard-response","51","78228","0.0-5.0-1.23","5d412a9013864b0015b14b31","bdp_lott","Mon Mar 27 2023 15:49:12 GMT-0500 (Central Daylight Time)","276065","green","red","","","","choice","","","341","","img/red_lw/choose11.jpg","2","202","red","0.5","0.5","0.5","l","",""
"animation","52","78829","0.0-5.0-2.23","5d412a9013864b0015b14b31","bdp_lott","Mon Mar 27 2023 15:49:12 GMT-0500 (Central Daylight Time)","276065","green","red","","","","","","","","","","","202","","","","","","[{""stimulus"":""img/red_ll/1.jpg"",""time"":51},{""stimulus"":""img/red_ll/2.jpg"",""time"":101},{""stimulus"":""img/red_ll/3.jpg"",""time"":150},{""stimulus"":""img/red_ll/4.jpg"",""time"":200},{""stimulus"":""img/red_ll/5.jpg"",""time"":251},{""stimulus"":""img/red_ll/6.jpg"",""time"":301},{""stimulus"":""img/red_ll/7.jpg"",""time"":351},{""stimulus"":""img/red_ll/8.jpg"",""time"":401},{""stimulus"":""img/red_ll/9.jpg"",""time"":451},{""stimulus"":""img/red_ll/10.jpg"",""time"":500},{""stimulus"":""img/red_ll/11.jpg"",""time"":550}]","[]"
"image-keyboard-response","53","79404","0.0-5.0-1.24","5d412a9013864b0015b14b31","bdp_lott","Mon Mar 27 2023 15:49:12 GMT-0500 (Central Daylight Time)","276065","green","red","","","","choice","","","575","","img/red_ll/choose11.jpg","1","201","green","0.5","0.5","0.5","w","",""
"animation","54","80005","0.0-5.0-2.24","5d412a9013864b0015b14b31","bdp_lott","Mon Mar 27 2023 15:49:12 GMT-0500 (Central Daylight Time)","276065","green","red","","","","","","","","","","","201","","","","","","[{""stimulus"":""img/green_wl/1.jpg"",""time"":50},{""stimulus"":""img/green_wl/2.jpg"",""time"":101},{""stimulus"":""img/green_wl/3.jpg"",""time"":151},{""stimulus"":""img/green_wl/4.jpg"",""time"":201},{""stimulus"":""img/green_wl/5.jpg"",""time"":251},{""stimulus"":""img/green_wl/6.jpg"",""time"":301},{""stimulus"":""img/green_wl/7.jpg"",""time"":351},{""stimulus"":""img/green_wl/8.jpg"",""time"":401},{""stimulus"":""img/green_wl/9.jpg"",""time"":451},{""stimulus"":""img/green_wl/10.jpg"",""time"":501},{""stimulus"":""img/green_wl/11.jpg"",""time"":551}]","[]"
"image-keyboard-response","55","80426","0.0-5.0-1.25","5d412a9013864b0015b14b31","bdp_lott","Mon Mar 27 2023 15:49:12 GMT-0500 (Central Daylight Time)","276065","green","red","","","","choice","","","421","","img/green_wl/choose11.jpg","2","200","red","0.5","0.5","0.5","l","",""
"animation","56","81027","0.0-5.0-2.25","5d412a9013864b0015b14b31","bdp_lott","Mon Mar 27 2023 15:49:12 GMT-0500 (Central Daylight Time)","276065","green","red","","","","","","","","","","","200","","","","","","[{""stimulus"":""img/red_wl/1.jpg"",""time"":52},{""stimulus"":""img/red_wl/2.jpg"",""time"":100},{""stimulus"":""img/red_wl/3.jpg"",""time"":151},{""stimulus"":""img/red_wl/4.jpg"",""time"":200},{""stimulus"":""img/red_wl/5.jpg"",""time"":251},{""stimulus"":""img/red_wl/6.jpg"",""time"":301},{""stimulus"":""img/red_wl/7.jpg"",""time"":351},{""stimulus"":""img/red_wl/8.jpg"",""time"":401},{""stimulus"":""img/red_wl/9.jpg"",""time"":451},{""stimulus"":""img/red_wl/10.jpg"",""time"":500},{""stimulus"":""img/red_wl/11.jpg"",""time"":551}]","[]"
"image-keyboard-response","57","81712","0.0-5.0-1.26","5d412a9013864b0015b14b31","bdp_lott","Mon Mar 27 2023 15:49:12 GMT-0500 (Central Daylight Time)","276065","green","red","","","","choice","","","685","","img/red_wl/choose11.jpg","2","199","red","0.5","0.5","0.5","l","",""
"animation","58","82313","0.0-5.0-2.26","5d412a9013864b0015b14b31","bdp_lott","Mon Mar 27 2023 15:49:12 GMT-0500 (Central Daylight Time)","276065","green","red","","","","","","","","","","","199","","","","","","[{""stimulus"":""img/red_wl/1.jpg"",""time"":51},{""stimulus"":""img/red_wl/2.jpg"",""time"":101},{""stimulus"":""img/red_wl/3.jpg"",""time"":151},{""stimulus"":""img/red_wl/4.jpg"",""time"":201},{""stimulus"":""img/red_wl/5.jpg"",""time"":251},{""stimulus"":""img/red_wl/6.jpg"",""time"":301},{""stimulus"":""img/red_wl/7.jpg"",""time"":351},{""stimulus"":""img/red_wl/8.jpg"",""time"":400},{""stimulus"":""img/red_wl/9.jpg"",""time"":451},{""stimulus"":""img/red_wl/10.jpg"",""time"":501},{""stimulus"":""img/red_wl/11.jpg"",""time"":551}]","[]"
"image-keyboard-response","59","82675","0.0-5.0-1.27","5d412a9013864b0015b14b31","bdp_lott","Mon Mar 27 2023 15:49:12 GMT-0500 (Central Daylight Time)","276065","green","red","","","","choice","","","362","","img/red_wl/choose11.jpg","1","198","green","0.5","0.5","0.5","w","",""
"animation","60","83276","0.0-5.0-2.27","5d412a9013864b0015b14b31","bdp_lott","Mon Mar 27 2023 15:49:12 GMT-0500 (Central Daylight Time)","276065","green","red","","","","","","","","","","","198","","","","","","[{""stimulus"":""img/green_wl/1.jpg"",""time"":51},{""stimulus"":""img/green_wl/2.jpg"",""time"":101},{""stimulus"":""img/green_wl/3.jpg"",""time"":150},{""stimulus"":""img/green_wl/4.jpg"",""time"":201},{""stimulus"":""img/green_wl/5.jpg"",""time"":251},{""stimulus"":""img/green_wl/6.jpg"",""time"":301},{""stimulus"":""img/green_wl/7.jpg"",""time"":351},{""stimulus"":""img/green_wl/8.jpg"",""time"":401},{""stimulus"":""img/green_wl/9.jpg"",""time"":451},{""stimulus"":""img/green_wl/10.jpg"",""time"":501},{""stimulus"":""img/green_wl/11.jpg"",""time"":551}]","[]"
"image-keyboard-response","61","83667","0.0-5.0-1.28","5d412a9013864b0015b14b31","bdp_lott","Mon Mar 27 2023 15:49:12 GMT-0500 (Central Daylight Time)","276065","green","red","","","","choice","","","391","","img/green_wl/choose11.jpg","1","197","green","0.5","0.5","0.5","l","",""
"animation","62","84268","0.0-5.0-2.28","5d412a9013864b0015b14b31","bdp_lott","Mon Mar 27 2023 15:49:12 GMT-0500 (Central Daylight Time)","276065","green","red","","","","","","","","","","","197","","","","","","[{""stimulus"":""img/green_ll/1.jpg"",""time"":51},{""stimulus"":""img/green_ll/2.jpg"",""time"":101},{""stimulus"":""img/green_ll/3.jpg"",""time"":156},{""stimulus"":""img/green_ll/4.jpg"",""time"":202},{""stimulus"":""img/green_ll/5.jpg"",""time"":251},{""stimulus"":""img/green_ll/6.jpg"",""time"":301},{""stimulus"":""img/green_ll/7.jpg"",""time"":351},{""stimulus"":""img/green_ll/8.jpg"",""time"":401},{""stimulus"":""img/green_ll/9.jpg"",""time"":451},{""stimulus"":""img/green_ll/10.jpg"",""time"":501},{""stimulus"":""img/green_ll/11.jpg"",""time"":551}]","[]"
"image-keyboard-response","63","84738","0.0-5.0-1.29","5d412a9013864b0015b14b31","bdp_lott","Mon Mar 27 2023 15:49:12 GMT-0500 (Central Daylight Time)","276065","green","red","","","","choice","","","469","","img/green_ll/choose11.jpg","2","196","red","0.5","0.5","0.5","l","",""
"animation","64","85339","0.0-5.0-2.29","5d412a9013864b0015b14b31","bdp_lott","Mon Mar 27 2023 15:49:12 GMT-0500 (Central Daylight Time)","276065","green","red","","","","","","","","","","","196","","","","","","[{""stimulus"":""img/red_ll/1.jpg"",""time"":51},{""stimulus"":""img/red_ll/2.jpg"",""time"":100},{""stimulus"":""img/red_ll/3.jpg"",""time"":151},{""stimulus"":""img/red_ll/4.jpg"",""time"":200},{""stimulus"":""img/red_ll/5.jpg"",""time"":251},{""stimulus"":""img/red_ll/6.jpg"",""time"":301},{""stimulus"":""img/red_ll/7.jpg"",""time"":351},{""stimulus"":""img/red_ll/8.jpg"",""time"":400},{""stimulus"":""img/red_ll/9.jpg"",""time"":450},{""stimulus"":""img/red_ll/10.jpg"",""time"":501},{""stimulus"":""img/red_ll/11.jpg"",""time"":551}]","[]"
"image-keyboard-response","65","85658","0.0-5.0-1.30","5d412a9013864b0015b14b31","bdp_lott","Mon Mar 27 2023 15:49:12 GMT-0500 (Central Daylight Time)","276065","green","red","","","","choice","","","319","","img/red_ll/choose11.jpg","1","195","green","0.5","0.5","0.5","l","",""
"animation","66","86259","0.0-5.0-2.30","5d412a9013864b0015b14b31","bdp_lott","Mon Mar 27 2023 15:49:12 GMT-0500 (Central Daylight Time)","276065","green","red","","","","","","","","","","","195","","","","","","[{""stimulus"":""img/green_ll/1.jpg"",""time"":51},{""stimulus"":""img/green_ll/2.jpg"",""time"":101},{""stimulus"":""img/green_ll/3.jpg"",""time"":151},{""stimulus"":""img/green_ll/4.jpg"",""time"":201},{""stimulus"":""img/green_ll/5.jpg"",""time"":251},{""stimulus"":""img/green_ll/6.jpg"",""time"":301},{""stimulus"":""img/green_ll/7.jpg"",""time"":351},{""stimulus"":""img/green_ll/8.jpg"",""time"":401},{""stimulus"":""img/green_ll/9.jpg"",""time"":451},{""stimulus"":""img/green_ll/10.jpg"",""time"":507},{""stimulus"":""img/green_ll/11.jpg"",""time"":552}]","[]"
"image-keyboard-response","67","86787","0.0-5.0-1.31","5d412a9013864b0015b14b31","bdp_lott","Mon Mar 27 2023 15:49:12 GMT-0500 (Central Daylight Time)","276065","green","red","","","","choice","","","528","","img/green_ll/choose11.jpg","2","194","red","0.5","0.5","0.5","l","",""
"animation","68","87389","0.0-5.0-2.31","5d412a9013864b0015b14b31","bdp_lott","Mon Mar 27 2023 15:49:12 GMT-0500 (Central Daylight Time)","276065","green","red","","","","","","","","","","","194","","","","","","[{""stimulus"":""img/red_ll/1.jpg"",""time"":51},{""stimulus"":""img/red_ll/2.jpg"",""time"":101},{""stimulus"":""img/red_ll/3.jpg"",""time"":152},{""stimulus"":""img/red_ll/4.jpg"",""time"":200},{""stimulus"":""img/red_ll/5.jpg"",""time"":251},{""stimulus"":""img/red_ll/6.jpg"",""time"":302},{""stimulus"":""img/red_ll/7.jpg"",""time"":351},{""stimulus"":""img/red_ll/8.jpg"",""time"":401},{""stimulus"":""img/red_ll/9.jpg"",""time"":451},{""stimulus"":""img/red_ll/10.jpg"",""time"":500},{""stimulus"":""img/red_ll/11.jpg"",""time"":552}]","[]"
"image-keyboard-response","69","87780","0.0-5.0-1.32","5d412a9013864b0015b14b31","bdp_lott","Mon Mar 27 2023 15:49:12 GMT-0500 (Central Daylight Time)","276065","green","red","","","","choice","","","390","","img/red_ll/choose11.jpg","2","193","red","0.5","0.5","0.5","w","",""
"animation","70","88380","0.0-5.0-2.32","5d412a9013864b0015b14b31","bdp_lott","Mon Mar 27 2023 15:49:12 GMT-0500 (Central Daylight Time)","276065","green","red","","","","","","","","","","","193","","","","","","[{""stimulus"":""img/red_lw/1.jpg"",""time"":51},{""stimulus"":""img/red_lw/2.jpg"",""time"":100},{""stimulus"":""img/red_lw/3.jpg"",""time"":150},{""stimulus"":""img/red_lw/4.jpg"",""time"":201},{""stimulus"":""img/red_lw/5.jpg"",""time"":250},{""stimulus"":""img/red_lw/6.jpg"",""time"":301},{""stimulus"":""img/red_lw/7.jpg"",""time"":351},{""stimulus"":""img/red_lw/8.jpg"",""time"":401},{""stimulus"":""img/red_lw/9.jpg"",""time"":450},{""stimulus"":""img/red_lw/10.jpg"",""time"":501},{""stimulus"":""img/red_lw/11.jpg"",""time"":550}]","[]"
"image-keyboard-response","71","88931","0.0-5.0-1.33","5d412a9013864b0015b14b31","bdp_lott","Mon Mar 27 2023 15:49:12 GMT-0500 (Central Daylight Time)","276065","green","red","","","","choice","","","550","","img/red_lw/choose11.jpg","2","192","red","0.5","0.5","0.5","w","",""
"animation","72","89531","0.0-5.0-2.33","5d412a9013864b0015b14b31","bdp_lott","Mon Mar 27 2023 15:49:12 GMT-0500 (Central Daylight Time)","276065","green","red","","","","","","","","","","","192","","","","","","[{""stimulus"":""img/red_lw/1.jpg"",""time"":50},{""stimulus"":""img/red_lw/2.jpg"",""time"":101},{""stimulus"":""img/red_lw/3.jpg"",""time"":150},{""stimulus"":""img/red_lw/4.jpg"",""time"":201},{""stimulus"":""img/red_lw/5.jpg"",""time"":251},{""stimulus"":""img/red_lw/6.jpg"",""time"":300},{""stimulus"":""img/red_lw/7.jpg"",""time"":351},{""stimulus"":""img/red_lw/8.jpg"",""time"":401},{""stimulus"":""img/red_lw/9.jpg"",""time"":451},{""stimulus"":""img/red_lw/10.jpg"",""time"":500},{""stimulus"":""img/red_lw/11.jpg"",""time"":550}]","[]"
"image-keyboard-response","73","90024","0.0-5.0-1.34","5d412a9013864b0015b14b31","bdp_lott","Mon Mar 27 2023 15:49:12 GMT-0500 (Central Daylight Time)","276065","green","red","","","","choice","","","493","","img/red_lw/choose11.jpg","2","191","red","0.5","0.5","0.5","w","",""
"animation","74","90625","0.0-5.0-2.34","5d412a9013864b0015b14b31","bdp_lott","Mon Mar 27 2023 15:49:12 GMT-0500 (Central Daylight Time)","276065","green","red","","","","","","","","","","","191","","","","","","[{""stimulus"":""img/red_lw/1.jpg"",""time"":50},{""stimulus"":""img/red_lw/2.jpg"",""time"":101},{""stimulus"":""img/red_lw/3.jpg"",""time"":151},{""stimulus"":""img/red_lw/4.jpg"",""time"":200},{""stimulus"":""img/red_lw/5.jpg"",""time"":250},{""stimulus"":""img/red_lw/6.jpg"",""time"":301},{""stimulus"":""img/red_lw/7.jpg"",""time"":350},{""stimulus"":""img/red_lw/8.jpg"",""time"":400},{""stimulus"":""img/red_lw/9.jpg"",""time"":450},{""stimulus"":""img/red_lw/10.jpg"",""time"":501},{""stimulus"":""img/red_lw/11.jpg"",""time"":550}]","[]"
"image-keyboard-response","75","91178","0.0-5.0-1.35","5d412a9013864b0015b14b31","bdp_lott","Mon Mar 27 2023 15:49:12 GMT-0500 (Central Daylight Time)","276065","green","red","","","","choice","","","553","","img/red_lw/choose11.jpg","2","190","red","0.5","0.5","0.5","l","",""
"animation","76","91778","0.0-5.0-2.35","5d412a9013864b0015b14b31","bdp_lott","Mon Mar 27 2023 15:49:12 GMT-0500 (Central Daylight Time)","276065","green","red","","","","","","","","","","","190","","","","","","[{""stimulus"":""img/red_ll/1.jpg"",""time"":51},{""stimulus"":""img/red_ll/2.jpg"",""time"":100},{""stimulus"":""img/red_ll/3.jpg"",""time"":151},{""stimulus"":""img/red_ll/4.jpg"",""time"":200},{""stimulus"":""img/red_ll/5.jpg"",""time"":250},{""stimulus"":""img/red_ll/6.jpg"",""time"":300},{""stimulus"":""img/red_ll/7.jpg"",""time"":350},{""stimulus"":""img/red_ll/8.jpg"",""time"":401},{""stimulus"":""img/red_ll/9.jpg"",""time"":450},{""stimulus"":""img/red_ll/10.jpg"",""time"":501},{""stimulus"":""img/red_ll/11.jpg"",""time"":551}]","[]"
"image-keyboard-response","77","92133","0.0-5.0-1.36","5d412a9013864b0015b14b31","bdp_lott","Mon Mar 27 2023 15:49:12 GMT-0500 (Central Daylight Time)","276065","green","red","","","","choice","","","354","","img/red_ll/choose11.jpg","1","189","green","0.5","0.5","0.5","w","",""
"animation","78","92734","0.0-5.0-2.36","5d412a9013864b0015b14b31","bdp_lott","Mon Mar 27 2023 15:49:12 GMT-0500 (Central Daylight Time)","276065","green","red","","","","","","","","","","","189","","","","","","[{""stimulus"":""img/green_wl/1.jpg"",""time"":51},{""stimulus"":""img/green_wl/2.jpg"",""time"":101},{""stimulus"":""img/green_wl/3.jpg"",""time"":151},{""stimulus"":""img/green_wl/4.jpg"",""time"":201},{""stimulus"":""img/green_wl/5.jpg"",""time"":250},{""stimulus"":""img/green_wl/6.jpg"",""time"":301},{""stimulus"":""img/green_wl/7.jpg"",""time"":351},{""stimulus"":""img/green_wl/8.jpg"",""time"":401},{""stimulus"":""img/green_wl/9.jpg"",""time"":451},{""stimulus"":""img/green_wl/10.jpg"",""time"":501},{""stimulus"":""img/green_wl/11.jpg"",""time"":561}]","[]"
"image-keyboard-response","79","93173","0.0-5.0-1.37","5d412a9013864b0015b14b31","bdp_lott","Mon Mar 27 2023 15:49:12 GMT-0500 (Central Daylight Time)","276065","green","red","","","","choice","","","439","","img/green_wl/choose11.jpg","1","188","green","0.5","0.5","0.5","l","",""
"animation","80","93774","0.0-5.0-2.37","5d412a9013864b0015b14b31","bdp_lott","Mon Mar 27 2023 15:49:12 GMT-0500 (Central Daylight Time)","276065","green","red","","","","","","","","","","","188","","","","","","[{""stimulus"":""img/green_ll/1.jpg"",""time"":50},{""stimulus"":""img/green_ll/2.jpg"",""time"":101},{""stimulus"":""img/green_ll/3.jpg"",""time"":151},{""stimulus"":""img/green_ll/4.jpg"",""time"":200},{""stimulus"":""img/green_ll/5.jpg"",""time"":251},{""stimulus"":""img/green_ll/6.jpg"",""time"":301},{""stimulus"":""img/green_ll/7.jpg"",""time"":351},{""stimulus"":""img/green_ll/8.jpg"",""time"":401},{""stimulus"":""img/green_ll/9.jpg"",""time"":451},{""stimulus"":""img/green_ll/10.jpg"",""time"":500},{""stimulus"":""img/green_ll/11.jpg"",""time"":551}]","[]"
"image-keyboard-response","81","94178","0.0-5.0-1.38","5d412a9013864b0015b14b31","bdp_lott","Mon Mar 27 2023 15:49:12 GMT-0500 (Central Daylight Time)","276065","green","red","","","","choice","","","403","","img/green_ll/choose11.jpg","1","187","green","0.5","0.5","0.5","w","",""
"animation","82","94778","0.0-5.0-2.38","5d412a9013864b0015b14b31","bdp_lott","Mon Mar 27 2023 15:49:12 GMT-0500 (Central Daylight Time)","276065","green","red","","","","","","","","","","","187","","","","","","[{""stimulus"":""img/green_wl/1.jpg"",""time"":51},{""stimulus"":""img/green_wl/2.jpg"",""time"":101},{""stimulus"":""img/green_wl/3.jpg"",""time"":151},{""stimulus"":""img/green_wl/4.jpg"",""time"":200},{""stimulus"":""img/green_wl/5.jpg"",""time"":250},{""stimulus"":""img/green_wl/6.jpg"",""time"":301},{""stimulus"":""img/green_wl/7.jpg"",""time"":350},{""stimulus"":""img/green_wl/8.jpg"",""time"":401},{""stimulus"":""img/green_wl/9.jpg"",""time"":451},{""stimulus"":""img/green_wl/10.jpg"",""time"":500},{""stimulus"":""img/green_wl/11.jpg"",""time"":551}]","[]"
"image-keyboard-response","83","95182","0.0-5.0-1.39","5d412a9013864b0015b14b31","bdp_lott","Mon Mar 27 2023 15:49:12 GMT-0500 (Central Daylight Time)","276065","green","red","","","","choice","","","403","","img/green_wl/choose11.jpg","2","186","red","0.5","0.5","0.5","w","",""
"animation","84","95782","0.0-5.0-2.39","5d412a9013864b0015b14b31","bdp_lott","Mon Mar 27 2023 15:49:12 GMT-0500 (Central Daylight Time)","276065","green","red","","","","","","","","","","","186","","","","","","[{""stimulus"":""img/red_ww/1.jpg"",""time"":51},{""stimulus"":""img/red_ww/2.jpg"",""time"":101},{""stimulus"":""img/red_ww/3.jpg"",""time"":152},{""stimulus"":""img/red_ww/4.jpg"",""time"":201},{""stimulus"":""img/red_ww/5.jpg"",""time"":251},{""stimulus"":""img/red_ww/6.jpg"",""time"":301},{""stimulus"":""img/red_ww/7.jpg"",""time"":351},{""stimulus"":""img/red_ww/8.jpg"",""time"":401},{""stimulus"":""img/red_ww/9.jpg"",""time"":451},{""stimulus"":""img/red_ww/10.jpg"",""time"":501},{""stimulus"":""img/red_ww/11.jpg"",""time"":551}]","[]"
"image-keyboard-response","85","96462","0.0-5.0-1.40","5d412a9013864b0015b14b31","bdp_lott","Mon Mar 27 2023 15:49:12 GMT-0500 (Central Daylight Time)","276065","green","red","","","","choice","","","679","","img/red_ww/choose11.jpg","1","185","green","0.5","0.5","0.5","w","",""
"animation","86","97063","0.0-5.0-2.40","5d412a9013864b0015b14b31","bdp_lott","Mon Mar 27 2023 15:49:12 GMT-0500 (Central Daylight Time)","276065","green","red","","","","","","","","","","","185","","","","","","[{""stimulus"":""img/green_ww/1.jpg"",""time"":51},{""stimulus"":""img/green_ww/2.jpg"",""time"":101},{""stimulus"":""img/green_ww/3.jpg"",""time"":151},{""stimulus"":""img/green_ww/4.jpg"",""time"":201},{""stimulus"":""img/green_ww/5.jpg"",""time"":251},{""stimulus"":""img/green_ww/6.jpg"",""time"":301},{""stimulus"":""img/green_ww/7.jpg"",""time"":351},{""stimulus"":""img/green_ww/8.jpg"",""time"":401},{""stimulus"":""img/green_ww/9.jpg"",""time"":451},{""stimulus"":""img/green_ww/10.jpg"",""time"":500},{""stimulus"":""img/green_ww/11.jpg"",""time"":551}]","[]"
"image-keyboard-response","87","97743","0.0-5.0-1.41","5d412a9013864b0015b14b31","bdp_lott","Mon Mar 27 2023 15:49:12 GMT-0500 (Central Daylight Time)","276065","green","red","","","","choice","","","680","","img/green_ww/choose11.jpg","2","184","red","0.5","0.5","0.5","l","",""
"animation","88","98345","0.0-5.0-2.41","5d412a9013864b0015b14b31","bdp_lott","Mon Mar 27 2023 15:49:12 GMT-0500 (Central Daylight Time)","276065","green","red","","","","","","","","","","","184","","","","","","[{""stimulus"":""img/red_wl/1.jpg"",""time"":50},{""stimulus"":""img/red_wl/2.jpg"",""time"":101},{""stimulus"":""img/red_wl/3.jpg"",""time"":151},{""stimulus"":""img/red_wl/4.jpg"",""time"":200},{""stimulus"":""img/red_wl/5.jpg"",""time"":250},{""stimulus"":""img/red_wl/6.jpg"",""time"":300},{""stimulus"":""img/red_wl/7.jpg"",""time"":350},{""stimulus"":""img/red_wl/8.jpg"",""time"":401},{""stimulus"":""img/red_wl/9.jpg"",""time"":451},{""stimulus"":""img/red_wl/10.jpg"",""time"":500},{""stimulus"":""img/red_wl/11.jpg"",""time"":551}]","[]"
"image-keyboard-response","89","98918","0.0-5.0-1.42","5d412a9013864b0015b14b31","bdp_lott","Mon Mar 27 2023 15:49:12 GMT-0500 (Central Daylight Time)","276065","green","red","","","","choice","","","573","","img/red_wl/choose11.jpg","1","183","green","0.5","0.5","0.5","l","",""
"animation","90","99519","0.0-5.0-2.42","5d412a9013864b0015b14b31","bdp_lott","Mon Mar 27 2023 15:49:12 GMT-0500 (Central Daylight Time)","276065","green","red","","","","","","","","","","","183","","","","","","[{""stimulus"":""img/green_ll/1.jpg"",""time"":51},{""stimulus"":""img/green_ll/2.jpg"",""time"":101},{""stimulus"":""img/green_ll/3.jpg"",""time"":151},{""stimulus"":""img/green_ll/4.jpg"",""time"":200},{""stimulus"":""img/green_ll/5.jpg"",""time"":251},{""stimulus"":""img/green_ll/6.jpg"",""time"":301},{""stimulus"":""img/green_ll/7.jpg"",""time"":351},{""stimulus"":""img/green_ll/8.jpg"",""time"":401},{""stimulus"":""img/green_ll/9.jpg"",""time"":451},{""stimulus"":""img/green_ll/10.jpg"",""time"":500},{""stimulus"":""img/green_ll/11.jpg"",""time"":551}]","[]"
"image-keyboard-response","91","99994","0.0-5.0-1.43","5d412a9013864b0015b14b31","bdp_lott","Mon Mar 27 2023 15:49:12 GMT-0500 (Central Daylight Time)","276065","green","red","","","","choice","","","475","","img/green_ll/choose11.jpg","2","182","red","0.5","0.5","0.5","w","",""
"animation","92","100595","0.0-5.0-2.43","5d412a9013864b0015b14b31","bdp_lott","Mon Mar 27 2023 15:49:12 GMT-0500 (Central Daylight Time)","276065","green","red","","","","","","","","","","","182","","","","","","[{""stimulus"":""img/red_lw/1.jpg"",""time"":51},{""stimulus"":""img/red_lw/2.jpg"",""time"":101},{""stimulus"":""img/red_lw/3.jpg"",""time"":151},{""stimulus"":""img/red_lw/4.jpg"",""time"":201},{""stimulus"":""img/red_lw/5.jpg"",""time"":252},{""stimulus"":""img/red_lw/6.jpg"",""time"":301},{""stimulus"":""img/red_lw/7.jpg"",""time"":351},{""stimulus"":""img/red_lw/8.jpg"",""time"":401},{""stimulus"":""img/red_lw/9.jpg"",""time"":451},{""stimulus"":""img/red_lw/10.jpg"",""time"":501},{""stimulus"":""img/red_lw/11.jpg"",""time"":551}]","[]"
"image-keyboard-response","93","100942","0.0-5.0-1.44","5d412a9013864b0015b14b31","bdp_lott","Mon Mar 27 2023 15:49:12 GMT-0500 (Central Daylight Time)","276065","green","red","","","","choice","","","347","","img/red_lw/choose11.jpg","2","181","red","0.5","0.5","0.5","w","",""
"animation","94","101543","0.0-5.0-2.44","5d412a9013864b0015b14b31","bdp_lott","Mon Mar 27 2023 15:49:12 GMT-0500 (Central Daylight Time)","276065","green","red","","","","","","","","","","","181","","","","","","[{""stimulus"":""img/red_lw/1.jpg"",""time"":51},{""stimulus"":""img/red_lw/2.jpg"",""time"":101},{""stimulus"":""img/red_lw/3.jpg"",""time"":151},{""stimulus"":""img/red_lw/4.jpg"",""time"":201},{""stimulus"":""img/red_lw/5.jpg"",""time"":251},{""stimulus"":""img/red_lw/6.jpg"",""time"":301},{""stimulus"":""img/red_lw/7.jpg"",""time"":351},{""stimulus"":""img/red_lw/8.jpg"",""time"":401},{""stimulus"":""img/red_lw/9.jpg"",""time"":452},{""stimulus"":""img/red_lw/10.jpg"",""time"":501},{""stimulus"":""img/red_lw/11.jpg"",""time"":552}]","[]"
"image-keyboard-response","95","101923","0.0-5.0-1.45","5d412a9013864b0015b14b31","bdp_lott","Mon Mar 27 2023 15:49:12 GMT-0500 (Central Daylight Time)","276065","green","red","","","","choice","","","380","","img/red_lw/choose11.jpg","2","180","red","0.5","0.5","0.5","w","",""
"animation","96","102525","0.0-5.0-2.45","5d412a9013864b0015b14b31","bdp_lott","Mon Mar 27 2023 15:49:12 GMT-0500 (Central Daylight Time)","276065","green","red","","","","","","","","","","","180","","","","","","[{""stimulus"":""img/red_lw/1.jpg"",""time"":51},{""stimulus"":""img/red_lw/2.jpg"",""time"":101},{""stimulus"":""img/red_lw/3.jpg"",""time"":156},{""stimulus"":""img/red_lw/4.jpg"",""time"":201},{""stimulus"":""img/red_lw/5.jpg"",""time"":251},{""stimulus"":""img/red_lw/6.jpg"",""time"":301},{""stimulus"":""img/red_lw/7.jpg"",""time"":351},{""stimulus"":""img/red_lw/8.jpg"",""time"":401},{""stimulus"":""img/red_lw/9.jpg"",""time"":452},{""stimulus"":""img/red_lw/10.jpg"",""time"":502},{""stimulus"":""img/red_lw/11.jpg"",""time"":551}]","[]"
"image-keyboard-response","97","102879","0.0-5.0-1.46","5d412a9013864b0015b14b31","bdp_lott","Mon Mar 27 2023 15:49:12 GMT-0500 (Central Daylight Time)","276065","green","red","","","","choice","","","354","","img/red_lw/choose11.jpg","2","179","red","0.5","0.5","0.5","w","",""
"animation","98","103480","0.0-5.0-2.46","5d412a9013864b0015b14b31","bdp_lott","Mon Mar 27 2023 15:49:12 GMT-0500 (Central Daylight Time)","276065","green","red","","","","","","","","","","","179","","","","","","[{""stimulus"":""img/red_lw/1.jpg"",""time"":50},{""stimulus"":""img/red_lw/2.jpg"",""time"":100},{""stimulus"":""img/red_lw/3.jpg"",""time"":151},{""stimulus"":""img/red_lw/4.jpg"",""time"":200},{""stimulus"":""img/red_lw/5.jpg"",""time"":251},{""stimulus"":""img/red_lw/6.jpg"",""time"":301},{""stimulus"":""img/red_lw/7.jpg"",""time"":351},{""stimulus"":""img/red_lw/8.jpg"",""time"":401},{""stimulus"":""img/red_lw/9.jpg"",""time"":450},{""stimulus"":""img/red_lw/10.jpg"",""time"":501},{""stimulus"":""img/red_lw/11.jpg"",""time"":551}]","[]"
"image-keyboard-response","99","103913","0.0-5.0-1.47","5d412a9013864b0015b14b31","bdp_lott","Mon Mar 27 2023 15:49:12 GMT-0500 (Central Daylight Time)","276065","green","red","","","","choice","","","433","","img/red_lw/choose11.jpg","2","178","red","0.5","0.5","0.5","l","",""
"animation","100","104513","0.0-5.0-2.47","5d412a9013864b0015b14b31","bdp_lott","Mon Mar 27 2023 15:49:12 GMT-0500 (Central Daylight Time)","276065","green","red","","","","","","","","","","","178","","","","","","[{""stimulus"":""img/red_ll/1.jpg"",""time"":50},{""stimulus"":""img/red_ll/2.jpg"",""time"":100},{""stimulus"":""img/red_ll/3.jpg"",""time"":150},{""stimulus"":""img/red_ll/4.jpg"",""time"":201},{""stimulus"":""img/red_ll/5.jpg"",""time"":251},{""stimulus"":""img/red_ll/6.jpg"",""time"":301},{""stimulus"":""img/red_ll/7.jpg"",""time"":351},{""stimulus"":""img/red_ll/8.jpg"",""time"":401},{""stimulus"":""img/red_ll/9.jpg"",""time"":451},{""stimulus"":""img/red_ll/10.jpg"",""time"":500},{""stimulus"":""img/red_ll/11.jpg"",""time"":551}]","[]"
"image-keyboard-response","101","105316","0.0-5.0-1.48","5d412a9013864b0015b14b31","bdp_lott","Mon Mar 27 2023 15:49:12 GMT-0500 (Central Daylight Time)","276065","green","red","","","","choice","","","802","","img/red_ll/choose11.jpg","1","177","green","0.5","0.5","0.5","w","",""
"animation","102","105917","0.0-5.0-2.48","5d412a9013864b0015b14b31","bdp_lott","Mon Mar 27 2023 15:49:12 GMT-0500 (Central Daylight Time)","276065","green","red","","","","","","","","","","","177","","","","","","[{""stimulus"":""img/green_wl/1.jpg"",""time"":51},{""stimulus"":""img/green_wl/2.jpg"",""time"":100},{""stimulus"":""img/green_wl/3.jpg"",""time"":151},{""stimulus"":""img/green_wl/4.jpg"",""time"":202},{""stimulus"":""img/green_wl/5.jpg"",""time"":252},{""stimulus"":""img/green_wl/6.jpg"",""time"":301},{""stimulus"":""img/green_wl/7.jpg"",""time"":351},{""stimulus"":""img/green_wl/8.jpg"",""time"":401},{""stimulus"":""img/green_wl/9.jpg"",""time"":452},{""stimulus"":""img/green_wl/10.jpg"",""time"":501},{""stimulus"":""img/green_wl/11.jpg"",""time"":551}]","[]"
"image-keyboard-response","103","107358","0.0-5.0-1.49","5d412a9013864b0015b14b31","bdp_lott","Mon Mar 27 2023 15:49:12 GMT-0500 (Central Daylight Time)","276065","green","red","","","","choice","","","1441","","img/green_wl/choose11.jpg","2","176","red","0.5","0.5","0.5","w","",""
"animation","104","107959","0.0-5.0-2.49","5d412a9013864b0015b14b31","bdp_lott","Mon Mar 27 2023 15:49:12 GMT-0500 (Central Daylight Time)","276065","green","red","","","","","","","","","","","176","","","","","","[{""stimulus"":""img/red_ww/1.jpg"",""time"":50},{""stimulus"":""img/red_ww/2.jpg"",""time"":101},{""stimulus"":""img/red_ww/3.jpg"",""time"":152},{""stimulus"":""img/red_ww/4.jpg"",""time"":201},{""stimulus"":""img/red_ww/5.jpg"",""time"":250},{""stimulus"":""img/red_ww/6.jpg"",""time"":300},{""stimulus"":""img/red_ww/7.jpg"",""time"":350},{""stimulus"":""img/red_ww/8.jpg"",""time"":401},{""stimulus"":""img/red_ww/9.jpg"",""time"":450},{""stimulus"":""img/red_ww/10.jpg"",""time"":501},{""stimulus"":""img/red_ww/11.jpg"",""time"":551}]","[]"
"image-keyboard-response","105","108395","0.0-5.0-1.50","5d412a9013864b0015b14b31","bdp_lott","Mon Mar 27 2023 15:49:12 GMT-0500 (Central Daylight Time)","276065","green","red","","","","choice","","","436","","img/red_ww/choose11.jpg","2","175","red","0.5","0.5","0.5","w","",""
"animation","106","108996","0.0-5.0-2.50","5d412a9013864b0015b14b31","bdp_lott","Mon Mar 27 2023 15:49:12 GMT-0500 (Central Daylight Time)","276065","green","red","","","","","","","","","","","175","","","","","","[{""stimulus"":""img/red_ww/1.jpg"",""time"":51},{""stimulus"":""img/red_ww/2.jpg"",""time"":100},{""stimulus"":""img/red_ww/3.jpg"",""time"":151},{""stimulus"":""img/red_ww/4.jpg"",""time"":200},{""stimulus"":""img/red_ww/5.jpg"",""time"":251},{""stimulus"":""img/red_ww/6.jpg"",""time"":301},{""stimulus"":""img/red_ww/7.jpg"",""time"":350},{""stimulus"":""img/red_ww/8.jpg"",""time"":401},{""stimulus"":""img/red_ww/9.jpg"",""time"":451},{""stimulus"":""img/red_ww/10.jpg"",""time"":501},{""stimulus"":""img/red_ww/11.jpg"",""time"":551}]","[]"
"image-keyboard-response","107","109362","0.0-5.0-1.51","5d412a9013864b0015b14b31","bdp_lott","Mon Mar 27 2023 15:49:12 GMT-0500 (Central Daylight Time)","276065","green","red","","","","choice","","","364","","img/red_ww/choose11.jpg","2","174","red","0.5","0.5","0.5","l","",""
"animation","108","109962","0.0-5.0-2.51","5d412a9013864b0015b14b31","bdp_lott","Mon Mar 27 2023 15:49:12 GMT-0500 (Central Daylight Time)","276065","green","red","","","","","","","","","","","174","","","","","","[{""stimulus"":""img/red_wl/1.jpg"",""time"":51},{""stimulus"":""img/red_wl/2.jpg"",""time"":100},{""stimulus"":""img/red_wl/3.jpg"",""time"":151},{""stimulus"":""img/red_wl/4.jpg"",""time"":201},{""stimulus"":""img/red_wl/5.jpg"",""time"":251},{""stimulus"":""img/red_wl/6.jpg"",""time"":301},{""stimulus"":""img/red_wl/7.jpg"",""time"":351},{""stimulus"":""img/red_wl/8.jpg"",""time"":400},{""stimulus"":""img/red_wl/9.jpg"",""time"":450},{""stimulus"":""img/red_wl/10.jpg"",""time"":502},{""stimulus"":""img/red_wl/11.jpg"",""time"":551}]","[]"
"image-keyboard-response","109","110602","0.0-5.0-1.52","5d412a9013864b0015b14b31","bdp_lott","Mon Mar 27 2023 15:49:12 GMT-0500 (Central Daylight Time)","276065","green","red","","","","choice","","","638","","img/red_wl/choose11.jpg","2","173","red","0.5","0.5","0.5","w","",""
"animation","110","111202","0.0-5.0-2.52","5d412a9013864b0015b14b31","bdp_lott","Mon Mar 27 2023 15:49:12 GMT-0500 (Central Daylight Time)","276065","green","red","","","","","","","","","","","173","","","","","","[{""stimulus"":""img/red_ww/1.jpg"",""time"":50},{""stimulus"":""img/red_ww/2.jpg"",""time"":100},{""stimulus"":""img/red_ww/3.jpg"",""time"":150},{""stimulus"":""img/red_ww/4.jpg"",""time"":201},{""stimulus"":""img/red_ww/5.jpg"",""time"":250},{""stimulus"":""img/red_ww/6.jpg"",""time"":300},{""stimulus"":""img/red_ww/7.jpg"",""time"":350},{""stimulus"":""img/red_ww/8.jpg"",""time"":400},{""stimulus"":""img/red_ww/9.jpg"",""time"":450},{""stimulus"":""img/red_ww/10.jpg"",""time"":501},{""stimulus"":""img/red_ww/11.jpg"",""time"":551}]","[]"
"image-keyboard-response","111","111636","0.0-5.0-1.53","5d412a9013864b0015b14b31","bdp_lott","Mon Mar 27 2023 15:49:12 GMT-0500 (Central Daylight Time)","276065","green","red","","","","choice","","","433","","img/red_ww/choose11.jpg","2","172","red","0.5","0.5","0.5","w","",""
"animation","112","112237","0.0-5.0-2.53","5d412a9013864b0015b14b31","bdp_lott","Mon Mar 27 2023 15:49:12 GMT-0500 (Central Daylight Time)","276065","green","red","","","","","","","","","","","172","","","","","","[{""stimulus"":""img/red_ww/1.jpg"",""time"":51},{""stimulus"":""img/red_ww/2.jpg"",""time"":101},{""stimulus"":""img/red_ww/3.jpg"",""time"":151},{""stimulus"":""img/red_ww/4.jpg"",""time"":201},{""stimulus"":""img/red_ww/5.jpg"",""time"":251},{""stimulus"":""img/red_ww/6.jpg"",""time"":301},{""stimulus"":""img/red_ww/7.jpg"",""time"":351},{""stimulus"":""img/red_ww/8.jpg"",""time"":401},{""stimulus"":""img/red_ww/9.jpg"",""time"":451},{""stimulus"":""img/red_ww/10.jpg"",""time"":501},{""stimulus"":""img/red_ww/11.jpg"",""time"":551}]","[]"
"image-keyboard-response","113","112673","0.0-5.0-1.54","5d412a9013864b0015b14b31","bdp_lott","Mon Mar 27 2023 15:49:12 GMT-0500 (Central Daylight Time)","276065","green","red","","","","choice","","","436","","img/red_ww/choose11.jpg","2","171","red","0.5","0.5","0.5","w","",""
"animation","114","113275","0.0-5.0-2.54","5d412a9013864b0015b14b31","bdp_lott","Mon Mar 27 2023 15:49:12 GMT-0500 (Central Daylight Time)","276065","green","red","","","","","","","","","","","171","","","","","","[{""stimulus"":""img/red_ww/1.jpg"",""time"":51},{""stimulus"":""img/red_ww/2.jpg"",""time"":101},{""stimulus"":""img/red_ww/3.jpg"",""time"":151},{""stimulus"":""img/red_ww/4.jpg"",""time"":202},{""stimulus"":""img/red_ww/5.jpg"",""time"":252},{""stimulus"":""img/red_ww/6.jpg"",""time"":301},{""stimulus"":""img/red_ww/7.jpg"",""time"":351},{""stimulus"":""img/red_ww/8.jpg"",""time"":401},{""stimulus"":""img/red_ww/9.jpg"",""time"":452},{""stimulus"":""img/red_ww/10.jpg"",""time"":501},{""stimulus"":""img/red_ww/11.jpg"",""time"":551}]","[]"
"image-keyboard-response","115","113671","0.0-5.0-1.55","5d412a9013864b0015b14b31","bdp_lott","Mon Mar 27 2023 15:49:12 GMT-0500 (Central Daylight Time)","276065","green","red","","","","choice","","","396","","img/red_ww/choose11.jpg","2","170","red","0.5","0.5","0.5","l","",""
"animation","116","114271","0.0-5.0-2.55","5d412a9013864b0015b14b31","bdp_lott","Mon Mar 27 2023 15:49:12 GMT-0500 (Central Daylight Time)","276065","green","red","","","","","","","","","","","170","","","","","","[{""stimulus"":""img/red_wl/1.jpg"",""time"":51},{""stimulus"":""img/red_wl/2.jpg"",""time"":100},{""stimulus"":""img/red_wl/3.jpg"",""time"":150},{""stimulus"":""img/red_wl/4.jpg"",""time"":200},{""stimulus"":""img/red_wl/5.jpg"",""time"":251},{""stimulus"":""img/red_wl/6.jpg"",""time"":301},{""stimulus"":""img/red_wl/7.jpg"",""time"":351},{""stimulus"":""img/red_wl/8.jpg"",""time"":401},{""stimulus"":""img/red_wl/9.jpg"",""time"":451},{""stimulus"":""img/red_wl/10.jpg"",""time"":501},{""stimulus"":""img/red_wl/11.jpg"",""time"":550}]","[]"
"image-keyboard-response","117","115028","0.0-5.0-1.56","5d412a9013864b0015b14b31","bdp_lott","Mon Mar 27 2023 15:49:12 GMT-0500 (Central Daylight Time)","276065","green","red","","","","choice","","","756","","img/red_wl/choose11.jpg","1","169","green","0.5","0.5","0.5","l","",""
"animation","118","115629","0.0-5.0-2.56","5d412a9013864b0015b14b31","bdp_lott","Mon Mar 27 2023 15:49:12 GMT-0500 (Central Daylight Time)","276065","green","red","","","","","","","","","","","169","","","","","","[{""stimulus"":""img/green_ll/1.jpg"",""time"":51},{""stimulus"":""img/green_ll/2.jpg"",""time"":100},{""stimulus"":""img/green_ll/3.jpg"",""time"":150},{""stimulus"":""img/green_ll/4.jpg"",""time"":201},{""stimulus"":""img/green_ll/5.jpg"",""time"":250},{""stimulus"":""img/green_ll/6.jpg"",""time"":300},{""stimulus"":""img/green_ll/7.jpg"",""time"":350},{""stimulus"":""img/green_ll/8.jpg"",""time"":400},{""stimulus"":""img/green_ll/9.jpg"",""time"":451},{""stimulus"":""img/green_ll/10.jpg"",""time"":501},{""stimulus"":""img/green_ll/11.jpg"",""time"":551}]","[]"
"image-keyboard-response","119","118948","0.0-5.0-1.57","5d412a9013864b0015b14b31","bdp_lott","Mon Mar 27 2023 15:49:12 GMT-0500 (Central Daylight Time)","276065","green","red","","","","choice","","","3319","","img/green_ll/choose11.jpg","2","168","red","0.5","0.5","0.5","w","",""
"animation","120","119549","0.0-5.0-2.57","5d412a9013864b0015b14b31","bdp_lott","Mon Mar 27 2023 15:49:12 GMT-0500 (Central Daylight Time)","276065","green","red","","","","","","","","","","","168","","","","","","[{""stimulus"":""img/red_lw/1.jpg"",""time"":51},{""stimulus"":""img/red_lw/2.jpg"",""time"":101},{""stimulus"":""img/red_lw/3.jpg"",""time"":151},{""stimulus"":""img/red_lw/4.jpg"",""time"":210},{""stimulus"":""img/red_lw/5.jpg"",""time"":251},{""stimulus"":""img/red_lw/6.jpg"",""time"":301},{""stimulus"":""img/red_lw/7.jpg"",""time"":351},{""stimulus"":""img/red_lw/8.jpg"",""time"":401},{""stimulus"":""img/red_lw/9.jpg"",""time"":452},{""stimulus"":""img/red_lw/10.jpg"",""time"":501},{""stimulus"":""img/red_lw/11.jpg"",""time"":551}]","[]"
"image-keyboard-response","121","119997","0.0-5.0-1.58","5d412a9013864b0015b14b31","bdp_lott","Mon Mar 27 2023 15:49:12 GMT-0500 (Central Daylight Time)","276065","green","red","","","","choice","","","447","","img/red_lw/choose11.jpg","2","167","red","0.5","0.5","0.5","w","",""
"animation","122","120598","0.0-5.0-2.58","5d412a9013864b0015b14b31","bdp_lott","Mon Mar 27 2023 15:49:12 GMT-0500 (Central Daylight Time)","276065","green","red","","","","","","","","","","","167","","","","","","[{""stimulus"":""img/red_lw/1.jpg"",""time"":51},{""stimulus"":""img/red_lw/2.jpg"",""time"":101},{""stimulus"":""img/red_lw/3.jpg"",""time"":151},{""stimulus"":""img/red_lw/4.jpg"",""time"":201},{""stimulus"":""img/red_lw/5.jpg"",""time"":252},{""stimulus"":""img/red_lw/6.jpg"",""time"":301},{""stimulus"":""img/red_lw/7.jpg"",""time"":351},{""stimulus"":""img/red_lw/8.jpg"",""time"":402},{""stimulus"":""img/red_lw/9.jpg"",""time"":451},{""stimulus"":""img/red_lw/10.jpg"",""time"":501},{""stimulus"":""img/red_lw/11.jpg"",""time"":552}]","[]"
"image-keyboard-response","123","121108","0.0-5.0-1.59","5d412a9013864b0015b14b31","bdp_lott","Mon Mar 27 2023 15:49:12 GMT-0500 (Central Daylight Time)","276065","green","red","","","","choice","","","510","","img/red_lw/choose11.jpg","2","166","red","0.5","0.5","0.5","l","",""
"animation","124","121708","0.0-5.0-2.59","5d412a9013864b0015b14b31","bdp_lott","Mon Mar 27 2023 15:49:12 GMT-0500 (Central Daylight Time)","276065","green","red","","","","","","","","","","","166","","","","","","[{""stimulus"":""img/red_ll/1.jpg"",""time"":51},{""stimulus"":""img/red_ll/2.jpg"",""time"":101},{""stimulus"":""img/red_ll/3.jpg"",""time"":151},{""stimulus"":""img/red_ll/4.jpg"",""time"":201},{""stimulus"":""img/red_ll/5.jpg"",""time"":251},{""stimulus"":""img/red_ll/6.jpg"",""time"":301},{""stimulus"":""img/red_ll/7.jpg"",""time"":351},{""stimulus"":""img/red_ll/8.jpg"",""time"":401},{""stimulus"":""img/red_ll/9.jpg"",""time"":451},{""stimulus"":""img/red_ll/10.jpg"",""time"":501},{""stimulus"":""img/red_ll/11.jpg"",""time"":551}]","[]"
"image-keyboard-response","125","122112","0.0-5.0-1.60","5d412a9013864b0015b14b31","bdp_lott","Mon Mar 27 2023 15:49:12 GMT-0500 (Central Daylight Time)","276065","green","red","","","","choice","","","403","","img/red_ll/choose11.jpg","2","165","red","0.5","0.5","0.5","l","",""
"animation","126","122712","0.0-5.0-2.60","5d412a9013864b0015b14b31","bdp_lott","Mon Mar 27 2023 15:49:12 GMT-0500 (Central Daylight Time)","276065","green","red","","","","","","","","","","","165","","","","","","[{""stimulus"":""img/red_ll/1.jpg"",""time"":50},{""stimulus"":""img/red_ll/2.jpg"",""time"":100},{""stimulus"":""img/red_ll/3.jpg"",""time"":151},{""stimulus"":""img/red_ll/4.jpg"",""time"":201},{""stimulus"":""img/red_ll/5.jpg"",""time"":251},{""stimulus"":""img/red_ll/6.jpg"",""time"":301},{""stimulus"":""img/red_ll/7.jpg"",""time"":351},{""stimulus"":""img/red_ll/8.jpg"",""time"":400},{""stimulus"":""img/red_ll/9.jpg"",""time"":451},{""stimulus"":""img/red_ll/10.jpg"",""time"":500},{""stimulus"":""img/red_ll/11.jpg"",""time"":551}]","[]"
"image-keyboard-response","127","123211","0.0-5.0-1.61","5d412a9013864b0015b14b31","bdp_lott","Mon Mar 27 2023 15:49:12 GMT-0500 (Central Daylight Time)","276065","green","red","","","","choice","","","498","","img/red_ll/choose11.jpg","1","164","green","0.5","0.5","0.5","l","",""
"animation","128","123812","0.0-5.0-2.61","5d412a9013864b0015b14b31","bdp_lott","Mon Mar 27 2023 15:49:12 GMT-0500 (Central Daylight Time)","276065","green","red","","","","","","","","","","","164","","","","","","[{""stimulus"":""img/green_ll/1.jpg"",""time"":51},{""stimulus"":""img/green_ll/2.jpg"",""time"":102},{""stimulus"":""img/green_ll/3.jpg"",""time"":151},{""stimulus"":""img/green_ll/4.jpg"",""time"":202},{""stimulus"":""img/green_ll/5.jpg"",""time"":251},{""stimulus"":""img/green_ll/6.jpg"",""time"":302},{""stimulus"":""img/green_ll/7.jpg"",""time"":351},{""stimulus"":""img/green_ll/8.jpg"",""time"":401},{""stimulus"":""img/green_ll/9.jpg"",""time"":452},{""stimulus"":""img/green_ll/10.jpg"",""time"":502},{""stimulus"":""img/green_ll/11.jpg"",""time"":552}]","[]"
"image-keyboard-response","129","124350","0.0-5.0-1.62","5d412a9013864b0015b14b31","bdp_lott","Mon Mar 27 2023 15:49:12 GMT-0500 (Central Daylight Time)","276065","green","red","","","","choice","","","538","","img/green_ll/choose11.jpg","2","163","red","0.5","0.5","0.5","l","",""
"animation","130","124952","0.0-5.0-2.62","5d412a9013864b0015b14b31","bdp_lott","Mon Mar 27 2023 15:49:12 GMT-0500 (Central Daylight Time)","276065","green","red","","","","","","","","","","","163","","","","","","[{""stimulus"":""img/red_ll/1.jpg"",""time"":51},{""stimulus"":""img/red_ll/2.jpg"",""time"":101},{""stimulus"":""img/red_ll/3.jpg"",""time"":150},{""stimulus"":""img/red_ll/4.jpg"",""time"":201},{""stimulus"":""img/red_ll/5.jpg"",""time"":251},{""stimulus"":""img/red_ll/6.jpg"",""time"":301},{""stimulus"":""img/red_ll/7.jpg"",""time"":351},{""stimulus"":""img/red_ll/8.jpg"",""time"":401},{""stimulus"":""img/red_ll/9.jpg"",""time"":451},{""stimulus"":""img/red_ll/10.jpg"",""time"":501},{""stimulus"":""img/red_ll/11.jpg"",""time"":551}]","[]"
"image-keyboard-response","131","125314","0.0-5.0-1.63","5d412a9013864b0015b14b31","bdp_lott","Mon Mar 27 2023 15:49:12 GMT-0500 (Central Daylight Time)","276065","green","red","","","","choice","","","362","","img/red_ll/choose11.jpg","1","162","green","0.5","0.5","0.5","w","",""
"animation","132","125915","0.0-5.0-2.63","5d412a9013864b0015b14b31","bdp_lott","Mon Mar 27 2023 15:49:12 GMT-0500 (Central Daylight Time)","276065","green","red","","","","","","","","","","","162","","","","","","[{""stimulus"":""img/green_wl/1.jpg"",""time"":51},{""stimulus"":""img/green_wl/2.jpg"",""time"":101},{""stimulus"":""img/green_wl/3.jpg"",""time"":151},{""stimulus"":""img/green_wl/4.jpg"",""time"":201},{""stimulus"":""img/green_wl/5.jpg"",""time"":252},{""stimulus"":""img/green_wl/6.jpg"",""time"":301},{""stimulus"":""img/green_wl/7.jpg"",""time"":352},{""stimulus"":""img/green_wl/8.jpg"",""time"":401},{""stimulus"":""img/green_wl/9.jpg"",""time"":451},{""stimulus"":""img/green_wl/10.jpg"",""time"":501},{""stimulus"":""img/green_wl/11.jpg"",""time"":552}]","[]"
"image-keyboard-response","133","126267","0.0-5.0-1.64","5d412a9013864b0015b14b31","bdp_lott","Mon Mar 27 2023 15:49:12 GMT-0500 (Central Daylight Time)","276065","green","red","","","","choice","","","352","","img/green_wl/choose11.jpg","2","161","red","0.5","0.5","0.5","l","",""
"animation","134","126868","0.0-5.0-2.64","5d412a9013864b0015b14b31","bdp_lott","Mon Mar 27 2023 15:49:12 GMT-0500 (Central Daylight Time)","276065","green","red","","","","","","","","","","","161","","","","","","[{""stimulus"":""img/red_wl/1.jpg"",""time"":51},{""stimulus"":""img/red_wl/2.jpg"",""time"":100},{""stimulus"":""img/red_wl/3.jpg"",""time"":152},{""stimulus"":""img/red_wl/4.jpg"",""time"":201},{""stimulus"":""img/red_wl/5.jpg"",""time"":252},{""stimulus"":""img/red_wl/6.jpg"",""time"":301},{""stimulus"":""img/red_wl/7.jpg"",""time"":351},{""stimulus"":""img/red_wl/8.jpg"",""time"":401},{""stimulus"":""img/red_wl/9.jpg"",""time"":451},{""stimulus"":""img/red_wl/10.jpg"",""time"":500},{""stimulus"":""img/red_wl/11.jpg"",""time"":551}]","[]"
"image-keyboard-response","135","127245","0.0-5.0-1.65","5d412a9013864b0015b14b31","bdp_lott","Mon Mar 27 2023 15:49:12 GMT-0500 (Central Daylight Time)","276065","green","red","","","","choice","","","377","","img/red_wl/choose11.jpg","1","160","green","0.5","0.5","0.5","l","",""
"animation","136","127847","0.0-5.0-2.65","5d412a9013864b0015b14b31","bdp_lott","Mon Mar 27 2023 15:49:12 GMT-0500 (Central Daylight Time)","276065","green","red","","","","","","","","","","","160","","","","","","[{""stimulus"":""img/green_ll/1.jpg"",""time"":50},{""stimulus"":""img/green_ll/2.jpg"",""time"":101},{""stimulus"":""img/green_ll/3.jpg"",""time"":150},{""stimulus"":""img/green_ll/4.jpg"",""time"":200},{""stimulus"":""img/green_ll/5.jpg"",""time"":250},{""stimulus"":""img/green_ll/6.jpg"",""time"":301},{""stimulus"":""img/green_ll/7.jpg"",""time"":351},{""stimulus"":""img/green_ll/8.jpg"",""time"":401},{""stimulus"":""img/green_ll/9.jpg"",""time"":451},{""stimulus"":""img/green_ll/10.jpg"",""time"":500},{""stimulus"":""img/green_ll/11.jpg"",""time"":550}]","[]"
"image-keyboard-response","137","128305","0.0-5.0-1.66","5d412a9013864b0015b14b31","bdp_lott","Mon Mar 27 2023 15:49:12 GMT-0500 (Central Daylight Time)","276065","green","red","","","","choice","","","458","","img/green_ll/choose11.jpg","2","159","red","0.5","0.5","0.5","l","",""
"animation","138","128906","0.0-5.0-2.66","5d412a9013864b0015b14b31","bdp_lott","Mon Mar 27 2023 15:49:12 GMT-0500 (Central Daylight Time)","276065","green","red","","","","","","","","","","","159","","","","","","[{""stimulus"":""img/red_ll/1.jpg"",""time"":51},{""stimulus"":""img/red_ll/2.jpg"",""time"":100},{""stimulus"":""img/red_ll/3.jpg"",""time"":150},{""stimulus"":""img/red_ll/4.jpg"",""time"":201},{""stimulus"":""img/red_ll/5.jpg"",""time"":251},{""stimulus"":""img/red_ll/6.jpg"",""time"":301},{""stimulus"":""img/red_ll/7.jpg"",""time"":357},{""stimulus"":""img/red_ll/8.jpg"",""time"":401},{""stimulus"":""img/red_ll/9.jpg"",""time"":451},{""stimulus"":""img/red_ll/10.jpg"",""time"":501},{""stimulus"":""img/red_ll/11.jpg"",""time"":550}]","[]"
"image-keyboard-response","139","129294","0.0-5.0-1.67","5d412a9013864b0015b14b31","bdp_lott","Mon Mar 27 2023 15:49:12 GMT-0500 (Central Daylight Time)","276065","green","red","","","","choice","","","388","","img/red_ll/choose11.jpg","1","158","green","0.5","0.5","0.5","l","",""
"animation","140","129895","0.0-5.0-2.67","5d412a9013864b0015b14b31","bdp_lott","Mon Mar 27 2023 15:49:12 GMT-0500 (Central Daylight Time)","276065","green","red","","","","","","","","","","","158","","","","","","[{""stimulus"":""img/green_ll/1.jpg"",""time"":51},{""stimulus"":""img/green_ll/2.jpg"",""time"":101},{""stimulus"":""img/green_ll/3.jpg"",""time"":151},{""stimulus"":""img/green_ll/4.jpg"",""time"":201},{""stimulus"":""img/green_ll/5.jpg"",""time"":252},{""stimulus"":""img/green_ll/6.jpg"",""time"":302},{""stimulus"":""img/green_ll/7.jpg"",""time"":351},{""stimulus"":""img/green_ll/8.jpg"",""time"":402},{""stimulus"":""img/green_ll/9.jpg"",""time"":451},{""stimulus"":""img/green_ll/10.jpg"",""time"":501},{""stimulus"":""img/green_ll/11.jpg"",""time"":551}]","[]"
"image-keyboard-response","141","130313","0.0-5.0-1.68","5d412a9013864b0015b14b31","bdp_lott","Mon Mar 27 2023 15:49:12 GMT-0500 (Central Daylight Time)","276065","green","red","","","","choice","","","418","","img/green_ll/choose11.jpg","2","157","red","0.5","0.5","0.5","w","",""
"animation","142","130914","0.0-5.0-2.68","5d412a9013864b0015b14b31","bdp_lott","Mon Mar 27 2023 15:49:12 GMT-0500 (Central Daylight Time)","276065","green","red","","","","","","","","","","","157","","","","","","[{""stimulus"":""img/red_lw/1.jpg"",""time"":50},{""stimulus"":""img/red_lw/2.jpg"",""time"":100},{""stimulus"":""img/red_lw/3.jpg"",""time"":150},{""stimulus"":""img/red_lw/4.jpg"",""time"":200},{""stimulus"":""img/red_lw/5.jpg"",""time"":251},{""stimulus"":""img/red_lw/6.jpg"",""time"":300},{""stimulus"":""img/red_lw/7.jpg"",""time"":350},{""stimulus"":""img/red_lw/8.jpg"",""time"":400},{""stimulus"":""img/red_lw/9.jpg"",""time"":451},{""stimulus"":""img/red_lw/10.jpg"",""time"":500},{""stimulus"":""img/red_lw/11.jpg"",""time"":551}]","[]"
"image-keyboard-response","143","131362","0.0-5.0-1.69","5d412a9013864b0015b14b31","bdp_lott","Mon Mar 27 2023 15:49:12 GMT-0500 (Central Daylight Time)","276065","green","red","","","","choice","","","448","","img/red_lw/choose11.jpg","2","156","red","0.5","0.5","0.5","l","",""
"animation","144","131962","0.0-5.0-2.69","5d412a9013864b0015b14b31","bdp_lott","Mon Mar 27 2023 15:49:12 GMT-0500 (Central Daylight Time)","276065","green","red","","","","","","","","","","","156","","","","","","[{""stimulus"":""img/red_ll/1.jpg"",""time"":51},{""stimulus"":""img/red_ll/2.jpg"",""time"":100},{""stimulus"":""img/red_ll/3.jpg"",""time"":151},{""stimulus"":""img/red_ll/4.jpg"",""time"":201},{""stimulus"":""img/red_ll/5.jpg"",""time"":250},{""stimulus"":""img/red_ll/6.jpg"",""time"":300},{""stimulus"":""img/red_ll/7.jpg"",""time"":350},{""stimulus"":""img/red_ll/8.jpg"",""time"":401},{""stimulus"":""img/red_ll/9.jpg"",""time"":451},{""stimulus"":""img/red_ll/10.jpg"",""time"":500},{""stimulus"":""img/red_ll/11.jpg"",""time"":551}]","[]"
"image-keyboard-response","145","132329","0.0-5.0-1.70","5d412a9013864b0015b14b31","bdp_lott","Mon Mar 27 2023 15:49:12 GMT-0500 (Central Daylight Time)","276065","green","red","","","","choice","","","366","","img/red_ll/choose11.jpg","2","155","red","0.5","0.5","0.5","l","",""
"animation","146","132929","0.0-5.0-2.70","5d412a9013864b0015b14b31","bdp_lott","Mon Mar 27 2023 15:49:12 GMT-0500 (Central Daylight Time)","276065","green","red","","","","","","","","","","","155","","","","","","[{""stimulus"":""img/red_ll/1.jpg"",""time"":50},{""stimulus"":""img/red_ll/2.jpg"",""time"":101},{""stimulus"":""img/red_ll/3.jpg"",""time"":151},{""stimulus"":""img/red_ll/4.jpg"",""time"":201},{""stimulus"":""img/red_ll/5.jpg"",""time"":250},{""stimulus"":""img/red_ll/6.jpg"",""time"":301},{""stimulus"":""img/red_ll/7.jpg"",""time"":351},{""stimulus"":""img/red_ll/8.jpg"",""time"":400},{""stimulus"":""img/red_ll/9.jpg"",""time"":451},{""stimulus"":""img/red_ll/10.jpg"",""time"":500},{""stimulus"":""img/red_ll/11.jpg"",""time"":550}]","[]"
"image-keyboard-response","147","133291","0.0-5.0-1.71","5d412a9013864b0015b14b31","bdp_lott","Mon Mar 27 2023 15:49:12 GMT-0500 (Central Daylight Time)","276065","green","red","","","","choice","","","361","","img/red_ll/choose11.jpg","1","154","green","0.5","0.5","0.5","l","",""
"animation","148","133892","0.0-5.0-2.71","5d412a9013864b0015b14b31","bdp_lott","Mon Mar 27 2023 15:49:12 GMT-0500 (Central Daylight Time)","276065","green","red","","","","","","","","","","","154","","","","","","[{""stimulus"":""img/green_ll/1.jpg"",""time"":51},{""stimulus"":""img/green_ll/2.jpg"",""time"":101},{""stimulus"":""img/green_ll/3.jpg"",""time"":152},{""stimulus"":""img/green_ll/4.jpg"",""time"":201},{""stimulus"":""img/green_ll/5.jpg"",""time"":251},{""stimulus"":""img/green_ll/6.jpg"",""time"":301},{""stimulus"":""img/green_ll/7.jpg"",""time"":351},{""stimulus"":""img/green_ll/8.jpg"",""time"":402},{""stimulus"":""img/green_ll/9.jpg"",""time"":452},{""stimulus"":""img/green_ll/10.jpg"",""time"":501},{""stimulus"":""img/green_ll/11.jpg"",""time"":552}]","[]"
"image-keyboard-response","149","134368","0.0-5.0-1.72","5d412a9013864b0015b14b31","bdp_lott","Mon Mar 27 2023 15:49:12 GMT-0500 (Central Daylight Time)","276065","green","red","","","","choice","","","476","","img/green_ll/choose11.jpg","1","153","green","0.5","0.5","0.5","w","",""
"animation","150","134969","0.0-5.0-2.72","5d412a9013864b0015b14b31","bdp_lott","Mon Mar 27 2023 15:49:12 GMT-0500 (Central Daylight Time)","276065","green","red","","","","","","","","","","","153","","","","","","[{""stimulus"":""img/green_wl/1.jpg"",""time"":51},{""stimulus"":""img/green_wl/2.jpg"",""time"":100},{""stimulus"":""img/green_wl/3.jpg"",""time"":151},{""stimulus"":""img/green_wl/4.jpg"",""time"":200},{""stimulus"":""img/green_wl/5.jpg"",""time"":251},{""stimulus"":""img/green_wl/6.jpg"",""time"":301},{""stimulus"":""img/green_wl/7.jpg"",""time"":350},{""stimulus"":""img/green_wl/8.jpg"",""time"":400},{""stimulus"":""img/green_wl/9.jpg"",""time"":451},{""stimulus"":""img/green_wl/10.jpg"",""time"":500},{""stimulus"":""img/green_wl/11.jpg"",""time"":550}]","[]"
"image-keyboard-response","151","135250","0.0-5.0-1.73","5d412a9013864b0015b14b31","bdp_lott","Mon Mar 27 2023 15:49:12 GMT-0500 (Central Daylight Time)","276065","green","red","","","","choice","","","281","","img/green_wl/choose11.jpg","2","152","red","0.5","0.5","0.5","l","",""
"animation","152","135851","0.0-5.0-2.73","5d412a9013864b0015b14b31","bdp_lott","Mon Mar 27 2023 15:49:12 GMT-0500 (Central Daylight Time)","276065","green","red","","","","","","","","","","","152","","","","","","[{""stimulus"":""img/red_wl/1.jpg"",""time"":50},{""stimulus"":""img/red_wl/2.jpg"",""time"":100},{""stimulus"":""img/red_wl/3.jpg"",""time"":151},{""stimulus"":""img/red_wl/4.jpg"",""time"":201},{""stimulus"":""img/red_wl/5.jpg"",""time"":250},{""stimulus"":""img/red_wl/6.jpg"",""time"":301},{""stimulus"":""img/red_wl/7.jpg"",""time"":351},{""stimulus"":""img/red_wl/8.jpg"",""time"":401},{""stimulus"":""img/red_wl/9.jpg"",""time"":450},{""stimulus"":""img/red_wl/10.jpg"",""time"":500},{""stimulus"":""img/red_wl/11.jpg"",""time"":550}]","[]"
"image-keyboard-response","153","136255","0.0-5.0-1.74","5d412a9013864b0015b14b31","bdp_lott","Mon Mar 27 2023 15:49:12 GMT-0500 (Central Daylight Time)","276065","green","red","","","","choice","","","403","","img/red_wl/choose11.jpg","2","151","red","0.5","0.5","0.5","l","",""
"animation","154","136856","0.0-5.0-2.74","5d412a9013864b0015b14b31","bdp_lott","Mon Mar 27 2023 15:49:12 GMT-0500 (Central Daylight Time)","276065","green","red","","","","","","","","","","","151","","","","","","[{""stimulus"":""img/red_wl/1.jpg"",""time"":52},{""stimulus"":""img/red_wl/2.jpg"",""time"":101},{""stimulus"":""img/red_wl/3.jpg"",""time"":151},{""stimulus"":""img/red_wl/4.jpg"",""time"":201},{""stimulus"":""img/red_wl/5.jpg"",""time"":251},{""stimulus"":""img/red_wl/6.jpg"",""time"":301},{""stimulus"":""img/red_wl/7.jpg"",""time"":352},{""stimulus"":""img/red_wl/8.jpg"",""time"":401},{""stimulus"":""img/red_wl/9.jpg"",""time"":451},{""stimulus"":""img/red_wl/10.jpg"",""time"":501},{""stimulus"":""img/red_wl/11.jpg"",""time"":551}]","[]"
"image-keyboard-response","155","137200","0.0-5.0-1.75","5d412a9013864b0015b14b31","bdp_lott","Mon Mar 27 2023 15:49:12 GMT-0500 (Central Daylight Time)","276065","green","red","","","","choice","","","344","","img/red_wl/choose11.jpg","1","150","green","0.5","0.5","0.5","l","",""
"animation","156","137801","0.0-5.0-2.75","5d412a9013864b0015b14b31","bdp_lott","Mon Mar 27 2023 15:49:12 GMT-0500 (Central Daylight Time)","276065","green","red","","","","","","","","","","","150","","","","","","[{""stimulus"":""img/green_ll/1.jpg"",""time"":51},{""stimulus"":""img/green_ll/2.jpg"",""time"":100},{""stimulus"":""img/green_ll/3.jpg"",""time"":150},{""stimulus"":""img/green_ll/4.jpg"",""time"":200},{""stimulus"":""img/green_ll/5.jpg"",""time"":250},{""stimulus"":""img/green_ll/6.jpg"",""time"":300},{""stimulus"":""img/green_ll/7.jpg"",""time"":350},{""stimulus"":""img/green_ll/8.jpg"",""time"":401},{""stimulus"":""img/green_ll/9.jpg"",""time"":450},{""stimulus"":""img/green_ll/10.jpg"",""time"":500},{""stimulus"":""img/green_ll/11.jpg"",""time"":551}]","[]"
"image-keyboard-response","157","138284","0.0-5.0-1.76","5d412a9013864b0015b14b31","bdp_lott","Mon Mar 27 2023 15:49:12 GMT-0500 (Central Daylight Time)","276065","green","red","","","","choice","","","483","","img/green_ll/choose11.jpg","1","149","green","0.5","0.1","0.5","l","",""
"animation","158","138885","0.0-5.0-2.76","5d412a9013864b0015b14b31","bdp_lott","Mon Mar 27 2023 15:49:12 GMT-0500 (Central Daylight Time)","276065","green","red","","","","","","","","","","","149","","","","","","[{""stimulus"":""img/green_ll/1.jpg"",""time"":51},{""stimulus"":""img/green_ll/2.jpg"",""time"":100},{""stimulus"":""img/green_ll/3.jpg"",""time"":151},{""stimulus"":""img/green_ll/4.jpg"",""time"":200},{""stimulus"":""img/green_ll/5.jpg"",""time"":250},{""stimulus"":""img/green_ll/6.jpg"",""time"":301},{""stimulus"":""img/green_ll/7.jpg"",""time"":351},{""stimulus"":""img/green_ll/8.jpg"",""time"":401},{""stimulus"":""img/green_ll/9.jpg"",""time"":451},{""stimulus"":""img/green_ll/10.jpg"",""time"":501},{""stimulus"":""img/green_ll/11.jpg"",""time"":552}]","[]"
"image-keyboard-response","159","139313","0.0-5.0-1.77","5d412a9013864b0015b14b31","bdp_lott","Mon Mar 27 2023 15:49:12 GMT-0500 (Central Daylight Time)","276065","green","red","","","","choice","","","428","","img/green_ll/choose11.jpg","1","148","green","0.5","0.1","0.5","w","",""
"animation","160","139913","0.0-5.0-2.77","5d412a9013864b0015b14b31","bdp_lott","Mon Mar 27 2023 15:49:12 GMT-0500 (Central Daylight Time)","276065","green","red","","","","","","","","","","","148","","","","","","[{""stimulus"":""img/green_wl/1.jpg"",""time"":51},{""stimulus"":""img/green_wl/2.jpg"",""time"":101},{""stimulus"":""img/green_wl/3.jpg"",""time"":151},{""stimulus"":""img/green_wl/4.jpg"",""time"":201},{""stimulus"":""img/green_wl/5.jpg"",""time"":251},{""stimulus"":""img/green_wl/6.jpg"",""time"":301},{""stimulus"":""img/green_wl/7.jpg"",""time"":351},{""stimulus"":""img/green_wl/8.jpg"",""time"":401},{""stimulus"":""img/green_wl/9.jpg"",""time"":451},{""stimulus"":""img/green_wl/10.jpg"",""time"":501},{""stimulus"":""img/green_wl/11.jpg"",""time"":551}]","[]"
"image-keyboard-response","161","140291","0.0-5.0-1.78","5d412a9013864b0015b14b31","bdp_lott","Mon Mar 27 2023 15:49:12 GMT-0500 (Central Daylight Time)","276065","green","red","","","","choice","","","377","","img/green_wl/choose11.jpg","2","147","red","0.5","0.1","0.1","w","",""
"animation","162","140892","0.0-5.0-2.78","5d412a9013864b0015b14b31","bdp_lott","Mon Mar 27 2023 15:49:12 GMT-0500 (Central Daylight Time)","276065","green","red","","","","","","","","","","","147","","","","","","[{""stimulus"":""img/red_ww/1.jpg"",""time"":52},{""stimulus"":""img/red_ww/2.jpg"",""time"":101},{""stimulus"":""img/red_ww/3.jpg"",""time"":151},{""stimulus"":""img/red_ww/4.jpg"",""time"":202},{""stimulus"":""img/red_ww/5.jpg"",""time"":251},{""stimulus"":""img/red_ww/6.jpg"",""time"":301},{""stimulus"":""img/red_ww/7.jpg"",""time"":352},{""stimulus"":""img/red_ww/8.jpg"",""time"":401},{""stimulus"":""img/red_ww/9.jpg"",""time"":451},{""stimulus"":""img/red_ww/10.jpg"",""time"":501},{""stimulus"":""img/red_ww/11.jpg"",""time"":551}]","[]"
"image-keyboard-response","163","141313","0.0-5.0-1.79","5d412a9013864b0015b14b31","bdp_lott","Mon Mar 27 2023 15:49:12 GMT-0500 (Central Daylight Time)","276065","green","red","","","","choice","","","420","","img/red_ww/choose11.jpg","2","146","red","0.5","0.1","0.1","l","",""
"animation","164","141913","0.0-5.0-2.79","5d412a9013864b0015b14b31","bdp_lott","Mon Mar 27 2023 15:49:12 GMT-0500 (Central Daylight Time)","276065","green","red","","","","","","","","","","","146","","","","","","[{""stimulus"":""img/red_wl/1.jpg"",""time"":51},{""stimulus"":""img/red_wl/2.jpg"",""time"":101},{""stimulus"":""img/red_wl/3.jpg"",""time"":151},{""stimulus"":""img/red_wl/4.jpg"",""time"":202},{""stimulus"":""img/red_wl/5.jpg"",""time"":251},{""stimulus"":""img/red_wl/6.jpg"",""time"":301},{""stimulus"":""img/red_wl/7.jpg"",""time"":351},{""stimulus"":""img/red_wl/8.jpg"",""time"":401},{""stimulus"":""img/red_wl/9.jpg"",""time"":451},{""stimulus"":""img/red_wl/10.jpg"",""time"":502},{""stimulus"":""img/red_wl/11.jpg"",""time"":551}]","[]"
"image-keyboard-response","165","142209","0.0-5.0-1.80","5d412a9013864b0015b14b31","bdp_lott","Mon Mar 27 2023 15:49:12 GMT-0500 (Central Daylight Time)","276065","green","red","","","","choice","","","295","","img/red_wl/choose11.jpg","1","145","green","0.5","0.1","0.5","l","",""
"animation","166","142810","0.0-5.0-2.80","5d412a9013864b0015b14b31","bdp_lott","Mon Mar 27 2023 15:49:12 GMT-0500 (Central Daylight Time)","276065","green","red","","","","","","","","","","","145","","","","","","[{""stimulus"":""img/green_ll/1.jpg"",""time"":51},{""stimulus"":""img/green_ll/2.jpg"",""time"":101},{""stimulus"":""img/green_ll/3.jpg"",""time"":151},{""stimulus"":""img/green_ll/4.jpg"",""time"":201},{""stimulus"":""img/green_ll/5.jpg"",""time"":251},{""stimulus"":""img/green_ll/6.jpg"",""time"":301},{""stimulus"":""img/green_ll/7.jpg"",""time"":351},{""stimulus"":""img/green_ll/8.jpg"",""time"":401},{""stimulus"":""img/green_ll/9.jpg"",""time"":451},{""stimulus"":""img/green_ll/10.jpg"",""time"":501},{""stimulus"":""img/green_ll/11.jpg"",""time"":551}]","[]"
"image-keyboard-response","167","143244","0.0-5.0-1.81","5d412a9013864b0015b14b31","bdp_lott","Mon Mar 27 2023 15:49:12 GMT-0500 (Central Daylight Time)","276065","green","red","","","","choice","","","434","","img/green_ll/choose11.jpg","2","144","red","0.5","0.1","0.1","l","",""
"animation","168","143845","0.0-5.0-2.81","5d412a9013864b0015b14b31","bdp_lott","Mon Mar 27 2023 15:49:12 GMT-0500 (Central Daylight Time)","276065","green","red","","","","","","","","","","","144","","","","","","[{""stimulus"":""img/red_ll/1.jpg"",""time"":51},{""stimulus"":""img/red_ll/2.jpg"",""time"":101},{""stimulus"":""img/red_ll/3.jpg"",""time"":150},{""stimulus"":""img/red_ll/4.jpg"",""time"":200},{""stimulus"":""img/red_ll/5.jpg"",""time"":251},{""stimulus"":""img/red_ll/6.jpg"",""time"":300},{""stimulus"":""img/red_ll/7.jpg"",""time"":350},{""stimulus"":""img/red_ll/8.jpg"",""time"":401},{""stimulus"":""img/red_ll/9.jpg"",""time"":451},{""stimulus"":""img/red_ll/10.jpg"",""time"":500},{""stimulus"":""img/red_ll/11.jpg"",""time"":551}]","[]"
"image-keyboard-response","169","144300","0.0-5.0-1.82","5d412a9013864b0015b14b31","bdp_lott","Mon Mar 27 2023 15:49:12 GMT-0500 (Central Daylight Time)","276065","green","red","","","","choice","","","455","","img/red_ll/choose11.jpg","1","143","green","0.5","0.1","0.5","w","",""
"animation","170","144901","0.0-5.0-2.82","5d412a9013864b0015b14b31","bdp_lott","Mon Mar 27 2023 15:49:12 GMT-0500 (Central Daylight Time)","276065","green","red","","","","","","","","","","","143","","","","","","[{""stimulus"":""img/green_wl/1.jpg"",""time"":50},{""stimulus"":""img/green_wl/2.jpg"",""time"":100},{""stimulus"":""img/green_wl/3.jpg"",""time"":150},{""stimulus"":""img/green_wl/4.jpg"",""time"":201},{""stimulus"":""img/green_wl/5.jpg"",""time"":251},{""stimulus"":""img/green_wl/6.jpg"",""time"":300},{""stimulus"":""img/green_wl/7.jpg"",""time"":351},{""stimulus"":""img/green_wl/8.jpg"",""time"":401},{""stimulus"":""img/green_wl/9.jpg"",""time"":465},{""stimulus"":""img/green_wl/10.jpg"",""time"":500},{""stimulus"":""img/green_wl/11.jpg"",""time"":551}]","[]"
"image-keyboard-response","171","145667","0.0-5.0-1.83","5d412a9013864b0015b14b31","bdp_lott","Mon Mar 27 2023 15:49:12 GMT-0500 (Central Daylight Time)","276065","green","red","","","","choice","","","764","","img/green_wl/choose11.jpg","1","142","green","0.5","0.1","0.5","w","",""
"animation","172","146268","0.0-5.0-2.83","5d412a9013864b0015b14b31","bdp_lott","Mon Mar 27 2023 15:49:12 GMT-0500 (Central Daylight Time)","276065","green","red","","","","","","","","","","","142","","","","","","[{""stimulus"":""img/green_wl/1.jpg"",""time"":51},{""stimulus"":""img/green_wl/2.jpg"",""time"":100},{""stimulus"":""img/green_wl/3.jpg"",""time"":151},{""stimulus"":""img/green_wl/4.jpg"",""time"":202},{""stimulus"":""img/green_wl/5.jpg"",""time"":250},{""stimulus"":""img/green_wl/6.jpg"",""time"":302},{""stimulus"":""img/green_wl/7.jpg"",""time"":351},{""stimulus"":""img/green_wl/8.jpg"",""time"":401},{""stimulus"":""img/green_wl/9.jpg"",""time"":451},{""stimulus"":""img/green_wl/10.jpg"",""time"":501},{""stimulus"":""img/green_wl/11.jpg"",""time"":550}]","[]"
"image-keyboard-response","173","146640","0.0-5.0-1.84","5d412a9013864b0015b14b31","bdp_lott","Mon Mar 27 2023 15:49:12 GMT-0500 (Central Daylight Time)","276065","green","red","","","","choice","","","372","","img/green_wl/choose11.jpg","1","141","green","0.5","0.1","0.5","w","",""
"animation","174","147241","0.0-5.0-2.84","5d412a9013864b0015b14b31","bdp_lott","Mon Mar 27 2023 15:49:12 GMT-0500 (Central Daylight Time)","276065","green","red","","","","","","","","","","","141","","","","","","[{""stimulus"":""img/green_wl/1.jpg"",""time"":51},{""stimulus"":""img/green_wl/2.jpg"",""time"":101},{""stimulus"":""img/green_wl/3.jpg"",""time"":150},{""stimulus"":""img/green_wl/4.jpg"",""time"":201},{""stimulus"":""img/green_wl/5.jpg"",""time"":250},{""stimulus"":""img/green_wl/6.jpg"",""time"":301},{""stimulus"":""img/green_wl/7.jpg"",""time"":350},{""stimulus"":""img/green_wl/8.jpg"",""time"":401},{""stimulus"":""img/green_wl/9.jpg"",""time"":465},{""stimulus"":""img/green_wl/10.jpg"",""time"":501},{""stimulus"":""img/green_wl/11.jpg"",""time"":552}]","[]"
"image-keyboard-response","175","147652","0.0-5.0-1.85","5d412a9013864b0015b14b31","bdp_lott","Mon Mar 27 2023 15:49:12 GMT-0500 (Central Daylight Time)","276065","green","red","","","","choice","","","411","","img/green_wl/choose11.jpg","1","140","green","0.5","0.1","0.5","w","",""
"animation","176","148253","0.0-5.0-2.85","5d412a9013864b0015b14b31","bdp_lott","Mon Mar 27 2023 15:49:12 GMT-0500 (Central Daylight Time)","276065","green","red","","","","","","","","","","","140","","","","","","[{""stimulus"":""img/green_wl/1.jpg"",""time"":51},{""stimulus"":""img/green_wl/2.jpg"",""time"":100},{""stimulus"":""img/green_wl/3.jpg"",""time"":151},{""stimulus"":""img/green_wl/4.jpg"",""time"":201},{""stimulus"":""img/green_wl/5.jpg"",""time"":252},{""stimulus"":""img/green_wl/6.jpg"",""time"":301},{""stimulus"":""img/green_wl/7.jpg"",""time"":351},{""stimulus"":""img/green_wl/8.jpg"",""time"":401},{""stimulus"":""img/green_wl/9.jpg"",""time"":451},{""stimulus"":""img/green_wl/10.jpg"",""time"":501},{""stimulus"":""img/green_wl/11.jpg"",""time"":551}]","[]"
"image-keyboard-response","177","148677","0.0-5.0-1.86","5d412a9013864b0015b14b31","bdp_lott","Mon Mar 27 2023 15:49:12 GMT-0500 (Central Daylight Time)","276065","green","red","","","","choice","","","423","","img/green_wl/choose11.jpg","1","139","green","0.5","0.1","0.5","l","",""
"animation","178","149279","0.0-5.0-2.86","5d412a9013864b0015b14b31","bdp_lott","Mon Mar 27 2023 15:49:12 GMT-0500 (Central Daylight Time)","276065","green","red","","","","","","","","","","","139","","","","","","[{""stimulus"":""img/green_ll/1.jpg"",""time"":51},{""stimulus"":""img/green_ll/2.jpg"",""time"":101},{""stimulus"":""img/green_ll/3.jpg"",""time"":151},{""stimulus"":""img/green_ll/4.jpg"",""time"":201},{""stimulus"":""img/green_ll/5.jpg"",""time"":251},{""stimulus"":""img/green_ll/6.jpg"",""time"":301},{""stimulus"":""img/green_ll/7.jpg"",""time"":352},{""stimulus"":""img/green_ll/8.jpg"",""time"":401},{""stimulus"":""img/green_ll/9.jpg"",""time"":451},{""stimulus"":""img/green_ll/10.jpg"",""time"":501},{""stimulus"":""img/green_ll/11.jpg"",""time"":551}]","[]"
"image-keyboard-response","179","149695","0.0-5.0-1.87","5d412a9013864b0015b14b31","bdp_lott","Mon Mar 27 2023 15:49:12 GMT-0500 (Central Daylight Time)","276065","green","red","","","","choice","","","416","","img/green_ll/choose11.jpg","2","138","red","0.5","0.1","0.1","l","",""
"animation","180","150297","0.0-5.0-2.87","5d412a9013864b0015b14b31","bdp_lott","Mon Mar 27 2023 15:49:12 GMT-0500 (Central Daylight Time)","276065","green","red","","","","","","","","","","","138","","","","","","[{""stimulus"":""img/red_ll/1.jpg"",""time"":51},{""stimulus"":""img/red_ll/2.jpg"",""time"":101},{""stimulus"":""img/red_ll/3.jpg"",""time"":151},{""stimulus"":""img/red_ll/4.jpg"",""time"":201},{""stimulus"":""img/red_ll/5.jpg"",""time"":251},{""stimulus"":""img/red_ll/6.jpg"",""time"":301},{""stimulus"":""img/red_ll/7.jpg"",""time"":352},{""stimulus"":""img/red_ll/8.jpg"",""time"":402},{""stimulus"":""img/red_ll/9.jpg"",""time"":452},{""stimulus"":""img/red_ll/10.jpg"",""time"":501},{""stimulus"":""img/red_ll/11.jpg"",""time"":551}]","[]"
"image-keyboard-response","181","150599","0.0-5.0-1.88","5d412a9013864b0015b14b31","bdp_lott","Mon Mar 27 2023 15:49:12 GMT-0500 (Central Daylight Time)","276065","green","red","","","","choice","","","302","","img/red_ll/choose11.jpg","2","137","red","0.5","0.1","0.1","l","",""
"animation","182","151200","0.0-5.0-2.88","5d412a9013864b0015b14b31","bdp_lott","Mon Mar 27 2023 15:49:12 GMT-0500 (Central Daylight Time)","276065","green","red","","","","","","","","","","","137","","","","","","[{""stimulus"":""img/red_ll/1.jpg"",""time"":51},{""stimulus"":""img/red_ll/2.jpg"",""time"":101},{""stimulus"":""img/red_ll/3.jpg"",""time"":151},{""stimulus"":""img/red_ll/4.jpg"",""time"":212},{""stimulus"":""img/red_ll/5.jpg"",""time"":251},{""stimulus"":""img/red_ll/6.jpg"",""time"":301},{""stimulus"":""img/red_ll/7.jpg"",""time"":351},{""stimulus"":""img/red_ll/8.jpg"",""time"":401},{""stimulus"":""img/red_ll/9.jpg"",""time"":451},{""stimulus"":""img/red_ll/10.jpg"",""time"":501},{""stimulus"":""img/red_ll/11.jpg"",""time"":551}]","[]"
"image-keyboard-response","183","151711","0.0-5.0-1.89","5d412a9013864b0015b14b31","bdp_lott","Mon Mar 27 2023 15:49:12 GMT-0500 (Central Daylight Time)","276065","green","red","","","","choice","","","510","","img/red_ll/choose11.jpg","1","136","green","0.5","0.1","0.5","w","",""
"animation","184","152311","0.0-5.0-2.89","5d412a9013864b0015b14b31","bdp_lott","Mon Mar 27 2023 15:49:12 GMT-0500 (Central Daylight Time)","276065","green","red","","","","","","","","","","","136","","","","","","[{""stimulus"":""img/green_wl/1.jpg"",""time"":51},{""stimulus"":""img/green_wl/2.jpg"",""time"":101},{""stimulus"":""img/green_wl/3.jpg"",""time"":151},{""stimulus"":""img/green_wl/4.jpg"",""time"":201},{""stimulus"":""img/green_wl/5.jpg"",""time"":250},{""stimulus"":""img/green_wl/6.jpg"",""time"":300},{""stimulus"":""img/green_wl/7.jpg"",""time"":350},{""stimulus"":""img/green_wl/8.jpg"",""time"":400},{""stimulus"":""img/green_wl/9.jpg"",""time"":464},{""stimulus"":""img/green_wl/10.jpg"",""time"":500},{""stimulus"":""img/green_wl/11.jpg"",""time"":551}]","[]"
"image-keyboard-response","185","152726","0.0-5.0-1.90","5d412a9013864b0015b14b31","bdp_lott","Mon Mar 27 2023 15:49:12 GMT-0500 (Central Daylight Time)","276065","green","red","","","","choice","","","414","","img/green_wl/choose11.jpg","1","135","green","0.5","0.1","0.5","l","",""
"animation","186","153326","0.0-5.0-2.90","5d412a9013864b0015b14b31","bdp_lott","Mon Mar 27 2023 15:49:12 GMT-0500 (Central Daylight Time)","276065","green","red","","","","","","","","","","","135","","","","","","[{""stimulus"":""img/green_ll/1.jpg"",""time"":51},{""stimulus"":""img/green_ll/2.jpg"",""time"":101},{""stimulus"":""img/green_ll/3.jpg"",""time"":150},{""stimulus"":""img/green_ll/4.jpg"",""time"":200},{""stimulus"":""img/green_ll/5.jpg"",""time"":251},{""stimulus"":""img/green_ll/6.jpg"",""time"":302},{""stimulus"":""img/green_ll/7.jpg"",""time"":351},{""stimulus"":""img/green_ll/8.jpg"",""time"":401},{""stimulus"":""img/green_ll/9.jpg"",""time"":451},{""stimulus"":""img/green_ll/10.jpg"",""time"":501},{""stimulus"":""img/green_ll/11.jpg"",""time"":551}]","[]"
"image-keyboard-response","187","153929","0.0-5.0-1.91","5d412a9013864b0015b14b31","bdp_lott","Mon Mar 27 2023 15:49:12 GMT-0500 (Central Daylight Time)","276065","green","red","","","","choice","","","602","","img/green_ll/choose11.jpg","1","134","green","0.5","0.1","0.5","l","",""
"animation","188","154529","0.0-5.0-2.91","5d412a9013864b0015b14b31","bdp_lott","Mon Mar 27 2023 15:49:12 GMT-0500 (Central Daylight Time)","276065","green","red","","","","","","","","","","","134","","","","","","[{""stimulus"":""img/green_ll/1.jpg"",""time"":50},{""stimulus"":""img/green_ll/2.jpg"",""time"":100},{""stimulus"":""img/green_ll/3.jpg"",""time"":151},{""stimulus"":""img/green_ll/4.jpg"",""time"":201},{""stimulus"":""img/green_ll/5.jpg"",""time"":251},{""stimulus"":""img/green_ll/6.jpg"",""time"":300},{""stimulus"":""img/green_ll/7.jpg"",""time"":351},{""stimulus"":""img/green_ll/8.jpg"",""time"":401},{""stimulus"":""img/green_ll/9.jpg"",""time"":451},{""stimulus"":""img/green_ll/10.jpg"",""time"":501},{""stimulus"":""img/green_ll/11.jpg"",""time"":550}]","[]"
"image-keyboard-response","189","154880","0.0-5.0-1.92","5d412a9013864b0015b14b31","bdp_lott","Mon Mar 27 2023 15:49:12 GMT-0500 (Central Daylight Time)","276065","green","red","","","","choice","","","350","","img/green_ll/choose11.jpg","2","133","red","0.5","0.1","0.1","l","",""
