"trial_type","trial_index","time_elapsed","internal_node_id","subject_id","task","startTime","totalTime","fairMachine","unfairMachine","view_history","rt","event","trial","time","trialtype","success","stimulus","key_press","roundsLeft","chosen","pFairMachWin","pUnfairMachWin","pTrialWin","outcome","animation_sequence","responses"
"pavlovia","0","3","0.0-0.0","60761cf3cc35a2a9b127b414","bdp_lott","Sun Mar 26 2023 18:31:42 GMT-0400 (Eastern Daylight Time)","267807","green","red","","","","","","","","","","","","","","","","",""
"instructions","1","2826","0.0-1.0","60761cf3cc35a2a9b127b414","bdp_lott","Sun Mar 26 2023 18:31:42 GMT-0400 (Eastern Daylight Time)","267807","green","red","[{""page_index"":0,""viewing_time"":2823}]","2823","","","","","","","","","","","","","","",""
"","","","","60761cf3cc35a2a9b127b414","bdp_lott","Sun Mar 26 2023 18:31:42 GMT-0400 (Eastern Daylight Time)","267807","green","red","","","fullscreenenter","2","4696","fullscreenenter","","","","","","","","","","",""
"fullscreen","2","5673","0.0-2.0","60761cf3cc35a2a9b127b414","bdp_lott","Sun Mar 26 2023 18:31:42 GMT-0400 (Eastern Daylight Time)","267807","green","red","","","","","","","true","","","","","","","","","",""
"instructions","3","12185","0.0-4.0","60761cf3cc35a2a9b127b414","bdp_lott","Sun Mar 26 2023 18:31:42 GMT-0400 (Eastern Daylight Time)","267807","green","red","[{""page_index"":0,""viewing_time"":6510}]","6510","","","","","","","","","","","","","","",""
"image-keyboard-response","4","16282","0.0-5.0-1.0","60761cf3cc35a2a9b127b414","bdp_lott","Sun Mar 26 2023 18:31:42 GMT-0400 (Eastern Daylight Time)","267807","green","red","","4093","","","","choice","","img/red_ll/initchoose11.jpg","1","225","green","0.5","0.5","0.5","w","",""
"animation","5","16884","0.0-5.0-2.0","60761cf3cc35a2a9b127b414","bdp_lott","Sun Mar 26 2023 18:31:42 GMT-0400 (Eastern Daylight Time)","267807","green","red","","","","","","","","","","225","","","","","","[{""stimulus"":""img/green_wl/1.jpg"",""time"":57},{""stimulus"":""img/green_wl/2.jpg"",""time"":101},{""stimulus"":""img/green_wl/3.jpg"",""time"":151},{""stimulus"":""img/green_wl/4.jpg"",""time"":202},{""stimulus"":""img/green_wl/5.jpg"",""time"":251},{""stimulus"":""img/green_wl/6.jpg"",""time"":301},{""stimulus"":""img/green_wl/7.jpg"",""time"":351},{""stimulus"":""img/green_wl/8.jpg"",""time"":401},{""stimulus"":""img/green_wl/9.jpg"",""time"":451},{""stimulus"":""img/green_wl/10.jpg"",""time"":501},{""stimulus"":""img/green_wl/11.jpg"",""time"":551}]","[]"
"image-keyboard-response","6","19617","0.0-5.0-1.1","60761cf3cc35a2a9b127b414","bdp_lott","Sun Mar 26 2023 18:31:42 GMT-0400 (Eastern Daylight Time)","267807","green","red","","2732","","","","choice","","img/green_wl/choose11.jpg","2","224","red","0.5","0.5","0.5","l","",""
"animation","7","20220","0.0-5.0-2.1","60761cf3cc35a2a9b127b414","bdp_lott","Sun Mar 26 2023 18:31:42 GMT-0400 (Eastern Daylight Time)","267807","green","red","","","","","","","","","","224","","","","","","[{""stimulus"":""img/red_wl/1.jpg"",""time"":53},{""stimulus"":""img/red_wl/2.jpg"",""time"":102},{""stimulus"":""img/red_wl/3.jpg"",""time"":152},{""stimulus"":""img/red_wl/4.jpg"",""time"":211},{""stimulus"":""img/red_wl/5.jpg"",""time"":251},{""stimulus"":""img/red_wl/6.jpg"",""time"":301},{""stimulus"":""img/red_wl/7.jpg"",""time"":351},{""stimulus"":""img/red_wl/8.jpg"",""time"":401},{""stimulus"":""img/red_wl/9.jpg"",""time"":451},{""stimulus"":""img/red_wl/10.jpg"",""time"":501},{""stimulus"":""img/red_wl/11.jpg"",""time"":551}]","[]"
"image-keyboard-response","8","21396","0.0-5.0-1.2","60761cf3cc35a2a9b127b414","bdp_lott","Sun Mar 26 2023 18:31:42 GMT-0400 (Eastern Daylight Time)","267807","green","red","","1174","","","","choice","","img/red_wl/choose11.jpg","2","223","red","0.5","0.5","0.5","w","",""
"animation","9","22004","0.0-5.0-2.2","60761cf3cc35a2a9b127b414","bdp_lott","Sun Mar 26 2023 18:31:42 GMT-0400 (Eastern Daylight Time)","267807","green","red","","","","","","","","","","223","","","","","","[{""stimulus"":""img/red_ww/1.jpg"",""time"":65},{""stimulus"":""img/red_ww/2.jpg"",""time"":101},{""stimulus"":""img/red_ww/3.jpg"",""time"":158},{""stimulus"":""img/red_ww/4.jpg"",""time"":203},{""stimulus"":""img/red_ww/5.jpg"",""time"":250},{""stimulus"":""img/red_ww/6.jpg"",""time"":314},{""stimulus"":""img/red_ww/7.jpg"",""time"":359},{""stimulus"":""img/red_ww/8.jpg"",""time"":407},{""stimulus"":""img/red_ww/9.jpg"",""time"":451},{""stimulus"":""img/red_ww/10.jpg"",""time"":500},{""stimulus"":""img/red_ww/11.jpg"",""time"":550}]","[]"
"image-keyboard-response","10","23129","0.0-5.0-1.3","60761cf3cc35a2a9b127b414","bdp_lott","Sun Mar 26 2023 18:31:42 GMT-0400 (Eastern Daylight Time)","267807","green","red","","1125","","","","choice","","img/red_ww/choose11.jpg","1","222","green","0.5","0.5","0.5","w","",""
"animation","11","23744","0.0-5.0-2.3","60761cf3cc35a2a9b127b414","bdp_lott","Sun Mar 26 2023 18:31:42 GMT-0400 (Eastern Daylight Time)","267807","green","red","","","","","","","","","","222","","","","","","[{""stimulus"":""img/green_ww/1.jpg"",""time"":50},{""stimulus"":""img/green_ww/2.jpg"",""time"":101},{""stimulus"":""img/green_ww/3.jpg"",""time"":151},{""stimulus"":""img/green_ww/4.jpg"",""time"":211},{""stimulus"":""img/green_ww/5.jpg"",""time"":251},{""stimulus"":""img/green_ww/6.jpg"",""time"":301},{""stimulus"":""img/green_ww/7.jpg"",""time"":351},{""stimulus"":""img/green_ww/8.jpg"",""time"":413},{""stimulus"":""img/green_ww/9.jpg"",""time"":460},{""stimulus"":""img/green_ww/10.jpg"",""time"":507},{""stimulus"":""img/green_ww/11.jpg"",""time"":555}]","[]"
"image-keyboard-response","12","25077","0.0-5.0-1.4","60761cf3cc35a2a9b127b414","bdp_lott","Sun Mar 26 2023 18:31:42 GMT-0400 (Eastern Daylight Time)","267807","green","red","","1331","","","","choice","","img/green_ww/choose11.jpg","2","221","red","0.5","0.5","0.5","l","",""
"animation","13","25678","0.0-5.0-2.4","60761cf3cc35a2a9b127b414","bdp_lott","Sun Mar 26 2023 18:31:42 GMT-0400 (Eastern Daylight Time)","267807","green","red","","","","","","","","","","221","","","","","","[{""stimulus"":""img/red_wl/1.jpg"",""time"":64},{""stimulus"":""img/red_wl/2.jpg"",""time"":101},{""stimulus"":""img/red_wl/3.jpg"",""time"":150},{""stimulus"":""img/red_wl/4.jpg"",""time"":205},{""stimulus"":""img/red_wl/5.jpg"",""time"":251},{""stimulus"":""img/red_wl/6.jpg"",""time"":313},{""stimulus"":""img/red_wl/7.jpg"",""time"":351},{""stimulus"":""img/red_wl/8.jpg"",""time"":401},{""stimulus"":""img/red_wl/9.jpg"",""time"":452},{""stimulus"":""img/red_wl/10.jpg"",""time"":514},{""stimulus"":""img/red_wl/11.jpg"",""time"":551}]","[]"
"image-keyboard-response","14","26601","0.0-5.0-1.5","60761cf3cc35a2a9b127b414","bdp_lott","Sun Mar 26 2023 18:31:42 GMT-0400 (Eastern Daylight Time)","267807","green","red","","922","","","","choice","","img/red_wl/choose11.jpg","2","220","red","0.5","0.5","0.5","l","",""
"animation","15","27211","0.0-5.0-2.5","60761cf3cc35a2a9b127b414","bdp_lott","Sun Mar 26 2023 18:31:42 GMT-0400 (Eastern Daylight Time)","267807","green","red","","","","","","","","","","220","","","","","","[{""stimulus"":""img/red_wl/1.jpg"",""time"":52},{""stimulus"":""img/red_wl/2.jpg"",""time"":101},{""stimulus"":""img/red_wl/3.jpg"",""time"":152},{""stimulus"":""img/red_wl/4.jpg"",""time"":202},{""stimulus"":""img/red_wl/5.jpg"",""time"":252},{""stimulus"":""img/red_wl/6.jpg"",""time"":301},{""stimulus"":""img/red_wl/7.jpg"",""time"":351},{""stimulus"":""img/red_wl/8.jpg"",""time"":402},{""stimulus"":""img/red_wl/9.jpg"",""time"":452},{""stimulus"":""img/red_wl/10.jpg"",""time"":502},{""stimulus"":""img/red_wl/11.jpg"",""time"":551}]","[]"
"image-keyboard-response","16","28117","0.0-5.0-1.6","60761cf3cc35a2a9b127b414","bdp_lott","Sun Mar 26 2023 18:31:42 GMT-0400 (Eastern Daylight Time)","267807","green","red","","904","","","","choice","","img/red_wl/choose11.jpg","2","219","red","0.5","0.5","0.5","l","",""
"animation","17","28718","0.0-5.0-2.6","60761cf3cc35a2a9b127b414","bdp_lott","Sun Mar 26 2023 18:31:42 GMT-0400 (Eastern Daylight Time)","267807","green","red","","","","","","","","","","219","","","","","","[{""stimulus"":""img/red_wl/1.jpg"",""time"":52},{""stimulus"":""img/red_wl/2.jpg"",""time"":105},{""stimulus"":""img/red_wl/3.jpg"",""time"":151},{""stimulus"":""img/red_wl/4.jpg"",""time"":214},{""stimulus"":""img/red_wl/5.jpg"",""time"":251},{""stimulus"":""img/red_wl/6.jpg"",""time"":301},{""stimulus"":""img/red_wl/7.jpg"",""time"":350},{""stimulus"":""img/red_wl/8.jpg"",""time"":401},{""stimulus"":""img/red_wl/9.jpg"",""time"":451},{""stimulus"":""img/red_wl/10.jpg"",""time"":501},{""stimulus"":""img/red_wl/11.jpg"",""time"":551}]","[]"
"image-keyboard-response","18","29518","0.0-5.0-1.7","60761cf3cc35a2a9b127b414","bdp_lott","Sun Mar 26 2023 18:31:42 GMT-0400 (Eastern Daylight Time)","267807","green","red","","799","","","","choice","","img/red_wl/choose11.jpg","2","218","red","0.5","0.5","0.5","w","",""
"animation","19","30120","0.0-5.0-2.7","60761cf3cc35a2a9b127b414","bdp_lott","Sun Mar 26 2023 18:31:42 GMT-0400 (Eastern Daylight Time)","267807","green","red","","","","","","","","","","218","","","","","","[{""stimulus"":""img/red_ww/1.jpg"",""time"":52},{""stimulus"":""img/red_ww/2.jpg"",""time"":101},{""stimulus"":""img/red_ww/3.jpg"",""time"":152},{""stimulus"":""img/red_ww/4.jpg"",""time"":201},{""stimulus"":""img/red_ww/5.jpg"",""time"":253},{""stimulus"":""img/red_ww/6.jpg"",""time"":301},{""stimulus"":""img/red_ww/7.jpg"",""time"":352},{""stimulus"":""img/red_ww/8.jpg"",""time"":401},{""stimulus"":""img/red_ww/9.jpg"",""time"":451},{""stimulus"":""img/red_ww/10.jpg"",""time"":501},{""stimulus"":""img/red_ww/11.jpg"",""time"":551}]","[]"
"image-keyboard-response","20","31069","0.0-5.0-1.8","60761cf3cc35a2a9b127b414","bdp_lott","Sun Mar 26 2023 18:31:42 GMT-0400 (Eastern Daylight Time)","267807","green","red","","949","","","","choice","","img/red_ww/choose11.jpg","1","217","green","0.5","0.5","0.5","w","",""
"animation","21","31671","0.0-5.0-2.8","60761cf3cc35a2a9b127b414","bdp_lott","Sun Mar 26 2023 18:31:42 GMT-0400 (Eastern Daylight Time)","267807","green","red","","","","","","","","","","217","","","","","","[{""stimulus"":""img/green_ww/1.jpg"",""time"":51},{""stimulus"":""img/green_ww/2.jpg"",""time"":115},{""stimulus"":""img/green_ww/3.jpg"",""time"":152},{""stimulus"":""img/green_ww/4.jpg"",""time"":201},{""stimulus"":""img/green_ww/5.jpg"",""time"":251},{""stimulus"":""img/green_ww/6.jpg"",""time"":301},{""stimulus"":""img/green_ww/7.jpg"",""time"":350},{""stimulus"":""img/green_ww/8.jpg"",""time"":401},{""stimulus"":""img/green_ww/9.jpg"",""time"":451},{""stimulus"":""img/green_ww/10.jpg"",""time"":501},{""stimulus"":""img/green_ww/11.jpg"",""time"":552}]","[]"
"image-keyboard-response","22","32332","0.0-5.0-1.9","60761cf3cc35a2a9b127b414","bdp_lott","Sun Mar 26 2023 18:31:42 GMT-0400 (Eastern Daylight Time)","267807","green","red","","659","","","","choice","","img/green_ww/choose11.jpg","1","216","green","0.5","0.5","0.5","l","",""
"animation","23","32933","0.0-5.0-2.9","60761cf3cc35a2a9b127b414","bdp_lott","Sun Mar 26 2023 18:31:42 GMT-0400 (Eastern Daylight Time)","267807","green","red","","","","","","","","","","216","","","","","","[{""stimulus"":""img/green_lw/1.jpg"",""time"":51},{""stimulus"":""img/green_lw/2.jpg"",""time"":101},{""stimulus"":""img/green_lw/3.jpg"",""time"":151},{""stimulus"":""img/green_lw/4.jpg"",""time"":201},{""stimulus"":""img/green_lw/5.jpg"",""time"":251},{""stimulus"":""img/green_lw/6.jpg"",""time"":300},{""stimulus"":""img/green_lw/7.jpg"",""time"":351},{""stimulus"":""img/green_lw/8.jpg"",""time"":401},{""stimulus"":""img/green_lw/9.jpg"",""time"":451},{""stimulus"":""img/green_lw/10.jpg"",""time"":501},{""stimulus"":""img/green_lw/11.jpg"",""time"":551}]","[]"
"image-keyboard-response","24","33905","0.0-5.0-1.10","60761cf3cc35a2a9b127b414","bdp_lott","Sun Mar 26 2023 18:31:42 GMT-0400 (Eastern Daylight Time)","267807","green","red","","972","","","","choice","","img/green_lw/choose11.jpg","1","215","green","0.5","0.5","0.5","w","",""
"animation","25","34505","0.0-5.0-2.10","60761cf3cc35a2a9b127b414","bdp_lott","Sun Mar 26 2023 18:31:42 GMT-0400 (Eastern Daylight Time)","267807","green","red","","","","","","","","","","215","","","","","","[{""stimulus"":""img/green_ww/1.jpg"",""time"":51},{""stimulus"":""img/green_ww/2.jpg"",""time"":101},{""stimulus"":""img/green_ww/3.jpg"",""time"":152},{""stimulus"":""img/green_ww/4.jpg"",""time"":203},{""stimulus"":""img/green_ww/5.jpg"",""time"":252},{""stimulus"":""img/green_ww/6.jpg"",""time"":301},{""stimulus"":""img/green_ww/7.jpg"",""time"":352},{""stimulus"":""img/green_ww/8.jpg"",""time"":401},{""stimulus"":""img/green_ww/9.jpg"",""time"":451},{""stimulus"":""img/green_ww/10.jpg"",""time"":502},{""stimulus"":""img/green_ww/11.jpg"",""time"":551}]","[]"
"image-keyboard-response","26","35158","0.0-5.0-1.11","60761cf3cc35a2a9b127b414","bdp_lott","Sun Mar 26 2023 18:31:42 GMT-0400 (Eastern Daylight Time)","267807","green","red","","652","","","","choice","","img/green_ww/choose11.jpg","2","214","red","0.5","0.5","0.5","l","",""
"animation","27","35759","0.0-5.0-2.11","60761cf3cc35a2a9b127b414","bdp_lott","Sun Mar 26 2023 18:31:42 GMT-0400 (Eastern Daylight Time)","267807","green","red","","","","","","","","","","214","","","","","","[{""stimulus"":""img/red_wl/1.jpg"",""time"":52},{""stimulus"":""img/red_wl/2.jpg"",""time"":101},{""stimulus"":""img/red_wl/3.jpg"",""time"":151},{""stimulus"":""img/red_wl/4.jpg"",""time"":201},{""stimulus"":""img/red_wl/5.jpg"",""time"":252},{""stimulus"":""img/red_wl/6.jpg"",""time"":301},{""stimulus"":""img/red_wl/7.jpg"",""time"":352},{""stimulus"":""img/red_wl/8.jpg"",""time"":402},{""stimulus"":""img/red_wl/9.jpg"",""time"":451},{""stimulus"":""img/red_wl/10.jpg"",""time"":501},{""stimulus"":""img/red_wl/11.jpg"",""time"":551}]","[]"
"image-keyboard-response","28","36528","0.0-5.0-1.12","60761cf3cc35a2a9b127b414","bdp_lott","Sun Mar 26 2023 18:31:42 GMT-0400 (Eastern Daylight Time)","267807","green","red","","768","","","","choice","","img/red_wl/choose11.jpg","2","213","red","0.5","0.5","0.5","l","",""
"animation","29","37129","0.0-5.0-2.12","60761cf3cc35a2a9b127b414","bdp_lott","Sun Mar 26 2023 18:31:42 GMT-0400 (Eastern Daylight Time)","267807","green","red","","","","","","","","","","213","","","","","","[{""stimulus"":""img/red_wl/1.jpg"",""time"":51},{""stimulus"":""img/red_wl/2.jpg"",""time"":101},{""stimulus"":""img/red_wl/3.jpg"",""time"":151},{""stimulus"":""img/red_wl/4.jpg"",""time"":201},{""stimulus"":""img/red_wl/5.jpg"",""time"":251},{""stimulus"":""img/red_wl/6.jpg"",""time"":301},{""stimulus"":""img/red_wl/7.jpg"",""time"":351},{""stimulus"":""img/red_wl/8.jpg"",""time"":402},{""stimulus"":""img/red_wl/9.jpg"",""time"":451},{""stimulus"":""img/red_wl/10.jpg"",""time"":501},{""stimulus"":""img/red_wl/11.jpg"",""time"":551}]","[]"
"image-keyboard-response","30","37542","0.0-5.0-1.13","60761cf3cc35a2a9b127b414","bdp_lott","Sun Mar 26 2023 18:31:42 GMT-0400 (Eastern Daylight Time)","267807","green","red","","412","","","","choice","","img/red_wl/choose11.jpg","2","212","red","0.5","0.5","0.5","w","",""
"animation","31","38144","0.0-5.0-2.13","60761cf3cc35a2a9b127b414","bdp_lott","Sun Mar 26 2023 18:31:42 GMT-0400 (Eastern Daylight Time)","267807","green","red","","","","","","","","","","212","","","","","","[{""stimulus"":""img/red_ww/1.jpg"",""time"":51},{""stimulus"":""img/red_ww/2.jpg"",""time"":101},{""stimulus"":""img/red_ww/3.jpg"",""time"":151},{""stimulus"":""img/red_ww/4.jpg"",""time"":201},{""stimulus"":""img/red_ww/5.jpg"",""time"":251},{""stimulus"":""img/red_ww/6.jpg"",""time"":301},{""stimulus"":""img/red_ww/7.jpg"",""time"":352},{""stimulus"":""img/red_ww/8.jpg"",""time"":402},{""stimulus"":""img/red_ww/9.jpg"",""time"":451},{""stimulus"":""img/red_ww/10.jpg"",""time"":501},{""stimulus"":""img/red_ww/11.jpg"",""time"":551}]","[]"
"image-keyboard-response","32","38964","0.0-5.0-1.14","60761cf3cc35a2a9b127b414","bdp_lott","Sun Mar 26 2023 18:31:42 GMT-0400 (Eastern Daylight Time)","267807","green","red","","820","","","","choice","","img/red_ww/choose11.jpg","1","211","green","0.5","0.5","0.5","l","",""
"animation","33","39565","0.0-5.0-2.14","60761cf3cc35a2a9b127b414","bdp_lott","Sun Mar 26 2023 18:31:42 GMT-0400 (Eastern Daylight Time)","267807","green","red","","","","","","","","","","211","","","","","","[{""stimulus"":""img/green_lw/1.jpg"",""time"":52},{""stimulus"":""img/green_lw/2.jpg"",""time"":101},{""stimulus"":""img/green_lw/3.jpg"",""time"":152},{""stimulus"":""img/green_lw/4.jpg"",""time"":201},{""stimulus"":""img/green_lw/5.jpg"",""time"":251},{""stimulus"":""img/green_lw/6.jpg"",""time"":301},{""stimulus"":""img/green_lw/7.jpg"",""time"":351},{""stimulus"":""img/green_lw/8.jpg"",""time"":402},{""stimulus"":""img/green_lw/9.jpg"",""time"":452},{""stimulus"":""img/green_lw/10.jpg"",""time"":502},{""stimulus"":""img/green_lw/11.jpg"",""time"":552}]","[]"
"image-keyboard-response","34","40199","0.0-5.0-1.15","60761cf3cc35a2a9b127b414","bdp_lott","Sun Mar 26 2023 18:31:42 GMT-0400 (Eastern Daylight Time)","267807","green","red","","634","","","","choice","","img/green_lw/choose11.jpg","1","210","green","0.5","0.5","0.5","w","",""
"animation","35","40800","0.0-5.0-2.15","60761cf3cc35a2a9b127b414","bdp_lott","Sun Mar 26 2023 18:31:42 GMT-0400 (Eastern Daylight Time)","267807","green","red","","","","","","","","","","210","","","","","","[{""stimulus"":""img/green_ww/1.jpg"",""time"":52},{""stimulus"":""img/green_ww/2.jpg"",""time"":101},{""stimulus"":""img/green_ww/3.jpg"",""time"":152},{""stimulus"":""img/green_ww/4.jpg"",""time"":201},{""stimulus"":""img/green_ww/5.jpg"",""time"":251},{""stimulus"":""img/green_ww/6.jpg"",""time"":302},{""stimulus"":""img/green_ww/7.jpg"",""time"":352},{""stimulus"":""img/green_ww/8.jpg"",""time"":401},{""stimulus"":""img/green_ww/9.jpg"",""time"":451},{""stimulus"":""img/green_ww/10.jpg"",""time"":501},{""stimulus"":""img/green_ww/11.jpg"",""time"":551}]","[]"
"image-keyboard-response","36","41397","0.0-5.0-1.16","60761cf3cc35a2a9b127b414","bdp_lott","Sun Mar 26 2023 18:31:42 GMT-0400 (Eastern Daylight Time)","267807","green","red","","596","","","","choice","","img/green_ww/choose11.jpg","2","209","red","0.5","0.5","0.5","w","",""
"animation","37","41998","0.0-5.0-2.16","60761cf3cc35a2a9b127b414","bdp_lott","Sun Mar 26 2023 18:31:42 GMT-0400 (Eastern Daylight Time)","267807","green","red","","","","","","","","","","209","","","","","","[{""stimulus"":""img/red_ww/1.jpg"",""time"":51},{""stimulus"":""img/red_ww/2.jpg"",""time"":101},{""stimulus"":""img/red_ww/3.jpg"",""time"":151},{""stimulus"":""img/red_ww/4.jpg"",""time"":201},{""stimulus"":""img/red_ww/5.jpg"",""time"":251},{""stimulus"":""img/red_ww/6.jpg"",""time"":301},{""stimulus"":""img/red_ww/7.jpg"",""time"":351},{""stimulus"":""img/red_ww/8.jpg"",""time"":401},{""stimulus"":""img/red_ww/9.jpg"",""time"":451},{""stimulus"":""img/red_ww/10.jpg"",""time"":501},{""stimulus"":""img/red_ww/11.jpg"",""time"":551}]","[]"
"image-keyboard-response","38","42917","0.0-5.0-1.17","60761cf3cc35a2a9b127b414","bdp_lott","Sun Mar 26 2023 18:31:42 GMT-0400 (Eastern Daylight Time)","267807","green","red","","918","","","","choice","","img/red_ww/choose11.jpg","1","208","green","0.5","0.5","0.5","w","",""
"animation","39","43518","0.0-5.0-2.17","60761cf3cc35a2a9b127b414","bdp_lott","Sun Mar 26 2023 18:31:42 GMT-0400 (Eastern Daylight Time)","267807","green","red","","","","","","","","","","208","","","","","","[{""stimulus"":""img/green_ww/1.jpg"",""time"":51},{""stimulus"":""img/green_ww/2.jpg"",""time"":101},{""stimulus"":""img/green_ww/3.jpg"",""time"":152},{""stimulus"":""img/green_ww/4.jpg"",""time"":202},{""stimulus"":""img/green_ww/5.jpg"",""time"":251},{""stimulus"":""img/green_ww/6.jpg"",""time"":302},{""stimulus"":""img/green_ww/7.jpg"",""time"":351},{""stimulus"":""img/green_ww/8.jpg"",""time"":401},{""stimulus"":""img/green_ww/9.jpg"",""time"":451},{""stimulus"":""img/green_ww/10.jpg"",""time"":502},{""stimulus"":""img/green_ww/11.jpg"",""time"":552}]","[]"
"image-keyboard-response","40","44261","0.0-5.0-1.18","60761cf3cc35a2a9b127b414","bdp_lott","Sun Mar 26 2023 18:31:42 GMT-0400 (Eastern Daylight Time)","267807","green","red","","742","","","","choice","","img/green_ww/choose11.jpg","2","207","red","0.5","0.5","0.5","l","",""
"animation","41","44862","0.0-5.0-2.18","60761cf3cc35a2a9b127b414","bdp_lott","Sun Mar 26 2023 18:31:42 GMT-0400 (Eastern Daylight Time)","267807","green","red","","","","","","","","","","207","","","","","","[{""stimulus"":""img/red_wl/1.jpg"",""time"":51},{""stimulus"":""img/red_wl/2.jpg"",""time"":100},{""stimulus"":""img/red_wl/3.jpg"",""time"":150},{""stimulus"":""img/red_wl/4.jpg"",""time"":200},{""stimulus"":""img/red_wl/5.jpg"",""time"":250},{""stimulus"":""img/red_wl/6.jpg"",""time"":300},{""stimulus"":""img/red_wl/7.jpg"",""time"":351},{""stimulus"":""img/red_wl/8.jpg"",""time"":400},{""stimulus"":""img/red_wl/9.jpg"",""time"":450},{""stimulus"":""img/red_wl/10.jpg"",""time"":500},{""stimulus"":""img/red_wl/11.jpg"",""time"":551}]","[]"
"image-keyboard-response","42","45607","0.0-5.0-1.19","60761cf3cc35a2a9b127b414","bdp_lott","Sun Mar 26 2023 18:31:42 GMT-0400 (Eastern Daylight Time)","267807","green","red","","743","","","","choice","","img/red_wl/choose11.jpg","2","206","red","0.5","0.5","0.5","w","",""
"animation","43","46207","0.0-5.0-2.19","60761cf3cc35a2a9b127b414","bdp_lott","Sun Mar 26 2023 18:31:42 GMT-0400 (Eastern Daylight Time)","267807","green","red","","","","","","","","","","206","","","","","","[{""stimulus"":""img/red_ww/1.jpg"",""time"":52},{""stimulus"":""img/red_ww/2.jpg"",""time"":101},{""stimulus"":""img/red_ww/3.jpg"",""time"":150},{""stimulus"":""img/red_ww/4.jpg"",""time"":202},{""stimulus"":""img/red_ww/5.jpg"",""time"":252},{""stimulus"":""img/red_ww/6.jpg"",""time"":301},{""stimulus"":""img/red_ww/7.jpg"",""time"":351},{""stimulus"":""img/red_ww/8.jpg"",""time"":401},{""stimulus"":""img/red_ww/9.jpg"",""time"":451},{""stimulus"":""img/red_ww/10.jpg"",""time"":501},{""stimulus"":""img/red_ww/11.jpg"",""time"":551}]","[]"
"image-keyboard-response","44","46892","0.0-5.0-1.20","60761cf3cc35a2a9b127b414","bdp_lott","Sun Mar 26 2023 18:31:42 GMT-0400 (Eastern Daylight Time)","267807","green","red","","684","","","","choice","","img/red_ww/choose11.jpg","1","205","green","0.5","0.5","0.5","w","",""
"animation","45","47493","0.0-5.0-2.20","60761cf3cc35a2a9b127b414","bdp_lott","Sun Mar 26 2023 18:31:42 GMT-0400 (Eastern Daylight Time)","267807","green","red","","","","","","","","","","205","","","","","","[{""stimulus"":""img/green_ww/1.jpg"",""time"":51},{""stimulus"":""img/green_ww/2.jpg"",""time"":102},{""stimulus"":""img/green_ww/3.jpg"",""time"":152},{""stimulus"":""img/green_ww/4.jpg"",""time"":201},{""stimulus"":""img/green_ww/5.jpg"",""time"":252},{""stimulus"":""img/green_ww/6.jpg"",""time"":301},{""stimulus"":""img/green_ww/7.jpg"",""time"":351},{""stimulus"":""img/green_ww/8.jpg"",""time"":401},{""stimulus"":""img/green_ww/9.jpg"",""time"":451},{""stimulus"":""img/green_ww/10.jpg"",""time"":501},{""stimulus"":""img/green_ww/11.jpg"",""time"":551}]","[]"
"image-keyboard-response","46","48301","0.0-5.0-1.21","60761cf3cc35a2a9b127b414","bdp_lott","Sun Mar 26 2023 18:31:42 GMT-0400 (Eastern Daylight Time)","267807","green","red","","807","","","","choice","","img/green_ww/choose11.jpg","2","204","red","0.5","0.5","0.5","w","",""
"animation","47","48902","0.0-5.0-2.21","60761cf3cc35a2a9b127b414","bdp_lott","Sun Mar 26 2023 18:31:42 GMT-0400 (Eastern Daylight Time)","267807","green","red","","","","","","","","","","204","","","","","","[{""stimulus"":""img/red_ww/1.jpg"",""time"":52},{""stimulus"":""img/red_ww/2.jpg"",""time"":101},{""stimulus"":""img/red_ww/3.jpg"",""time"":151},{""stimulus"":""img/red_ww/4.jpg"",""time"":201},{""stimulus"":""img/red_ww/5.jpg"",""time"":251},{""stimulus"":""img/red_ww/6.jpg"",""time"":302},{""stimulus"":""img/red_ww/7.jpg"",""time"":351},{""stimulus"":""img/red_ww/8.jpg"",""time"":402},{""stimulus"":""img/red_ww/9.jpg"",""time"":451},{""stimulus"":""img/red_ww/10.jpg"",""time"":501},{""stimulus"":""img/red_ww/11.jpg"",""time"":551}]","[]"
"image-keyboard-response","48","49569","0.0-5.0-1.22","60761cf3cc35a2a9b127b414","bdp_lott","Sun Mar 26 2023 18:31:42 GMT-0400 (Eastern Daylight Time)","267807","green","red","","667","","","","choice","","img/red_ww/choose11.jpg","1","203","green","0.5","0.5","0.5","l","",""
"animation","49","50169","0.0-5.0-2.22","60761cf3cc35a2a9b127b414","bdp_lott","Sun Mar 26 2023 18:31:42 GMT-0400 (Eastern Daylight Time)","267807","green","red","","","","","","","","","","203","","","","","","[{""stimulus"":""img/green_lw/1.jpg"",""time"":51},{""stimulus"":""img/green_lw/2.jpg"",""time"":101},{""stimulus"":""img/green_lw/3.jpg"",""time"":150},{""stimulus"":""img/green_lw/4.jpg"",""time"":201},{""stimulus"":""img/green_lw/5.jpg"",""time"":251},{""stimulus"":""img/green_lw/6.jpg"",""time"":300},{""stimulus"":""img/green_lw/7.jpg"",""time"":351},{""stimulus"":""img/green_lw/8.jpg"",""time"":401},{""stimulus"":""img/green_lw/9.jpg"",""time"":450},{""stimulus"":""img/green_lw/10.jpg"",""time"":501},{""stimulus"":""img/green_lw/11.jpg"",""time"":552}]","[]"
"image-keyboard-response","50","50980","0.0-5.0-1.23","60761cf3cc35a2a9b127b414","bdp_lott","Sun Mar 26 2023 18:31:42 GMT-0400 (Eastern Daylight Time)","267807","green","red","","810","","","","choice","","img/green_lw/choose11.jpg","1","202","green","0.5","0.5","0.5","w","",""
"animation","51","51581","0.0-5.0-2.23","60761cf3cc35a2a9b127b414","bdp_lott","Sun Mar 26 2023 18:31:42 GMT-0400 (Eastern Daylight Time)","267807","green","red","","","","","","","","","","202","","","","","","[{""stimulus"":""img/green_ww/1.jpg"",""time"":52},{""stimulus"":""img/green_ww/2.jpg"",""time"":101},{""stimulus"":""img/green_ww/3.jpg"",""time"":151},{""stimulus"":""img/green_ww/4.jpg"",""time"":201},{""stimulus"":""img/green_ww/5.jpg"",""time"":251},{""stimulus"":""img/green_ww/6.jpg"",""time"":301},{""stimulus"":""img/green_ww/7.jpg"",""time"":350},{""stimulus"":""img/green_ww/8.jpg"",""time"":401},{""stimulus"":""img/green_ww/9.jpg"",""time"":451},{""stimulus"":""img/green_ww/10.jpg"",""time"":503},{""stimulus"":""img/green_ww/11.jpg"",""time"":550}]","[]"
"image-keyboard-response","52","52156","0.0-5.0-1.24","60761cf3cc35a2a9b127b414","bdp_lott","Sun Mar 26 2023 18:31:42 GMT-0400 (Eastern Daylight Time)","267807","green","red","","573","","","","choice","","img/green_ww/choose11.jpg","2","201","red","0.5","0.5","0.5","l","",""
"animation","53","52757","0.0-5.0-2.24","60761cf3cc35a2a9b127b414","bdp_lott","Sun Mar 26 2023 18:31:42 GMT-0400 (Eastern Daylight Time)","267807","green","red","","","","","","","","","","201","","","","","","[{""stimulus"":""img/red_wl/1.jpg"",""time"":50},{""stimulus"":""img/red_wl/2.jpg"",""time"":101},{""stimulus"":""img/red_wl/3.jpg"",""time"":152},{""stimulus"":""img/red_wl/4.jpg"",""time"":200},{""stimulus"":""img/red_wl/5.jpg"",""time"":250},{""stimulus"":""img/red_wl/6.jpg"",""time"":301},{""stimulus"":""img/red_wl/7.jpg"",""time"":351},{""stimulus"":""img/red_wl/8.jpg"",""time"":400},{""stimulus"":""img/red_wl/9.jpg"",""time"":451},{""stimulus"":""img/red_wl/10.jpg"",""time"":501},{""stimulus"":""img/red_wl/11.jpg"",""time"":551}]","[]"
"image-keyboard-response","54","53402","0.0-5.0-1.25","60761cf3cc35a2a9b127b414","bdp_lott","Sun Mar 26 2023 18:31:42 GMT-0400 (Eastern Daylight Time)","267807","green","red","","644","","","","choice","","img/red_wl/choose11.jpg","2","200","red","0.5","0.5","0.5","w","",""
"animation","55","54003","0.0-5.0-2.25","60761cf3cc35a2a9b127b414","bdp_lott","Sun Mar 26 2023 18:31:42 GMT-0400 (Eastern Daylight Time)","267807","green","red","","","","","","","","","","200","","","","","","[{""stimulus"":""img/red_ww/1.jpg"",""time"":51},{""stimulus"":""img/red_ww/2.jpg"",""time"":102},{""stimulus"":""img/red_ww/3.jpg"",""time"":151},{""stimulus"":""img/red_ww/4.jpg"",""time"":201},{""stimulus"":""img/red_ww/5.jpg"",""time"":251},{""stimulus"":""img/red_ww/6.jpg"",""time"":301},{""stimulus"":""img/red_ww/7.jpg"",""time"":352},{""stimulus"":""img/red_ww/8.jpg"",""time"":402},{""stimulus"":""img/red_ww/9.jpg"",""time"":451},{""stimulus"":""img/red_ww/10.jpg"",""time"":501},{""stimulus"":""img/red_ww/11.jpg"",""time"":551}]","[]"
"image-keyboard-response","56","54648","0.0-5.0-1.26","60761cf3cc35a2a9b127b414","bdp_lott","Sun Mar 26 2023 18:31:42 GMT-0400 (Eastern Daylight Time)","267807","green","red","","644","","","","choice","","img/red_ww/choose11.jpg","1","199","green","0.5","0.5","0.5","l","",""
"animation","57","55249","0.0-5.0-2.26","60761cf3cc35a2a9b127b414","bdp_lott","Sun Mar 26 2023 18:31:42 GMT-0400 (Eastern Daylight Time)","267807","green","red","","","","","","","","","","199","","","","","","[{""stimulus"":""img/green_lw/1.jpg"",""time"":52},{""stimulus"":""img/green_lw/2.jpg"",""time"":102},{""stimulus"":""img/green_lw/3.jpg"",""time"":151},{""stimulus"":""img/green_lw/4.jpg"",""time"":202},{""stimulus"":""img/green_lw/5.jpg"",""time"":251},{""stimulus"":""img/green_lw/6.jpg"",""time"":302},{""stimulus"":""img/green_lw/7.jpg"",""time"":351},{""stimulus"":""img/green_lw/8.jpg"",""time"":401},{""stimulus"":""img/green_lw/9.jpg"",""time"":452},{""stimulus"":""img/green_lw/10.jpg"",""time"":502},{""stimulus"":""img/green_lw/11.jpg"",""time"":552}]","[]"
"image-keyboard-response","58","55966","0.0-5.0-1.27","60761cf3cc35a2a9b127b414","bdp_lott","Sun Mar 26 2023 18:31:42 GMT-0400 (Eastern Daylight Time)","267807","green","red","","716","","","","choice","","img/green_lw/choose11.jpg","1","198","green","0.5","0.5","0.5","l","",""
"animation","59","56567","0.0-5.0-2.27","60761cf3cc35a2a9b127b414","bdp_lott","Sun Mar 26 2023 18:31:42 GMT-0400 (Eastern Daylight Time)","267807","green","red","","","","","","","","","","198","","","","","","[{""stimulus"":""img/green_lw/1.jpg"",""time"":51},{""stimulus"":""img/green_lw/2.jpg"",""time"":101},{""stimulus"":""img/green_lw/3.jpg"",""time"":152},{""stimulus"":""img/green_lw/4.jpg"",""time"":201},{""stimulus"":""img/green_lw/5.jpg"",""time"":253},{""stimulus"":""img/green_lw/6.jpg"",""time"":301},{""stimulus"":""img/green_lw/7.jpg"",""time"":352},{""stimulus"":""img/green_lw/8.jpg"",""time"":403},{""stimulus"":""img/green_lw/9.jpg"",""time"":451},{""stimulus"":""img/green_lw/10.jpg"",""time"":501},{""stimulus"":""img/green_lw/11.jpg"",""time"":551}]","[]"
"image-keyboard-response","60","57049","0.0-5.0-1.28","60761cf3cc35a2a9b127b414","bdp_lott","Sun Mar 26 2023 18:31:42 GMT-0400 (Eastern Daylight Time)","267807","green","red","","482","","","","choice","","img/green_lw/choose11.jpg","1","197","green","0.5","0.5","0.5","w","",""
"animation","61","57650","0.0-5.0-2.28","60761cf3cc35a2a9b127b414","bdp_lott","Sun Mar 26 2023 18:31:42 GMT-0400 (Eastern Daylight Time)","267807","green","red","","","","","","","","","","197","","","","","","[{""stimulus"":""img/green_ww/1.jpg"",""time"":52},{""stimulus"":""img/green_ww/2.jpg"",""time"":100},{""stimulus"":""img/green_ww/3.jpg"",""time"":151},{""stimulus"":""img/green_ww/4.jpg"",""time"":201},{""stimulus"":""img/green_ww/5.jpg"",""time"":251},{""stimulus"":""img/green_ww/6.jpg"",""time"":301},{""stimulus"":""img/green_ww/7.jpg"",""time"":350},{""stimulus"":""img/green_ww/8.jpg"",""time"":400},{""stimulus"":""img/green_ww/9.jpg"",""time"":450},{""stimulus"":""img/green_ww/10.jpg"",""time"":501},{""stimulus"":""img/green_ww/11.jpg"",""time"":550}]","[]"
"image-keyboard-response","62","58149","0.0-5.0-1.29","60761cf3cc35a2a9b127b414","bdp_lott","Sun Mar 26 2023 18:31:42 GMT-0400 (Eastern Daylight Time)","267807","green","red","","499","","","","choice","","img/green_ww/choose11.jpg","2","196","red","0.5","0.5","0.5","l","",""
"animation","63","58750","0.0-5.0-2.29","60761cf3cc35a2a9b127b414","bdp_lott","Sun Mar 26 2023 18:31:42 GMT-0400 (Eastern Daylight Time)","267807","green","red","","","","","","","","","","196","","","","","","[{""stimulus"":""img/red_wl/1.jpg"",""time"":52},{""stimulus"":""img/red_wl/2.jpg"",""time"":102},{""stimulus"":""img/red_wl/3.jpg"",""time"":151},{""stimulus"":""img/red_wl/4.jpg"",""time"":202},{""stimulus"":""img/red_wl/5.jpg"",""time"":252},{""stimulus"":""img/red_wl/6.jpg"",""time"":302},{""stimulus"":""img/red_wl/7.jpg"",""time"":352},{""stimulus"":""img/red_wl/8.jpg"",""time"":402},{""stimulus"":""img/red_wl/9.jpg"",""time"":452},{""stimulus"":""img/red_wl/10.jpg"",""time"":502},{""stimulus"":""img/red_wl/11.jpg"",""time"":552}]","[]"
"image-keyboard-response","64","59401","0.0-5.0-1.30","60761cf3cc35a2a9b127b414","bdp_lott","Sun Mar 26 2023 18:31:42 GMT-0400 (Eastern Daylight Time)","267807","green","red","","651","","","","choice","","img/red_wl/choose11.jpg","2","195","red","0.5","0.5","0.5","l","",""
"animation","65","60002","0.0-5.0-2.30","60761cf3cc35a2a9b127b414","bdp_lott","Sun Mar 26 2023 18:31:42 GMT-0400 (Eastern Daylight Time)","267807","green","red","","","","","","","","","","195","","","","","","[{""stimulus"":""img/red_wl/1.jpg"",""time"":52},{""stimulus"":""img/red_wl/2.jpg"",""time"":101},{""stimulus"":""img/red_wl/3.jpg"",""time"":150},{""stimulus"":""img/red_wl/4.jpg"",""time"":201},{""stimulus"":""img/red_wl/5.jpg"",""time"":250},{""stimulus"":""img/red_wl/6.jpg"",""time"":300},{""stimulus"":""img/red_wl/7.jpg"",""time"":351},{""stimulus"":""img/red_wl/8.jpg"",""time"":402},{""stimulus"":""img/red_wl/9.jpg"",""time"":451},{""stimulus"":""img/red_wl/10.jpg"",""time"":501},{""stimulus"":""img/red_wl/11.jpg"",""time"":551}]","[]"
"image-keyboard-response","66","60358","0.0-5.0-1.31","60761cf3cc35a2a9b127b414","bdp_lott","Sun Mar 26 2023 18:31:42 GMT-0400 (Eastern Daylight Time)","267807","green","red","","355","","","","choice","","img/red_wl/choose11.jpg","2","194","red","0.5","0.5","0.5","l","",""
"animation","67","60959","0.0-5.0-2.31","60761cf3cc35a2a9b127b414","bdp_lott","Sun Mar 26 2023 18:31:42 GMT-0400 (Eastern Daylight Time)","267807","green","red","","","","","","","","","","194","","","","","","[{""stimulus"":""img/red_wl/1.jpg"",""time"":52},{""stimulus"":""img/red_wl/2.jpg"",""time"":102},{""stimulus"":""img/red_wl/3.jpg"",""time"":151},{""stimulus"":""img/red_wl/4.jpg"",""time"":201},{""stimulus"":""img/red_wl/5.jpg"",""time"":252},{""stimulus"":""img/red_wl/6.jpg"",""time"":301},{""stimulus"":""img/red_wl/7.jpg"",""time"":352},{""stimulus"":""img/red_wl/8.jpg"",""time"":402},{""stimulus"":""img/red_wl/9.jpg"",""time"":452},{""stimulus"":""img/red_wl/10.jpg"",""time"":501},{""stimulus"":""img/red_wl/11.jpg"",""time"":552}]","[]"
"image-keyboard-response","68","61415","0.0-5.0-1.32","60761cf3cc35a2a9b127b414","bdp_lott","Sun Mar 26 2023 18:31:42 GMT-0400 (Eastern Daylight Time)","267807","green","red","","456","","","","choice","","img/red_wl/choose11.jpg","2","193","red","0.5","0.5","0.5","w","",""
"animation","69","62016","0.0-5.0-2.32","60761cf3cc35a2a9b127b414","bdp_lott","Sun Mar 26 2023 18:31:42 GMT-0400 (Eastern Daylight Time)","267807","green","red","","","","","","","","","","193","","","","","","[{""stimulus"":""img/red_ww/1.jpg"",""time"":51},{""stimulus"":""img/red_ww/2.jpg"",""time"":101},{""stimulus"":""img/red_ww/3.jpg"",""time"":151},{""stimulus"":""img/red_ww/4.jpg"",""time"":202},{""stimulus"":""img/red_ww/5.jpg"",""time"":252},{""stimulus"":""img/red_ww/6.jpg"",""time"":302},{""stimulus"":""img/red_ww/7.jpg"",""time"":351},{""stimulus"":""img/red_ww/8.jpg"",""time"":401},{""stimulus"":""img/red_ww/9.jpg"",""time"":452},{""stimulus"":""img/red_ww/10.jpg"",""time"":501},{""stimulus"":""img/red_ww/11.jpg"",""time"":552}]","[]"
"image-keyboard-response","70","62696","0.0-5.0-1.33","60761cf3cc35a2a9b127b414","bdp_lott","Sun Mar 26 2023 18:31:42 GMT-0400 (Eastern Daylight Time)","267807","green","red","","679","","","","choice","","img/red_ww/choose11.jpg","1","192","green","0.5","0.5","0.5","l","",""
"animation","71","63298","0.0-5.0-2.33","60761cf3cc35a2a9b127b414","bdp_lott","Sun Mar 26 2023 18:31:42 GMT-0400 (Eastern Daylight Time)","267807","green","red","","","","","","","","","","192","","","","","","[{""stimulus"":""img/green_lw/1.jpg"",""time"":52},{""stimulus"":""img/green_lw/2.jpg"",""time"":102},{""stimulus"":""img/green_lw/3.jpg"",""time"":151},{""stimulus"":""img/green_lw/4.jpg"",""time"":202},{""stimulus"":""img/green_lw/5.jpg"",""time"":251},{""stimulus"":""img/green_lw/6.jpg"",""time"":302},{""stimulus"":""img/green_lw/7.jpg"",""time"":351},{""stimulus"":""img/green_lw/8.jpg"",""time"":403},{""stimulus"":""img/green_lw/9.jpg"",""time"":451},{""stimulus"":""img/green_lw/10.jpg"",""time"":502},{""stimulus"":""img/green_lw/11.jpg"",""time"":551}]","[]"
"image-keyboard-response","72","64008","0.0-5.0-1.34","60761cf3cc35a2a9b127b414","bdp_lott","Sun Mar 26 2023 18:31:42 GMT-0400 (Eastern Daylight Time)","267807","green","red","","709","","","","choice","","img/green_lw/choose11.jpg","1","191","green","0.5","0.5","0.5","w","",""
"animation","73","64609","0.0-5.0-2.34","60761cf3cc35a2a9b127b414","bdp_lott","Sun Mar 26 2023 18:31:42 GMT-0400 (Eastern Daylight Time)","267807","green","red","","","","","","","","","","191","","","","","","[{""stimulus"":""img/green_ww/1.jpg"",""time"":52},{""stimulus"":""img/green_ww/2.jpg"",""time"":102},{""stimulus"":""img/green_ww/3.jpg"",""time"":152},{""stimulus"":""img/green_ww/4.jpg"",""time"":201},{""stimulus"":""img/green_ww/5.jpg"",""time"":251},{""stimulus"":""img/green_ww/6.jpg"",""time"":301},{""stimulus"":""img/green_ww/7.jpg"",""time"":352},{""stimulus"":""img/green_ww/8.jpg"",""time"":401},{""stimulus"":""img/green_ww/9.jpg"",""time"":451},{""stimulus"":""img/green_ww/10.jpg"",""time"":501},{""stimulus"":""img/green_ww/11.jpg"",""time"":551}]","[]"
"image-keyboard-response","74","65239","0.0-5.0-1.35","60761cf3cc35a2a9b127b414","bdp_lott","Sun Mar 26 2023 18:31:42 GMT-0400 (Eastern Daylight Time)","267807","green","red","","630","","","","choice","","img/green_ww/choose11.jpg","2","190","red","0.5","0.5","0.5","l","",""
"animation","75","65840","0.0-5.0-2.35","60761cf3cc35a2a9b127b414","bdp_lott","Sun Mar 26 2023 18:31:42 GMT-0400 (Eastern Daylight Time)","267807","green","red","","","","","","","","","","190","","","","","","[{""stimulus"":""img/red_wl/1.jpg"",""time"":52},{""stimulus"":""img/red_wl/2.jpg"",""time"":101},{""stimulus"":""img/red_wl/3.jpg"",""time"":151},{""stimulus"":""img/red_wl/4.jpg"",""time"":202},{""stimulus"":""img/red_wl/5.jpg"",""time"":251},{""stimulus"":""img/red_wl/6.jpg"",""time"":302},{""stimulus"":""img/red_wl/7.jpg"",""time"":352},{""stimulus"":""img/red_wl/8.jpg"",""time"":402},{""stimulus"":""img/red_wl/9.jpg"",""time"":452},{""stimulus"":""img/red_wl/10.jpg"",""time"":502},{""stimulus"":""img/red_wl/11.jpg"",""time"":551}]","[]"
"image-keyboard-response","76","66242","0.0-5.0-1.36","60761cf3cc35a2a9b127b414","bdp_lott","Sun Mar 26 2023 18:31:42 GMT-0400 (Eastern Daylight Time)","267807","green","red","","402","","","","choice","","img/red_wl/choose11.jpg","2","189","red","0.5","0.5","0.5","w","",""
"animation","77","66843","0.0-5.0-2.36","60761cf3cc35a2a9b127b414","bdp_lott","Sun Mar 26 2023 18:31:42 GMT-0400 (Eastern Daylight Time)","267807","green","red","","","","","","","","","","189","","","","","","[{""stimulus"":""img/red_ww/1.jpg"",""time"":51},{""stimulus"":""img/red_ww/2.jpg"",""time"":101},{""stimulus"":""img/red_ww/3.jpg"",""time"":151},{""stimulus"":""img/red_ww/4.jpg"",""time"":201},{""stimulus"":""img/red_ww/5.jpg"",""time"":252},{""stimulus"":""img/red_ww/6.jpg"",""time"":302},{""stimulus"":""img/red_ww/7.jpg"",""time"":352},{""stimulus"":""img/red_ww/8.jpg"",""time"":402},{""stimulus"":""img/red_ww/9.jpg"",""time"":451},{""stimulus"":""img/red_ww/10.jpg"",""time"":502},{""stimulus"":""img/red_ww/11.jpg"",""time"":552}]","[]"
"image-keyboard-response","78","67526","0.0-5.0-1.37","60761cf3cc35a2a9b127b414","bdp_lott","Sun Mar 26 2023 18:31:42 GMT-0400 (Eastern Daylight Time)","267807","green","red","","683","","","","choice","","img/red_ww/choose11.jpg","1","188","green","0.5","0.5","0.5","l","",""
"animation","79","68128","0.0-5.0-2.37","60761cf3cc35a2a9b127b414","bdp_lott","Sun Mar 26 2023 18:31:42 GMT-0400 (Eastern Daylight Time)","267807","green","red","","","","","","","","","","188","","","","","","[{""stimulus"":""img/green_lw/1.jpg"",""time"":52},{""stimulus"":""img/green_lw/2.jpg"",""time"":100},{""stimulus"":""img/green_lw/3.jpg"",""time"":151},{""stimulus"":""img/green_lw/4.jpg"",""time"":201},{""stimulus"":""img/green_lw/5.jpg"",""time"":251},{""stimulus"":""img/green_lw/6.jpg"",""time"":301},{""stimulus"":""img/green_lw/7.jpg"",""time"":351},{""stimulus"":""img/green_lw/8.jpg"",""time"":401},{""stimulus"":""img/green_lw/9.jpg"",""time"":450},{""stimulus"":""img/green_lw/10.jpg"",""time"":501},{""stimulus"":""img/green_lw/11.jpg"",""time"":551}]","[]"
"image-keyboard-response","80","69142","0.0-5.0-1.38","60761cf3cc35a2a9b127b414","bdp_lott","Sun Mar 26 2023 18:31:42 GMT-0400 (Eastern Daylight Time)","267807","green","red","","1013","","","","choice","","img/green_lw/choose11.jpg","1","187","green","0.5","0.5","0.5","l","",""
"animation","81","69742","0.0-5.0-2.38","60761cf3cc35a2a9b127b414","bdp_lott","Sun Mar 26 2023 18:31:42 GMT-0400 (Eastern Daylight Time)","267807","green","red","","","","","","","","","","187","","","","","","[{""stimulus"":""img/green_lw/1.jpg"",""time"":51},{""stimulus"":""img/green_lw/2.jpg"",""time"":102},{""stimulus"":""img/green_lw/3.jpg"",""time"":150},{""stimulus"":""img/green_lw/4.jpg"",""time"":200},{""stimulus"":""img/green_lw/5.jpg"",""time"":251},{""stimulus"":""img/green_lw/6.jpg"",""time"":301},{""stimulus"":""img/green_lw/7.jpg"",""time"":350},{""stimulus"":""img/green_lw/8.jpg"",""time"":401},{""stimulus"":""img/green_lw/9.jpg"",""time"":451},{""stimulus"":""img/green_lw/10.jpg"",""time"":501},{""stimulus"":""img/green_lw/11.jpg"",""time"":551}]","[]"
"image-keyboard-response","82","71085","0.0-5.0-1.39","60761cf3cc35a2a9b127b414","bdp_lott","Sun Mar 26 2023 18:31:42 GMT-0400 (Eastern Daylight Time)","267807","green","red","","1342","","","","choice","","img/green_lw/choose11.jpg","1","186","green","0.5","0.5","0.5","l","",""
"animation","83","71686","0.0-5.0-2.39","60761cf3cc35a2a9b127b414","bdp_lott","Sun Mar 26 2023 18:31:42 GMT-0400 (Eastern Daylight Time)","267807","green","red","","","","","","","","","","186","","","","","","[{""stimulus"":""img/green_lw/1.jpg"",""time"":51},{""stimulus"":""img/green_lw/2.jpg"",""time"":102},{""stimulus"":""img/green_lw/3.jpg"",""time"":151},{""stimulus"":""img/green_lw/4.jpg"",""time"":202},{""stimulus"":""img/green_lw/5.jpg"",""time"":251},{""stimulus"":""img/green_lw/6.jpg"",""time"":302},{""stimulus"":""img/green_lw/7.jpg"",""time"":352},{""stimulus"":""img/green_lw/8.jpg"",""time"":401},{""stimulus"":""img/green_lw/9.jpg"",""time"":452},{""stimulus"":""img/green_lw/10.jpg"",""time"":502},{""stimulus"":""img/green_lw/11.jpg"",""time"":551}]","[]"
"image-keyboard-response","84","72112","0.0-5.0-1.40","60761cf3cc35a2a9b127b414","bdp_lott","Sun Mar 26 2023 18:31:42 GMT-0400 (Eastern Daylight Time)","267807","green","red","","426","","","","choice","","img/green_lw/choose11.jpg","1","185","green","0.5","0.5","0.5","l","",""
"animation","85","72713","0.0-5.0-2.40","60761cf3cc35a2a9b127b414","bdp_lott","Sun Mar 26 2023 18:31:42 GMT-0400 (Eastern Daylight Time)","267807","green","red","","","","","","","","","","185","","","","","","[{""stimulus"":""img/green_lw/1.jpg"",""time"":52},{""stimulus"":""img/green_lw/2.jpg"",""time"":101},{""stimulus"":""img/green_lw/3.jpg"",""time"":151},{""stimulus"":""img/green_lw/4.jpg"",""time"":201},{""stimulus"":""img/green_lw/5.jpg"",""time"":251},{""stimulus"":""img/green_lw/6.jpg"",""time"":300},{""stimulus"":""img/green_lw/7.jpg"",""time"":351},{""stimulus"":""img/green_lw/8.jpg"",""time"":401},{""stimulus"":""img/green_lw/9.jpg"",""time"":451},{""stimulus"":""img/green_lw/10.jpg"",""time"":501},{""stimulus"":""img/green_lw/11.jpg"",""time"":550}]","[]"
"image-keyboard-response","86","73166","0.0-5.0-1.41","60761cf3cc35a2a9b127b414","bdp_lott","Sun Mar 26 2023 18:31:42 GMT-0400 (Eastern Daylight Time)","267807","green","red","","452","","","","choice","","img/green_lw/choose11.jpg","1","184","green","0.5","0.5","0.5","l","",""
"animation","87","73767","0.0-5.0-2.41","60761cf3cc35a2a9b127b414","bdp_lott","Sun Mar 26 2023 18:31:42 GMT-0400 (Eastern Daylight Time)","267807","green","red","","","","","","","","","","184","","","","","","[{""stimulus"":""img/green_lw/1.jpg"",""time"":51},{""stimulus"":""img/green_lw/2.jpg"",""time"":101},{""stimulus"":""img/green_lw/3.jpg"",""time"":151},{""stimulus"":""img/green_lw/4.jpg"",""time"":201},{""stimulus"":""img/green_lw/5.jpg"",""time"":251},{""stimulus"":""img/green_lw/6.jpg"",""time"":301},{""stimulus"":""img/green_lw/7.jpg"",""time"":351},{""stimulus"":""img/green_lw/8.jpg"",""time"":401},{""stimulus"":""img/green_lw/9.jpg"",""time"":451},{""stimulus"":""img/green_lw/10.jpg"",""time"":501},{""stimulus"":""img/green_lw/11.jpg"",""time"":551}]","[]"
"image-keyboard-response","88","74258","0.0-5.0-1.42","60761cf3cc35a2a9b127b414","bdp_lott","Sun Mar 26 2023 18:31:42 GMT-0400 (Eastern Daylight Time)","267807","green","red","","490","","","","choice","","img/green_lw/choose11.jpg","1","183","green","0.5","0.5","0.5","l","",""
"animation","89","74859","0.0-5.0-2.42","60761cf3cc35a2a9b127b414","bdp_lott","Sun Mar 26 2023 18:31:42 GMT-0400 (Eastern Daylight Time)","267807","green","red","","","","","","","","","","183","","","","","","[{""stimulus"":""img/green_lw/1.jpg"",""time"":52},{""stimulus"":""img/green_lw/2.jpg"",""time"":101},{""stimulus"":""img/green_lw/3.jpg"",""time"":151},{""stimulus"":""img/green_lw/4.jpg"",""time"":201},{""stimulus"":""img/green_lw/5.jpg"",""time"":251},{""stimulus"":""img/green_lw/6.jpg"",""time"":301},{""stimulus"":""img/green_lw/7.jpg"",""time"":351},{""stimulus"":""img/green_lw/8.jpg"",""time"":401},{""stimulus"":""img/green_lw/9.jpg"",""time"":451},{""stimulus"":""img/green_lw/10.jpg"",""time"":501},{""stimulus"":""img/green_lw/11.jpg"",""time"":552}]","[]"
"image-keyboard-response","90","75285","0.0-5.0-1.43","60761cf3cc35a2a9b127b414","bdp_lott","Sun Mar 26 2023 18:31:42 GMT-0400 (Eastern Daylight Time)","267807","green","red","","425","","","","choice","","img/green_lw/choose11.jpg","1","182","green","0.5","0.5","0.5","l","",""
"animation","91","75886","0.0-5.0-2.43","60761cf3cc35a2a9b127b414","bdp_lott","Sun Mar 26 2023 18:31:42 GMT-0400 (Eastern Daylight Time)","267807","green","red","","","","","","","","","","182","","","","","","[{""stimulus"":""img/green_lw/1.jpg"",""time"":51},{""stimulus"":""img/green_lw/2.jpg"",""time"":101},{""stimulus"":""img/green_lw/3.jpg"",""time"":151},{""stimulus"":""img/green_lw/4.jpg"",""time"":201},{""stimulus"":""img/green_lw/5.jpg"",""time"":251},{""stimulus"":""img/green_lw/6.jpg"",""time"":301},{""stimulus"":""img/green_lw/7.jpg"",""time"":351},{""stimulus"":""img/green_lw/8.jpg"",""time"":401},{""stimulus"":""img/green_lw/9.jpg"",""time"":451},{""stimulus"":""img/green_lw/10.jpg"",""time"":501},{""stimulus"":""img/green_lw/11.jpg"",""time"":551}]","[]"
"image-keyboard-response","92","76328","0.0-5.0-1.44","60761cf3cc35a2a9b127b414","bdp_lott","Sun Mar 26 2023 18:31:42 GMT-0400 (Eastern Daylight Time)","267807","green","red","","441","","","","choice","","img/green_lw/choose11.jpg","1","181","green","0.5","0.5","0.5","l","",""
"animation","93","76929","0.0-5.0-2.44","60761cf3cc35a2a9b127b414","bdp_lott","Sun Mar 26 2023 18:31:42 GMT-0400 (Eastern Daylight Time)","267807","green","red","","","","","","","","","","181","","","","","","[{""stimulus"":""img/green_lw/1.jpg"",""time"":52},{""stimulus"":""img/green_lw/2.jpg"",""time"":101},{""stimulus"":""img/green_lw/3.jpg"",""time"":151},{""stimulus"":""img/green_lw/4.jpg"",""time"":202},{""stimulus"":""img/green_lw/5.jpg"",""time"":251},{""stimulus"":""img/green_lw/6.jpg"",""time"":301},{""stimulus"":""img/green_lw/7.jpg"",""time"":352},{""stimulus"":""img/green_lw/8.jpg"",""time"":401},{""stimulus"":""img/green_lw/9.jpg"",""time"":451},{""stimulus"":""img/green_lw/10.jpg"",""time"":502},{""stimulus"":""img/green_lw/11.jpg"",""time"":551}]","[]"
"image-keyboard-response","94","77356","0.0-5.0-1.45","60761cf3cc35a2a9b127b414","bdp_lott","Sun Mar 26 2023 18:31:42 GMT-0400 (Eastern Daylight Time)","267807","green","red","","425","","","","choice","","img/green_lw/choose11.jpg","1","180","green","0.5","0.5","0.5","l","",""
"animation","95","77956","0.0-5.0-2.45","60761cf3cc35a2a9b127b414","bdp_lott","Sun Mar 26 2023 18:31:42 GMT-0400 (Eastern Daylight Time)","267807","green","red","","","","","","","","","","180","","","","","","[{""stimulus"":""img/green_lw/1.jpg"",""time"":51},{""stimulus"":""img/green_lw/2.jpg"",""time"":101},{""stimulus"":""img/green_lw/3.jpg"",""time"":151},{""stimulus"":""img/green_lw/4.jpg"",""time"":200},{""stimulus"":""img/green_lw/5.jpg"",""time"":250},{""stimulus"":""img/green_lw/6.jpg"",""time"":300},{""stimulus"":""img/green_lw/7.jpg"",""time"":350},{""stimulus"":""img/green_lw/8.jpg"",""time"":401},{""stimulus"":""img/green_lw/9.jpg"",""time"":451},{""stimulus"":""img/green_lw/10.jpg"",""time"":501},{""stimulus"":""img/green_lw/11.jpg"",""time"":551}]","[]"
"image-keyboard-response","96","78359","0.0-5.0-1.46","60761cf3cc35a2a9b127b414","bdp_lott","Sun Mar 26 2023 18:31:42 GMT-0400 (Eastern Daylight Time)","267807","green","red","","402","","","","choice","","img/green_lw/choose11.jpg","1","179","green","0.5","0.5","0.5","l","",""
"animation","97","78960","0.0-5.0-2.46","60761cf3cc35a2a9b127b414","bdp_lott","Sun Mar 26 2023 18:31:42 GMT-0400 (Eastern Daylight Time)","267807","green","red","","","","","","","","","","179","","","","","","[{""stimulus"":""img/green_lw/1.jpg"",""time"":52},{""stimulus"":""img/green_lw/2.jpg"",""time"":101},{""stimulus"":""img/green_lw/3.jpg"",""time"":151},{""stimulus"":""img/green_lw/4.jpg"",""time"":201},{""stimulus"":""img/green_lw/5.jpg"",""time"":251},{""stimulus"":""img/green_lw/6.jpg"",""time"":302},{""stimulus"":""img/green_lw/7.jpg"",""time"":351},{""stimulus"":""img/green_lw/8.jpg"",""time"":402},{""stimulus"":""img/green_lw/9.jpg"",""time"":451},{""stimulus"":""img/green_lw/10.jpg"",""time"":501},{""stimulus"":""img/green_lw/11.jpg"",""time"":552}]","[]"
"image-keyboard-response","98","79497","0.0-5.0-1.47","60761cf3cc35a2a9b127b414","bdp_lott","Sun Mar 26 2023 18:31:42 GMT-0400 (Eastern Daylight Time)","267807","green","red","","537","","","","choice","","img/green_lw/choose11.jpg","1","178","green","0.5","0.5","0.5","w","",""
"animation","99","80098","0.0-5.0-2.47","60761cf3cc35a2a9b127b414","bdp_lott","Sun Mar 26 2023 18:31:42 GMT-0400 (Eastern Daylight Time)","267807","green","red","","","","","","","","","","178","","","","","","[{""stimulus"":""img/green_ww/1.jpg"",""time"":52},{""stimulus"":""img/green_ww/2.jpg"",""time"":101},{""stimulus"":""img/green_ww/3.jpg"",""time"":151},{""stimulus"":""img/green_ww/4.jpg"",""time"":201},{""stimulus"":""img/green_ww/5.jpg"",""time"":251},{""stimulus"":""img/green_ww/6.jpg"",""time"":302},{""stimulus"":""img/green_ww/7.jpg"",""time"":351},{""stimulus"":""img/green_ww/8.jpg"",""time"":401},{""stimulus"":""img/green_ww/9.jpg"",""time"":451},{""stimulus"":""img/green_ww/10.jpg"",""time"":501},{""stimulus"":""img/green_ww/11.jpg"",""time"":551}]","[]"
"image-keyboard-response","100","80639","0.0-5.0-1.48","60761cf3cc35a2a9b127b414","bdp_lott","Sun Mar 26 2023 18:31:42 GMT-0400 (Eastern Daylight Time)","267807","green","red","","541","","","","choice","","img/green_ww/choose11.jpg","2","177","red","0.5","0.5","0.5","w","",""
"animation","101","81240","0.0-5.0-2.48","60761cf3cc35a2a9b127b414","bdp_lott","Sun Mar 26 2023 18:31:42 GMT-0400 (Eastern Daylight Time)","267807","green","red","","","","","","","","","","177","","","","","","[{""stimulus"":""img/red_ww/1.jpg"",""time"":51},{""stimulus"":""img/red_ww/2.jpg"",""time"":101},{""stimulus"":""img/red_ww/3.jpg"",""time"":152},{""stimulus"":""img/red_ww/4.jpg"",""time"":201},{""stimulus"":""img/red_ww/5.jpg"",""time"":251},{""stimulus"":""img/red_ww/6.jpg"",""time"":301},{""stimulus"":""img/red_ww/7.jpg"",""time"":352},{""stimulus"":""img/red_ww/8.jpg"",""time"":401},{""stimulus"":""img/red_ww/9.jpg"",""time"":452},{""stimulus"":""img/red_ww/10.jpg"",""time"":501},{""stimulus"":""img/red_ww/11.jpg"",""time"":551}]","[]"
"image-keyboard-response","102","82150","0.0-5.0-1.49","60761cf3cc35a2a9b127b414","bdp_lott","Sun Mar 26 2023 18:31:42 GMT-0400 (Eastern Daylight Time)","267807","green","red","","909","","","","choice","","img/red_ww/choose11.jpg","1","176","green","0.5","0.5","0.5","w","",""
"animation","103","82751","0.0-5.0-2.49","60761cf3cc35a2a9b127b414","bdp_lott","Sun Mar 26 2023 18:31:42 GMT-0400 (Eastern Daylight Time)","267807","green","red","","","","","","","","","","176","","","","","","[{""stimulus"":""img/green_ww/1.jpg"",""time"":52},{""stimulus"":""img/green_ww/2.jpg"",""time"":101},{""stimulus"":""img/green_ww/3.jpg"",""time"":152},{""stimulus"":""img/green_ww/4.jpg"",""time"":203},{""stimulus"":""img/green_ww/5.jpg"",""time"":251},{""stimulus"":""img/green_ww/6.jpg"",""time"":302},{""stimulus"":""img/green_ww/7.jpg"",""time"":352},{""stimulus"":""img/green_ww/8.jpg"",""time"":402},{""stimulus"":""img/green_ww/9.jpg"",""time"":452},{""stimulus"":""img/green_ww/10.jpg"",""time"":501},{""stimulus"":""img/green_ww/11.jpg"",""time"":551}]","[]"
"image-keyboard-response","104","83338","0.0-5.0-1.50","60761cf3cc35a2a9b127b414","bdp_lott","Sun Mar 26 2023 18:31:42 GMT-0400 (Eastern Daylight Time)","267807","green","red","","586","","","","choice","","img/green_ww/choose11.jpg","2","175","red","0.5","0.5","0.5","w","",""
"animation","105","83939","0.0-5.0-2.50","60761cf3cc35a2a9b127b414","bdp_lott","Sun Mar 26 2023 18:31:42 GMT-0400 (Eastern Daylight Time)","267807","green","red","","","","","","","","","","175","","","","","","[{""stimulus"":""img/red_ww/1.jpg"",""time"":52},{""stimulus"":""img/red_ww/2.jpg"",""time"":101},{""stimulus"":""img/red_ww/3.jpg"",""time"":151},{""stimulus"":""img/red_ww/4.jpg"",""time"":201},{""stimulus"":""img/red_ww/5.jpg"",""time"":251},{""stimulus"":""img/red_ww/6.jpg"",""time"":301},{""stimulus"":""img/red_ww/7.jpg"",""time"":351},{""stimulus"":""img/red_ww/8.jpg"",""time"":401},{""stimulus"":""img/red_ww/9.jpg"",""time"":451},{""stimulus"":""img/red_ww/10.jpg"",""time"":501},{""stimulus"":""img/red_ww/11.jpg"",""time"":551}]","[]"
"image-keyboard-response","106","84577","0.0-5.0-1.51","60761cf3cc35a2a9b127b414","bdp_lott","Sun Mar 26 2023 18:31:42 GMT-0400 (Eastern Daylight Time)","267807","green","red","","638","","","","choice","","img/red_ww/choose11.jpg","1","174","green","0.5","0.5","0.5","l","",""
"animation","107","85177","0.0-5.0-2.51","60761cf3cc35a2a9b127b414","bdp_lott","Sun Mar 26 2023 18:31:42 GMT-0400 (Eastern Daylight Time)","267807","green","red","","","","","","","","","","174","","","","","","[{""stimulus"":""img/green_lw/1.jpg"",""time"":50},{""stimulus"":""img/green_lw/2.jpg"",""time"":100},{""stimulus"":""img/green_lw/3.jpg"",""time"":151},{""stimulus"":""img/green_lw/4.jpg"",""time"":201},{""stimulus"":""img/green_lw/5.jpg"",""time"":251},{""stimulus"":""img/green_lw/6.jpg"",""time"":301},{""stimulus"":""img/green_lw/7.jpg"",""time"":351},{""stimulus"":""img/green_lw/8.jpg"",""time"":401},{""stimulus"":""img/green_lw/9.jpg"",""time"":451},{""stimulus"":""img/green_lw/10.jpg"",""time"":501},{""stimulus"":""img/green_lw/11.jpg"",""time"":551}]","[]"
"image-keyboard-response","108","85757","0.0-5.0-1.52","60761cf3cc35a2a9b127b414","bdp_lott","Sun Mar 26 2023 18:31:42 GMT-0400 (Eastern Daylight Time)","267807","green","red","","580","","","","choice","","img/green_lw/choose11.jpg","1","173","green","0.5","0.5","0.5","w","",""
"animation","109","86358","0.0-5.0-2.52","60761cf3cc35a2a9b127b414","bdp_lott","Sun Mar 26 2023 18:31:42 GMT-0400 (Eastern Daylight Time)","267807","green","red","","","","","","","","","","173","","","","","","[{""stimulus"":""img/green_ww/1.jpg"",""time"":51},{""stimulus"":""img/green_ww/2.jpg"",""time"":101},{""stimulus"":""img/green_ww/3.jpg"",""time"":151},{""stimulus"":""img/green_ww/4.jpg"",""time"":202},{""stimulus"":""img/green_ww/5.jpg"",""time"":251},{""stimulus"":""img/green_ww/6.jpg"",""time"":301},{""stimulus"":""img/green_ww/7.jpg"",""time"":351},{""stimulus"":""img/green_ww/8.jpg"",""time"":401},{""stimulus"":""img/green_ww/9.jpg"",""time"":450},{""stimulus"":""img/green_ww/10.jpg"",""time"":500},{""stimulus"":""img/green_ww/11.jpg"",""time"":551}]","[]"
"image-keyboard-response","110","86894","0.0-5.0-1.53","60761cf3cc35a2a9b127b414","bdp_lott","Sun Mar 26 2023 18:31:42 GMT-0400 (Eastern Daylight Time)","267807","green","red","","535","","","","choice","","img/green_ww/choose11.jpg","2","172","red","0.5","0.5","0.5","w","",""
"animation","111","87495","0.0-5.0-2.53","60761cf3cc35a2a9b127b414","bdp_lott","Sun Mar 26 2023 18:31:42 GMT-0400 (Eastern Daylight Time)","267807","green","red","","","","","","","","","","172","","","","","","[{""stimulus"":""img/red_ww/1.jpg"",""time"":51},{""stimulus"":""img/red_ww/2.jpg"",""time"":101},{""stimulus"":""img/red_ww/3.jpg"",""time"":151},{""stimulus"":""img/red_ww/4.jpg"",""time"":201},{""stimulus"":""img/red_ww/5.jpg"",""time"":250},{""stimulus"":""img/red_ww/6.jpg"",""time"":300},{""stimulus"":""img/red_ww/7.jpg"",""time"":350},{""stimulus"":""img/red_ww/8.jpg"",""time"":401},{""stimulus"":""img/red_ww/9.jpg"",""time"":450},{""stimulus"":""img/red_ww/10.jpg"",""time"":500},{""stimulus"":""img/red_ww/11.jpg"",""time"":552}]","[]"
"image-keyboard-response","112","88124","0.0-5.0-1.54","60761cf3cc35a2a9b127b414","bdp_lott","Sun Mar 26 2023 18:31:42 GMT-0400 (Eastern Daylight Time)","267807","green","red","","628","","","","choice","","img/red_ww/choose11.jpg","1","171","green","0.5","0.5","0.5","w","",""
"animation","113","88725","0.0-5.0-2.54","60761cf3cc35a2a9b127b414","bdp_lott","Sun Mar 26 2023 18:31:42 GMT-0400 (Eastern Daylight Time)","267807","green","red","","","","","","","","","","171","","","","","","[{""stimulus"":""img/green_ww/1.jpg"",""time"":51},{""stimulus"":""img/green_ww/2.jpg"",""time"":101},{""stimulus"":""img/green_ww/3.jpg"",""time"":151},{""stimulus"":""img/green_ww/4.jpg"",""time"":202},{""stimulus"":""img/green_ww/5.jpg"",""time"":252},{""stimulus"":""img/green_ww/6.jpg"",""time"":301},{""stimulus"":""img/green_ww/7.jpg"",""time"":351},{""stimulus"":""img/green_ww/8.jpg"",""time"":402},{""stimulus"":""img/green_ww/9.jpg"",""time"":452},{""stimulus"":""img/green_ww/10.jpg"",""time"":502},{""stimulus"":""img/green_ww/11.jpg"",""time"":552}]","[]"
"image-keyboard-response","114","89685","0.0-5.0-1.55","60761cf3cc35a2a9b127b414","bdp_lott","Sun Mar 26 2023 18:31:42 GMT-0400 (Eastern Daylight Time)","267807","green","red","","959","","","","choice","","img/green_ww/choose11.jpg","1","170","green","0.5","0.5","0.5","w","",""
"animation","115","90286","0.0-5.0-2.55","60761cf3cc35a2a9b127b414","bdp_lott","Sun Mar 26 2023 18:31:42 GMT-0400 (Eastern Daylight Time)","267807","green","red","","","","","","","","","","170","","","","","","[{""stimulus"":""img/green_ww/1.jpg"",""time"":51},{""stimulus"":""img/green_ww/2.jpg"",""time"":101},{""stimulus"":""img/green_ww/3.jpg"",""time"":151},{""stimulus"":""img/green_ww/4.jpg"",""time"":201},{""stimulus"":""img/green_ww/5.jpg"",""time"":251},{""stimulus"":""img/green_ww/6.jpg"",""time"":300},{""stimulus"":""img/green_ww/7.jpg"",""time"":351},{""stimulus"":""img/green_ww/8.jpg"",""time"":400},{""stimulus"":""img/green_ww/9.jpg"",""time"":450},{""stimulus"":""img/green_ww/10.jpg"",""time"":501},{""stimulus"":""img/green_ww/11.jpg"",""time"":551}]","[]"
"image-keyboard-response","116","90735","0.0-5.0-1.56","60761cf3cc35a2a9b127b414","bdp_lott","Sun Mar 26 2023 18:31:42 GMT-0400 (Eastern Daylight Time)","267807","green","red","","448","","","","choice","","img/green_ww/choose11.jpg","2","169","red","0.5","0.5","0.5","l","",""
"animation","117","91336","0.0-5.0-2.56","60761cf3cc35a2a9b127b414","bdp_lott","Sun Mar 26 2023 18:31:42 GMT-0400 (Eastern Daylight Time)","267807","green","red","","","","","","","","","","169","","","","","","[{""stimulus"":""img/red_wl/1.jpg"",""time"":51},{""stimulus"":""img/red_wl/2.jpg"",""time"":102},{""stimulus"":""img/red_wl/3.jpg"",""time"":151},{""stimulus"":""img/red_wl/4.jpg"",""time"":202},{""stimulus"":""img/red_wl/5.jpg"",""time"":251},{""stimulus"":""img/red_wl/6.jpg"",""time"":301},{""stimulus"":""img/red_wl/7.jpg"",""time"":351},{""stimulus"":""img/red_wl/8.jpg"",""time"":402},{""stimulus"":""img/red_wl/9.jpg"",""time"":452},{""stimulus"":""img/red_wl/10.jpg"",""time"":502},{""stimulus"":""img/red_wl/11.jpg"",""time"":552}]","[]"
"image-keyboard-response","118","91790","0.0-5.0-1.57","60761cf3cc35a2a9b127b414","bdp_lott","Sun Mar 26 2023 18:31:42 GMT-0400 (Eastern Daylight Time)","267807","green","red","","453","","","","choice","","img/red_wl/choose11.jpg","2","168","red","0.5","0.5","0.5","l","",""
"animation","119","92390","0.0-5.0-2.57","60761cf3cc35a2a9b127b414","bdp_lott","Sun Mar 26 2023 18:31:42 GMT-0400 (Eastern Daylight Time)","267807","green","red","","","","","","","","","","168","","","","","","[{""stimulus"":""img/red_wl/1.jpg"",""time"":51},{""stimulus"":""img/red_wl/2.jpg"",""time"":106},{""stimulus"":""img/red_wl/3.jpg"",""time"":152},{""stimulus"":""img/red_wl/4.jpg"",""time"":201},{""stimulus"":""img/red_wl/5.jpg"",""time"":252},{""stimulus"":""img/red_wl/6.jpg"",""time"":301},{""stimulus"":""img/red_wl/7.jpg"",""time"":351},{""stimulus"":""img/red_wl/8.jpg"",""time"":401},{""stimulus"":""img/red_wl/9.jpg"",""time"":451},{""stimulus"":""img/red_wl/10.jpg"",""time"":501},{""stimulus"":""img/red_wl/11.jpg"",""time"":551}]","[]"
"image-keyboard-response","120","92780","0.0-5.0-1.58","60761cf3cc35a2a9b127b414","bdp_lott","Sun Mar 26 2023 18:31:42 GMT-0400 (Eastern Daylight Time)","267807","green","red","","389","","","","choice","","img/red_wl/choose11.jpg","2","167","red","0.5","0.5","0.5","l","",""
"animation","121","93381","0.0-5.0-2.58","60761cf3cc35a2a9b127b414","bdp_lott","Sun Mar 26 2023 18:31:42 GMT-0400 (Eastern Daylight Time)","267807","green","red","","","","","","","","","","167","","","","","","[{""stimulus"":""img/red_wl/1.jpg"",""time"":52},{""stimulus"":""img/red_wl/2.jpg"",""time"":102},{""stimulus"":""img/red_wl/3.jpg"",""time"":151},{""stimulus"":""img/red_wl/4.jpg"",""time"":201},{""stimulus"":""img/red_wl/5.jpg"",""time"":252},{""stimulus"":""img/red_wl/6.jpg"",""time"":310},{""stimulus"":""img/red_wl/7.jpg"",""time"":351},{""stimulus"":""img/red_wl/8.jpg"",""time"":401},{""stimulus"":""img/red_wl/9.jpg"",""time"":452},{""stimulus"":""img/red_wl/10.jpg"",""time"":501},{""stimulus"":""img/red_wl/11.jpg"",""time"":551}]","[]"
"image-keyboard-response","122","93671","0.0-5.0-1.59","60761cf3cc35a2a9b127b414","bdp_lott","Sun Mar 26 2023 18:31:42 GMT-0400 (Eastern Daylight Time)","267807","green","red","","289","","","","choice","","img/red_wl/choose11.jpg","2","166","red","0.5","0.5","0.5","l","",""
"animation","123","94273","0.0-5.0-2.59","60761cf3cc35a2a9b127b414","bdp_lott","Sun Mar 26 2023 18:31:42 GMT-0400 (Eastern Daylight Time)","267807","green","red","","","","","","","","","","166","","","","","","[{""stimulus"":""img/red_wl/1.jpg"",""time"":51},{""stimulus"":""img/red_wl/2.jpg"",""time"":101},{""stimulus"":""img/red_wl/3.jpg"",""time"":151},{""stimulus"":""img/red_wl/4.jpg"",""time"":201},{""stimulus"":""img/red_wl/5.jpg"",""time"":252},{""stimulus"":""img/red_wl/6.jpg"",""time"":301},{""stimulus"":""img/red_wl/7.jpg"",""time"":351},{""stimulus"":""img/red_wl/8.jpg"",""time"":401},{""stimulus"":""img/red_wl/9.jpg"",""time"":451},{""stimulus"":""img/red_wl/10.jpg"",""time"":501},{""stimulus"":""img/red_wl/11.jpg"",""time"":551}]","[]"
"image-keyboard-response","124","94556","0.0-5.0-1.60","60761cf3cc35a2a9b127b414","bdp_lott","Sun Mar 26 2023 18:31:42 GMT-0400 (Eastern Daylight Time)","267807","green","red","","282","","","","choice","","img/red_wl/choose11.jpg","2","165","red","0.5","0.5","0.5","l","",""
"animation","125","95157","0.0-5.0-2.60","60761cf3cc35a2a9b127b414","bdp_lott","Sun Mar 26 2023 18:31:42 GMT-0400 (Eastern Daylight Time)","267807","green","red","","","","","","","","","","165","","","","","","[{""stimulus"":""img/red_wl/1.jpg"",""time"":51},{""stimulus"":""img/red_wl/2.jpg"",""time"":101},{""stimulus"":""img/red_wl/3.jpg"",""time"":151},{""stimulus"":""img/red_wl/4.jpg"",""time"":201},{""stimulus"":""img/red_wl/5.jpg"",""time"":251},{""stimulus"":""img/red_wl/6.jpg"",""time"":301},{""stimulus"":""img/red_wl/7.jpg"",""time"":351},{""stimulus"":""img/red_wl/8.jpg"",""time"":400},{""stimulus"":""img/red_wl/9.jpg"",""time"":451},{""stimulus"":""img/red_wl/10.jpg"",""time"":501},{""stimulus"":""img/red_wl/11.jpg"",""time"":551}]","[]"
"image-keyboard-response","126","95479","0.0-5.0-1.61","60761cf3cc35a2a9b127b414","bdp_lott","Sun Mar 26 2023 18:31:42 GMT-0400 (Eastern Daylight Time)","267807","green","red","","322","","","","choice","","img/red_wl/choose11.jpg","2","164","red","0.5","0.5","0.5","l","",""
"animation","127","96081","0.0-5.0-2.61","60761cf3cc35a2a9b127b414","bdp_lott","Sun Mar 26 2023 18:31:42 GMT-0400 (Eastern Daylight Time)","267807","green","red","","","","","","","","","","164","","","","","","[{""stimulus"":""img/red_wl/1.jpg"",""time"":52},{""stimulus"":""img/red_wl/2.jpg"",""time"":102},{""stimulus"":""img/red_wl/3.jpg"",""time"":152},{""stimulus"":""img/red_wl/4.jpg"",""time"":201},{""stimulus"":""img/red_wl/5.jpg"",""time"":255},{""stimulus"":""img/red_wl/6.jpg"",""time"":303},{""stimulus"":""img/red_wl/7.jpg"",""time"":353},{""stimulus"":""img/red_wl/8.jpg"",""time"":402},{""stimulus"":""img/red_wl/9.jpg"",""time"":452},{""stimulus"":""img/red_wl/10.jpg"",""time"":501},{""stimulus"":""img/red_wl/11.jpg"",""time"":551}]","[]"
"image-keyboard-response","128","96470","0.0-5.0-1.62","60761cf3cc35a2a9b127b414","bdp_lott","Sun Mar 26 2023 18:31:42 GMT-0400 (Eastern Daylight Time)","267807","green","red","","388","","","","choice","","img/red_wl/choose11.jpg","2","163","red","0.5","0.5","0.5","l","",""
"animation","129","97071","0.0-5.0-2.62","60761cf3cc35a2a9b127b414","bdp_lott","Sun Mar 26 2023 18:31:42 GMT-0400 (Eastern Daylight Time)","267807","green","red","","","","","","","","","","163","","","","","","[{""stimulus"":""img/red_wl/1.jpg"",""time"":50},{""stimulus"":""img/red_wl/2.jpg"",""time"":101},{""stimulus"":""img/red_wl/3.jpg"",""time"":152},{""stimulus"":""img/red_wl/4.jpg"",""time"":201},{""stimulus"":""img/red_wl/5.jpg"",""time"":251},{""stimulus"":""img/red_wl/6.jpg"",""time"":301},{""stimulus"":""img/red_wl/7.jpg"",""time"":351},{""stimulus"":""img/red_wl/8.jpg"",""time"":401},{""stimulus"":""img/red_wl/9.jpg"",""time"":452},{""stimulus"":""img/red_wl/10.jpg"",""time"":501},{""stimulus"":""img/red_wl/11.jpg"",""time"":551}]","[]"
"image-keyboard-response","130","97405","0.0-5.0-1.63","60761cf3cc35a2a9b127b414","bdp_lott","Sun Mar 26 2023 18:31:42 GMT-0400 (Eastern Daylight Time)","267807","green","red","","333","","","","choice","","img/red_wl/choose11.jpg","2","162","red","0.5","0.5","0.5","w","",""
"animation","131","98006","0.0-5.0-2.63","60761cf3cc35a2a9b127b414","bdp_lott","Sun Mar 26 2023 18:31:42 GMT-0400 (Eastern Daylight Time)","267807","green","red","","","","","","","","","","162","","","","","","[{""stimulus"":""img/red_ww/1.jpg"",""time"":51},{""stimulus"":""img/red_ww/2.jpg"",""time"":101},{""stimulus"":""img/red_ww/3.jpg"",""time"":152},{""stimulus"":""img/red_ww/4.jpg"",""time"":202},{""stimulus"":""img/red_ww/5.jpg"",""time"":251},{""stimulus"":""img/red_ww/6.jpg"",""time"":302},{""stimulus"":""img/red_ww/7.jpg"",""time"":351},{""stimulus"":""img/red_ww/8.jpg"",""time"":401},{""stimulus"":""img/red_ww/9.jpg"",""time"":451},{""stimulus"":""img/red_ww/10.jpg"",""time"":502},{""stimulus"":""img/red_ww/11.jpg"",""time"":551}]","[]"
"image-keyboard-response","132","98562","0.0-5.0-1.64","60761cf3cc35a2a9b127b414","bdp_lott","Sun Mar 26 2023 18:31:42 GMT-0400 (Eastern Daylight Time)","267807","green","red","","555","","","","choice","","img/red_ww/choose11.jpg","1","161","green","0.5","0.5","0.5","w","",""
"animation","133","99163","0.0-5.0-2.64","60761cf3cc35a2a9b127b414","bdp_lott","Sun Mar 26 2023 18:31:42 GMT-0400 (Eastern Daylight Time)","267807","green","red","","","","","","","","","","161","","","","","","[{""stimulus"":""img/green_ww/1.jpg"",""time"":51},{""stimulus"":""img/green_ww/2.jpg"",""time"":101},{""stimulus"":""img/green_ww/3.jpg"",""time"":152},{""stimulus"":""img/green_ww/4.jpg"",""time"":202},{""stimulus"":""img/green_ww/5.jpg"",""time"":253},{""stimulus"":""img/green_ww/6.jpg"",""time"":301},{""stimulus"":""img/green_ww/7.jpg"",""time"":354},{""stimulus"":""img/green_ww/8.jpg"",""time"":402},{""stimulus"":""img/green_ww/9.jpg"",""time"":451},{""stimulus"":""img/green_ww/10.jpg"",""time"":501},{""stimulus"":""img/green_ww/11.jpg"",""time"":552}]","[]"
"image-keyboard-response","134","99841","0.0-5.0-1.65","60761cf3cc35a2a9b127b414","bdp_lott","Sun Mar 26 2023 18:31:42 GMT-0400 (Eastern Daylight Time)","267807","green","red","","678","","","","choice","","img/green_ww/choose11.jpg","2","160","red","0.5","0.5","0.5","w","",""
"animation","135","100442","0.0-5.0-2.65","60761cf3cc35a2a9b127b414","bdp_lott","Sun Mar 26 2023 18:31:42 GMT-0400 (Eastern Daylight Time)","267807","green","red","","","","","","","","","","160","","","","","","[{""stimulus"":""img/red_ww/1.jpg"",""time"":51},{""stimulus"":""img/red_ww/2.jpg"",""time"":100},{""stimulus"":""img/red_ww/3.jpg"",""time"":151},{""stimulus"":""img/red_ww/4.jpg"",""time"":201},{""stimulus"":""img/red_ww/5.jpg"",""time"":252},{""stimulus"":""img/red_ww/6.jpg"",""time"":301},{""stimulus"":""img/red_ww/7.jpg"",""time"":351},{""stimulus"":""img/red_ww/8.jpg"",""time"":401},{""stimulus"":""img/red_ww/9.jpg"",""time"":451},{""stimulus"":""img/red_ww/10.jpg"",""time"":501},{""stimulus"":""img/red_ww/11.jpg"",""time"":550}]","[]"
"image-keyboard-response","136","101063","0.0-5.0-1.66","60761cf3cc35a2a9b127b414","bdp_lott","Sun Mar 26 2023 18:31:42 GMT-0400 (Eastern Daylight Time)","267807","green","red","","620","","","","choice","","img/red_ww/choose11.jpg","1","159","green","0.5","0.5","0.5","l","",""
"animation","137","101664","0.0-5.0-2.66","60761cf3cc35a2a9b127b414","bdp_lott","Sun Mar 26 2023 18:31:42 GMT-0400 (Eastern Daylight Time)","267807","green","red","","","","","","","","","","159","","","","","","[{""stimulus"":""img/green_lw/1.jpg"",""time"":52},{""stimulus"":""img/green_lw/2.jpg"",""time"":102},{""stimulus"":""img/green_lw/3.jpg"",""time"":152},{""stimulus"":""img/green_lw/4.jpg"",""time"":202},{""stimulus"":""img/green_lw/5.jpg"",""time"":252},{""stimulus"":""img/green_lw/6.jpg"",""time"":302},{""stimulus"":""img/green_lw/7.jpg"",""time"":351},{""stimulus"":""img/green_lw/8.jpg"",""time"":402},{""stimulus"":""img/green_lw/9.jpg"",""time"":452},{""stimulus"":""img/green_lw/10.jpg"",""time"":502},{""stimulus"":""img/green_lw/11.jpg"",""time"":551}]","[]"
"image-keyboard-response","138","102253","0.0-5.0-1.67","60761cf3cc35a2a9b127b414","bdp_lott","Sun Mar 26 2023 18:31:42 GMT-0400 (Eastern Daylight Time)","267807","green","red","","588","","","","choice","","img/green_lw/choose11.jpg","1","158","green","0.5","0.5","0.5","w","",""
"animation","139","102854","0.0-5.0-2.67","60761cf3cc35a2a9b127b414","bdp_lott","Sun Mar 26 2023 18:31:42 GMT-0400 (Eastern Daylight Time)","267807","green","red","","","","","","","","","","158","","","","","","[{""stimulus"":""img/green_ww/1.jpg"",""time"":51},{""stimulus"":""img/green_ww/2.jpg"",""time"":101},{""stimulus"":""img/green_ww/3.jpg"",""time"":151},{""stimulus"":""img/green_ww/4.jpg"",""time"":201},{""stimulus"":""img/green_ww/5.jpg"",""time"":251},{""stimulus"":""img/green_ww/6.jpg"",""time"":300},{""stimulus"":""img/green_ww/7.jpg"",""time"":351},{""stimulus"":""img/green_ww/8.jpg"",""time"":401},{""stimulus"":""img/green_ww/9.jpg"",""time"":450},{""stimulus"":""img/green_ww/10.jpg"",""time"":501},{""stimulus"":""img/green_ww/11.jpg"",""time"":551}]","[]"
"image-keyboard-response","140","103345","0.0-5.0-1.68","60761cf3cc35a2a9b127b414","bdp_lott","Sun Mar 26 2023 18:31:42 GMT-0400 (Eastern Daylight Time)","267807","green","red","","490","","","","choice","","img/green_ww/choose11.jpg","2","157","red","0.5","0.5","0.5","w","",""
"animation","141","103947","0.0-5.0-2.68","60761cf3cc35a2a9b127b414","bdp_lott","Sun Mar 26 2023 18:31:42 GMT-0400 (Eastern Daylight Time)","267807","green","red","","","","","","","","","","157","","","","","","[{""stimulus"":""img/red_ww/1.jpg"",""time"":51},{""stimulus"":""img/red_ww/2.jpg"",""time"":101},{""stimulus"":""img/red_ww/3.jpg"",""time"":151},{""stimulus"":""img/red_ww/4.jpg"",""time"":201},{""stimulus"":""img/red_ww/5.jpg"",""time"":251},{""stimulus"":""img/red_ww/6.jpg"",""time"":301},{""stimulus"":""img/red_ww/7.jpg"",""time"":351},{""stimulus"":""img/red_ww/8.jpg"",""time"":401},{""stimulus"":""img/red_ww/9.jpg"",""time"":451},{""stimulus"":""img/red_ww/10.jpg"",""time"":501},{""stimulus"":""img/red_ww/11.jpg"",""time"":551}]","[]"
"image-keyboard-response","142","104629","0.0-5.0-1.69","60761cf3cc35a2a9b127b414","bdp_lott","Sun Mar 26 2023 18:31:42 GMT-0400 (Eastern Daylight Time)","267807","green","red","","681","","","","choice","","img/red_ww/choose11.jpg","1","156","green","0.5","0.5","0.5","l","",""
"animation","143","105231","0.0-5.0-2.69","60761cf3cc35a2a9b127b414","bdp_lott","Sun Mar 26 2023 18:31:42 GMT-0400 (Eastern Daylight Time)","267807","green","red","","","","","","","","","","156","","","","","","[{""stimulus"":""img/green_lw/1.jpg"",""time"":51},{""stimulus"":""img/green_lw/2.jpg"",""time"":101},{""stimulus"":""img/green_lw/3.jpg"",""time"":151},{""stimulus"":""img/green_lw/4.jpg"",""time"":201},{""stimulus"":""img/green_lw/5.jpg"",""time"":251},{""stimulus"":""img/green_lw/6.jpg"",""time"":301},{""stimulus"":""img/green_lw/7.jpg"",""time"":351},{""stimulus"":""img/green_lw/8.jpg"",""time"":401},{""stimulus"":""img/green_lw/9.jpg"",""time"":451},{""stimulus"":""img/green_lw/10.jpg"",""time"":501},{""stimulus"":""img/green_lw/11.jpg"",""time"":551}]","[]"
"image-keyboard-response","144","105875","0.0-5.0-1.70","60761cf3cc35a2a9b127b414","bdp_lott","Sun Mar 26 2023 18:31:42 GMT-0400 (Eastern Daylight Time)","267807","green","red","","644","","","","choice","","img/green_lw/choose11.jpg","1","155","green","0.5","0.5","0.5","l","",""
"animation","145","106476","0.0-5.0-2.70","60761cf3cc35a2a9b127b414","bdp_lott","Sun Mar 26 2023 18:31:42 GMT-0400 (Eastern Daylight Time)","267807","green","red","","","","","","","","","","155","","","","","","[{""stimulus"":""img/green_lw/1.jpg"",""time"":52},{""stimulus"":""img/green_lw/2.jpg"",""time"":101},{""stimulus"":""img/green_lw/3.jpg"",""time"":151},{""stimulus"":""img/green_lw/4.jpg"",""time"":201},{""stimulus"":""img/green_lw/5.jpg"",""time"":252},{""stimulus"":""img/green_lw/6.jpg"",""time"":301},{""stimulus"":""img/green_lw/7.jpg"",""time"":351},{""stimulus"":""img/green_lw/8.jpg"",""time"":401},{""stimulus"":""img/green_lw/9.jpg"",""time"":451},{""stimulus"":""img/green_lw/10.jpg"",""time"":502},{""stimulus"":""img/green_lw/11.jpg"",""time"":551}]","[]"
"image-keyboard-response","146","107007","0.0-5.0-1.71","60761cf3cc35a2a9b127b414","bdp_lott","Sun Mar 26 2023 18:31:42 GMT-0400 (Eastern Daylight Time)","267807","green","red","","530","","","","choice","","img/green_lw/choose11.jpg","1","154","green","0.5","0.5","0.5","w","",""
"animation","147","107607","0.0-5.0-2.71","60761cf3cc35a2a9b127b414","bdp_lott","Sun Mar 26 2023 18:31:42 GMT-0400 (Eastern Daylight Time)","267807","green","red","","","","","","","","","","154","","","","","","[{""stimulus"":""img/green_ww/1.jpg"",""time"":52},{""stimulus"":""img/green_ww/2.jpg"",""time"":101},{""stimulus"":""img/green_ww/3.jpg"",""time"":152},{""stimulus"":""img/green_ww/4.jpg"",""time"":201},{""stimulus"":""img/green_ww/5.jpg"",""time"":252},{""stimulus"":""img/green_ww/6.jpg"",""time"":301},{""stimulus"":""img/green_ww/7.jpg"",""time"":351},{""stimulus"":""img/green_ww/8.jpg"",""time"":401},{""stimulus"":""img/green_ww/9.jpg"",""time"":451},{""stimulus"":""img/green_ww/10.jpg"",""time"":501},{""stimulus"":""img/green_ww/11.jpg"",""time"":551}]","[]"
"image-keyboard-response","148","108225","0.0-5.0-1.72","60761cf3cc35a2a9b127b414","bdp_lott","Sun Mar 26 2023 18:31:42 GMT-0400 (Eastern Daylight Time)","267807","green","red","","617","","","","choice","","img/green_ww/choose11.jpg","2","153","red","0.5","0.5","0.5","w","",""
"animation","149","108827","0.0-5.0-2.72","60761cf3cc35a2a9b127b414","bdp_lott","Sun Mar 26 2023 18:31:42 GMT-0400 (Eastern Daylight Time)","267807","green","red","","","","","","","","","","153","","","","","","[{""stimulus"":""img/red_ww/1.jpg"",""time"":52},{""stimulus"":""img/red_ww/2.jpg"",""time"":102},{""stimulus"":""img/red_ww/3.jpg"",""time"":151},{""stimulus"":""img/red_ww/4.jpg"",""time"":201},{""stimulus"":""img/red_ww/5.jpg"",""time"":251},{""stimulus"":""img/red_ww/6.jpg"",""time"":302},{""stimulus"":""img/red_ww/7.jpg"",""time"":351},{""stimulus"":""img/red_ww/8.jpg"",""time"":402},{""stimulus"":""img/red_ww/9.jpg"",""time"":452},{""stimulus"":""img/red_ww/10.jpg"",""time"":502},{""stimulus"":""img/red_ww/11.jpg"",""time"":551}]","[]"
"image-keyboard-response","150","109462","0.0-5.0-1.73","60761cf3cc35a2a9b127b414","bdp_lott","Sun Mar 26 2023 18:31:42 GMT-0400 (Eastern Daylight Time)","267807","green","red","","634","","","","choice","","img/red_ww/choose11.jpg","1","152","green","0.5","0.5","0.5","w","",""
"animation","151","110064","0.0-5.0-2.73","60761cf3cc35a2a9b127b414","bdp_lott","Sun Mar 26 2023 18:31:42 GMT-0400 (Eastern Daylight Time)","267807","green","red","","","","","","","","","","152","","","","","","[{""stimulus"":""img/green_ww/1.jpg"",""time"":52},{""stimulus"":""img/green_ww/2.jpg"",""time"":101},{""stimulus"":""img/green_ww/3.jpg"",""time"":153},{""stimulus"":""img/green_ww/4.jpg"",""time"":202},{""stimulus"":""img/green_ww/5.jpg"",""time"":252},{""stimulus"":""img/green_ww/6.jpg"",""time"":302},{""stimulus"":""img/green_ww/7.jpg"",""time"":352},{""stimulus"":""img/green_ww/8.jpg"",""time"":401},{""stimulus"":""img/green_ww/9.jpg"",""time"":451},{""stimulus"":""img/green_ww/10.jpg"",""time"":501},{""stimulus"":""img/green_ww/11.jpg"",""time"":551}]","[]"
"image-keyboard-response","152","110515","0.0-5.0-1.74","60761cf3cc35a2a9b127b414","bdp_lott","Sun Mar 26 2023 18:31:42 GMT-0400 (Eastern Daylight Time)","267807","green","red","","449","","","","choice","","img/green_ww/choose11.jpg","2","151","red","0.5","0.5","0.5","w","",""
"animation","153","111116","0.0-5.0-2.74","60761cf3cc35a2a9b127b414","bdp_lott","Sun Mar 26 2023 18:31:42 GMT-0400 (Eastern Daylight Time)","267807","green","red","","","","","","","","","","151","","","","","","[{""stimulus"":""img/red_ww/1.jpg"",""time"":51},{""stimulus"":""img/red_ww/2.jpg"",""time"":101},{""stimulus"":""img/red_ww/3.jpg"",""time"":151},{""stimulus"":""img/red_ww/4.jpg"",""time"":201},{""stimulus"":""img/red_ww/5.jpg"",""time"":251},{""stimulus"":""img/red_ww/6.jpg"",""time"":302},{""stimulus"":""img/red_ww/7.jpg"",""time"":351},{""stimulus"":""img/red_ww/8.jpg"",""time"":402},{""stimulus"":""img/red_ww/9.jpg"",""time"":451},{""stimulus"":""img/red_ww/10.jpg"",""time"":502},{""stimulus"":""img/red_ww/11.jpg"",""time"":551}]","[]"
"image-keyboard-response","154","111638","0.0-5.0-1.75","60761cf3cc35a2a9b127b414","bdp_lott","Sun Mar 26 2023 18:31:42 GMT-0400 (Eastern Daylight Time)","267807","green","red","","521","","","","choice","","img/red_ww/choose11.jpg","1","150","green","0.5","0.5","0.5","l","",""
"animation","155","112239","0.0-5.0-2.75","60761cf3cc35a2a9b127b414","bdp_lott","Sun Mar 26 2023 18:31:42 GMT-0400 (Eastern Daylight Time)","267807","green","red","","","","","","","","","","150","","","","","","[{""stimulus"":""img/green_lw/1.jpg"",""time"":51},{""stimulus"":""img/green_lw/2.jpg"",""time"":101},{""stimulus"":""img/green_lw/3.jpg"",""time"":151},{""stimulus"":""img/green_lw/4.jpg"",""time"":200},{""stimulus"":""img/green_lw/5.jpg"",""time"":250},{""stimulus"":""img/green_lw/6.jpg"",""time"":301},{""stimulus"":""img/green_lw/7.jpg"",""time"":350},{""stimulus"":""img/green_lw/8.jpg"",""time"":400},{""stimulus"":""img/green_lw/9.jpg"",""time"":451},{""stimulus"":""img/green_lw/10.jpg"",""time"":500},{""stimulus"":""img/green_lw/11.jpg"",""time"":551}]","[]"
"image-keyboard-response","156","112792","0.0-5.0-1.76","60761cf3cc35a2a9b127b414","bdp_lott","Sun Mar 26 2023 18:31:42 GMT-0400 (Eastern Daylight Time)","267807","green","red","","551","","","","choice","","img/green_lw/choose11.jpg","1","149","green","0.5","0.1","0.5","l","",""
"animation","157","113392","0.0-5.0-2.76","60761cf3cc35a2a9b127b414","bdp_lott","Sun Mar 26 2023 18:31:42 GMT-0400 (Eastern Daylight Time)","267807","green","red","","","","","","","","","","149","","","","","","[{""stimulus"":""img/green_lw/1.jpg"",""time"":51},{""stimulus"":""img/green_lw/2.jpg"",""time"":101},{""stimulus"":""img/green_lw/3.jpg"",""time"":151},{""stimulus"":""img/green_lw/4.jpg"",""time"":201},{""stimulus"":""img/green_lw/5.jpg"",""time"":251},{""stimulus"":""img/green_lw/6.jpg"",""time"":301},{""stimulus"":""img/green_lw/7.jpg"",""time"":351},{""stimulus"":""img/green_lw/8.jpg"",""time"":401},{""stimulus"":""img/green_lw/9.jpg"",""time"":451},{""stimulus"":""img/green_lw/10.jpg"",""time"":502},{""stimulus"":""img/green_lw/11.jpg"",""time"":551}]","[]"
"image-keyboard-response","158","113780","0.0-5.0-1.77","60761cf3cc35a2a9b127b414","bdp_lott","Sun Mar 26 2023 18:31:42 GMT-0400 (Eastern Daylight Time)","267807","green","red","","387","","","","choice","","img/green_lw/choose11.jpg","1","148","green","0.5","0.1","0.5","l","",""
"animation","159","114381","0.0-5.0-2.77","60761cf3cc35a2a9b127b414","bdp_lott","Sun Mar 26 2023 18:31:42 GMT-0400 (Eastern Daylight Time)","267807","green","red","","","","","","","","","","148","","","","","","[{""stimulus"":""img/green_lw/1.jpg"",""time"":52},{""stimulus"":""img/green_lw/2.jpg"",""time"":101},{""stimulus"":""img/green_lw/3.jpg"",""time"":151},{""stimulus"":""img/green_lw/4.jpg"",""time"":201},{""stimulus"":""img/green_lw/5.jpg"",""time"":252},{""stimulus"":""img/green_lw/6.jpg"",""time"":301},{""stimulus"":""img/green_lw/7.jpg"",""time"":351},{""stimulus"":""img/green_lw/8.jpg"",""time"":402},{""stimulus"":""img/green_lw/9.jpg"",""time"":451},{""stimulus"":""img/green_lw/10.jpg"",""time"":501},{""stimulus"":""img/green_lw/11.jpg"",""time"":551}]","[]"
"image-keyboard-response","160","114790","0.0-5.0-1.78","60761cf3cc35a2a9b127b414","bdp_lott","Sun Mar 26 2023 18:31:42 GMT-0400 (Eastern Daylight Time)","267807","green","red","","408","","","","choice","","img/green_lw/choose11.jpg","1","147","green","0.5","0.1","0.5","w","",""
"animation","161","115392","0.0-5.0-2.78","60761cf3cc35a2a9b127b414","bdp_lott","Sun Mar 26 2023 18:31:42 GMT-0400 (Eastern Daylight Time)","267807","green","red","","","","","","","","","","147","","","","","","[{""stimulus"":""img/green_ww/1.jpg"",""time"":52},{""stimulus"":""img/green_ww/2.jpg"",""time"":101},{""stimulus"":""img/green_ww/3.jpg"",""time"":151},{""stimulus"":""img/green_ww/4.jpg"",""time"":201},{""stimulus"":""img/green_ww/5.jpg"",""time"":251},{""stimulus"":""img/green_ww/6.jpg"",""time"":301},{""stimulus"":""img/green_ww/7.jpg"",""time"":353},{""stimulus"":""img/green_ww/8.jpg"",""time"":401},{""stimulus"":""img/green_ww/9.jpg"",""time"":451},{""stimulus"":""img/green_ww/10.jpg"",""time"":501},{""stimulus"":""img/green_ww/11.jpg"",""time"":550}]","[]"
"image-keyboard-response","162","115924","0.0-5.0-1.79","60761cf3cc35a2a9b127b414","bdp_lott","Sun Mar 26 2023 18:31:42 GMT-0400 (Eastern Daylight Time)","267807","green","red","","531","","","","choice","","img/green_ww/choose11.jpg","2","146","red","0.5","0.1","0.1","l","",""
"animation","163","116525","0.0-5.0-2.79","60761cf3cc35a2a9b127b414","bdp_lott","Sun Mar 26 2023 18:31:42 GMT-0400 (Eastern Daylight Time)","267807","green","red","","","","","","","","","","146","","","","","","[{""stimulus"":""img/red_wl/1.jpg"",""time"":52},{""stimulus"":""img/red_wl/2.jpg"",""time"":101},{""stimulus"":""img/red_wl/3.jpg"",""time"":151},{""stimulus"":""img/red_wl/4.jpg"",""time"":202},{""stimulus"":""img/red_wl/5.jpg"",""time"":251},{""stimulus"":""img/red_wl/6.jpg"",""time"":301},{""stimulus"":""img/red_wl/7.jpg"",""time"":351},{""stimulus"":""img/red_wl/8.jpg"",""time"":402},{""stimulus"":""img/red_wl/9.jpg"",""time"":451},{""stimulus"":""img/red_wl/10.jpg"",""time"":502},{""stimulus"":""img/red_wl/11.jpg"",""time"":551}]","[]"
"image-keyboard-response","164","116932","0.0-5.0-1.80","60761cf3cc35a2a9b127b414","bdp_lott","Sun Mar 26 2023 18:31:42 GMT-0400 (Eastern Daylight Time)","267807","green","red","","406","","","","choice","","img/red_wl/choose11.jpg","2","145","red","0.5","0.1","0.1","l","",""
"animation","165","117532","0.0-5.0-2.80","60761cf3cc35a2a9b127b414","bdp_lott","Sun Mar 26 2023 18:31:42 GMT-0400 (Eastern Daylight Time)","267807","green","red","","","","","","","","","","145","","","","","","[{""stimulus"":""img/red_wl/1.jpg"",""time"":52},{""stimulus"":""img/red_wl/2.jpg"",""time"":102},{""stimulus"":""img/red_wl/3.jpg"",""time"":151},{""stimulus"":""img/red_wl/4.jpg"",""time"":203},{""stimulus"":""img/red_wl/5.jpg"",""time"":251},{""stimulus"":""img/red_wl/6.jpg"",""time"":301},{""stimulus"":""img/red_wl/7.jpg"",""time"":351},{""stimulus"":""img/red_wl/8.jpg"",""time"":401},{""stimulus"":""img/red_wl/9.jpg"",""time"":451},{""stimulus"":""img/red_wl/10.jpg"",""time"":501},{""stimulus"":""img/red_wl/11.jpg"",""time"":551}]","[]"
"image-keyboard-response","166","117870","0.0-5.0-1.81","60761cf3cc35a2a9b127b414","bdp_lott","Sun Mar 26 2023 18:31:42 GMT-0400 (Eastern Daylight Time)","267807","green","red","","337","","","","choice","","img/red_wl/choose11.jpg","2","144","red","0.5","0.1","0.1","l","",""
"animation","167","118471","0.0-5.0-2.81","60761cf3cc35a2a9b127b414","bdp_lott","Sun Mar 26 2023 18:31:42 GMT-0400 (Eastern Daylight Time)","267807","green","red","","","","","","","","","","144","","","","","","[{""stimulus"":""img/red_wl/1.jpg"",""time"":51},{""stimulus"":""img/red_wl/2.jpg"",""time"":101},{""stimulus"":""img/red_wl/3.jpg"",""time"":152},{""stimulus"":""img/red_wl/4.jpg"",""time"":201},{""stimulus"":""img/red_wl/5.jpg"",""time"":252},{""stimulus"":""img/red_wl/6.jpg"",""time"":301},{""stimulus"":""img/red_wl/7.jpg"",""time"":352},{""stimulus"":""img/red_wl/8.jpg"",""time"":402},{""stimulus"":""img/red_wl/9.jpg"",""time"":452},{""stimulus"":""img/red_wl/10.jpg"",""time"":501},{""stimulus"":""img/red_wl/11.jpg"",""time"":551}]","[]"
"image-keyboard-response","168","118871","0.0-5.0-1.82","60761cf3cc35a2a9b127b414","bdp_lott","Sun Mar 26 2023 18:31:42 GMT-0400 (Eastern Daylight Time)","267807","green","red","","399","","","","choice","","img/red_wl/choose11.jpg","2","143","red","0.5","0.1","0.1","l","",""
"animation","169","119472","0.0-5.0-2.82","60761cf3cc35a2a9b127b414","bdp_lott","Sun Mar 26 2023 18:31:42 GMT-0400 (Eastern Daylight Time)","267807","green","red","","","","","","","","","","143","","","","","","[{""stimulus"":""img/red_wl/1.jpg"",""time"":53},{""stimulus"":""img/red_wl/2.jpg"",""time"":100},{""stimulus"":""img/red_wl/3.jpg"",""time"":151},{""stimulus"":""img/red_wl/4.jpg"",""time"":201},{""stimulus"":""img/red_wl/5.jpg"",""time"":251},{""stimulus"":""img/red_wl/6.jpg"",""time"":301},{""stimulus"":""img/red_wl/7.jpg"",""time"":351},{""stimulus"":""img/red_wl/8.jpg"",""time"":401},{""stimulus"":""img/red_wl/9.jpg"",""time"":451},{""stimulus"":""img/red_wl/10.jpg"",""time"":501},{""stimulus"":""img/red_wl/11.jpg"",""time"":550}]","[]"
"image-keyboard-response","170","119802","0.0-5.0-1.83","60761cf3cc35a2a9b127b414","bdp_lott","Sun Mar 26 2023 18:31:42 GMT-0400 (Eastern Daylight Time)","267807","green","red","","329","","","","choice","","img/red_wl/choose11.jpg","2","142","red","0.5","0.1","0.1","l","",""
"animation","171","120403","0.0-5.0-2.83","60761cf3cc35a2a9b127b414","bdp_lott","Sun Mar 26 2023 18:31:42 GMT-0400 (Eastern Daylight Time)","267807","green","red","","","","","","","","","","142","","","","","","[{""stimulus"":""img/red_wl/1.jpg"",""time"":51},{""stimulus"":""img/red_wl/2.jpg"",""time"":100},{""stimulus"":""img/red_wl/3.jpg"",""time"":151},{""stimulus"":""img/red_wl/4.jpg"",""time"":201},{""stimulus"":""img/red_wl/5.jpg"",""time"":251},{""stimulus"":""img/red_wl/6.jpg"",""time"":300},{""stimulus"":""img/red_wl/7.jpg"",""time"":351},{""stimulus"":""img/red_wl/8.jpg"",""time"":401},{""stimulus"":""img/red_wl/9.jpg"",""time"":451},{""stimulus"":""img/red_wl/10.jpg"",""time"":501},{""stimulus"":""img/red_wl/11.jpg"",""time"":550}]","[]"
"image-keyboard-response","172","120748","0.0-5.0-1.84","60761cf3cc35a2a9b127b414","bdp_lott","Sun Mar 26 2023 18:31:42 GMT-0400 (Eastern Daylight Time)","267807","green","red","","344","","","","choice","","img/red_wl/choose11.jpg","2","141","red","0.5","0.1","0.1","l","",""
"animation","173","121350","0.0-5.0-2.84","60761cf3cc35a2a9b127b414","bdp_lott","Sun Mar 26 2023 18:31:42 GMT-0400 (Eastern Daylight Time)","267807","green","red","","","","","","","","","","141","","","","","","[{""stimulus"":""img/red_wl/1.jpg"",""time"":52},{""stimulus"":""img/red_wl/2.jpg"",""time"":101},{""stimulus"":""img/red_wl/3.jpg"",""time"":150},{""stimulus"":""img/red_wl/4.jpg"",""time"":200},{""stimulus"":""img/red_wl/5.jpg"",""time"":251},{""stimulus"":""img/red_wl/6.jpg"",""time"":301},{""stimulus"":""img/red_wl/7.jpg"",""time"":351},{""stimulus"":""img/red_wl/8.jpg"",""time"":400},{""stimulus"":""img/red_wl/9.jpg"",""time"":450},{""stimulus"":""img/red_wl/10.jpg"",""time"":501},{""stimulus"":""img/red_wl/11.jpg"",""time"":552}]","[]"
"image-keyboard-response","174","121691","0.0-5.0-1.85","60761cf3cc35a2a9b127b414","bdp_lott","Sun Mar 26 2023 18:31:42 GMT-0400 (Eastern Daylight Time)","267807","green","red","","340","","","","choice","","img/red_wl/choose11.jpg","2","140","red","0.5","0.1","0.1","l","",""
"animation","175","122293","0.0-5.0-2.85","60761cf3cc35a2a9b127b414","bdp_lott","Sun Mar 26 2023 18:31:42 GMT-0400 (Eastern Daylight Time)","267807","green","red","","","","","","","","","","140","","","","","","[{""stimulus"":""img/red_wl/1.jpg"",""time"":51},{""stimulus"":""img/red_wl/2.jpg"",""time"":101},{""stimulus"":""img/red_wl/3.jpg"",""time"":151},{""stimulus"":""img/red_wl/4.jpg"",""time"":201},{""stimulus"":""img/red_wl/5.jpg"",""time"":252},{""stimulus"":""img/red_wl/6.jpg"",""time"":301},{""stimulus"":""img/red_wl/7.jpg"",""time"":351},{""stimulus"":""img/red_wl/8.jpg"",""time"":402},{""stimulus"":""img/red_wl/9.jpg"",""time"":451},{""stimulus"":""img/red_wl/10.jpg"",""time"":501},{""stimulus"":""img/red_wl/11.jpg"",""time"":552}]","[]"
"image-keyboard-response","176","122636","0.0-5.0-1.86","60761cf3cc35a2a9b127b414","bdp_lott","Sun Mar 26 2023 18:31:42 GMT-0400 (Eastern Daylight Time)","267807","green","red","","342","","","","choice","","img/red_wl/choose11.jpg","2","139","red","0.5","0.1","0.1","l","",""
"animation","177","123237","0.0-5.0-2.86","60761cf3cc35a2a9b127b414","bdp_lott","Sun Mar 26 2023 18:31:42 GMT-0400 (Eastern Daylight Time)","267807","green","red","","","","","","","","","","139","","","","","","[{""stimulus"":""img/red_wl/1.jpg"",""time"":51},{""stimulus"":""img/red_wl/2.jpg"",""time"":101},{""stimulus"":""img/red_wl/3.jpg"",""time"":151},{""stimulus"":""img/red_wl/4.jpg"",""time"":200},{""stimulus"":""img/red_wl/5.jpg"",""time"":251},{""stimulus"":""img/red_wl/6.jpg"",""time"":301},{""stimulus"":""img/red_wl/7.jpg"",""time"":351},{""stimulus"":""img/red_wl/8.jpg"",""time"":401},{""stimulus"":""img/red_wl/9.jpg"",""time"":451},{""stimulus"":""img/red_wl/10.jpg"",""time"":501},{""stimulus"":""img/red_wl/11.jpg"",""time"":551}]","[]"
"image-keyboard-response","178","123583","0.0-5.0-1.87","60761cf3cc35a2a9b127b414","bdp_lott","Sun Mar 26 2023 18:31:42 GMT-0400 (Eastern Daylight Time)","267807","green","red","","345","","","","choice","","img/red_wl/choose11.jpg","2","138","red","0.5","0.1","0.1","w","",""
"animation","179","124184","0.0-5.0-2.87","60761cf3cc35a2a9b127b414","bdp_lott","Sun Mar 26 2023 18:31:42 GMT-0400 (Eastern Daylight Time)","267807","green","red","","","","","","","","","","138","","","","","","[{""stimulus"":""img/red_ww/1.jpg"",""time"":52},{""stimulus"":""img/red_ww/2.jpg"",""time"":101},{""stimulus"":""img/red_ww/3.jpg"",""time"":151},{""stimulus"":""img/red_ww/4.jpg"",""time"":201},{""stimulus"":""img/red_ww/5.jpg"",""time"":252},{""stimulus"":""img/red_ww/6.jpg"",""time"":301},{""stimulus"":""img/red_ww/7.jpg"",""time"":351},{""stimulus"":""img/red_ww/8.jpg"",""time"":402},{""stimulus"":""img/red_ww/9.jpg"",""time"":451},{""stimulus"":""img/red_ww/10.jpg"",""time"":501},{""stimulus"":""img/red_ww/11.jpg"",""time"":552}]","[]"
"image-keyboard-response","180","124771","0.0-5.0-1.88","60761cf3cc35a2a9b127b414","bdp_lott","Sun Mar 26 2023 18:31:42 GMT-0400 (Eastern Daylight Time)","267807","green","red","","587","","","","choice","","img/red_ww/choose11.jpg","1","137","green","0.5","0.1","0.5","l","",""
"animation","181","125371","0.0-5.0-2.88","60761cf3cc35a2a9b127b414","bdp_lott","Sun Mar 26 2023 18:31:42 GMT-0400 (Eastern Daylight Time)","267807","green","red","","","","","","","","","","137","","","","","","[{""stimulus"":""img/green_lw/1.jpg"",""time"":52},{""stimulus"":""img/green_lw/2.jpg"",""time"":102},{""stimulus"":""img/green_lw/3.jpg"",""time"":151},{""stimulus"":""img/green_lw/4.jpg"",""time"":201},{""stimulus"":""img/green_lw/5.jpg"",""time"":251},{""stimulus"":""img/green_lw/6.jpg"",""time"":301},{""stimulus"":""img/green_lw/7.jpg"",""time"":351},{""stimulus"":""img/green_lw/8.jpg"",""time"":401},{""stimulus"":""img/green_lw/9.jpg"",""time"":451},{""stimulus"":""img/green_lw/10.jpg"",""time"":501},{""stimulus"":""img/green_lw/11.jpg"",""time"":553}]","[]"
"image-keyboard-response","182","125882","0.0-5.0-1.89","60761cf3cc35a2a9b127b414","bdp_lott","Sun Mar 26 2023 18:31:42 GMT-0400 (Eastern Daylight Time)","267807","green","red","","510","","","","choice","","img/green_lw/choose11.jpg","1","136","green","0.5","0.1","0.5","l","",""
"animation","183","126483","0.0-5.0-2.89","60761cf3cc35a2a9b127b414","bdp_lott","Sun Mar 26 2023 18:31:42 GMT-0400 (Eastern Daylight Time)","267807","green","red","","","","","","","","","","136","","","","","","[{""stimulus"":""img/green_lw/1.jpg"",""time"":51},{""stimulus"":""img/green_lw/2.jpg"",""time"":100},{""stimulus"":""img/green_lw/3.jpg"",""time"":151},{""stimulus"":""img/green_lw/4.jpg"",""time"":201},{""stimulus"":""img/green_lw/5.jpg"",""time"":251},{""stimulus"":""img/green_lw/6.jpg"",""time"":301},{""stimulus"":""img/green_lw/7.jpg"",""time"":351},{""stimulus"":""img/green_lw/8.jpg"",""time"":401},{""stimulus"":""img/green_lw/9.jpg"",""time"":451},{""stimulus"":""img/green_lw/10.jpg"",""time"":502},{""stimulus"":""img/green_lw/11.jpg"",""time"":552}]","[]"
"image-keyboard-response","184","126882","0.0-5.0-1.90","60761cf3cc35a2a9b127b414","bdp_lott","Sun Mar 26 2023 18:31:42 GMT-0400 (Eastern Daylight Time)","267807","green","red","","399","","","","choice","","img/green_lw/choose11.jpg","1","135","green","0.5","0.1","0.5","l","",""
"animation","185","127483","0.0-5.0-2.90","60761cf3cc35a2a9b127b414","bdp_lott","Sun Mar 26 2023 18:31:42 GMT-0400 (Eastern Daylight Time)","267807","green","red","","","","","","","","","","135","","","","","","[{""stimulus"":""img/green_lw/1.jpg"",""time"":51},{""stimulus"":""img/green_lw/2.jpg"",""time"":101},{""stimulus"":""img/green_lw/3.jpg"",""time"":151},{""stimulus"":""img/green_lw/4.jpg"",""time"":200},{""stimulus"":""img/green_lw/5.jpg"",""time"":251},{""stimulus"":""img/green_lw/6.jpg"",""time"":300},{""stimulus"":""img/green_lw/7.jpg"",""time"":351},{""stimulus"":""img/green_lw/8.jpg"",""time"":401},{""stimulus"":""img/green_lw/9.jpg"",""time"":450},{""stimulus"":""img/green_lw/10.jpg"",""time"":500},{""stimulus"":""img/green_lw/11.jpg"",""time"":550}]","[]"
"image-keyboard-response","186","127805","0.0-5.0-1.91","60761cf3cc35a2a9b127b414","bdp_lott","Sun Mar 26 2023 18:31:42 GMT-0400 (Eastern Daylight Time)","267807","green","red","","321","","","","choice","","img/green_lw/choose11.jpg","1","134","green","0.5","0.1","0.5","l","",""
"animation","187","128406","0.0-5.0-2.91","60761cf3cc35a2a9b127b414","bdp_lott","Sun Mar 26 2023 18:31:42 GMT-0400 (Eastern Daylight Time)","267807","green","red","","","","","","","","","","134","","","","","","[{""stimulus"":""img/green_lw/1.jpg"",""time"":51},{""stimulus"":""img/green_lw/2.jpg"",""time"":101},{""stimulus"":""img/green_lw/3.jpg"",""time"":151},{""stimulus"":""img/green_lw/4.jpg"",""time"":201},{""stimulus"":""img/green_lw/5.jpg"",""time"":251},{""stimulus"":""img/green_lw/6.jpg"",""time"":301},{""stimulus"":""img/green_lw/7.jpg"",""time"":351},{""stimulus"":""img/green_lw/8.jpg"",""time"":401},{""stimulus"":""img/green_lw/9.jpg"",""time"":451},{""stimulus"":""img/green_lw/10.jpg"",""time"":501},{""stimulus"":""img/green_lw/11.jpg"",""time"":551}]","[]"
"image-keyboard-response","188","128746","0.0-5.0-1.92","60761cf3cc35a2a9b127b414","bdp_lott","Sun Mar 26 2023 18:31:42 GMT-0400 (Eastern Daylight Time)","267807","green","red","","338","","","","choice","","img/green_lw/choose11.jpg","1","133","green","0.5","0.1","0.5","l","",""
"animation","189","129347","0.0-5.0-2.92","60761cf3cc35a2a9b127b414","bdp_lott","Sun Mar 26 2023 18:31:42 GMT-0400 (Eastern Daylight Time)","267807","green","red","","","","","","","","","","133","","","","","","[{""stimulus"":""img/green_lw/1.jpg"",""time"":51},{""stimulus"":""img/green_lw/2.jpg"",""time"":101},{""stimulus"":""img/green_lw/3.jpg"",""time"":151},{""stimulus"":""img/green_lw/4.jpg"",""time"":201},{""stimulus"":""img/green_lw/5.jpg"",""time"":252},{""stimulus"":""img/green_lw/6.jpg"",""time"":300},{""stimulus"":""img/green_lw/7.jpg"",""time"":351},{""stimulus"":""img/green_lw/8.jpg"",""time"":400},{""stimulus"":""img/green_lw/9.jpg"",""time"":451},{""stimulus"":""img/green_lw/10.jpg"",""time"":501},{""stimulus"":""img/green_lw/11.jpg"",""time"":551}]","[]"
"image-keyboard-response","190","129712","0.0-5.0-1.93","60761cf3cc35a2a9b127b414","bdp_lott","Sun Mar 26 2023 18:31:42 GMT-0400 (Eastern Daylight Time)","267807","green","red","","365","","","","choice","","img/green_lw/choose11.jpg","1","132","green","0.5","0.1","0.5","w","",""
"animation","191","130313","0.0-5.0-2.93","60761cf3cc35a2a9b127b414","bdp_lott","Sun Mar 26 2023 18:31:42 GMT-0400 (Eastern Daylight Time)","267807","green","red","","","","","","","","","","132","","","","","","[{""stimulus"":""img/green_ww/1.jpg"",""time"":51},{""stimulus"":""img/green_ww/2.jpg"",""time"":101},{""stimulus"":""img/green_ww/3.jpg"",""time"":150},{""stimulus"":""img/green_ww/4.jpg"",""time"":201},{""stimulus"":""img/green_ww/5.jpg"",""time"":251},{""stimulus"":""img/green_ww/6.jpg"",""time"":301},{""stimulus"":""img/green_ww/7.jpg"",""time"":351},{""stimulus"":""img/green_ww/8.jpg"",""time"":402},{""stimulus"":""img/green_ww/9.jpg"",""time"":451},{""stimulus"":""img/green_ww/10.jpg"",""time"":501},{""stimulus"":""img/green_ww/11.jpg"",""time"":551}]","[]"
