"trial_type","trial_index","time_elapsed","internal_node_id","subject_id","task","startTime","totalTime","fairMachine","unfairMachine","view_history","rt","event","trial","time","trialtype","success","stimulus","key_press","roundsLeft","chosen","pFairMachWin","pUnfairMachWin","pTrialWin","outcome","animation_sequence","responses"
"pavlovia","0","10","0.0-0.0","5e7abb2c6c89e4000a180b4a","bdp_lott","Tue Mar 28 2023 15:25:36 GMT-0500 (Central Daylight Time)","435894","red","green","","","","","","","","","","","","","","","","",""
"instructions","1","2907","0.0-1.0","5e7abb2c6c89e4000a180b4a","bdp_lott","Tue Mar 28 2023 15:25:36 GMT-0500 (Central Daylight Time)","435894","red","green","[{""page_index"":0,""viewing_time"":2896}]","2896","","","","","","","","","","","","","","",""
"","","","","5e7abb2c6c89e4000a180b4a","bdp_lott","Tue Mar 28 2023 15:25:36 GMT-0500 (Central Daylight Time)","435894","red","green","","","fullscreenenter","2","5423","fullscreenenter","","","","","","","","","","",""
"fullscreen","2","6376","0.0-2.0","5e7abb2c6c89e4000a180b4a","bdp_lott","Tue Mar 28 2023 15:25:36 GMT-0500 (Central Daylight Time)","435894","red","green","","","","","","","true","","","","","","","","","",""
"instructions","3","64279","0.0-4.0","5e7abb2c6c89e4000a180b4a","bdp_lott","Tue Mar 28 2023 15:25:36 GMT-0500 (Central Daylight Time)","435894","red","green","[{""page_index"":0,""viewing_time"":57900}]","57901","","","","","","","","","","","","","","",""
"image-keyboard-response","4","66124","0.0-5.0-1.0","5e7abb2c6c89e4000a180b4a","bdp_lott","Tue Mar 28 2023 15:25:36 GMT-0500 (Central Daylight Time)","435894","red","green","","1842","","","","choice","","img/red_ll/initchoose11.jpg","1","225","green","0.5","0.5","0.5","l","",""
"animation","5","66726","0.0-5.0-2.0","5e7abb2c6c89e4000a180b4a","bdp_lott","Tue Mar 28 2023 15:25:36 GMT-0500 (Central Daylight Time)","435894","red","green","","","","","","","","","","225","","","","","","[{""stimulus"":""img/green_ll/1.jpg"",""time"":51},{""stimulus"":""img/green_ll/2.jpg"",""time"":100},{""stimulus"":""img/green_ll/3.jpg"",""time"":150},{""stimulus"":""img/green_ll/4.jpg"",""time"":200},{""stimulus"":""img/green_ll/5.jpg"",""time"":250},{""stimulus"":""img/green_ll/6.jpg"",""time"":301},{""stimulus"":""img/green_ll/7.jpg"",""time"":350},{""stimulus"":""img/green_ll/8.jpg"",""time"":400},{""stimulus"":""img/green_ll/9.jpg"",""time"":451},{""stimulus"":""img/green_ll/10.jpg"",""time"":501},{""stimulus"":""img/green_ll/11.jpg"",""time"":551}]","[]"
"image-keyboard-response","6","69357","0.0-5.0-1.1","5e7abb2c6c89e4000a180b4a","bdp_lott","Tue Mar 28 2023 15:25:36 GMT-0500 (Central Daylight Time)","435894","red","green","","2630","","","","choice","","img/green_ll/choose11.jpg","1","224","green","0.5","0.5","0.5","l","",""
"animation","7","69959","0.0-5.0-2.1","5e7abb2c6c89e4000a180b4a","bdp_lott","Tue Mar 28 2023 15:25:36 GMT-0500 (Central Daylight Time)","435894","red","green","","","","","","","","","","224","","","","","","[{""stimulus"":""img/green_ll/1.jpg"",""time"":51},{""stimulus"":""img/green_ll/2.jpg"",""time"":112},{""stimulus"":""img/green_ll/3.jpg"",""time"":152},{""stimulus"":""img/green_ll/4.jpg"",""time"":201},{""stimulus"":""img/green_ll/5.jpg"",""time"":252},{""stimulus"":""img/green_ll/6.jpg"",""time"":302},{""stimulus"":""img/green_ll/7.jpg"",""time"":351},{""stimulus"":""img/green_ll/8.jpg"",""time"":402},{""stimulus"":""img/green_ll/9.jpg"",""time"":452},{""stimulus"":""img/green_ll/10.jpg"",""time"":501},{""stimulus"":""img/green_ll/11.jpg"",""time"":552}]","[]"
"image-keyboard-response","8","71169","0.0-5.0-1.2","5e7abb2c6c89e4000a180b4a","bdp_lott","Tue Mar 28 2023 15:25:36 GMT-0500 (Central Daylight Time)","435894","red","green","","1209","","","","choice","","img/green_ll/choose11.jpg","2","223","red","0.5","0.5","0.5","w","",""
"animation","9","71771","0.0-5.0-2.2","5e7abb2c6c89e4000a180b4a","bdp_lott","Tue Mar 28 2023 15:25:36 GMT-0500 (Central Daylight Time)","435894","red","green","","","","","","","","","","223","","","","","","[{""stimulus"":""img/red_lw/1.jpg"",""time"":53},{""stimulus"":""img/red_lw/2.jpg"",""time"":101},{""stimulus"":""img/red_lw/3.jpg"",""time"":152},{""stimulus"":""img/red_lw/4.jpg"",""time"":201},{""stimulus"":""img/red_lw/5.jpg"",""time"":251},{""stimulus"":""img/red_lw/6.jpg"",""time"":302},{""stimulus"":""img/red_lw/7.jpg"",""time"":351},{""stimulus"":""img/red_lw/8.jpg"",""time"":403},{""stimulus"":""img/red_lw/9.jpg"",""time"":452},{""stimulus"":""img/red_lw/10.jpg"",""time"":501},{""stimulus"":""img/red_lw/11.jpg"",""time"":553}]","[]"
"image-keyboard-response","10","76390","0.0-5.0-1.3","5e7abb2c6c89e4000a180b4a","bdp_lott","Tue Mar 28 2023 15:25:36 GMT-0500 (Central Daylight Time)","435894","red","green","","4617","","","","choice","","img/red_lw/choose11.jpg","2","222","red","0.5","0.5","0.5","l","",""
"animation","11","76991","0.0-5.0-2.3","5e7abb2c6c89e4000a180b4a","bdp_lott","Tue Mar 28 2023 15:25:36 GMT-0500 (Central Daylight Time)","435894","red","green","","","","","","","","","","222","","","","","","[{""stimulus"":""img/red_ll/1.jpg"",""time"":51},{""stimulus"":""img/red_ll/2.jpg"",""time"":101},{""stimulus"":""img/red_ll/3.jpg"",""time"":152},{""stimulus"":""img/red_ll/4.jpg"",""time"":200},{""stimulus"":""img/red_ll/5.jpg"",""time"":251},{""stimulus"":""img/red_ll/6.jpg"",""time"":301},{""stimulus"":""img/red_ll/7.jpg"",""time"":351},{""stimulus"":""img/red_ll/8.jpg"",""time"":401},{""stimulus"":""img/red_ll/9.jpg"",""time"":451},{""stimulus"":""img/red_ll/10.jpg"",""time"":500},{""stimulus"":""img/red_ll/11.jpg"",""time"":551}]","[]"
"image-keyboard-response","12","78085","0.0-5.0-1.4","5e7abb2c6c89e4000a180b4a","bdp_lott","Tue Mar 28 2023 15:25:36 GMT-0500 (Central Daylight Time)","435894","red","green","","1093","","","","choice","","img/red_ll/choose11.jpg","2","221","red","0.5","0.5","0.5","w","",""
"animation","13","78686","0.0-5.0-2.4","5e7abb2c6c89e4000a180b4a","bdp_lott","Tue Mar 28 2023 15:25:36 GMT-0500 (Central Daylight Time)","435894","red","green","","","","","","","","","","221","","","","","","[{""stimulus"":""img/red_lw/1.jpg"",""time"":52},{""stimulus"":""img/red_lw/2.jpg"",""time"":101},{""stimulus"":""img/red_lw/3.jpg"",""time"":151},{""stimulus"":""img/red_lw/4.jpg"",""time"":201},{""stimulus"":""img/red_lw/5.jpg"",""time"":251},{""stimulus"":""img/red_lw/6.jpg"",""time"":301},{""stimulus"":""img/red_lw/7.jpg"",""time"":351},{""stimulus"":""img/red_lw/8.jpg"",""time"":401},{""stimulus"":""img/red_lw/9.jpg"",""time"":451},{""stimulus"":""img/red_lw/10.jpg"",""time"":502},{""stimulus"":""img/red_lw/11.jpg"",""time"":551}]","[]"
"image-keyboard-response","14","79912","0.0-5.0-1.5","5e7abb2c6c89e4000a180b4a","bdp_lott","Tue Mar 28 2023 15:25:36 GMT-0500 (Central Daylight Time)","435894","red","green","","1225","","","","choice","","img/red_lw/choose11.jpg","1","220","green","0.5","0.5","0.5","l","",""
"animation","15","80513","0.0-5.0-2.5","5e7abb2c6c89e4000a180b4a","bdp_lott","Tue Mar 28 2023 15:25:36 GMT-0500 (Central Daylight Time)","435894","red","green","","","","","","","","","","220","","","","","","[{""stimulus"":""img/green_lw/1.jpg"",""time"":51},{""stimulus"":""img/green_lw/2.jpg"",""time"":100},{""stimulus"":""img/green_lw/3.jpg"",""time"":150},{""stimulus"":""img/green_lw/4.jpg"",""time"":201},{""stimulus"":""img/green_lw/5.jpg"",""time"":250},{""stimulus"":""img/green_lw/6.jpg"",""time"":301},{""stimulus"":""img/green_lw/7.jpg"",""time"":350},{""stimulus"":""img/green_lw/8.jpg"",""time"":401},{""stimulus"":""img/green_lw/9.jpg"",""time"":451},{""stimulus"":""img/green_lw/10.jpg"",""time"":501},{""stimulus"":""img/green_lw/11.jpg"",""time"":551}]","[]"
"image-keyboard-response","16","82908","0.0-5.0-1.6","5e7abb2c6c89e4000a180b4a","bdp_lott","Tue Mar 28 2023 15:25:36 GMT-0500 (Central Daylight Time)","435894","red","green","","2394","","","","choice","","img/green_lw/choose11.jpg","1","219","green","0.5","0.5","0.5","l","",""
"animation","17","83509","0.0-5.0-2.6","5e7abb2c6c89e4000a180b4a","bdp_lott","Tue Mar 28 2023 15:25:36 GMT-0500 (Central Daylight Time)","435894","red","green","","","","","","","","","","219","","","","","","[{""stimulus"":""img/green_lw/1.jpg"",""time"":52},{""stimulus"":""img/green_lw/2.jpg"",""time"":101},{""stimulus"":""img/green_lw/3.jpg"",""time"":151},{""stimulus"":""img/green_lw/4.jpg"",""time"":202},{""stimulus"":""img/green_lw/5.jpg"",""time"":251},{""stimulus"":""img/green_lw/6.jpg"",""time"":301},{""stimulus"":""img/green_lw/7.jpg"",""time"":352},{""stimulus"":""img/green_lw/8.jpg"",""time"":402},{""stimulus"":""img/green_lw/9.jpg"",""time"":451},{""stimulus"":""img/green_lw/10.jpg"",""time"":501},{""stimulus"":""img/green_lw/11.jpg"",""time"":552}]","[]"
"image-keyboard-response","18","84589","0.0-5.0-1.7","5e7abb2c6c89e4000a180b4a","bdp_lott","Tue Mar 28 2023 15:25:36 GMT-0500 (Central Daylight Time)","435894","red","green","","1079","","","","choice","","img/green_lw/choose11.jpg","2","218","red","0.5","0.5","0.5","w","",""
"animation","19","85191","0.0-5.0-2.7","5e7abb2c6c89e4000a180b4a","bdp_lott","Tue Mar 28 2023 15:25:36 GMT-0500 (Central Daylight Time)","435894","red","green","","","","","","","","","","218","","","","","","[{""stimulus"":""img/red_lw/1.jpg"",""time"":52},{""stimulus"":""img/red_lw/2.jpg"",""time"":101},{""stimulus"":""img/red_lw/3.jpg"",""time"":152},{""stimulus"":""img/red_lw/4.jpg"",""time"":202},{""stimulus"":""img/red_lw/5.jpg"",""time"":252},{""stimulus"":""img/red_lw/6.jpg"",""time"":301},{""stimulus"":""img/red_lw/7.jpg"",""time"":351},{""stimulus"":""img/red_lw/8.jpg"",""time"":401},{""stimulus"":""img/red_lw/9.jpg"",""time"":453},{""stimulus"":""img/red_lw/10.jpg"",""time"":502},{""stimulus"":""img/red_lw/11.jpg"",""time"":552}]","[]"
"image-keyboard-response","20","86852","0.0-5.0-1.8","5e7abb2c6c89e4000a180b4a","bdp_lott","Tue Mar 28 2023 15:25:36 GMT-0500 (Central Daylight Time)","435894","red","green","","1661","","","","choice","","img/red_lw/choose11.jpg","1","217","green","0.5","0.5","0.5","w","",""
"animation","21","87452","0.0-5.0-2.8","5e7abb2c6c89e4000a180b4a","bdp_lott","Tue Mar 28 2023 15:25:36 GMT-0500 (Central Daylight Time)","435894","red","green","","","","","","","","","","217","","","","","","[{""stimulus"":""img/green_ww/1.jpg"",""time"":51},{""stimulus"":""img/green_ww/2.jpg"",""time"":101},{""stimulus"":""img/green_ww/3.jpg"",""time"":152},{""stimulus"":""img/green_ww/4.jpg"",""time"":201},{""stimulus"":""img/green_ww/5.jpg"",""time"":251},{""stimulus"":""img/green_ww/6.jpg"",""time"":302},{""stimulus"":""img/green_ww/7.jpg"",""time"":351},{""stimulus"":""img/green_ww/8.jpg"",""time"":401},{""stimulus"":""img/green_ww/9.jpg"",""time"":451},{""stimulus"":""img/green_ww/10.jpg"",""time"":501},{""stimulus"":""img/green_ww/11.jpg"",""time"":551}]","[]"
"image-keyboard-response","22","92538","0.0-5.0-1.9","5e7abb2c6c89e4000a180b4a","bdp_lott","Tue Mar 28 2023 15:25:36 GMT-0500 (Central Daylight Time)","435894","red","green","","5085","","","","choice","","img/green_ww/choose11.jpg","2","216","red","0.5","0.5","0.5","w","",""
"animation","23","93140","0.0-5.0-2.9","5e7abb2c6c89e4000a180b4a","bdp_lott","Tue Mar 28 2023 15:25:36 GMT-0500 (Central Daylight Time)","435894","red","green","","","","","","","","","","216","","","","","","[{""stimulus"":""img/red_ww/1.jpg"",""time"":51},{""stimulus"":""img/red_ww/2.jpg"",""time"":100},{""stimulus"":""img/red_ww/3.jpg"",""time"":151},{""stimulus"":""img/red_ww/4.jpg"",""time"":200},{""stimulus"":""img/red_ww/5.jpg"",""time"":251},{""stimulus"":""img/red_ww/6.jpg"",""time"":301},{""stimulus"":""img/red_ww/7.jpg"",""time"":351},{""stimulus"":""img/red_ww/8.jpg"",""time"":400},{""stimulus"":""img/red_ww/9.jpg"",""time"":451},{""stimulus"":""img/red_ww/10.jpg"",""time"":502},{""stimulus"":""img/red_ww/11.jpg"",""time"":551}]","[]"
"image-keyboard-response","24","94310","0.0-5.0-1.10","5e7abb2c6c89e4000a180b4a","bdp_lott","Tue Mar 28 2023 15:25:36 GMT-0500 (Central Daylight Time)","435894","red","green","","1169","","","","choice","","img/red_ww/choose11.jpg","1","215","green","0.5","0.5","0.5","w","",""
"animation","25","94911","0.0-5.0-2.10","5e7abb2c6c89e4000a180b4a","bdp_lott","Tue Mar 28 2023 15:25:36 GMT-0500 (Central Daylight Time)","435894","red","green","","","","","","","","","","215","","","","","","[{""stimulus"":""img/green_ww/1.jpg"",""time"":51},{""stimulus"":""img/green_ww/2.jpg"",""time"":101},{""stimulus"":""img/green_ww/3.jpg"",""time"":152},{""stimulus"":""img/green_ww/4.jpg"",""time"":201},{""stimulus"":""img/green_ww/5.jpg"",""time"":251},{""stimulus"":""img/green_ww/6.jpg"",""time"":301},{""stimulus"":""img/green_ww/7.jpg"",""time"":351},{""stimulus"":""img/green_ww/8.jpg"",""time"":401},{""stimulus"":""img/green_ww/9.jpg"",""time"":451},{""stimulus"":""img/green_ww/10.jpg"",""time"":501},{""stimulus"":""img/green_ww/11.jpg"",""time"":551}]","[]"
"image-keyboard-response","26","99544","0.0-5.0-1.11","5e7abb2c6c89e4000a180b4a","bdp_lott","Tue Mar 28 2023 15:25:36 GMT-0500 (Central Daylight Time)","435894","red","green","","4632","","","","choice","","img/green_ww/choose11.jpg","2","214","red","0.5","0.5","0.5","w","",""
"animation","27","100146","0.0-5.0-2.11","5e7abb2c6c89e4000a180b4a","bdp_lott","Tue Mar 28 2023 15:25:36 GMT-0500 (Central Daylight Time)","435894","red","green","","","","","","","","","","214","","","","","","[{""stimulus"":""img/red_ww/1.jpg"",""time"":51},{""stimulus"":""img/red_ww/2.jpg"",""time"":101},{""stimulus"":""img/red_ww/3.jpg"",""time"":151},{""stimulus"":""img/red_ww/4.jpg"",""time"":201},{""stimulus"":""img/red_ww/5.jpg"",""time"":251},{""stimulus"":""img/red_ww/6.jpg"",""time"":301},{""stimulus"":""img/red_ww/7.jpg"",""time"":351},{""stimulus"":""img/red_ww/8.jpg"",""time"":401},{""stimulus"":""img/red_ww/9.jpg"",""time"":451},{""stimulus"":""img/red_ww/10.jpg"",""time"":501},{""stimulus"":""img/red_ww/11.jpg"",""time"":552}]","[]"
"image-keyboard-response","28","101289","0.0-5.0-1.12","5e7abb2c6c89e4000a180b4a","bdp_lott","Tue Mar 28 2023 15:25:36 GMT-0500 (Central Daylight Time)","435894","red","green","","1142","","","","choice","","img/red_ww/choose11.jpg","1","213","green","0.5","0.5","0.5","w","",""
"animation","29","101891","0.0-5.0-2.12","5e7abb2c6c89e4000a180b4a","bdp_lott","Tue Mar 28 2023 15:25:36 GMT-0500 (Central Daylight Time)","435894","red","green","","","","","","","","","","213","","","","","","[{""stimulus"":""img/green_ww/1.jpg"",""time"":51},{""stimulus"":""img/green_ww/2.jpg"",""time"":101},{""stimulus"":""img/green_ww/3.jpg"",""time"":151},{""stimulus"":""img/green_ww/4.jpg"",""time"":200},{""stimulus"":""img/green_ww/5.jpg"",""time"":251},{""stimulus"":""img/green_ww/6.jpg"",""time"":301},{""stimulus"":""img/green_ww/7.jpg"",""time"":351},{""stimulus"":""img/green_ww/8.jpg"",""time"":400},{""stimulus"":""img/green_ww/9.jpg"",""time"":451},{""stimulus"":""img/green_ww/10.jpg"",""time"":500},{""stimulus"":""img/green_ww/11.jpg"",""time"":551}]","[]"
"image-keyboard-response","30","104381","0.0-5.0-1.13","5e7abb2c6c89e4000a180b4a","bdp_lott","Tue Mar 28 2023 15:25:36 GMT-0500 (Central Daylight Time)","435894","red","green","","2489","","","","choice","","img/green_ww/choose11.jpg","2","212","red","0.5","0.5","0.5","w","",""
"animation","31","104983","0.0-5.0-2.13","5e7abb2c6c89e4000a180b4a","bdp_lott","Tue Mar 28 2023 15:25:36 GMT-0500 (Central Daylight Time)","435894","red","green","","","","","","","","","","212","","","","","","[{""stimulus"":""img/red_ww/1.jpg"",""time"":52},{""stimulus"":""img/red_ww/2.jpg"",""time"":102},{""stimulus"":""img/red_ww/3.jpg"",""time"":151},{""stimulus"":""img/red_ww/4.jpg"",""time"":201},{""stimulus"":""img/red_ww/5.jpg"",""time"":251},{""stimulus"":""img/red_ww/6.jpg"",""time"":301},{""stimulus"":""img/red_ww/7.jpg"",""time"":352},{""stimulus"":""img/red_ww/8.jpg"",""time"":401},{""stimulus"":""img/red_ww/9.jpg"",""time"":451},{""stimulus"":""img/red_ww/10.jpg"",""time"":502},{""stimulus"":""img/red_ww/11.jpg"",""time"":552}]","[]"
"image-keyboard-response","32","108005","0.0-5.0-1.14","5e7abb2c6c89e4000a180b4a","bdp_lott","Tue Mar 28 2023 15:25:36 GMT-0500 (Central Daylight Time)","435894","red","green","","3021","","","","choice","","img/red_ww/choose11.jpg","1","211","green","0.5","0.5","0.5","l","",""
"animation","33","108606","0.0-5.0-2.14","5e7abb2c6c89e4000a180b4a","bdp_lott","Tue Mar 28 2023 15:25:36 GMT-0500 (Central Daylight Time)","435894","red","green","","","","","","","","","","211","","","","","","[{""stimulus"":""img/green_lw/1.jpg"",""time"":52},{""stimulus"":""img/green_lw/2.jpg"",""time"":101},{""stimulus"":""img/green_lw/3.jpg"",""time"":152},{""stimulus"":""img/green_lw/4.jpg"",""time"":201},{""stimulus"":""img/green_lw/5.jpg"",""time"":252},{""stimulus"":""img/green_lw/6.jpg"",""time"":301},{""stimulus"":""img/green_lw/7.jpg"",""time"":352},{""stimulus"":""img/green_lw/8.jpg"",""time"":402},{""stimulus"":""img/green_lw/9.jpg"",""time"":452},{""stimulus"":""img/green_lw/10.jpg"",""time"":501},{""stimulus"":""img/green_lw/11.jpg"",""time"":552}]","[]"
"image-keyboard-response","34","112306","0.0-5.0-1.15","5e7abb2c6c89e4000a180b4a","bdp_lott","Tue Mar 28 2023 15:25:36 GMT-0500 (Central Daylight Time)","435894","red","green","","3699","","","","choice","","img/green_lw/choose11.jpg","2","210","red","0.5","0.5","0.5","l","",""
"animation","35","112908","0.0-5.0-2.15","5e7abb2c6c89e4000a180b4a","bdp_lott","Tue Mar 28 2023 15:25:36 GMT-0500 (Central Daylight Time)","435894","red","green","","","","","","","","","","210","","","","","","[{""stimulus"":""img/red_ll/1.jpg"",""time"":52},{""stimulus"":""img/red_ll/2.jpg"",""time"":110},{""stimulus"":""img/red_ll/3.jpg"",""time"":151},{""stimulus"":""img/red_ll/4.jpg"",""time"":203},{""stimulus"":""img/red_ll/5.jpg"",""time"":252},{""stimulus"":""img/red_ll/6.jpg"",""time"":302},{""stimulus"":""img/red_ll/7.jpg"",""time"":352},{""stimulus"":""img/red_ll/8.jpg"",""time"":401},{""stimulus"":""img/red_ll/9.jpg"",""time"":452},{""stimulus"":""img/red_ll/10.jpg"",""time"":514},{""stimulus"":""img/red_ll/11.jpg"",""time"":552}]","[]"
"image-keyboard-response","36","114014","0.0-5.0-1.16","5e7abb2c6c89e4000a180b4a","bdp_lott","Tue Mar 28 2023 15:25:36 GMT-0500 (Central Daylight Time)","435894","red","green","","1105","","","","choice","","img/red_ll/choose11.jpg","1","209","green","0.5","0.5","0.5","w","",""
"animation","37","114616","0.0-5.0-2.16","5e7abb2c6c89e4000a180b4a","bdp_lott","Tue Mar 28 2023 15:25:36 GMT-0500 (Central Daylight Time)","435894","red","green","","","","","","","","","","209","","","","","","[{""stimulus"":""img/green_wl/1.jpg"",""time"":51},{""stimulus"":""img/green_wl/2.jpg"",""time"":101},{""stimulus"":""img/green_wl/3.jpg"",""time"":150},{""stimulus"":""img/green_wl/4.jpg"",""time"":201},{""stimulus"":""img/green_wl/5.jpg"",""time"":250},{""stimulus"":""img/green_wl/6.jpg"",""time"":301},{""stimulus"":""img/green_wl/7.jpg"",""time"":350},{""stimulus"":""img/green_wl/8.jpg"",""time"":400},{""stimulus"":""img/green_wl/9.jpg"",""time"":451},{""stimulus"":""img/green_wl/10.jpg"",""time"":500},{""stimulus"":""img/green_wl/11.jpg"",""time"":552}]","[]"
"image-keyboard-response","38","115839","0.0-5.0-1.17","5e7abb2c6c89e4000a180b4a","bdp_lott","Tue Mar 28 2023 15:25:36 GMT-0500 (Central Daylight Time)","435894","red","green","","1222","","","","choice","","img/green_wl/choose11.jpg","2","208","red","0.5","0.5","0.5","w","",""
"animation","39","116441","0.0-5.0-2.17","5e7abb2c6c89e4000a180b4a","bdp_lott","Tue Mar 28 2023 15:25:36 GMT-0500 (Central Daylight Time)","435894","red","green","","","","","","","","","","208","","","","","","[{""stimulus"":""img/red_ww/1.jpg"",""time"":51},{""stimulus"":""img/red_ww/2.jpg"",""time"":102},{""stimulus"":""img/red_ww/3.jpg"",""time"":152},{""stimulus"":""img/red_ww/4.jpg"",""time"":203},{""stimulus"":""img/red_ww/5.jpg"",""time"":252},{""stimulus"":""img/red_ww/6.jpg"",""time"":302},{""stimulus"":""img/red_ww/7.jpg"",""time"":352},{""stimulus"":""img/red_ww/8.jpg"",""time"":401},{""stimulus"":""img/red_ww/9.jpg"",""time"":452},{""stimulus"":""img/red_ww/10.jpg"",""time"":502},{""stimulus"":""img/red_ww/11.jpg"",""time"":552}]","[]"
"image-keyboard-response","40","118529","0.0-5.0-1.18","5e7abb2c6c89e4000a180b4a","bdp_lott","Tue Mar 28 2023 15:25:36 GMT-0500 (Central Daylight Time)","435894","red","green","","2087","","","","choice","","img/red_ww/choose11.jpg","1","207","green","0.5","0.5","0.5","w","",""
"animation","41","119130","0.0-5.0-2.18","5e7abb2c6c89e4000a180b4a","bdp_lott","Tue Mar 28 2023 15:25:36 GMT-0500 (Central Daylight Time)","435894","red","green","","","","","","","","","","207","","","","","","[{""stimulus"":""img/green_ww/1.jpg"",""time"":52},{""stimulus"":""img/green_ww/2.jpg"",""time"":101},{""stimulus"":""img/green_ww/3.jpg"",""time"":151},{""stimulus"":""img/green_ww/4.jpg"",""time"":202},{""stimulus"":""img/green_ww/5.jpg"",""time"":252},{""stimulus"":""img/green_ww/6.jpg"",""time"":301},{""stimulus"":""img/green_ww/7.jpg"",""time"":351},{""stimulus"":""img/green_ww/8.jpg"",""time"":402},{""stimulus"":""img/green_ww/9.jpg"",""time"":451},{""stimulus"":""img/green_ww/10.jpg"",""time"":502},{""stimulus"":""img/green_ww/11.jpg"",""time"":551}]","[]"
"image-keyboard-response","42","121101","0.0-5.0-1.19","5e7abb2c6c89e4000a180b4a","bdp_lott","Tue Mar 28 2023 15:25:36 GMT-0500 (Central Daylight Time)","435894","red","green","","1970","","","","choice","","img/green_ww/choose11.jpg","2","206","red","0.5","0.5","0.5","l","",""
"animation","43","121702","0.0-5.0-2.19","5e7abb2c6c89e4000a180b4a","bdp_lott","Tue Mar 28 2023 15:25:36 GMT-0500 (Central Daylight Time)","435894","red","green","","","","","","","","","","206","","","","","","[{""stimulus"":""img/red_wl/1.jpg"",""time"":52},{""stimulus"":""img/red_wl/2.jpg"",""time"":101},{""stimulus"":""img/red_wl/3.jpg"",""time"":151},{""stimulus"":""img/red_wl/4.jpg"",""time"":202},{""stimulus"":""img/red_wl/5.jpg"",""time"":252},{""stimulus"":""img/red_wl/6.jpg"",""time"":301},{""stimulus"":""img/red_wl/7.jpg"",""time"":352},{""stimulus"":""img/red_wl/8.jpg"",""time"":401},{""stimulus"":""img/red_wl/9.jpg"",""time"":451},{""stimulus"":""img/red_wl/10.jpg"",""time"":501},{""stimulus"":""img/red_wl/11.jpg"",""time"":552}]","[]"
"image-keyboard-response","44","122985","0.0-5.0-1.20","5e7abb2c6c89e4000a180b4a","bdp_lott","Tue Mar 28 2023 15:25:36 GMT-0500 (Central Daylight Time)","435894","red","green","","1282","","","","choice","","img/red_wl/choose11.jpg","1","205","green","0.5","0.5","0.5","w","",""
"animation","45","123585","0.0-5.0-2.20","5e7abb2c6c89e4000a180b4a","bdp_lott","Tue Mar 28 2023 15:25:36 GMT-0500 (Central Daylight Time)","435894","red","green","","","","","","","","","","205","","","","","","[{""stimulus"":""img/green_wl/1.jpg"",""time"":52},{""stimulus"":""img/green_wl/2.jpg"",""time"":101},{""stimulus"":""img/green_wl/3.jpg"",""time"":151},{""stimulus"":""img/green_wl/4.jpg"",""time"":201},{""stimulus"":""img/green_wl/5.jpg"",""time"":251},{""stimulus"":""img/green_wl/6.jpg"",""time"":302},{""stimulus"":""img/green_wl/7.jpg"",""time"":351},{""stimulus"":""img/green_wl/8.jpg"",""time"":401},{""stimulus"":""img/green_wl/9.jpg"",""time"":451},{""stimulus"":""img/green_wl/10.jpg"",""time"":501},{""stimulus"":""img/green_wl/11.jpg"",""time"":551}]","[]"
"image-keyboard-response","46","124671","0.0-5.0-1.21","5e7abb2c6c89e4000a180b4a","bdp_lott","Tue Mar 28 2023 15:25:36 GMT-0500 (Central Daylight Time)","435894","red","green","","1085","","","","choice","","img/green_wl/choose11.jpg","2","204","red","0.5","0.5","0.5","l","",""
"animation","47","125273","0.0-5.0-2.21","5e7abb2c6c89e4000a180b4a","bdp_lott","Tue Mar 28 2023 15:25:36 GMT-0500 (Central Daylight Time)","435894","red","green","","","","","","","","","","204","","","","","","[{""stimulus"":""img/red_wl/1.jpg"",""time"":51},{""stimulus"":""img/red_wl/2.jpg"",""time"":101},{""stimulus"":""img/red_wl/3.jpg"",""time"":151},{""stimulus"":""img/red_wl/4.jpg"",""time"":201},{""stimulus"":""img/red_wl/5.jpg"",""time"":251},{""stimulus"":""img/red_wl/6.jpg"",""time"":301},{""stimulus"":""img/red_wl/7.jpg"",""time"":350},{""stimulus"":""img/red_wl/8.jpg"",""time"":401},{""stimulus"":""img/red_wl/9.jpg"",""time"":450},{""stimulus"":""img/red_wl/10.jpg"",""time"":501},{""stimulus"":""img/red_wl/11.jpg"",""time"":551}]","[]"
"image-keyboard-response","48","126532","0.0-5.0-1.22","5e7abb2c6c89e4000a180b4a","bdp_lott","Tue Mar 28 2023 15:25:36 GMT-0500 (Central Daylight Time)","435894","red","green","","1257","","","","choice","","img/red_wl/choose11.jpg","1","203","green","0.5","0.5","0.5","w","",""
"animation","49","127133","0.0-5.0-2.22","5e7abb2c6c89e4000a180b4a","bdp_lott","Tue Mar 28 2023 15:25:36 GMT-0500 (Central Daylight Time)","435894","red","green","","","","","","","","","","203","","","","","","[{""stimulus"":""img/green_wl/1.jpg"",""time"":51},{""stimulus"":""img/green_wl/2.jpg"",""time"":101},{""stimulus"":""img/green_wl/3.jpg"",""time"":151},{""stimulus"":""img/green_wl/4.jpg"",""time"":201},{""stimulus"":""img/green_wl/5.jpg"",""time"":251},{""stimulus"":""img/green_wl/6.jpg"",""time"":301},{""stimulus"":""img/green_wl/7.jpg"",""time"":351},{""stimulus"":""img/green_wl/8.jpg"",""time"":401},{""stimulus"":""img/green_wl/9.jpg"",""time"":451},{""stimulus"":""img/green_wl/10.jpg"",""time"":501},{""stimulus"":""img/green_wl/11.jpg"",""time"":551}]","[]"
"image-keyboard-response","50","128163","0.0-5.0-1.23","5e7abb2c6c89e4000a180b4a","bdp_lott","Tue Mar 28 2023 15:25:36 GMT-0500 (Central Daylight Time)","435894","red","green","","1029","","","","choice","","img/green_wl/choose11.jpg","2","202","red","0.5","0.5","0.5","w","",""
"animation","51","128764","0.0-5.0-2.23","5e7abb2c6c89e4000a180b4a","bdp_lott","Tue Mar 28 2023 15:25:36 GMT-0500 (Central Daylight Time)","435894","red","green","","","","","","","","","","202","","","","","","[{""stimulus"":""img/red_ww/1.jpg"",""time"":51},{""stimulus"":""img/red_ww/2.jpg"",""time"":101},{""stimulus"":""img/red_ww/3.jpg"",""time"":151},{""stimulus"":""img/red_ww/4.jpg"",""time"":201},{""stimulus"":""img/red_ww/5.jpg"",""time"":251},{""stimulus"":""img/red_ww/6.jpg"",""time"":307},{""stimulus"":""img/red_ww/7.jpg"",""time"":351},{""stimulus"":""img/red_ww/8.jpg"",""time"":402},{""stimulus"":""img/red_ww/9.jpg"",""time"":451},{""stimulus"":""img/red_ww/10.jpg"",""time"":501},{""stimulus"":""img/red_ww/11.jpg"",""time"":551}]","[]"
"image-keyboard-response","52","130233","0.0-5.0-1.24","5e7abb2c6c89e4000a180b4a","bdp_lott","Tue Mar 28 2023 15:25:36 GMT-0500 (Central Daylight Time)","435894","red","green","","1468","","","","choice","","img/red_ww/choose11.jpg","1","201","green","0.5","0.5","0.5","w","",""
"animation","53","130834","0.0-5.0-2.24","5e7abb2c6c89e4000a180b4a","bdp_lott","Tue Mar 28 2023 15:25:36 GMT-0500 (Central Daylight Time)","435894","red","green","","","","","","","","","","201","","","","","","[{""stimulus"":""img/green_ww/1.jpg"",""time"":52},{""stimulus"":""img/green_ww/2.jpg"",""time"":101},{""stimulus"":""img/green_ww/3.jpg"",""time"":152},{""stimulus"":""img/green_ww/4.jpg"",""time"":202},{""stimulus"":""img/green_ww/5.jpg"",""time"":251},{""stimulus"":""img/green_ww/6.jpg"",""time"":301},{""stimulus"":""img/green_ww/7.jpg"",""time"":352},{""stimulus"":""img/green_ww/8.jpg"",""time"":402},{""stimulus"":""img/green_ww/9.jpg"",""time"":452},{""stimulus"":""img/green_ww/10.jpg"",""time"":501},{""stimulus"":""img/green_ww/11.jpg"",""time"":551}]","[]"
"image-keyboard-response","54","132466","0.0-5.0-1.25","5e7abb2c6c89e4000a180b4a","bdp_lott","Tue Mar 28 2023 15:25:36 GMT-0500 (Central Daylight Time)","435894","red","green","","1631","","","","choice","","img/green_ww/choose11.jpg","2","200","red","0.5","0.5","0.5","w","",""
"animation","55","133067","0.0-5.0-2.25","5e7abb2c6c89e4000a180b4a","bdp_lott","Tue Mar 28 2023 15:25:36 GMT-0500 (Central Daylight Time)","435894","red","green","","","","","","","","","","200","","","","","","[{""stimulus"":""img/red_ww/1.jpg"",""time"":65},{""stimulus"":""img/red_ww/2.jpg"",""time"":101},{""stimulus"":""img/red_ww/3.jpg"",""time"":151},{""stimulus"":""img/red_ww/4.jpg"",""time"":202},{""stimulus"":""img/red_ww/5.jpg"",""time"":252},{""stimulus"":""img/red_ww/6.jpg"",""time"":301},{""stimulus"":""img/red_ww/7.jpg"",""time"":352},{""stimulus"":""img/red_ww/8.jpg"",""time"":402},{""stimulus"":""img/red_ww/9.jpg"",""time"":452},{""stimulus"":""img/red_ww/10.jpg"",""time"":501},{""stimulus"":""img/red_ww/11.jpg"",""time"":551}]","[]"
"image-keyboard-response","56","134573","0.0-5.0-1.26","5e7abb2c6c89e4000a180b4a","bdp_lott","Tue Mar 28 2023 15:25:36 GMT-0500 (Central Daylight Time)","435894","red","green","","1505","","","","choice","","img/red_ww/choose11.jpg","1","199","green","0.5","0.5","0.5","w","",""
"animation","57","135174","0.0-5.0-2.26","5e7abb2c6c89e4000a180b4a","bdp_lott","Tue Mar 28 2023 15:25:36 GMT-0500 (Central Daylight Time)","435894","red","green","","","","","","","","","","199","","","","","","[{""stimulus"":""img/green_ww/1.jpg"",""time"":52},{""stimulus"":""img/green_ww/2.jpg"",""time"":101},{""stimulus"":""img/green_ww/3.jpg"",""time"":151},{""stimulus"":""img/green_ww/4.jpg"",""time"":201},{""stimulus"":""img/green_ww/5.jpg"",""time"":251},{""stimulus"":""img/green_ww/6.jpg"",""time"":301},{""stimulus"":""img/green_ww/7.jpg"",""time"":351},{""stimulus"":""img/green_ww/8.jpg"",""time"":401},{""stimulus"":""img/green_ww/9.jpg"",""time"":451},{""stimulus"":""img/green_ww/10.jpg"",""time"":501},{""stimulus"":""img/green_ww/11.jpg"",""time"":551}]","[]"
"image-keyboard-response","58","136747","0.0-5.0-1.27","5e7abb2c6c89e4000a180b4a","bdp_lott","Tue Mar 28 2023 15:25:36 GMT-0500 (Central Daylight Time)","435894","red","green","","1571","","","","choice","","img/green_ww/choose11.jpg","2","198","red","0.5","0.5","0.5","w","",""
"animation","59","137347","0.0-5.0-2.27","5e7abb2c6c89e4000a180b4a","bdp_lott","Tue Mar 28 2023 15:25:36 GMT-0500 (Central Daylight Time)","435894","red","green","","","","","","","","","","198","","","","","","[{""stimulus"":""img/red_ww/1.jpg"",""time"":51},{""stimulus"":""img/red_ww/2.jpg"",""time"":101},{""stimulus"":""img/red_ww/3.jpg"",""time"":151},{""stimulus"":""img/red_ww/4.jpg"",""time"":201},{""stimulus"":""img/red_ww/5.jpg"",""time"":251},{""stimulus"":""img/red_ww/6.jpg"",""time"":301},{""stimulus"":""img/red_ww/7.jpg"",""time"":351},{""stimulus"":""img/red_ww/8.jpg"",""time"":402},{""stimulus"":""img/red_ww/9.jpg"",""time"":451},{""stimulus"":""img/red_ww/10.jpg"",""time"":500},{""stimulus"":""img/red_ww/11.jpg"",""time"":551}]","[]"
"image-keyboard-response","60","139282","0.0-5.0-1.28","5e7abb2c6c89e4000a180b4a","bdp_lott","Tue Mar 28 2023 15:25:36 GMT-0500 (Central Daylight Time)","435894","red","green","","1934","","","","choice","","img/red_ww/choose11.jpg","1","197","green","0.5","0.5","0.5","l","",""
"animation","61","139883","0.0-5.0-2.28","5e7abb2c6c89e4000a180b4a","bdp_lott","Tue Mar 28 2023 15:25:36 GMT-0500 (Central Daylight Time)","435894","red","green","","","","","","","","","","197","","","","","","[{""stimulus"":""img/green_lw/1.jpg"",""time"":52},{""stimulus"":""img/green_lw/2.jpg"",""time"":102},{""stimulus"":""img/green_lw/3.jpg"",""time"":151},{""stimulus"":""img/green_lw/4.jpg"",""time"":202},{""stimulus"":""img/green_lw/5.jpg"",""time"":252},{""stimulus"":""img/green_lw/6.jpg"",""time"":302},{""stimulus"":""img/green_lw/7.jpg"",""time"":352},{""stimulus"":""img/green_lw/8.jpg"",""time"":401},{""stimulus"":""img/green_lw/9.jpg"",""time"":452},{""stimulus"":""img/green_lw/10.jpg"",""time"":502},{""stimulus"":""img/green_lw/11.jpg"",""time"":552}]","[]"
"image-keyboard-response","62","141501","0.0-5.0-1.29","5e7abb2c6c89e4000a180b4a","bdp_lott","Tue Mar 28 2023 15:25:36 GMT-0500 (Central Daylight Time)","435894","red","green","","1617","","","","choice","","img/green_lw/choose11.jpg","2","196","red","0.5","0.5","0.5","w","",""
"animation","63","142102","0.0-5.0-2.29","5e7abb2c6c89e4000a180b4a","bdp_lott","Tue Mar 28 2023 15:25:36 GMT-0500 (Central Daylight Time)","435894","red","green","","","","","","","","","","196","","","","","","[{""stimulus"":""img/red_lw/1.jpg"",""time"":52},{""stimulus"":""img/red_lw/2.jpg"",""time"":101},{""stimulus"":""img/red_lw/3.jpg"",""time"":151},{""stimulus"":""img/red_lw/4.jpg"",""time"":201},{""stimulus"":""img/red_lw/5.jpg"",""time"":251},{""stimulus"":""img/red_lw/6.jpg"",""time"":301},{""stimulus"":""img/red_lw/7.jpg"",""time"":352},{""stimulus"":""img/red_lw/8.jpg"",""time"":401},{""stimulus"":""img/red_lw/9.jpg"",""time"":451},{""stimulus"":""img/red_lw/10.jpg"",""time"":501},{""stimulus"":""img/red_lw/11.jpg"",""time"":551}]","[]"
"image-keyboard-response","64","143379","0.0-5.0-1.30","5e7abb2c6c89e4000a180b4a","bdp_lott","Tue Mar 28 2023 15:25:36 GMT-0500 (Central Daylight Time)","435894","red","green","","1277","","","","choice","","img/red_lw/choose11.jpg","1","195","green","0.5","0.5","0.5","w","",""
"animation","65","143980","0.0-5.0-2.30","5e7abb2c6c89e4000a180b4a","bdp_lott","Tue Mar 28 2023 15:25:36 GMT-0500 (Central Daylight Time)","435894","red","green","","","","","","","","","","195","","","","","","[{""stimulus"":""img/green_ww/1.jpg"",""time"":52},{""stimulus"":""img/green_ww/2.jpg"",""time"":102},{""stimulus"":""img/green_ww/3.jpg"",""time"":152},{""stimulus"":""img/green_ww/4.jpg"",""time"":201},{""stimulus"":""img/green_ww/5.jpg"",""time"":251},{""stimulus"":""img/green_ww/6.jpg"",""time"":302},{""stimulus"":""img/green_ww/7.jpg"",""time"":351},{""stimulus"":""img/green_ww/8.jpg"",""time"":401},{""stimulus"":""img/green_ww/9.jpg"",""time"":451},{""stimulus"":""img/green_ww/10.jpg"",""time"":502},{""stimulus"":""img/green_ww/11.jpg"",""time"":551}]","[]"
"image-keyboard-response","66","146666","0.0-5.0-1.31","5e7abb2c6c89e4000a180b4a","bdp_lott","Tue Mar 28 2023 15:25:36 GMT-0500 (Central Daylight Time)","435894","red","green","","2684","","","","choice","","img/green_ww/choose11.jpg","2","194","red","0.5","0.5","0.5","l","",""
"animation","67","147268","0.0-5.0-2.31","5e7abb2c6c89e4000a180b4a","bdp_lott","Tue Mar 28 2023 15:25:36 GMT-0500 (Central Daylight Time)","435894","red","green","","","","","","","","","","194","","","","","","[{""stimulus"":""img/red_wl/1.jpg"",""time"":51},{""stimulus"":""img/red_wl/2.jpg"",""time"":110},{""stimulus"":""img/red_wl/3.jpg"",""time"":151},{""stimulus"":""img/red_wl/4.jpg"",""time"":201},{""stimulus"":""img/red_wl/5.jpg"",""time"":251},{""stimulus"":""img/red_wl/6.jpg"",""time"":302},{""stimulus"":""img/red_wl/7.jpg"",""time"":351},{""stimulus"":""img/red_wl/8.jpg"",""time"":401},{""stimulus"":""img/red_wl/9.jpg"",""time"":451},{""stimulus"":""img/red_wl/10.jpg"",""time"":501},{""stimulus"":""img/red_wl/11.jpg"",""time"":552}]","[]"
"image-keyboard-response","68","148632","0.0-5.0-1.32","5e7abb2c6c89e4000a180b4a","bdp_lott","Tue Mar 28 2023 15:25:36 GMT-0500 (Central Daylight Time)","435894","red","green","","1363","","","","choice","","img/red_wl/choose11.jpg","1","193","green","0.5","0.5","0.5","l","",""
"animation","69","149233","0.0-5.0-2.32","5e7abb2c6c89e4000a180b4a","bdp_lott","Tue Mar 28 2023 15:25:36 GMT-0500 (Central Daylight Time)","435894","red","green","","","","","","","","","","193","","","","","","[{""stimulus"":""img/green_ll/1.jpg"",""time"":51},{""stimulus"":""img/green_ll/2.jpg"",""time"":101},{""stimulus"":""img/green_ll/3.jpg"",""time"":152},{""stimulus"":""img/green_ll/4.jpg"",""time"":202},{""stimulus"":""img/green_ll/5.jpg"",""time"":252},{""stimulus"":""img/green_ll/6.jpg"",""time"":301},{""stimulus"":""img/green_ll/7.jpg"",""time"":351},{""stimulus"":""img/green_ll/8.jpg"",""time"":401},{""stimulus"":""img/green_ll/9.jpg"",""time"":452},{""stimulus"":""img/green_ll/10.jpg"",""time"":502},{""stimulus"":""img/green_ll/11.jpg"",""time"":552}]","[]"
"image-keyboard-response","70","150357","0.0-5.0-1.33","5e7abb2c6c89e4000a180b4a","bdp_lott","Tue Mar 28 2023 15:25:36 GMT-0500 (Central Daylight Time)","435894","red","green","","1123","","","","choice","","img/green_ll/choose11.jpg","2","192","red","0.5","0.5","0.5","w","",""
"animation","71","150959","0.0-5.0-2.33","5e7abb2c6c89e4000a180b4a","bdp_lott","Tue Mar 28 2023 15:25:36 GMT-0500 (Central Daylight Time)","435894","red","green","","","","","","","","","","192","","","","","","[{""stimulus"":""img/red_lw/1.jpg"",""time"":51},{""stimulus"":""img/red_lw/2.jpg"",""time"":104},{""stimulus"":""img/red_lw/3.jpg"",""time"":151},{""stimulus"":""img/red_lw/4.jpg"",""time"":201},{""stimulus"":""img/red_lw/5.jpg"",""time"":251},{""stimulus"":""img/red_lw/6.jpg"",""time"":302},{""stimulus"":""img/red_lw/7.jpg"",""time"":352},{""stimulus"":""img/red_lw/8.jpg"",""time"":401},{""stimulus"":""img/red_lw/9.jpg"",""time"":452},{""stimulus"":""img/red_lw/10.jpg"",""time"":501},{""stimulus"":""img/red_lw/11.jpg"",""time"":552}]","[]"
"image-keyboard-response","72","152408","0.0-5.0-1.34","5e7abb2c6c89e4000a180b4a","bdp_lott","Tue Mar 28 2023 15:25:36 GMT-0500 (Central Daylight Time)","435894","red","green","","1448","","","","choice","","img/red_lw/choose11.jpg","1","191","green","0.5","0.5","0.5","w","",""
"animation","73","153010","0.0-5.0-2.34","5e7abb2c6c89e4000a180b4a","bdp_lott","Tue Mar 28 2023 15:25:36 GMT-0500 (Central Daylight Time)","435894","red","green","","","","","","","","","","191","","","","","","[{""stimulus"":""img/green_ww/1.jpg"",""time"":51},{""stimulus"":""img/green_ww/2.jpg"",""time"":102},{""stimulus"":""img/green_ww/3.jpg"",""time"":151},{""stimulus"":""img/green_ww/4.jpg"",""time"":203},{""stimulus"":""img/green_ww/5.jpg"",""time"":251},{""stimulus"":""img/green_ww/6.jpg"",""time"":302},{""stimulus"":""img/green_ww/7.jpg"",""time"":352},{""stimulus"":""img/green_ww/8.jpg"",""time"":401},{""stimulus"":""img/green_ww/9.jpg"",""time"":451},{""stimulus"":""img/green_ww/10.jpg"",""time"":501},{""stimulus"":""img/green_ww/11.jpg"",""time"":551}]","[]"
"image-keyboard-response","74","154319","0.0-5.0-1.35","5e7abb2c6c89e4000a180b4a","bdp_lott","Tue Mar 28 2023 15:25:36 GMT-0500 (Central Daylight Time)","435894","red","green","","1308","","","","choice","","img/green_ww/choose11.jpg","2","190","red","0.5","0.5","0.5","w","",""
"animation","75","154920","0.0-5.0-2.35","5e7abb2c6c89e4000a180b4a","bdp_lott","Tue Mar 28 2023 15:25:36 GMT-0500 (Central Daylight Time)","435894","red","green","","","","","","","","","","190","","","","","","[{""stimulus"":""img/red_ww/1.jpg"",""time"":51},{""stimulus"":""img/red_ww/2.jpg"",""time"":101},{""stimulus"":""img/red_ww/3.jpg"",""time"":150},{""stimulus"":""img/red_ww/4.jpg"",""time"":202},{""stimulus"":""img/red_ww/5.jpg"",""time"":251},{""stimulus"":""img/red_ww/6.jpg"",""time"":301},{""stimulus"":""img/red_ww/7.jpg"",""time"":350},{""stimulus"":""img/red_ww/8.jpg"",""time"":401},{""stimulus"":""img/red_ww/9.jpg"",""time"":451},{""stimulus"":""img/red_ww/10.jpg"",""time"":500},{""stimulus"":""img/red_ww/11.jpg"",""time"":550}]","[]"
"image-keyboard-response","76","155963","0.0-5.0-1.36","5e7abb2c6c89e4000a180b4a","bdp_lott","Tue Mar 28 2023 15:25:36 GMT-0500 (Central Daylight Time)","435894","red","green","","1042","","","","choice","","img/red_ww/choose11.jpg","1","189","green","0.5","0.5","0.5","l","",""
"animation","77","156564","0.0-5.0-2.36","5e7abb2c6c89e4000a180b4a","bdp_lott","Tue Mar 28 2023 15:25:36 GMT-0500 (Central Daylight Time)","435894","red","green","","","","","","","","","","189","","","","","","[{""stimulus"":""img/green_lw/1.jpg"",""time"":51},{""stimulus"":""img/green_lw/2.jpg"",""time"":102},{""stimulus"":""img/green_lw/3.jpg"",""time"":151},{""stimulus"":""img/green_lw/4.jpg"",""time"":202},{""stimulus"":""img/green_lw/5.jpg"",""time"":251},{""stimulus"":""img/green_lw/6.jpg"",""time"":301},{""stimulus"":""img/green_lw/7.jpg"",""time"":351},{""stimulus"":""img/green_lw/8.jpg"",""time"":402},{""stimulus"":""img/green_lw/9.jpg"",""time"":451},{""stimulus"":""img/green_lw/10.jpg"",""time"":511},{""stimulus"":""img/green_lw/11.jpg"",""time"":551}]","[]"
"image-keyboard-response","78","157525","0.0-5.0-1.37","5e7abb2c6c89e4000a180b4a","bdp_lott","Tue Mar 28 2023 15:25:36 GMT-0500 (Central Daylight Time)","435894","red","green","","960","","","","choice","","img/green_lw/choose11.jpg","2","188","red","0.5","0.5","0.5","l","",""
"animation","79","158126","0.0-5.0-2.37","5e7abb2c6c89e4000a180b4a","bdp_lott","Tue Mar 28 2023 15:25:36 GMT-0500 (Central Daylight Time)","435894","red","green","","","","","","","","","","188","","","","","","[{""stimulus"":""img/red_ll/1.jpg"",""time"":52},{""stimulus"":""img/red_ll/2.jpg"",""time"":101},{""stimulus"":""img/red_ll/3.jpg"",""time"":151},{""stimulus"":""img/red_ll/4.jpg"",""time"":200},{""stimulus"":""img/red_ll/5.jpg"",""time"":251},{""stimulus"":""img/red_ll/6.jpg"",""time"":301},{""stimulus"":""img/red_ll/7.jpg"",""time"":351},{""stimulus"":""img/red_ll/8.jpg"",""time"":401},{""stimulus"":""img/red_ll/9.jpg"",""time"":450},{""stimulus"":""img/red_ll/10.jpg"",""time"":502},{""stimulus"":""img/red_ll/11.jpg"",""time"":551}]","[]"
"image-keyboard-response","80","159083","0.0-5.0-1.38","5e7abb2c6c89e4000a180b4a","bdp_lott","Tue Mar 28 2023 15:25:36 GMT-0500 (Central Daylight Time)","435894","red","green","","956","","","","choice","","img/red_ll/choose11.jpg","1","187","green","0.5","0.5","0.5","l","",""
"animation","81","159683","0.0-5.0-2.38","5e7abb2c6c89e4000a180b4a","bdp_lott","Tue Mar 28 2023 15:25:36 GMT-0500 (Central Daylight Time)","435894","red","green","","","","","","","","","","187","","","","","","[{""stimulus"":""img/green_ll/1.jpg"",""time"":51},{""stimulus"":""img/green_ll/2.jpg"",""time"":102},{""stimulus"":""img/green_ll/3.jpg"",""time"":151},{""stimulus"":""img/green_ll/4.jpg"",""time"":201},{""stimulus"":""img/green_ll/5.jpg"",""time"":251},{""stimulus"":""img/green_ll/6.jpg"",""time"":302},{""stimulus"":""img/green_ll/7.jpg"",""time"":351},{""stimulus"":""img/green_ll/8.jpg"",""time"":401},{""stimulus"":""img/green_ll/9.jpg"",""time"":451},{""stimulus"":""img/green_ll/10.jpg"",""time"":501},{""stimulus"":""img/green_ll/11.jpg"",""time"":551}]","[]"
"image-keyboard-response","82","160875","0.0-5.0-1.39","5e7abb2c6c89e4000a180b4a","bdp_lott","Tue Mar 28 2023 15:25:36 GMT-0500 (Central Daylight Time)","435894","red","green","","1191","","","","choice","","img/green_ll/choose11.jpg","2","186","red","0.5","0.5","0.5","l","",""
"animation","83","161475","0.0-5.0-2.39","5e7abb2c6c89e4000a180b4a","bdp_lott","Tue Mar 28 2023 15:25:36 GMT-0500 (Central Daylight Time)","435894","red","green","","","","","","","","","","186","","","","","","[{""stimulus"":""img/red_ll/1.jpg"",""time"":51},{""stimulus"":""img/red_ll/2.jpg"",""time"":101},{""stimulus"":""img/red_ll/3.jpg"",""time"":151},{""stimulus"":""img/red_ll/4.jpg"",""time"":201},{""stimulus"":""img/red_ll/5.jpg"",""time"":251},{""stimulus"":""img/red_ll/6.jpg"",""time"":301},{""stimulus"":""img/red_ll/7.jpg"",""time"":351},{""stimulus"":""img/red_ll/8.jpg"",""time"":401},{""stimulus"":""img/red_ll/9.jpg"",""time"":451},{""stimulus"":""img/red_ll/10.jpg"",""time"":501},{""stimulus"":""img/red_ll/11.jpg"",""time"":552}]","[]"
"image-keyboard-response","84","162559","0.0-5.0-1.40","5e7abb2c6c89e4000a180b4a","bdp_lott","Tue Mar 28 2023 15:25:36 GMT-0500 (Central Daylight Time)","435894","red","green","","1083","","","","choice","","img/red_ll/choose11.jpg","1","185","green","0.5","0.5","0.5","l","",""
"animation","85","163160","0.0-5.0-2.40","5e7abb2c6c89e4000a180b4a","bdp_lott","Tue Mar 28 2023 15:25:36 GMT-0500 (Central Daylight Time)","435894","red","green","","","","","","","","","","185","","","","","","[{""stimulus"":""img/green_ll/1.jpg"",""time"":51},{""stimulus"":""img/green_ll/2.jpg"",""time"":101},{""stimulus"":""img/green_ll/3.jpg"",""time"":151},{""stimulus"":""img/green_ll/4.jpg"",""time"":201},{""stimulus"":""img/green_ll/5.jpg"",""time"":251},{""stimulus"":""img/green_ll/6.jpg"",""time"":301},{""stimulus"":""img/green_ll/7.jpg"",""time"":351},{""stimulus"":""img/green_ll/8.jpg"",""time"":401},{""stimulus"":""img/green_ll/9.jpg"",""time"":451},{""stimulus"":""img/green_ll/10.jpg"",""time"":501},{""stimulus"":""img/green_ll/11.jpg"",""time"":552}]","[]"
"image-keyboard-response","86","163929","0.0-5.0-1.41","5e7abb2c6c89e4000a180b4a","bdp_lott","Tue Mar 28 2023 15:25:36 GMT-0500 (Central Daylight Time)","435894","red","green","","768","","","","choice","","img/green_ll/choose11.jpg","2","184","red","0.5","0.5","0.5","l","",""
"animation","87","164530","0.0-5.0-2.41","5e7abb2c6c89e4000a180b4a","bdp_lott","Tue Mar 28 2023 15:25:36 GMT-0500 (Central Daylight Time)","435894","red","green","","","","","","","","","","184","","","","","","[{""stimulus"":""img/red_ll/1.jpg"",""time"":52},{""stimulus"":""img/red_ll/2.jpg"",""time"":101},{""stimulus"":""img/red_ll/3.jpg"",""time"":152},{""stimulus"":""img/red_ll/4.jpg"",""time"":202},{""stimulus"":""img/red_ll/5.jpg"",""time"":252},{""stimulus"":""img/red_ll/6.jpg"",""time"":302},{""stimulus"":""img/red_ll/7.jpg"",""time"":351},{""stimulus"":""img/red_ll/8.jpg"",""time"":401},{""stimulus"":""img/red_ll/9.jpg"",""time"":451},{""stimulus"":""img/red_ll/10.jpg"",""time"":503},{""stimulus"":""img/red_ll/11.jpg"",""time"":552}]","[]"
"image-keyboard-response","88","165736","0.0-5.0-1.42","5e7abb2c6c89e4000a180b4a","bdp_lott","Tue Mar 28 2023 15:25:36 GMT-0500 (Central Daylight Time)","435894","red","green","","1205","","","","choice","","img/red_ll/choose11.jpg","1","183","green","0.5","0.5","0.5","l","",""
"animation","89","166338","0.0-5.0-2.42","5e7abb2c6c89e4000a180b4a","bdp_lott","Tue Mar 28 2023 15:25:36 GMT-0500 (Central Daylight Time)","435894","red","green","","","","","","","","","","183","","","","","","[{""stimulus"":""img/green_ll/1.jpg"",""time"":51},{""stimulus"":""img/green_ll/2.jpg"",""time"":102},{""stimulus"":""img/green_ll/3.jpg"",""time"":151},{""stimulus"":""img/green_ll/4.jpg"",""time"":201},{""stimulus"":""img/green_ll/5.jpg"",""time"":252},{""stimulus"":""img/green_ll/6.jpg"",""time"":301},{""stimulus"":""img/green_ll/7.jpg"",""time"":352},{""stimulus"":""img/green_ll/8.jpg"",""time"":402},{""stimulus"":""img/green_ll/9.jpg"",""time"":452},{""stimulus"":""img/green_ll/10.jpg"",""time"":502},{""stimulus"":""img/green_ll/11.jpg"",""time"":552}]","[]"
"image-keyboard-response","90","167260","0.0-5.0-1.43","5e7abb2c6c89e4000a180b4a","bdp_lott","Tue Mar 28 2023 15:25:36 GMT-0500 (Central Daylight Time)","435894","red","green","","921","","","","choice","","img/green_ll/choose11.jpg","2","182","red","0.5","0.5","0.5","l","",""
"animation","91","167862","0.0-5.0-2.43","5e7abb2c6c89e4000a180b4a","bdp_lott","Tue Mar 28 2023 15:25:36 GMT-0500 (Central Daylight Time)","435894","red","green","","","","","","","","","","182","","","","","","[{""stimulus"":""img/red_ll/1.jpg"",""time"":52},{""stimulus"":""img/red_ll/2.jpg"",""time"":100},{""stimulus"":""img/red_ll/3.jpg"",""time"":150},{""stimulus"":""img/red_ll/4.jpg"",""time"":200},{""stimulus"":""img/red_ll/5.jpg"",""time"":251},{""stimulus"":""img/red_ll/6.jpg"",""time"":301},{""stimulus"":""img/red_ll/7.jpg"",""time"":350},{""stimulus"":""img/red_ll/8.jpg"",""time"":401},{""stimulus"":""img/red_ll/9.jpg"",""time"":451},{""stimulus"":""img/red_ll/10.jpg"",""time"":500},{""stimulus"":""img/red_ll/11.jpg"",""time"":551}]","[]"
"image-keyboard-response","92","168664","0.0-5.0-1.44","5e7abb2c6c89e4000a180b4a","bdp_lott","Tue Mar 28 2023 15:25:36 GMT-0500 (Central Daylight Time)","435894","red","green","","801","","","","choice","","img/red_ll/choose11.jpg","1","181","green","0.5","0.5","0.5","l","",""
"animation","93","169265","0.0-5.0-2.44","5e7abb2c6c89e4000a180b4a","bdp_lott","Tue Mar 28 2023 15:25:36 GMT-0500 (Central Daylight Time)","435894","red","green","","","","","","","","","","181","","","","","","[{""stimulus"":""img/green_ll/1.jpg"",""time"":52},{""stimulus"":""img/green_ll/2.jpg"",""time"":102},{""stimulus"":""img/green_ll/3.jpg"",""time"":152},{""stimulus"":""img/green_ll/4.jpg"",""time"":202},{""stimulus"":""img/green_ll/5.jpg"",""time"":251},{""stimulus"":""img/green_ll/6.jpg"",""time"":301},{""stimulus"":""img/green_ll/7.jpg"",""time"":351},{""stimulus"":""img/green_ll/8.jpg"",""time"":402},{""stimulus"":""img/green_ll/9.jpg"",""time"":451},{""stimulus"":""img/green_ll/10.jpg"",""time"":501},{""stimulus"":""img/green_ll/11.jpg"",""time"":551}]","[]"
"image-keyboard-response","94","169812","0.0-5.0-1.45","5e7abb2c6c89e4000a180b4a","bdp_lott","Tue Mar 28 2023 15:25:36 GMT-0500 (Central Daylight Time)","435894","red","green","","545","","","","choice","","img/green_ll/choose11.jpg","2","180","red","0.5","0.5","0.5","w","",""
"animation","95","170412","0.0-5.0-2.45","5e7abb2c6c89e4000a180b4a","bdp_lott","Tue Mar 28 2023 15:25:36 GMT-0500 (Central Daylight Time)","435894","red","green","","","","","","","","","","180","","","","","","[{""stimulus"":""img/red_lw/1.jpg"",""time"":51},{""stimulus"":""img/red_lw/2.jpg"",""time"":101},{""stimulus"":""img/red_lw/3.jpg"",""time"":151},{""stimulus"":""img/red_lw/4.jpg"",""time"":201},{""stimulus"":""img/red_lw/5.jpg"",""time"":250},{""stimulus"":""img/red_lw/6.jpg"",""time"":302},{""stimulus"":""img/red_lw/7.jpg"",""time"":352},{""stimulus"":""img/red_lw/8.jpg"",""time"":400},{""stimulus"":""img/red_lw/9.jpg"",""time"":451},{""stimulus"":""img/red_lw/10.jpg"",""time"":500},{""stimulus"":""img/red_lw/11.jpg"",""time"":551}]","[]"
"image-keyboard-response","96","171436","0.0-5.0-1.46","5e7abb2c6c89e4000a180b4a","bdp_lott","Tue Mar 28 2023 15:25:36 GMT-0500 (Central Daylight Time)","435894","red","green","","1023","","","","choice","","img/red_lw/choose11.jpg","1","179","green","0.5","0.5","0.5","w","",""
"animation","97","172038","0.0-5.0-2.46","5e7abb2c6c89e4000a180b4a","bdp_lott","Tue Mar 28 2023 15:25:36 GMT-0500 (Central Daylight Time)","435894","red","green","","","","","","","","","","179","","","","","","[{""stimulus"":""img/green_ww/1.jpg"",""time"":52},{""stimulus"":""img/green_ww/2.jpg"",""time"":102},{""stimulus"":""img/green_ww/3.jpg"",""time"":151},{""stimulus"":""img/green_ww/4.jpg"",""time"":202},{""stimulus"":""img/green_ww/5.jpg"",""time"":252},{""stimulus"":""img/green_ww/6.jpg"",""time"":302},{""stimulus"":""img/green_ww/7.jpg"",""time"":351},{""stimulus"":""img/green_ww/8.jpg"",""time"":402},{""stimulus"":""img/green_ww/9.jpg"",""time"":452},{""stimulus"":""img/green_ww/10.jpg"",""time"":501},{""stimulus"":""img/green_ww/11.jpg"",""time"":551}]","[]"
"image-keyboard-response","98","173484","0.0-5.0-1.47","5e7abb2c6c89e4000a180b4a","bdp_lott","Tue Mar 28 2023 15:25:36 GMT-0500 (Central Daylight Time)","435894","red","green","","1445","","","","choice","","img/green_ww/choose11.jpg","2","178","red","0.5","0.5","0.5","l","",""
"animation","99","174085","0.0-5.0-2.47","5e7abb2c6c89e4000a180b4a","bdp_lott","Tue Mar 28 2023 15:25:36 GMT-0500 (Central Daylight Time)","435894","red","green","","","","","","","","","","178","","","","","","[{""stimulus"":""img/red_wl/1.jpg"",""time"":51},{""stimulus"":""img/red_wl/2.jpg"",""time"":101},{""stimulus"":""img/red_wl/3.jpg"",""time"":151},{""stimulus"":""img/red_wl/4.jpg"",""time"":200},{""stimulus"":""img/red_wl/5.jpg"",""time"":250},{""stimulus"":""img/red_wl/6.jpg"",""time"":301},{""stimulus"":""img/red_wl/7.jpg"",""time"":351},{""stimulus"":""img/red_wl/8.jpg"",""time"":400},{""stimulus"":""img/red_wl/9.jpg"",""time"":450},{""stimulus"":""img/red_wl/10.jpg"",""time"":500},{""stimulus"":""img/red_wl/11.jpg"",""time"":551}]","[]"
"image-keyboard-response","100","174675","0.0-5.0-1.48","5e7abb2c6c89e4000a180b4a","bdp_lott","Tue Mar 28 2023 15:25:36 GMT-0500 (Central Daylight Time)","435894","red","green","","589","","","","choice","","img/red_wl/choose11.jpg","1","177","green","0.5","0.5","0.5","w","",""
"animation","101","175276","0.0-5.0-2.48","5e7abb2c6c89e4000a180b4a","bdp_lott","Tue Mar 28 2023 15:25:36 GMT-0500 (Central Daylight Time)","435894","red","green","","","","","","","","","","177","","","","","","[{""stimulus"":""img/green_wl/1.jpg"",""time"":51},{""stimulus"":""img/green_wl/2.jpg"",""time"":101},{""stimulus"":""img/green_wl/3.jpg"",""time"":152},{""stimulus"":""img/green_wl/4.jpg"",""time"":202},{""stimulus"":""img/green_wl/5.jpg"",""time"":252},{""stimulus"":""img/green_wl/6.jpg"",""time"":301},{""stimulus"":""img/green_wl/7.jpg"",""time"":352},{""stimulus"":""img/green_wl/8.jpg"",""time"":402},{""stimulus"":""img/green_wl/9.jpg"",""time"":452},{""stimulus"":""img/green_wl/10.jpg"",""time"":501},{""stimulus"":""img/green_wl/11.jpg"",""time"":552}]","[]"
"image-keyboard-response","102","176587","0.0-5.0-1.49","5e7abb2c6c89e4000a180b4a","bdp_lott","Tue Mar 28 2023 15:25:36 GMT-0500 (Central Daylight Time)","435894","red","green","","1310","","","","choice","","img/green_wl/choose11.jpg","2","176","red","0.5","0.5","0.5","w","",""
"animation","103","177189","0.0-5.0-2.49","5e7abb2c6c89e4000a180b4a","bdp_lott","Tue Mar 28 2023 15:25:36 GMT-0500 (Central Daylight Time)","435894","red","green","","","","","","","","","","176","","","","","","[{""stimulus"":""img/red_ww/1.jpg"",""time"":51},{""stimulus"":""img/red_ww/2.jpg"",""time"":100},{""stimulus"":""img/red_ww/3.jpg"",""time"":151},{""stimulus"":""img/red_ww/4.jpg"",""time"":202},{""stimulus"":""img/red_ww/5.jpg"",""time"":251},{""stimulus"":""img/red_ww/6.jpg"",""time"":301},{""stimulus"":""img/red_ww/7.jpg"",""time"":352},{""stimulus"":""img/red_ww/8.jpg"",""time"":400},{""stimulus"":""img/red_ww/9.jpg"",""time"":451},{""stimulus"":""img/red_ww/10.jpg"",""time"":501},{""stimulus"":""img/red_ww/11.jpg"",""time"":551}]","[]"
"image-keyboard-response","104","179323","0.0-5.0-1.50","5e7abb2c6c89e4000a180b4a","bdp_lott","Tue Mar 28 2023 15:25:36 GMT-0500 (Central Daylight Time)","435894","red","green","","2133","","","","choice","","img/red_ww/choose11.jpg","1","175","green","0.5","0.5","0.5","w","",""
"animation","105","179924","0.0-5.0-2.50","5e7abb2c6c89e4000a180b4a","bdp_lott","Tue Mar 28 2023 15:25:36 GMT-0500 (Central Daylight Time)","435894","red","green","","","","","","","","","","175","","","","","","[{""stimulus"":""img/green_ww/1.jpg"",""time"":51},{""stimulus"":""img/green_ww/2.jpg"",""time"":101},{""stimulus"":""img/green_ww/3.jpg"",""time"":152},{""stimulus"":""img/green_ww/4.jpg"",""time"":201},{""stimulus"":""img/green_ww/5.jpg"",""time"":251},{""stimulus"":""img/green_ww/6.jpg"",""time"":301},{""stimulus"":""img/green_ww/7.jpg"",""time"":351},{""stimulus"":""img/green_ww/8.jpg"",""time"":402},{""stimulus"":""img/green_ww/9.jpg"",""time"":451},{""stimulus"":""img/green_ww/10.jpg"",""time"":501},{""stimulus"":""img/green_ww/11.jpg"",""time"":551}]","[]"
"image-keyboard-response","106","181113","0.0-5.0-1.51","5e7abb2c6c89e4000a180b4a","bdp_lott","Tue Mar 28 2023 15:25:36 GMT-0500 (Central Daylight Time)","435894","red","green","","1188","","","","choice","","img/green_ww/choose11.jpg","2","174","red","0.5","0.5","0.5","l","",""
"animation","107","181714","0.0-5.0-2.51","5e7abb2c6c89e4000a180b4a","bdp_lott","Tue Mar 28 2023 15:25:36 GMT-0500 (Central Daylight Time)","435894","red","green","","","","","","","","","","174","","","","","","[{""stimulus"":""img/red_wl/1.jpg"",""time"":51},{""stimulus"":""img/red_wl/2.jpg"",""time"":101},{""stimulus"":""img/red_wl/3.jpg"",""time"":152},{""stimulus"":""img/red_wl/4.jpg"",""time"":201},{""stimulus"":""img/red_wl/5.jpg"",""time"":252},{""stimulus"":""img/red_wl/6.jpg"",""time"":301},{""stimulus"":""img/red_wl/7.jpg"",""time"":351},{""stimulus"":""img/red_wl/8.jpg"",""time"":401},{""stimulus"":""img/red_wl/9.jpg"",""time"":452},{""stimulus"":""img/red_wl/10.jpg"",""time"":501},{""stimulus"":""img/red_wl/11.jpg"",""time"":551}]","[]"
"image-keyboard-response","108","182621","0.0-5.0-1.52","5e7abb2c6c89e4000a180b4a","bdp_lott","Tue Mar 28 2023 15:25:36 GMT-0500 (Central Daylight Time)","435894","red","green","","906","","","","choice","","img/red_wl/choose11.jpg","1","173","green","0.5","0.5","0.5","w","",""
"animation","109","183222","0.0-5.0-2.52","5e7abb2c6c89e4000a180b4a","bdp_lott","Tue Mar 28 2023 15:25:36 GMT-0500 (Central Daylight Time)","435894","red","green","","","","","","","","","","173","","","","","","[{""stimulus"":""img/green_wl/1.jpg"",""time"":52},{""stimulus"":""img/green_wl/2.jpg"",""time"":101},{""stimulus"":""img/green_wl/3.jpg"",""time"":152},{""stimulus"":""img/green_wl/4.jpg"",""time"":201},{""stimulus"":""img/green_wl/5.jpg"",""time"":252},{""stimulus"":""img/green_wl/6.jpg"",""time"":302},{""stimulus"":""img/green_wl/7.jpg"",""time"":353},{""stimulus"":""img/green_wl/8.jpg"",""time"":401},{""stimulus"":""img/green_wl/9.jpg"",""time"":451},{""stimulus"":""img/green_wl/10.jpg"",""time"":501},{""stimulus"":""img/green_wl/11.jpg"",""time"":551}]","[]"
"image-keyboard-response","110","184992","0.0-5.0-1.53","5e7abb2c6c89e4000a180b4a","bdp_lott","Tue Mar 28 2023 15:25:36 GMT-0500 (Central Daylight Time)","435894","red","green","","1769","","","","choice","","img/green_wl/choose11.jpg","2","172","red","0.5","0.5","0.5","w","",""
"animation","111","185593","0.0-5.0-2.53","5e7abb2c6c89e4000a180b4a","bdp_lott","Tue Mar 28 2023 15:25:36 GMT-0500 (Central Daylight Time)","435894","red","green","","","","","","","","","","172","","","","","","[{""stimulus"":""img/red_ww/1.jpg"",""time"":52},{""stimulus"":""img/red_ww/2.jpg"",""time"":102},{""stimulus"":""img/red_ww/3.jpg"",""time"":152},{""stimulus"":""img/red_ww/4.jpg"",""time"":201},{""stimulus"":""img/red_ww/5.jpg"",""time"":251},{""stimulus"":""img/red_ww/6.jpg"",""time"":301},{""stimulus"":""img/red_ww/7.jpg"",""time"":351},{""stimulus"":""img/red_ww/8.jpg"",""time"":401},{""stimulus"":""img/red_ww/9.jpg"",""time"":451},{""stimulus"":""img/red_ww/10.jpg"",""time"":501},{""stimulus"":""img/red_ww/11.jpg"",""time"":551}]","[]"
"image-keyboard-response","112","186701","0.0-5.0-1.54","5e7abb2c6c89e4000a180b4a","bdp_lott","Tue Mar 28 2023 15:25:36 GMT-0500 (Central Daylight Time)","435894","red","green","","1107","","","","choice","","img/red_ww/choose11.jpg","1","171","green","0.5","0.5","0.5","w","",""
"animation","113","187304","0.0-5.0-2.54","5e7abb2c6c89e4000a180b4a","bdp_lott","Tue Mar 28 2023 15:25:36 GMT-0500 (Central Daylight Time)","435894","red","green","","","","","","","","","","171","","","","","","[{""stimulus"":""img/green_ww/1.jpg"",""time"":50},{""stimulus"":""img/green_ww/2.jpg"",""time"":101},{""stimulus"":""img/green_ww/3.jpg"",""time"":151},{""stimulus"":""img/green_ww/4.jpg"",""time"":201},{""stimulus"":""img/green_ww/5.jpg"",""time"":251},{""stimulus"":""img/green_ww/6.jpg"",""time"":301},{""stimulus"":""img/green_ww/7.jpg"",""time"":351},{""stimulus"":""img/green_ww/8.jpg"",""time"":401},{""stimulus"":""img/green_ww/9.jpg"",""time"":451},{""stimulus"":""img/green_ww/10.jpg"",""time"":501},{""stimulus"":""img/green_ww/11.jpg"",""time"":551}]","[]"
"image-keyboard-response","114","188541","0.0-5.0-1.55","5e7abb2c6c89e4000a180b4a","bdp_lott","Tue Mar 28 2023 15:25:36 GMT-0500 (Central Daylight Time)","435894","red","green","","1236","","","","choice","","img/green_ww/choose11.jpg","2","170","red","0.5","0.5","0.5","w","",""
"animation","115","189144","0.0-5.0-2.55","5e7abb2c6c89e4000a180b4a","bdp_lott","Tue Mar 28 2023 15:25:36 GMT-0500 (Central Daylight Time)","435894","red","green","","","","","","","","","","170","","","","","","[{""stimulus"":""img/red_ww/1.jpg"",""time"":51},{""stimulus"":""img/red_ww/2.jpg"",""time"":100},{""stimulus"":""img/red_ww/3.jpg"",""time"":151},{""stimulus"":""img/red_ww/4.jpg"",""time"":201},{""stimulus"":""img/red_ww/5.jpg"",""time"":251},{""stimulus"":""img/red_ww/6.jpg"",""time"":300},{""stimulus"":""img/red_ww/7.jpg"",""time"":351},{""stimulus"":""img/red_ww/8.jpg"",""time"":401},{""stimulus"":""img/red_ww/9.jpg"",""time"":451},{""stimulus"":""img/red_ww/10.jpg"",""time"":501},{""stimulus"":""img/red_ww/11.jpg"",""time"":551}]","[]"
"image-keyboard-response","116","190498","0.0-5.0-1.56","5e7abb2c6c89e4000a180b4a","bdp_lott","Tue Mar 28 2023 15:25:36 GMT-0500 (Central Daylight Time)","435894","red","green","","1353","","","","choice","","img/red_ww/choose11.jpg","1","169","green","0.5","0.5","0.5","l","",""
"animation","117","191100","0.0-5.0-2.56","5e7abb2c6c89e4000a180b4a","bdp_lott","Tue Mar 28 2023 15:25:36 GMT-0500 (Central Daylight Time)","435894","red","green","","","","","","","","","","169","","","","","","[{""stimulus"":""img/green_lw/1.jpg"",""time"":51},{""stimulus"":""img/green_lw/2.jpg"",""time"":101},{""stimulus"":""img/green_lw/3.jpg"",""time"":151},{""stimulus"":""img/green_lw/4.jpg"",""time"":200},{""stimulus"":""img/green_lw/5.jpg"",""time"":251},{""stimulus"":""img/green_lw/6.jpg"",""time"":300},{""stimulus"":""img/green_lw/7.jpg"",""time"":351},{""stimulus"":""img/green_lw/8.jpg"",""time"":401},{""stimulus"":""img/green_lw/9.jpg"",""time"":452},{""stimulus"":""img/green_lw/10.jpg"",""time"":500},{""stimulus"":""img/green_lw/11.jpg"",""time"":550}]","[]"
"image-keyboard-response","118","192813","0.0-5.0-1.57","5e7abb2c6c89e4000a180b4a","bdp_lott","Tue Mar 28 2023 15:25:36 GMT-0500 (Central Daylight Time)","435894","red","green","","1712","","","","choice","","img/green_lw/choose11.jpg","2","168","red","0.5","0.5","0.5","w","",""
"animation","119","193415","0.0-5.0-2.57","5e7abb2c6c89e4000a180b4a","bdp_lott","Tue Mar 28 2023 15:25:36 GMT-0500 (Central Daylight Time)","435894","red","green","","","","","","","","","","168","","","","","","[{""stimulus"":""img/red_lw/1.jpg"",""time"":51},{""stimulus"":""img/red_lw/2.jpg"",""time"":101},{""stimulus"":""img/red_lw/3.jpg"",""time"":151},{""stimulus"":""img/red_lw/4.jpg"",""time"":200},{""stimulus"":""img/red_lw/5.jpg"",""time"":264},{""stimulus"":""img/red_lw/6.jpg"",""time"":301},{""stimulus"":""img/red_lw/7.jpg"",""time"":351},{""stimulus"":""img/red_lw/8.jpg"",""time"":401},{""stimulus"":""img/red_lw/9.jpg"",""time"":451},{""stimulus"":""img/red_lw/10.jpg"",""time"":500},{""stimulus"":""img/red_lw/11.jpg"",""time"":551}]","[]"
"image-keyboard-response","120","194664","0.0-5.0-1.58","5e7abb2c6c89e4000a180b4a","bdp_lott","Tue Mar 28 2023 15:25:36 GMT-0500 (Central Daylight Time)","435894","red","green","","1249","","","","choice","","img/red_lw/choose11.jpg","1","167","green","0.5","0.5","0.5","w","",""
"animation","121","195266","0.0-5.0-2.58","5e7abb2c6c89e4000a180b4a","bdp_lott","Tue Mar 28 2023 15:25:36 GMT-0500 (Central Daylight Time)","435894","red","green","","","","","","","","","","167","","","","","","[{""stimulus"":""img/green_ww/1.jpg"",""time"":51},{""stimulus"":""img/green_ww/2.jpg"",""time"":100},{""stimulus"":""img/green_ww/3.jpg"",""time"":151},{""stimulus"":""img/green_ww/4.jpg"",""time"":201},{""stimulus"":""img/green_ww/5.jpg"",""time"":251},{""stimulus"":""img/green_ww/6.jpg"",""time"":301},{""stimulus"":""img/green_ww/7.jpg"",""time"":351},{""stimulus"":""img/green_ww/8.jpg"",""time"":401},{""stimulus"":""img/green_ww/9.jpg"",""time"":451},{""stimulus"":""img/green_ww/10.jpg"",""time"":501},{""stimulus"":""img/green_ww/11.jpg"",""time"":551}]","[]"
"image-keyboard-response","122","196609","0.0-5.0-1.59","5e7abb2c6c89e4000a180b4a","bdp_lott","Tue Mar 28 2023 15:25:36 GMT-0500 (Central Daylight Time)","435894","red","green","","1342","","","","choice","","img/green_ww/choose11.jpg","2","166","red","0.5","0.5","0.5","w","",""
"animation","123","197211","0.0-5.0-2.59","5e7abb2c6c89e4000a180b4a","bdp_lott","Tue Mar 28 2023 15:25:36 GMT-0500 (Central Daylight Time)","435894","red","green","","","","","","","","","","166","","","","","","[{""stimulus"":""img/red_ww/1.jpg"",""time"":50},{""stimulus"":""img/red_ww/2.jpg"",""time"":101},{""stimulus"":""img/red_ww/3.jpg"",""time"":151},{""stimulus"":""img/red_ww/4.jpg"",""time"":202},{""stimulus"":""img/red_ww/5.jpg"",""time"":251},{""stimulus"":""img/red_ww/6.jpg"",""time"":301},{""stimulus"":""img/red_ww/7.jpg"",""time"":351},{""stimulus"":""img/red_ww/8.jpg"",""time"":401},{""stimulus"":""img/red_ww/9.jpg"",""time"":450},{""stimulus"":""img/red_ww/10.jpg"",""time"":500},{""stimulus"":""img/red_ww/11.jpg"",""time"":551}]","[]"
"image-keyboard-response","124","198372","0.0-5.0-1.60","5e7abb2c6c89e4000a180b4a","bdp_lott","Tue Mar 28 2023 15:25:36 GMT-0500 (Central Daylight Time)","435894","red","green","","1160","","","","choice","","img/red_ww/choose11.jpg","1","165","green","0.5","0.5","0.5","l","",""
"animation","125","198973","0.0-5.0-2.60","5e7abb2c6c89e4000a180b4a","bdp_lott","Tue Mar 28 2023 15:25:36 GMT-0500 (Central Daylight Time)","435894","red","green","","","","","","","","","","165","","","","","","[{""stimulus"":""img/green_lw/1.jpg"",""time"":52},{""stimulus"":""img/green_lw/2.jpg"",""time"":101},{""stimulus"":""img/green_lw/3.jpg"",""time"":152},{""stimulus"":""img/green_lw/4.jpg"",""time"":202},{""stimulus"":""img/green_lw/5.jpg"",""time"":252},{""stimulus"":""img/green_lw/6.jpg"",""time"":301},{""stimulus"":""img/green_lw/7.jpg"",""time"":352},{""stimulus"":""img/green_lw/8.jpg"",""time"":402},{""stimulus"":""img/green_lw/9.jpg"",""time"":452},{""stimulus"":""img/green_lw/10.jpg"",""time"":502},{""stimulus"":""img/green_lw/11.jpg"",""time"":552}]","[]"
"image-keyboard-response","126","199928","0.0-5.0-1.61","5e7abb2c6c89e4000a180b4a","bdp_lott","Tue Mar 28 2023 15:25:36 GMT-0500 (Central Daylight Time)","435894","red","green","","954","","","","choice","","img/green_lw/choose11.jpg","2","164","red","0.5","0.5","0.5","l","",""
"animation","127","200530","0.0-5.0-2.61","5e7abb2c6c89e4000a180b4a","bdp_lott","Tue Mar 28 2023 15:25:36 GMT-0500 (Central Daylight Time)","435894","red","green","","","","","","","","","","164","","","","","","[{""stimulus"":""img/red_ll/1.jpg"",""time"":51},{""stimulus"":""img/red_ll/2.jpg"",""time"":102},{""stimulus"":""img/red_ll/3.jpg"",""time"":151},{""stimulus"":""img/red_ll/4.jpg"",""time"":201},{""stimulus"":""img/red_ll/5.jpg"",""time"":251},{""stimulus"":""img/red_ll/6.jpg"",""time"":301},{""stimulus"":""img/red_ll/7.jpg"",""time"":351},{""stimulus"":""img/red_ll/8.jpg"",""time"":401},{""stimulus"":""img/red_ll/9.jpg"",""time"":450},{""stimulus"":""img/red_ll/10.jpg"",""time"":500},{""stimulus"":""img/red_ll/11.jpg"",""time"":551}]","[]"
"image-keyboard-response","128","202729","0.0-5.0-1.62","5e7abb2c6c89e4000a180b4a","bdp_lott","Tue Mar 28 2023 15:25:36 GMT-0500 (Central Daylight Time)","435894","red","green","","2198","","","","choice","","img/red_ll/choose11.jpg","1","163","green","0.5","0.5","0.5","l","",""
"animation","129","203331","0.0-5.0-2.62","5e7abb2c6c89e4000a180b4a","bdp_lott","Tue Mar 28 2023 15:25:36 GMT-0500 (Central Daylight Time)","435894","red","green","","","","","","","","","","163","","","","","","[{""stimulus"":""img/green_ll/1.jpg"",""time"":51},{""stimulus"":""img/green_ll/2.jpg"",""time"":100},{""stimulus"":""img/green_ll/3.jpg"",""time"":152},{""stimulus"":""img/green_ll/4.jpg"",""time"":201},{""stimulus"":""img/green_ll/5.jpg"",""time"":251},{""stimulus"":""img/green_ll/6.jpg"",""time"":301},{""stimulus"":""img/green_ll/7.jpg"",""time"":351},{""stimulus"":""img/green_ll/8.jpg"",""time"":402},{""stimulus"":""img/green_ll/9.jpg"",""time"":451},{""stimulus"":""img/green_ll/10.jpg"",""time"":502},{""stimulus"":""img/green_ll/11.jpg"",""time"":551}]","[]"
"image-keyboard-response","130","204979","0.0-5.0-1.63","5e7abb2c6c89e4000a180b4a","bdp_lott","Tue Mar 28 2023 15:25:36 GMT-0500 (Central Daylight Time)","435894","red","green","","1646","","","","choice","","img/green_ll/choose11.jpg","2","162","red","0.5","0.5","0.5","w","",""
"animation","131","205580","0.0-5.0-2.63","5e7abb2c6c89e4000a180b4a","bdp_lott","Tue Mar 28 2023 15:25:36 GMT-0500 (Central Daylight Time)","435894","red","green","","","","","","","","","","162","","","","","","[{""stimulus"":""img/red_lw/1.jpg"",""time"":51},{""stimulus"":""img/red_lw/2.jpg"",""time"":100},{""stimulus"":""img/red_lw/3.jpg"",""time"":151},{""stimulus"":""img/red_lw/4.jpg"",""time"":202},{""stimulus"":""img/red_lw/5.jpg"",""time"":251},{""stimulus"":""img/red_lw/6.jpg"",""time"":301},{""stimulus"":""img/red_lw/7.jpg"",""time"":351},{""stimulus"":""img/red_lw/8.jpg"",""time"":401},{""stimulus"":""img/red_lw/9.jpg"",""time"":451},{""stimulus"":""img/red_lw/10.jpg"",""time"":500},{""stimulus"":""img/red_lw/11.jpg"",""time"":551}]","[]"
"image-keyboard-response","132","206935","0.0-5.0-1.64","5e7abb2c6c89e4000a180b4a","bdp_lott","Tue Mar 28 2023 15:25:36 GMT-0500 (Central Daylight Time)","435894","red","green","","1354","","","","choice","","img/red_lw/choose11.jpg","1","161","green","0.5","0.5","0.5","w","",""
"animation","133","207537","0.0-5.0-2.64","5e7abb2c6c89e4000a180b4a","bdp_lott","Tue Mar 28 2023 15:25:36 GMT-0500 (Central Daylight Time)","435894","red","green","","","","","","","","","","161","","","","","","[{""stimulus"":""img/green_ww/1.jpg"",""time"":51},{""stimulus"":""img/green_ww/2.jpg"",""time"":101},{""stimulus"":""img/green_ww/3.jpg"",""time"":152},{""stimulus"":""img/green_ww/4.jpg"",""time"":202},{""stimulus"":""img/green_ww/5.jpg"",""time"":252},{""stimulus"":""img/green_ww/6.jpg"",""time"":301},{""stimulus"":""img/green_ww/7.jpg"",""time"":352},{""stimulus"":""img/green_ww/8.jpg"",""time"":402},{""stimulus"":""img/green_ww/9.jpg"",""time"":452},{""stimulus"":""img/green_ww/10.jpg"",""time"":503},{""stimulus"":""img/green_ww/11.jpg"",""time"":552}]","[]"
"image-keyboard-response","134","209088","0.0-5.0-1.65","5e7abb2c6c89e4000a180b4a","bdp_lott","Tue Mar 28 2023 15:25:36 GMT-0500 (Central Daylight Time)","435894","red","green","","1551","","","","choice","","img/green_ww/choose11.jpg","2","160","red","0.5","0.5","0.5","l","",""
"animation","135","209689","0.0-5.0-2.65","5e7abb2c6c89e4000a180b4a","bdp_lott","Tue Mar 28 2023 15:25:36 GMT-0500 (Central Daylight Time)","435894","red","green","","","","","","","","","","160","","","","","","[{""stimulus"":""img/red_wl/1.jpg"",""time"":52},{""stimulus"":""img/red_wl/2.jpg"",""time"":101},{""stimulus"":""img/red_wl/3.jpg"",""time"":151},{""stimulus"":""img/red_wl/4.jpg"",""time"":202},{""stimulus"":""img/red_wl/5.jpg"",""time"":252},{""stimulus"":""img/red_wl/6.jpg"",""time"":301},{""stimulus"":""img/red_wl/7.jpg"",""time"":352},{""stimulus"":""img/red_wl/8.jpg"",""time"":401},{""stimulus"":""img/red_wl/9.jpg"",""time"":451},{""stimulus"":""img/red_wl/10.jpg"",""time"":501},{""stimulus"":""img/red_wl/11.jpg"",""time"":552}]","[]"
"image-keyboard-response","136","210849","0.0-5.0-1.66","5e7abb2c6c89e4000a180b4a","bdp_lott","Tue Mar 28 2023 15:25:36 GMT-0500 (Central Daylight Time)","435894","red","green","","1159","","","","choice","","img/red_wl/choose11.jpg","1","159","green","0.5","0.5","0.5","w","",""
"animation","137","211451","0.0-5.0-2.66","5e7abb2c6c89e4000a180b4a","bdp_lott","Tue Mar 28 2023 15:25:36 GMT-0500 (Central Daylight Time)","435894","red","green","","","","","","","","","","159","","","","","","[{""stimulus"":""img/green_wl/1.jpg"",""time"":52},{""stimulus"":""img/green_wl/2.jpg"",""time"":100},{""stimulus"":""img/green_wl/3.jpg"",""time"":151},{""stimulus"":""img/green_wl/4.jpg"",""time"":200},{""stimulus"":""img/green_wl/5.jpg"",""time"":251},{""stimulus"":""img/green_wl/6.jpg"",""time"":301},{""stimulus"":""img/green_wl/7.jpg"",""time"":351},{""stimulus"":""img/green_wl/8.jpg"",""time"":401},{""stimulus"":""img/green_wl/9.jpg"",""time"":451},{""stimulus"":""img/green_wl/10.jpg"",""time"":502},{""stimulus"":""img/green_wl/11.jpg"",""time"":550}]","[]"
"image-keyboard-response","138","212749","0.0-5.0-1.67","5e7abb2c6c89e4000a180b4a","bdp_lott","Tue Mar 28 2023 15:25:36 GMT-0500 (Central Daylight Time)","435894","red","green","","1297","","","","choice","","img/green_wl/choose11.jpg","2","158","red","0.5","0.5","0.5","w","",""
"animation","139","213350","0.0-5.0-2.67","5e7abb2c6c89e4000a180b4a","bdp_lott","Tue Mar 28 2023 15:25:36 GMT-0500 (Central Daylight Time)","435894","red","green","","","","","","","","","","158","","","","","","[{""stimulus"":""img/red_ww/1.jpg"",""time"":50},{""stimulus"":""img/red_ww/2.jpg"",""time"":102},{""stimulus"":""img/red_ww/3.jpg"",""time"":151},{""stimulus"":""img/red_ww/4.jpg"",""time"":201},{""stimulus"":""img/red_ww/5.jpg"",""time"":250},{""stimulus"":""img/red_ww/6.jpg"",""time"":300},{""stimulus"":""img/red_ww/7.jpg"",""time"":351},{""stimulus"":""img/red_ww/8.jpg"",""time"":400},{""stimulus"":""img/red_ww/9.jpg"",""time"":451},{""stimulus"":""img/red_ww/10.jpg"",""time"":500},{""stimulus"":""img/red_ww/11.jpg"",""time"":550}]","[]"
"image-keyboard-response","140","215582","0.0-5.0-1.68","5e7abb2c6c89e4000a180b4a","bdp_lott","Tue Mar 28 2023 15:25:36 GMT-0500 (Central Daylight Time)","435894","red","green","","2231","","","","choice","","img/red_ww/choose11.jpg","1","157","green","0.5","0.5","0.5","l","",""
"animation","141","216183","0.0-5.0-2.68","5e7abb2c6c89e4000a180b4a","bdp_lott","Tue Mar 28 2023 15:25:36 GMT-0500 (Central Daylight Time)","435894","red","green","","","","","","","","","","157","","","","","","[{""stimulus"":""img/green_lw/1.jpg"",""time"":51},{""stimulus"":""img/green_lw/2.jpg"",""time"":101},{""stimulus"":""img/green_lw/3.jpg"",""time"":151},{""stimulus"":""img/green_lw/4.jpg"",""time"":201},{""stimulus"":""img/green_lw/5.jpg"",""time"":251},{""stimulus"":""img/green_lw/6.jpg"",""time"":300},{""stimulus"":""img/green_lw/7.jpg"",""time"":350},{""stimulus"":""img/green_lw/8.jpg"",""time"":401},{""stimulus"":""img/green_lw/9.jpg"",""time"":451},{""stimulus"":""img/green_lw/10.jpg"",""time"":500},{""stimulus"":""img/green_lw/11.jpg"",""time"":551}]","[]"
"image-keyboard-response","142","217210","0.0-5.0-1.69","5e7abb2c6c89e4000a180b4a","bdp_lott","Tue Mar 28 2023 15:25:36 GMT-0500 (Central Daylight Time)","435894","red","green","","1025","","","","choice","","img/green_lw/choose11.jpg","2","156","red","0.5","0.5","0.5","w","",""
"animation","143","217810","0.0-5.0-2.69","5e7abb2c6c89e4000a180b4a","bdp_lott","Tue Mar 28 2023 15:25:36 GMT-0500 (Central Daylight Time)","435894","red","green","","","","","","","","","","156","","","","","","[{""stimulus"":""img/red_lw/1.jpg"",""time"":51},{""stimulus"":""img/red_lw/2.jpg"",""time"":101},{""stimulus"":""img/red_lw/3.jpg"",""time"":151},{""stimulus"":""img/red_lw/4.jpg"",""time"":201},{""stimulus"":""img/red_lw/5.jpg"",""time"":258},{""stimulus"":""img/red_lw/6.jpg"",""time"":301},{""stimulus"":""img/red_lw/7.jpg"",""time"":352},{""stimulus"":""img/red_lw/8.jpg"",""time"":401},{""stimulus"":""img/red_lw/9.jpg"",""time"":451},{""stimulus"":""img/red_lw/10.jpg"",""time"":502},{""stimulus"":""img/red_lw/11.jpg"",""time"":551}]","[]"
"image-keyboard-response","144","219224","0.0-5.0-1.70","5e7abb2c6c89e4000a180b4a","bdp_lott","Tue Mar 28 2023 15:25:36 GMT-0500 (Central Daylight Time)","435894","red","green","","1413","","","","choice","","img/red_lw/choose11.jpg","1","155","green","0.5","0.5","0.5","w","",""
"animation","145","219825","0.0-5.0-2.70","5e7abb2c6c89e4000a180b4a","bdp_lott","Tue Mar 28 2023 15:25:36 GMT-0500 (Central Daylight Time)","435894","red","green","","","","","","","","","","155","","","","","","[{""stimulus"":""img/green_ww/1.jpg"",""time"":51},{""stimulus"":""img/green_ww/2.jpg"",""time"":101},{""stimulus"":""img/green_ww/3.jpg"",""time"":151},{""stimulus"":""img/green_ww/4.jpg"",""time"":201},{""stimulus"":""img/green_ww/5.jpg"",""time"":251},{""stimulus"":""img/green_ww/6.jpg"",""time"":301},{""stimulus"":""img/green_ww/7.jpg"",""time"":351},{""stimulus"":""img/green_ww/8.jpg"",""time"":401},{""stimulus"":""img/green_ww/9.jpg"",""time"":451},{""stimulus"":""img/green_ww/10.jpg"",""time"":501},{""stimulus"":""img/green_ww/11.jpg"",""time"":551}]","[]"
"image-keyboard-response","146","221383","0.0-5.0-1.71","5e7abb2c6c89e4000a180b4a","bdp_lott","Tue Mar 28 2023 15:25:36 GMT-0500 (Central Daylight Time)","435894","red","green","","1557","","","","choice","","img/green_ww/choose11.jpg","2","154","red","0.5","0.5","0.5","l","",""
"animation","147","221984","0.0-5.0-2.71","5e7abb2c6c89e4000a180b4a","bdp_lott","Tue Mar 28 2023 15:25:36 GMT-0500 (Central Daylight Time)","435894","red","green","","","","","","","","","","154","","","","","","[{""stimulus"":""img/red_wl/1.jpg"",""time"":51},{""stimulus"":""img/red_wl/2.jpg"",""time"":101},{""stimulus"":""img/red_wl/3.jpg"",""time"":150},{""stimulus"":""img/red_wl/4.jpg"",""time"":201},{""stimulus"":""img/red_wl/5.jpg"",""time"":250},{""stimulus"":""img/red_wl/6.jpg"",""time"":301},{""stimulus"":""img/red_wl/7.jpg"",""time"":351},{""stimulus"":""img/red_wl/8.jpg"",""time"":401},{""stimulus"":""img/red_wl/9.jpg"",""time"":450},{""stimulus"":""img/red_wl/10.jpg"",""time"":501},{""stimulus"":""img/red_wl/11.jpg"",""time"":550}]","[]"
"image-keyboard-response","148","223032","0.0-5.0-1.72","5e7abb2c6c89e4000a180b4a","bdp_lott","Tue Mar 28 2023 15:25:36 GMT-0500 (Central Daylight Time)","435894","red","green","","1047","","","","choice","","img/red_wl/choose11.jpg","1","153","green","0.5","0.5","0.5","w","",""
"animation","149","223633","0.0-5.0-2.72","5e7abb2c6c89e4000a180b4a","bdp_lott","Tue Mar 28 2023 15:25:36 GMT-0500 (Central Daylight Time)","435894","red","green","","","","","","","","","","153","","","","","","[{""stimulus"":""img/green_wl/1.jpg"",""time"":52},{""stimulus"":""img/green_wl/2.jpg"",""time"":101},{""stimulus"":""img/green_wl/3.jpg"",""time"":151},{""stimulus"":""img/green_wl/4.jpg"",""time"":200},{""stimulus"":""img/green_wl/5.jpg"",""time"":252},{""stimulus"":""img/green_wl/6.jpg"",""time"":302},{""stimulus"":""img/green_wl/7.jpg"",""time"":351},{""stimulus"":""img/green_wl/8.jpg"",""time"":401},{""stimulus"":""img/green_wl/9.jpg"",""time"":451},{""stimulus"":""img/green_wl/10.jpg"",""time"":500},{""stimulus"":""img/green_wl/11.jpg"",""time"":552}]","[]"
"image-keyboard-response","150","224922","0.0-5.0-1.73","5e7abb2c6c89e4000a180b4a","bdp_lott","Tue Mar 28 2023 15:25:36 GMT-0500 (Central Daylight Time)","435894","red","green","","1288","","","","choice","","img/green_wl/choose11.jpg","2","152","red","0.5","0.5","0.5","l","",""
"animation","151","225523","0.0-5.0-2.73","5e7abb2c6c89e4000a180b4a","bdp_lott","Tue Mar 28 2023 15:25:36 GMT-0500 (Central Daylight Time)","435894","red","green","","","","","","","","","","152","","","","","","[{""stimulus"":""img/red_wl/1.jpg"",""time"":50},{""stimulus"":""img/red_wl/2.jpg"",""time"":100},{""stimulus"":""img/red_wl/3.jpg"",""time"":150},{""stimulus"":""img/red_wl/4.jpg"",""time"":201},{""stimulus"":""img/red_wl/5.jpg"",""time"":250},{""stimulus"":""img/red_wl/6.jpg"",""time"":300},{""stimulus"":""img/red_wl/7.jpg"",""time"":351},{""stimulus"":""img/red_wl/8.jpg"",""time"":401},{""stimulus"":""img/red_wl/9.jpg"",""time"":452},{""stimulus"":""img/red_wl/10.jpg"",""time"":500},{""stimulus"":""img/red_wl/11.jpg"",""time"":550}]","[]"
"image-keyboard-response","152","226839","0.0-5.0-1.74","5e7abb2c6c89e4000a180b4a","bdp_lott","Tue Mar 28 2023 15:25:36 GMT-0500 (Central Daylight Time)","435894","red","green","","1315","","","","choice","","img/red_wl/choose11.jpg","1","151","green","0.5","0.5","0.5","l","",""
"animation","153","227440","0.0-5.0-2.74","5e7abb2c6c89e4000a180b4a","bdp_lott","Tue Mar 28 2023 15:25:36 GMT-0500 (Central Daylight Time)","435894","red","green","","","","","","","","","","151","","","","","","[{""stimulus"":""img/green_ll/1.jpg"",""time"":51},{""stimulus"":""img/green_ll/2.jpg"",""time"":101},{""stimulus"":""img/green_ll/3.jpg"",""time"":151},{""stimulus"":""img/green_ll/4.jpg"",""time"":203},{""stimulus"":""img/green_ll/5.jpg"",""time"":252},{""stimulus"":""img/green_ll/6.jpg"",""time"":302},{""stimulus"":""img/green_ll/7.jpg"",""time"":352},{""stimulus"":""img/green_ll/8.jpg"",""time"":402},{""stimulus"":""img/green_ll/9.jpg"",""time"":451},{""stimulus"":""img/green_ll/10.jpg"",""time"":501},{""stimulus"":""img/green_ll/11.jpg"",""time"":552}]","[]"
"image-keyboard-response","154","228626","0.0-5.0-1.75","5e7abb2c6c89e4000a180b4a","bdp_lott","Tue Mar 28 2023 15:25:36 GMT-0500 (Central Daylight Time)","435894","red","green","","1185","","","","choice","","img/green_ll/choose11.jpg","2","150","red","0.5","0.5","0.5","w","",""
"animation","155","229228","0.0-5.0-2.75","5e7abb2c6c89e4000a180b4a","bdp_lott","Tue Mar 28 2023 15:25:36 GMT-0500 (Central Daylight Time)","435894","red","green","","","","","","","","","","150","","","","","","[{""stimulus"":""img/red_lw/1.jpg"",""time"":52},{""stimulus"":""img/red_lw/2.jpg"",""time"":101},{""stimulus"":""img/red_lw/3.jpg"",""time"":152},{""stimulus"":""img/red_lw/4.jpg"",""time"":202},{""stimulus"":""img/red_lw/5.jpg"",""time"":252},{""stimulus"":""img/red_lw/6.jpg"",""time"":301},{""stimulus"":""img/red_lw/7.jpg"",""time"":353},{""stimulus"":""img/red_lw/8.jpg"",""time"":402},{""stimulus"":""img/red_lw/9.jpg"",""time"":451},{""stimulus"":""img/red_lw/10.jpg"",""time"":502},{""stimulus"":""img/red_lw/11.jpg"",""time"":552}]","[]"
"image-keyboard-response","156","230721","0.0-5.0-1.76","5e7abb2c6c89e4000a180b4a","bdp_lott","Tue Mar 28 2023 15:25:36 GMT-0500 (Central Daylight Time)","435894","red","green","","1492","","","","choice","","img/red_lw/choose11.jpg","1","149","green","0.5","0.1","0.1","l","",""
"animation","157","231323","0.0-5.0-2.76","5e7abb2c6c89e4000a180b4a","bdp_lott","Tue Mar 28 2023 15:25:36 GMT-0500 (Central Daylight Time)","435894","red","green","","","","","","","","","","149","","","","","","[{""stimulus"":""img/green_lw/1.jpg"",""time"":51},{""stimulus"":""img/green_lw/2.jpg"",""time"":101},{""stimulus"":""img/green_lw/3.jpg"",""time"":151},{""stimulus"":""img/green_lw/4.jpg"",""time"":202},{""stimulus"":""img/green_lw/5.jpg"",""time"":251},{""stimulus"":""img/green_lw/6.jpg"",""time"":301},{""stimulus"":""img/green_lw/7.jpg"",""time"":352},{""stimulus"":""img/green_lw/8.jpg"",""time"":401},{""stimulus"":""img/green_lw/9.jpg"",""time"":451},{""stimulus"":""img/green_lw/10.jpg"",""time"":501},{""stimulus"":""img/green_lw/11.jpg"",""time"":551}]","[]"
"image-keyboard-response","158","232325","0.0-5.0-1.77","5e7abb2c6c89e4000a180b4a","bdp_lott","Tue Mar 28 2023 15:25:36 GMT-0500 (Central Daylight Time)","435894","red","green","","1000","","","","choice","","img/green_lw/choose11.jpg","2","148","red","0.5","0.1","0.5","l","",""
"animation","159","232927","0.0-5.0-2.77","5e7abb2c6c89e4000a180b4a","bdp_lott","Tue Mar 28 2023 15:25:36 GMT-0500 (Central Daylight Time)","435894","red","green","","","","","","","","","","148","","","","","","[{""stimulus"":""img/red_ll/1.jpg"",""time"":51},{""stimulus"":""img/red_ll/2.jpg"",""time"":101},{""stimulus"":""img/red_ll/3.jpg"",""time"":151},{""stimulus"":""img/red_ll/4.jpg"",""time"":202},{""stimulus"":""img/red_ll/5.jpg"",""time"":252},{""stimulus"":""img/red_ll/6.jpg"",""time"":302},{""stimulus"":""img/red_ll/7.jpg"",""time"":353},{""stimulus"":""img/red_ll/8.jpg"",""time"":401},{""stimulus"":""img/red_ll/9.jpg"",""time"":451},{""stimulus"":""img/red_ll/10.jpg"",""time"":502},{""stimulus"":""img/red_ll/11.jpg"",""time"":551}]","[]"
"image-keyboard-response","160","234020","0.0-5.0-1.78","5e7abb2c6c89e4000a180b4a","bdp_lott","Tue Mar 28 2023 15:25:36 GMT-0500 (Central Daylight Time)","435894","red","green","","1092","","","","choice","","img/red_ll/choose11.jpg","1","147","green","0.5","0.1","0.1","l","",""
"animation","161","234621","0.0-5.0-2.78","5e7abb2c6c89e4000a180b4a","bdp_lott","Tue Mar 28 2023 15:25:36 GMT-0500 (Central Daylight Time)","435894","red","green","","","","","","","","","","147","","","","","","[{""stimulus"":""img/green_ll/1.jpg"",""time"":51},{""stimulus"":""img/green_ll/2.jpg"",""time"":101},{""stimulus"":""img/green_ll/3.jpg"",""time"":152},{""stimulus"":""img/green_ll/4.jpg"",""time"":202},{""stimulus"":""img/green_ll/5.jpg"",""time"":252},{""stimulus"":""img/green_ll/6.jpg"",""time"":302},{""stimulus"":""img/green_ll/7.jpg"",""time"":351},{""stimulus"":""img/green_ll/8.jpg"",""time"":401},{""stimulus"":""img/green_ll/9.jpg"",""time"":451},{""stimulus"":""img/green_ll/10.jpg"",""time"":502},{""stimulus"":""img/green_ll/11.jpg"",""time"":552}]","[]"
"image-keyboard-response","162","235735","0.0-5.0-1.79","5e7abb2c6c89e4000a180b4a","bdp_lott","Tue Mar 28 2023 15:25:36 GMT-0500 (Central Daylight Time)","435894","red","green","","1113","","","","choice","","img/green_ll/choose11.jpg","2","146","red","0.5","0.1","0.5","w","",""
"animation","163","236337","0.0-5.0-2.79","5e7abb2c6c89e4000a180b4a","bdp_lott","Tue Mar 28 2023 15:25:36 GMT-0500 (Central Daylight Time)","435894","red","green","","","","","","","","","","146","","","","","","[{""stimulus"":""img/red_lw/1.jpg"",""time"":52},{""stimulus"":""img/red_lw/2.jpg"",""time"":102},{""stimulus"":""img/red_lw/3.jpg"",""time"":152},{""stimulus"":""img/red_lw/4.jpg"",""time"":202},{""stimulus"":""img/red_lw/5.jpg"",""time"":252},{""stimulus"":""img/red_lw/6.jpg"",""time"":301},{""stimulus"":""img/red_lw/7.jpg"",""time"":351},{""stimulus"":""img/red_lw/8.jpg"",""time"":401},{""stimulus"":""img/red_lw/9.jpg"",""time"":452},{""stimulus"":""img/red_lw/10.jpg"",""time"":502},{""stimulus"":""img/red_lw/11.jpg"",""time"":552}]","[]"
"image-keyboard-response","164","237586","0.0-5.0-1.80","5e7abb2c6c89e4000a180b4a","bdp_lott","Tue Mar 28 2023 15:25:36 GMT-0500 (Central Daylight Time)","435894","red","green","","1248","","","","choice","","img/red_lw/choose11.jpg","1","145","green","0.5","0.1","0.1","l","",""
"animation","165","238187","0.0-5.0-2.80","5e7abb2c6c89e4000a180b4a","bdp_lott","Tue Mar 28 2023 15:25:36 GMT-0500 (Central Daylight Time)","435894","red","green","","","","","","","","","","145","","","","","","[{""stimulus"":""img/green_lw/1.jpg"",""time"":52},{""stimulus"":""img/green_lw/2.jpg"",""time"":102},{""stimulus"":""img/green_lw/3.jpg"",""time"":152},{""stimulus"":""img/green_lw/4.jpg"",""time"":201},{""stimulus"":""img/green_lw/5.jpg"",""time"":251},{""stimulus"":""img/green_lw/6.jpg"",""time"":301},{""stimulus"":""img/green_lw/7.jpg"",""time"":351},{""stimulus"":""img/green_lw/8.jpg"",""time"":401},{""stimulus"":""img/green_lw/9.jpg"",""time"":451},{""stimulus"":""img/green_lw/10.jpg"",""time"":501},{""stimulus"":""img/green_lw/11.jpg"",""time"":551}]","[]"
"image-keyboard-response","166","239177","0.0-5.0-1.81","5e7abb2c6c89e4000a180b4a","bdp_lott","Tue Mar 28 2023 15:25:36 GMT-0500 (Central Daylight Time)","435894","red","green","","990","","","","choice","","img/green_lw/choose11.jpg","2","144","red","0.5","0.1","0.5","l","",""
"animation","167","239778","0.0-5.0-2.81","5e7abb2c6c89e4000a180b4a","bdp_lott","Tue Mar 28 2023 15:25:36 GMT-0500 (Central Daylight Time)","435894","red","green","","","","","","","","","","144","","","","","","[{""stimulus"":""img/red_ll/1.jpg"",""time"":52},{""stimulus"":""img/red_ll/2.jpg"",""time"":101},{""stimulus"":""img/red_ll/3.jpg"",""time"":151},{""stimulus"":""img/red_ll/4.jpg"",""time"":201},{""stimulus"":""img/red_ll/5.jpg"",""time"":252},{""stimulus"":""img/red_ll/6.jpg"",""time"":301},{""stimulus"":""img/red_ll/7.jpg"",""time"":351},{""stimulus"":""img/red_ll/8.jpg"",""time"":402},{""stimulus"":""img/red_ll/9.jpg"",""time"":452},{""stimulus"":""img/red_ll/10.jpg"",""time"":502},{""stimulus"":""img/red_ll/11.jpg"",""time"":552}]","[]"
"image-keyboard-response","168","241177","0.0-5.0-1.82","5e7abb2c6c89e4000a180b4a","bdp_lott","Tue Mar 28 2023 15:25:36 GMT-0500 (Central Daylight Time)","435894","red","green","","1398","","","","choice","","img/red_ll/choose11.jpg","1","143","green","0.5","0.1","0.1","l","",""
"animation","169","241779","0.0-5.0-2.82","5e7abb2c6c89e4000a180b4a","bdp_lott","Tue Mar 28 2023 15:25:36 GMT-0500 (Central Daylight Time)","435894","red","green","","","","","","","","","","143","","","","","","[{""stimulus"":""img/green_ll/1.jpg"",""time"":52},{""stimulus"":""img/green_ll/2.jpg"",""time"":102},{""stimulus"":""img/green_ll/3.jpg"",""time"":151},{""stimulus"":""img/green_ll/4.jpg"",""time"":201},{""stimulus"":""img/green_ll/5.jpg"",""time"":252},{""stimulus"":""img/green_ll/6.jpg"",""time"":301},{""stimulus"":""img/green_ll/7.jpg"",""time"":351},{""stimulus"":""img/green_ll/8.jpg"",""time"":402},{""stimulus"":""img/green_ll/9.jpg"",""time"":451},{""stimulus"":""img/green_ll/10.jpg"",""time"":505},{""stimulus"":""img/green_ll/11.jpg"",""time"":552}]","[]"
"image-keyboard-response","170","242668","0.0-5.0-1.83","5e7abb2c6c89e4000a180b4a","bdp_lott","Tue Mar 28 2023 15:25:36 GMT-0500 (Central Daylight Time)","435894","red","green","","889","","","","choice","","img/green_ll/choose11.jpg","2","142","red","0.5","0.1","0.5","w","",""
"animation","171","243269","0.0-5.0-2.83","5e7abb2c6c89e4000a180b4a","bdp_lott","Tue Mar 28 2023 15:25:36 GMT-0500 (Central Daylight Time)","435894","red","green","","","","","","","","","","142","","","","","","[{""stimulus"":""img/red_lw/1.jpg"",""time"":51},{""stimulus"":""img/red_lw/2.jpg"",""time"":101},{""stimulus"":""img/red_lw/3.jpg"",""time"":151},{""stimulus"":""img/red_lw/4.jpg"",""time"":201},{""stimulus"":""img/red_lw/5.jpg"",""time"":251},{""stimulus"":""img/red_lw/6.jpg"",""time"":301},{""stimulus"":""img/red_lw/7.jpg"",""time"":350},{""stimulus"":""img/red_lw/8.jpg"",""time"":401},{""stimulus"":""img/red_lw/9.jpg"",""time"":451},{""stimulus"":""img/red_lw/10.jpg"",""time"":501},{""stimulus"":""img/red_lw/11.jpg"",""time"":550}]","[]"
"image-keyboard-response","172","244100","0.0-5.0-1.84","5e7abb2c6c89e4000a180b4a","bdp_lott","Tue Mar 28 2023 15:25:36 GMT-0500 (Central Daylight Time)","435894","red","green","","830","","","","choice","","img/red_lw/choose11.jpg","1","141","green","0.5","0.1","0.1","l","",""
"animation","173","244700","0.0-5.0-2.84","5e7abb2c6c89e4000a180b4a","bdp_lott","Tue Mar 28 2023 15:25:36 GMT-0500 (Central Daylight Time)","435894","red","green","","","","","","","","","","141","","","","","","[{""stimulus"":""img/green_lw/1.jpg"",""time"":52},{""stimulus"":""img/green_lw/2.jpg"",""time"":102},{""stimulus"":""img/green_lw/3.jpg"",""time"":151},{""stimulus"":""img/green_lw/4.jpg"",""time"":201},{""stimulus"":""img/green_lw/5.jpg"",""time"":252},{""stimulus"":""img/green_lw/6.jpg"",""time"":301},{""stimulus"":""img/green_lw/7.jpg"",""time"":362},{""stimulus"":""img/green_lw/8.jpg"",""time"":401},{""stimulus"":""img/green_lw/9.jpg"",""time"":451},{""stimulus"":""img/green_lw/10.jpg"",""time"":501},{""stimulus"":""img/green_lw/11.jpg"",""time"":552}]","[]"
"image-keyboard-response","174","245900","0.0-5.0-1.85","5e7abb2c6c89e4000a180b4a","bdp_lott","Tue Mar 28 2023 15:25:36 GMT-0500 (Central Daylight Time)","435894","red","green","","1198","","","","choice","","img/green_lw/choose11.jpg","2","140","red","0.5","0.1","0.5","w","",""
"animation","175","246502","0.0-5.0-2.85","5e7abb2c6c89e4000a180b4a","bdp_lott","Tue Mar 28 2023 15:25:36 GMT-0500 (Central Daylight Time)","435894","red","green","","","","","","","","","","140","","","","","","[{""stimulus"":""img/red_lw/1.jpg"",""time"":51},{""stimulus"":""img/red_lw/2.jpg"",""time"":101},{""stimulus"":""img/red_lw/3.jpg"",""time"":151},{""stimulus"":""img/red_lw/4.jpg"",""time"":201},{""stimulus"":""img/red_lw/5.jpg"",""time"":251},{""stimulus"":""img/red_lw/6.jpg"",""time"":301},{""stimulus"":""img/red_lw/7.jpg"",""time"":351},{""stimulus"":""img/red_lw/8.jpg"",""time"":401},{""stimulus"":""img/red_lw/9.jpg"",""time"":451},{""stimulus"":""img/red_lw/10.jpg"",""time"":501},{""stimulus"":""img/red_lw/11.jpg"",""time"":551}]","[]"
"image-keyboard-response","176","247910","0.0-5.0-1.86","5e7abb2c6c89e4000a180b4a","bdp_lott","Tue Mar 28 2023 15:25:36 GMT-0500 (Central Daylight Time)","435894","red","green","","1407","","","","choice","","img/red_lw/choose11.jpg","1","139","green","0.5","0.1","0.1","l","",""
"animation","177","248511","0.0-5.0-2.86","5e7abb2c6c89e4000a180b4a","bdp_lott","Tue Mar 28 2023 15:25:36 GMT-0500 (Central Daylight Time)","435894","red","green","","","","","","","","","","139","","","","","","[{""stimulus"":""img/green_lw/1.jpg"",""time"":52},{""stimulus"":""img/green_lw/2.jpg"",""time"":102},{""stimulus"":""img/green_lw/3.jpg"",""time"":151},{""stimulus"":""img/green_lw/4.jpg"",""time"":201},{""stimulus"":""img/green_lw/5.jpg"",""time"":251},{""stimulus"":""img/green_lw/6.jpg"",""time"":301},{""stimulus"":""img/green_lw/7.jpg"",""time"":351},{""stimulus"":""img/green_lw/8.jpg"",""time"":401},{""stimulus"":""img/green_lw/9.jpg"",""time"":451},{""stimulus"":""img/green_lw/10.jpg"",""time"":502},{""stimulus"":""img/green_lw/11.jpg"",""time"":552}]","[]"
"image-keyboard-response","178","249833","0.0-5.0-1.87","5e7abb2c6c89e4000a180b4a","bdp_lott","Tue Mar 28 2023 15:25:36 GMT-0500 (Central Daylight Time)","435894","red","green","","1321","","","","choice","","img/green_lw/choose11.jpg","2","138","red","0.5","0.1","0.5","l","",""
"animation","179","250435","0.0-5.0-2.87","5e7abb2c6c89e4000a180b4a","bdp_lott","Tue Mar 28 2023 15:25:36 GMT-0500 (Central Daylight Time)","435894","red","green","","","","","","","","","","138","","","","","","[{""stimulus"":""img/red_ll/1.jpg"",""time"":51},{""stimulus"":""img/red_ll/2.jpg"",""time"":101},{""stimulus"":""img/red_ll/3.jpg"",""time"":152},{""stimulus"":""img/red_ll/4.jpg"",""time"":202},{""stimulus"":""img/red_ll/5.jpg"",""time"":251},{""stimulus"":""img/red_ll/6.jpg"",""time"":302},{""stimulus"":""img/red_ll/7.jpg"",""time"":351},{""stimulus"":""img/red_ll/8.jpg"",""time"":402},{""stimulus"":""img/red_ll/9.jpg"",""time"":451},{""stimulus"":""img/red_ll/10.jpg"",""time"":502},{""stimulus"":""img/red_ll/11.jpg"",""time"":552}]","[]"
"image-keyboard-response","180","252128","0.0-5.0-1.88","5e7abb2c6c89e4000a180b4a","bdp_lott","Tue Mar 28 2023 15:25:36 GMT-0500 (Central Daylight Time)","435894","red","green","","1692","","","","choice","","img/red_ll/choose11.jpg","1","137","green","0.5","0.1","0.1","w","",""
"animation","181","252729","0.0-5.0-2.88","5e7abb2c6c89e4000a180b4a","bdp_lott","Tue Mar 28 2023 15:25:36 GMT-0500 (Central Daylight Time)","435894","red","green","","","","","","","","","","137","","","","","","[{""stimulus"":""img/green_wl/1.jpg"",""time"":51},{""stimulus"":""img/green_wl/2.jpg"",""time"":101},{""stimulus"":""img/green_wl/3.jpg"",""time"":151},{""stimulus"":""img/green_wl/4.jpg"",""time"":201},{""stimulus"":""img/green_wl/5.jpg"",""time"":252},{""stimulus"":""img/green_wl/6.jpg"",""time"":302},{""stimulus"":""img/green_wl/7.jpg"",""time"":352},{""stimulus"":""img/green_wl/8.jpg"",""time"":402},{""stimulus"":""img/green_wl/9.jpg"",""time"":452},{""stimulus"":""img/green_wl/10.jpg"",""time"":501},{""stimulus"":""img/green_wl/11.jpg"",""time"":552}]","[]"
"image-keyboard-response","182","254798","0.0-5.0-1.89","5e7abb2c6c89e4000a180b4a","bdp_lott","Tue Mar 28 2023 15:25:36 GMT-0500 (Central Daylight Time)","435894","red","green","","2068","","","","choice","","img/green_wl/choose11.jpg","2","136","red","0.5","0.1","0.5","w","",""
"animation","183","255400","0.0-5.0-2.89","5e7abb2c6c89e4000a180b4a","bdp_lott","Tue Mar 28 2023 15:25:36 GMT-0500 (Central Daylight Time)","435894","red","green","","","","","","","","","","136","","","","","","[{""stimulus"":""img/red_ww/1.jpg"",""time"":51},{""stimulus"":""img/red_ww/2.jpg"",""time"":100},{""stimulus"":""img/red_ww/3.jpg"",""time"":151},{""stimulus"":""img/red_ww/4.jpg"",""time"":201},{""stimulus"":""img/red_ww/5.jpg"",""time"":251},{""stimulus"":""img/red_ww/6.jpg"",""time"":301},{""stimulus"":""img/red_ww/7.jpg"",""time"":351},{""stimulus"":""img/red_ww/8.jpg"",""time"":402},{""stimulus"":""img/red_ww/9.jpg"",""time"":451},{""stimulus"":""img/red_ww/10.jpg"",""time"":500},{""stimulus"":""img/red_ww/11.jpg"",""time"":551}]","[]"
"image-keyboard-response","184","256381","0.0-5.0-1.90","5e7abb2c6c89e4000a180b4a","bdp_lott","Tue Mar 28 2023 15:25:36 GMT-0500 (Central Daylight Time)","435894","red","green","","980","","","","choice","","img/red_ww/choose11.jpg","1","135","green","0.5","0.1","0.1","l","",""
"animation","185","256982","0.0-5.0-2.90","5e7abb2c6c89e4000a180b4a","bdp_lott","Tue Mar 28 2023 15:25:36 GMT-0500 (Central Daylight Time)","435894","red","green","","","","","","","","","","135","","","","","","[{""stimulus"":""img/green_lw/1.jpg"",""time"":51},{""stimulus"":""img/green_lw/2.jpg"",""time"":101},{""stimulus"":""img/green_lw/3.jpg"",""time"":151},{""stimulus"":""img/green_lw/4.jpg"",""time"":202},{""stimulus"":""img/green_lw/5.jpg"",""time"":251},{""stimulus"":""img/green_lw/6.jpg"",""time"":301},{""stimulus"":""img/green_lw/7.jpg"",""time"":351},{""stimulus"":""img/green_lw/8.jpg"",""time"":401},{""stimulus"":""img/green_lw/9.jpg"",""time"":451},{""stimulus"":""img/green_lw/10.jpg"",""time"":501},{""stimulus"":""img/green_lw/11.jpg"",""time"":551}]","[]"
"image-keyboard-response","186","257785","0.0-5.0-1.91","5e7abb2c6c89e4000a180b4a","bdp_lott","Tue Mar 28 2023 15:25:36 GMT-0500 (Central Daylight Time)","435894","red","green","","802","","","","choice","","img/green_lw/choose11.jpg","2","134","red","0.5","0.1","0.5","w","",""
"animation","187","258387","0.0-5.0-2.91","5e7abb2c6c89e4000a180b4a","bdp_lott","Tue Mar 28 2023 15:25:36 GMT-0500 (Central Daylight Time)","435894","red","green","","","","","","","","","","134","","","","","","[{""stimulus"":""img/red_lw/1.jpg"",""time"":51},{""stimulus"":""img/red_lw/2.jpg"",""time"":100},{""stimulus"":""img/red_lw/3.jpg"",""time"":151},{""stimulus"":""img/red_lw/4.jpg"",""time"":200},{""stimulus"":""img/red_lw/5.jpg"",""time"":251},{""stimulus"":""img/red_lw/6.jpg"",""time"":300},{""stimulus"":""img/red_lw/7.jpg"",""time"":351},{""stimulus"":""img/red_lw/8.jpg"",""time"":401},{""stimulus"":""img/red_lw/9.jpg"",""time"":450},{""stimulus"":""img/red_lw/10.jpg"",""time"":502},{""stimulus"":""img/red_lw/11.jpg"",""time"":552}]","[]"
"image-keyboard-response","188","259367","0.0-5.0-1.92","5e7abb2c6c89e4000a180b4a","bdp_lott","Tue Mar 28 2023 15:25:36 GMT-0500 (Central Daylight Time)","435894","red","green","","979","","","","choice","","img/red_lw/choose11.jpg","2","133","red","0.5","0.1","0.5","w","",""
"animation","189","259968","0.0-5.0-2.92","5e7abb2c6c89e4000a180b4a","bdp_lott","Tue Mar 28 2023 15:25:36 GMT-0500 (Central Daylight Time)","435894","red","green","","","","","","","","","","133","","","","","","[{""stimulus"":""img/red_lw/1.jpg"",""time"":52},{""stimulus"":""img/red_lw/2.jpg"",""time"":102},{""stimulus"":""img/red_lw/3.jpg"",""time"":151},{""stimulus"":""img/red_lw/4.jpg"",""time"":201},{""stimulus"":""img/red_lw/5.jpg"",""time"":251},{""stimulus"":""img/red_lw/6.jpg"",""time"":301},{""stimulus"":""img/red_lw/7.jpg"",""time"":351},{""stimulus"":""img/red_lw/8.jpg"",""time"":401},{""stimulus"":""img/red_lw/9.jpg"",""time"":451},{""stimulus"":""img/red_lw/10.jpg"",""time"":502},{""stimulus"":""img/red_lw/11.jpg"",""time"":551}]","[]"
"image-keyboard-response","190","260580","0.0-5.0-1.93","5e7abb2c6c89e4000a180b4a","bdp_lott","Tue Mar 28 2023 15:25:36 GMT-0500 (Central Daylight Time)","435894","red","green","","610","","","","choice","","img/red_lw/choose11.jpg","2","132","red","0.5","0.1","0.5","w","",""
