"trial_type","trial_index","time_elapsed","internal_node_id","subject_id","task","startTime","totalTime","fairMachine","unfairMachine","view_history","rt","event","trial","time","trialtype","success","stimulus","key_press","roundsLeft","chosen","pFairMachWin","pUnfairMachWin","pTrialWin","outcome","animation_sequence","responses"
"pavlovia","0","2","0.0-0.0","63f3a7e45f338798fd025d99","bdp_lott","Tue Mar 28 2023 08:23:16 GMT-0500 (Central Daylight Time)","246523","green","red","","","","","","","","","","","","","","","","",""
"instructions","1","7832","0.0-1.0","63f3a7e45f338798fd025d99","bdp_lott","Tue Mar 28 2023 08:23:16 GMT-0500 (Central Daylight Time)","246523","green","red","[{""page_index"":0,""viewing_time"":7830}]","7830","","","","","","","","","","","","","","",""
"","","","","63f3a7e45f338798fd025d99","bdp_lott","Tue Mar 28 2023 08:23:16 GMT-0500 (Central Daylight Time)","246523","green","red","","","fullscreenenter","2","10653","fullscreenenter","","","","","","","","","","",""
"fullscreen","2","11645","0.0-2.0","63f3a7e45f338798fd025d99","bdp_lott","Tue Mar 28 2023 08:23:16 GMT-0500 (Central Daylight Time)","246523","green","red","","","","","","","true","","","","","","","","","",""
"instructions","3","14860","0.0-4.0","63f3a7e45f338798fd025d99","bdp_lott","Tue Mar 28 2023 08:23:16 GMT-0500 (Central Daylight Time)","246523","green","red","[{""page_index"":0,""viewing_time"":3214}]","3214","","","","","","","","","","","","","","",""
"image-keyboard-response","4","30299","0.0-5.0-1.0","63f3a7e45f338798fd025d99","bdp_lott","Tue Mar 28 2023 08:23:16 GMT-0500 (Central Daylight Time)","246523","green","red","","15437","","","","choice","","img/red_ll/initchoose11.jpg","1","225","green","0.5","0.5","0.5","w","",""
"animation","5","30899","0.0-5.0-2.0","63f3a7e45f338798fd025d99","bdp_lott","Tue Mar 28 2023 08:23:16 GMT-0500 (Central Daylight Time)","246523","green","red","","","","","","","","","","225","","","","","","[{""stimulus"":""img/green_wl/1.jpg"",""time"":51},{""stimulus"":""img/green_wl/2.jpg"",""time"":100},{""stimulus"":""img/green_wl/3.jpg"",""time"":164},{""stimulus"":""img/green_wl/4.jpg"",""time"":212},{""stimulus"":""img/green_wl/5.jpg"",""time"":260},{""stimulus"":""img/green_wl/6.jpg"",""time"":308},{""stimulus"":""img/green_wl/7.jpg"",""time"":356},{""stimulus"":""img/green_wl/8.jpg"",""time"":400},{""stimulus"":""img/green_wl/9.jpg"",""time"":452},{""stimulus"":""img/green_wl/10.jpg"",""time"":500},{""stimulus"":""img/green_wl/11.jpg"",""time"":551}]","[]"
"image-keyboard-response","6","32571","0.0-5.0-1.1","63f3a7e45f338798fd025d99","bdp_lott","Tue Mar 28 2023 08:23:16 GMT-0500 (Central Daylight Time)","246523","green","red","","1671","","","","choice","","img/green_wl/choose11.jpg","2","224","red","0.5","0.5","0.5","l","",""
"animation","7","33182","0.0-5.0-2.1","63f3a7e45f338798fd025d99","bdp_lott","Tue Mar 28 2023 08:23:16 GMT-0500 (Central Daylight Time)","246523","green","red","","","","","","","","","","224","","","","","","[{""stimulus"":""img/red_wl/1.jpg"",""time"":52},{""stimulus"":""img/red_wl/2.jpg"",""time"":101},{""stimulus"":""img/red_wl/3.jpg"",""time"":164},{""stimulus"":""img/red_wl/4.jpg"",""time"":212},{""stimulus"":""img/red_wl/5.jpg"",""time"":251},{""stimulus"":""img/red_wl/6.jpg"",""time"":308},{""stimulus"":""img/red_wl/7.jpg"",""time"":356},{""stimulus"":""img/red_wl/8.jpg"",""time"":404},{""stimulus"":""img/red_wl/9.jpg"",""time"":452},{""stimulus"":""img/red_wl/10.jpg"",""time"":515},{""stimulus"":""img/red_wl/11.jpg"",""time"":563}]","[]"
"image-keyboard-response","8","34068","0.0-5.0-1.2","63f3a7e45f338798fd025d99","bdp_lott","Tue Mar 28 2023 08:23:16 GMT-0500 (Central Daylight Time)","246523","green","red","","886","","","","choice","","img/red_wl/choose11.jpg","1","223","green","0.5","0.5","0.5","l","",""
"animation","9","34681","0.0-5.0-2.2","63f3a7e45f338798fd025d99","bdp_lott","Tue Mar 28 2023 08:23:16 GMT-0500 (Central Daylight Time)","246523","green","red","","","","","","","","","","223","","","","","","[{""stimulus"":""img/green_ll/1.jpg"",""time"":50},{""stimulus"":""img/green_ll/2.jpg"",""time"":100},{""stimulus"":""img/green_ll/3.jpg"",""time"":150},{""stimulus"":""img/green_ll/4.jpg"",""time"":214},{""stimulus"":""img/green_ll/5.jpg"",""time"":262},{""stimulus"":""img/green_ll/6.jpg"",""time"":310},{""stimulus"":""img/green_ll/7.jpg"",""time"":358},{""stimulus"":""img/green_ll/8.jpg"",""time"":400},{""stimulus"":""img/green_ll/9.jpg"",""time"":454},{""stimulus"":""img/green_ll/10.jpg"",""time"":502},{""stimulus"":""img/green_ll/11.jpg"",""time"":550}]","[]"
"image-keyboard-response","10","35314","0.0-5.0-1.3","63f3a7e45f338798fd025d99","bdp_lott","Tue Mar 28 2023 08:23:16 GMT-0500 (Central Daylight Time)","246523","green","red","","632","","","","choice","","img/green_ll/choose11.jpg","2","222","red","0.5","0.5","0.5","l","",""
"animation","11","35930","0.0-5.0-2.3","63f3a7e45f338798fd025d99","bdp_lott","Tue Mar 28 2023 08:23:16 GMT-0500 (Central Daylight Time)","246523","green","red","","","","","","","","","","222","","","","","","[{""stimulus"":""img/red_ll/1.jpg"",""time"":51},{""stimulus"":""img/red_ll/2.jpg"",""time"":101},{""stimulus"":""img/red_ll/3.jpg"",""time"":152},{""stimulus"":""img/red_ll/4.jpg"",""time"":216},{""stimulus"":""img/red_ll/5.jpg"",""time"":264},{""stimulus"":""img/red_ll/6.jpg"",""time"":312},{""stimulus"":""img/red_ll/7.jpg"",""time"":359},{""stimulus"":""img/red_ll/8.jpg"",""time"":408},{""stimulus"":""img/red_ll/9.jpg"",""time"":456},{""stimulus"":""img/red_ll/10.jpg"",""time"":504},{""stimulus"":""img/red_ll/11.jpg"",""time"":552}]","[]"
"image-keyboard-response","12","36647","0.0-5.0-1.4","63f3a7e45f338798fd025d99","bdp_lott","Tue Mar 28 2023 08:23:16 GMT-0500 (Central Daylight Time)","246523","green","red","","717","","","","choice","","img/red_ll/choose11.jpg","2","221","red","0.5","0.5","0.5","w","",""
"animation","13","37257","0.0-5.0-2.4","63f3a7e45f338798fd025d99","bdp_lott","Tue Mar 28 2023 08:23:16 GMT-0500 (Central Daylight Time)","246523","green","red","","","","","","","","","","221","","","","","","[{""stimulus"":""img/red_lw/1.jpg"",""time"":51},{""stimulus"":""img/red_lw/2.jpg"",""time"":101},{""stimulus"":""img/red_lw/3.jpg"",""time"":162},{""stimulus"":""img/red_lw/4.jpg"",""time"":210},{""stimulus"":""img/red_lw/5.jpg"",""time"":258},{""stimulus"":""img/red_lw/6.jpg"",""time"":306},{""stimulus"":""img/red_lw/7.jpg"",""time"":354},{""stimulus"":""img/red_lw/8.jpg"",""time"":402},{""stimulus"":""img/red_lw/9.jpg"",""time"":451},{""stimulus"":""img/red_lw/10.jpg"",""time"":514},{""stimulus"":""img/red_lw/11.jpg"",""time"":562}]","[]"
"image-keyboard-response","14","38682","0.0-5.0-1.5","63f3a7e45f338798fd025d99","bdp_lott","Tue Mar 28 2023 08:23:16 GMT-0500 (Central Daylight Time)","246523","green","red","","1425","","","","choice","","img/red_lw/choose11.jpg","1","220","green","0.5","0.5","0.5","l","",""
"animation","15","39287","0.0-5.0-2.5","63f3a7e45f338798fd025d99","bdp_lott","Tue Mar 28 2023 08:23:16 GMT-0500 (Central Daylight Time)","246523","green","red","","","","","","","","","","220","","","","","","[{""stimulus"":""img/green_lw/1.jpg"",""time"":61},{""stimulus"":""img/green_lw/2.jpg"",""time"":100},{""stimulus"":""img/green_lw/3.jpg"",""time"":150},{""stimulus"":""img/green_lw/4.jpg"",""time"":200},{""stimulus"":""img/green_lw/5.jpg"",""time"":253},{""stimulus"":""img/green_lw/6.jpg"",""time"":301},{""stimulus"":""img/green_lw/7.jpg"",""time"":365},{""stimulus"":""img/green_lw/8.jpg"",""time"":413},{""stimulus"":""img/green_lw/9.jpg"",""time"":461},{""stimulus"":""img/green_lw/10.jpg"",""time"":509},{""stimulus"":""img/green_lw/11.jpg"",""time"":557}]","[]"
"image-keyboard-response","16","40584","0.0-5.0-1.6","63f3a7e45f338798fd025d99","bdp_lott","Tue Mar 28 2023 08:23:16 GMT-0500 (Central Daylight Time)","246523","green","red","","1297","","","","choice","","img/green_lw/choose11.jpg","2","219","red","0.5","0.5","0.5","w","",""
"animation","17","41191","0.0-5.0-2.6","63f3a7e45f338798fd025d99","bdp_lott","Tue Mar 28 2023 08:23:16 GMT-0500 (Central Daylight Time)","246523","green","red","","","","","","","","","","219","","","","","","[{""stimulus"":""img/red_lw/1.jpg"",""time"":63},{""stimulus"":""img/red_lw/2.jpg"",""time"":101},{""stimulus"":""img/red_lw/3.jpg"",""time"":151},{""stimulus"":""img/red_lw/4.jpg"",""time"":207},{""stimulus"":""img/red_lw/5.jpg"",""time"":255},{""stimulus"":""img/red_lw/6.jpg"",""time"":303},{""stimulus"":""img/red_lw/7.jpg"",""time"":351},{""stimulus"":""img/red_lw/8.jpg"",""time"":415},{""stimulus"":""img/red_lw/9.jpg"",""time"":463},{""stimulus"":""img/red_lw/10.jpg"",""time"":511},{""stimulus"":""img/red_lw/11.jpg"",""time"":559}]","[]"
"image-keyboard-response","18","42379","0.0-5.0-1.7","63f3a7e45f338798fd025d99","bdp_lott","Tue Mar 28 2023 08:23:16 GMT-0500 (Central Daylight Time)","246523","green","red","","1188","","","","choice","","img/red_lw/choose11.jpg","2","218","red","0.5","0.5","0.5","l","",""
"animation","19","42981","0.0-5.0-2.7","63f3a7e45f338798fd025d99","bdp_lott","Tue Mar 28 2023 08:23:16 GMT-0500 (Central Daylight Time)","246523","green","red","","","","","","","","","","218","","","","","","[{""stimulus"":""img/red_ll/1.jpg"",""time"":58},{""stimulus"":""img/red_ll/2.jpg"",""time"":100},{""stimulus"":""img/red_ll/3.jpg"",""time"":154},{""stimulus"":""img/red_ll/4.jpg"",""time"":202},{""stimulus"":""img/red_ll/5.jpg"",""time"":250},{""stimulus"":""img/red_ll/6.jpg"",""time"":315},{""stimulus"":""img/red_ll/7.jpg"",""time"":362},{""stimulus"":""img/red_ll/8.jpg"",""time"":400},{""stimulus"":""img/red_ll/9.jpg"",""time"":458},{""stimulus"":""img/red_ll/10.jpg"",""time"":500},{""stimulus"":""img/red_ll/11.jpg"",""time"":550}]","[]"
"image-keyboard-response","20","43832","0.0-5.0-1.8","63f3a7e45f338798fd025d99","bdp_lott","Tue Mar 28 2023 08:23:16 GMT-0500 (Central Daylight Time)","246523","green","red","","850","","","","choice","","img/red_ll/choose11.jpg","1","217","green","0.5","0.5","0.5","w","",""
"animation","21","44435","0.0-5.0-2.8","63f3a7e45f338798fd025d99","bdp_lott","Tue Mar 28 2023 08:23:16 GMT-0500 (Central Daylight Time)","246523","green","red","","","","","","","","","","217","","","","","","[{""stimulus"":""img/green_wl/1.jpg"",""time"":60},{""stimulus"":""img/green_wl/2.jpg"",""time"":101},{""stimulus"":""img/green_wl/3.jpg"",""time"":156},{""stimulus"":""img/green_wl/4.jpg"",""time"":204},{""stimulus"":""img/green_wl/5.jpg"",""time"":252},{""stimulus"":""img/green_wl/6.jpg"",""time"":316},{""stimulus"":""img/green_wl/7.jpg"",""time"":364},{""stimulus"":""img/green_wl/8.jpg"",""time"":411},{""stimulus"":""img/green_wl/9.jpg"",""time"":459},{""stimulus"":""img/green_wl/10.jpg"",""time"":507},{""stimulus"":""img/green_wl/11.jpg"",""time"":555}]","[]"
"image-keyboard-response","22","46033","0.0-5.0-1.9","63f3a7e45f338798fd025d99","bdp_lott","Tue Mar 28 2023 08:23:16 GMT-0500 (Central Daylight Time)","246523","green","red","","1598","","","","choice","","img/green_wl/choose11.jpg","2","216","red","0.5","0.5","0.5","w","",""
"animation","23","46641","0.0-5.0-2.9","63f3a7e45f338798fd025d99","bdp_lott","Tue Mar 28 2023 08:23:16 GMT-0500 (Central Daylight Time)","246523","green","red","","","","","","","","","","216","","","","","","[{""stimulus"":""img/red_ww/1.jpg"",""time"":50},{""stimulus"":""img/red_ww/2.jpg"",""time"":100},{""stimulus"":""img/red_ww/3.jpg"",""time"":159},{""stimulus"":""img/red_ww/4.jpg"",""time"":207},{""stimulus"":""img/red_ww/5.jpg"",""time"":250},{""stimulus"":""img/red_ww/6.jpg"",""time"":303},{""stimulus"":""img/red_ww/7.jpg"",""time"":351},{""stimulus"":""img/red_ww/8.jpg"",""time"":415},{""stimulus"":""img/red_ww/9.jpg"",""time"":463},{""stimulus"":""img/red_ww/10.jpg"",""time"":511},{""stimulus"":""img/red_ww/11.jpg"",""time"":550}]","[]"
"image-keyboard-response","24","47339","0.0-5.0-1.10","63f3a7e45f338798fd025d99","bdp_lott","Tue Mar 28 2023 08:23:16 GMT-0500 (Central Daylight Time)","246523","green","red","","697","","","","choice","","img/red_ww/choose11.jpg","1","215","green","0.5","0.5","0.5","l","",""
"animation","25","47949","0.0-5.0-2.10","63f3a7e45f338798fd025d99","bdp_lott","Tue Mar 28 2023 08:23:16 GMT-0500 (Central Daylight Time)","246523","green","red","","","","","","","","","","215","","","","","","[{""stimulus"":""img/green_lw/1.jpg"",""time"":65},{""stimulus"":""img/green_lw/2.jpg"",""time"":100},{""stimulus"":""img/green_lw/3.jpg"",""time"":150},{""stimulus"":""img/green_lw/4.jpg"",""time"":209},{""stimulus"":""img/green_lw/5.jpg"",""time"":250},{""stimulus"":""img/green_lw/6.jpg"",""time"":306},{""stimulus"":""img/green_lw/7.jpg"",""time"":350},{""stimulus"":""img/green_lw/8.jpg"",""time"":402},{""stimulus"":""img/green_lw/9.jpg"",""time"":466},{""stimulus"":""img/green_lw/10.jpg"",""time"":514},{""stimulus"":""img/green_lw/11.jpg"",""time"":562}]","[]"
"image-keyboard-response","26","49916","0.0-5.0-1.11","63f3a7e45f338798fd025d99","bdp_lott","Tue Mar 28 2023 08:23:16 GMT-0500 (Central Daylight Time)","246523","green","red","","1966","","","","choice","","img/green_lw/choose11.jpg","1","214","green","0.5","0.5","0.5","w","",""
"animation","27","50526","0.0-5.0-2.11","63f3a7e45f338798fd025d99","bdp_lott","Tue Mar 28 2023 08:23:16 GMT-0500 (Central Daylight Time)","246523","green","red","","","","","","","","","","214","","","","","","[{""stimulus"":""img/green_ww/1.jpg"",""time"":66},{""stimulus"":""img/green_ww/2.jpg"",""time"":101},{""stimulus"":""img/green_ww/3.jpg"",""time"":154},{""stimulus"":""img/green_ww/4.jpg"",""time"":210},{""stimulus"":""img/green_ww/5.jpg"",""time"":251},{""stimulus"":""img/green_ww/6.jpg"",""time"":306},{""stimulus"":""img/green_ww/7.jpg"",""time"":354},{""stimulus"":""img/green_ww/8.jpg"",""time"":402},{""stimulus"":""img/green_ww/9.jpg"",""time"":466},{""stimulus"":""img/green_ww/10.jpg"",""time"":514},{""stimulus"":""img/green_ww/11.jpg"",""time"":562}]","[]"
"image-keyboard-response","28","51843","0.0-5.0-1.12","63f3a7e45f338798fd025d99","bdp_lott","Tue Mar 28 2023 08:23:16 GMT-0500 (Central Daylight Time)","246523","green","red","","1317","","","","choice","","img/green_ww/choose11.jpg","2","213","red","0.5","0.5","0.5","w","",""
"animation","29","52458","0.0-5.0-2.12","63f3a7e45f338798fd025d99","bdp_lott","Tue Mar 28 2023 08:23:16 GMT-0500 (Central Daylight Time)","246523","green","red","","","","","","","","","","213","","","","","","[{""stimulus"":""img/red_ww/1.jpg"",""time"":50},{""stimulus"":""img/red_ww/2.jpg"",""time"":100},{""stimulus"":""img/red_ww/3.jpg"",""time"":151},{""stimulus"":""img/red_ww/4.jpg"",""time"":215},{""stimulus"":""img/red_ww/5.jpg"",""time"":264},{""stimulus"":""img/red_ww/6.jpg"",""time"":312},{""stimulus"":""img/red_ww/7.jpg"",""time"":360},{""stimulus"":""img/red_ww/8.jpg"",""time"":408},{""stimulus"":""img/red_ww/9.jpg"",""time"":456},{""stimulus"":""img/red_ww/10.jpg"",""time"":504},{""stimulus"":""img/red_ww/11.jpg"",""time"":551}]","[]"
"image-keyboard-response","30","53388","0.0-5.0-1.13","63f3a7e45f338798fd025d99","bdp_lott","Tue Mar 28 2023 08:23:16 GMT-0500 (Central Daylight Time)","246523","green","red","","929","","","","choice","","img/red_ww/choose11.jpg","1","212","green","0.5","0.5","0.5","w","",""
"animation","31","53994","0.0-5.0-2.13","63f3a7e45f338798fd025d99","bdp_lott","Tue Mar 28 2023 08:23:16 GMT-0500 (Central Daylight Time)","246523","green","red","","","","","","","","","","212","","","","","","[{""stimulus"":""img/green_ww/1.jpg"",""time"":62},{""stimulus"":""img/green_ww/2.jpg"",""time"":101},{""stimulus"":""img/green_ww/3.jpg"",""time"":151},{""stimulus"":""img/green_ww/4.jpg"",""time"":206},{""stimulus"":""img/green_ww/5.jpg"",""time"":251},{""stimulus"":""img/green_ww/6.jpg"",""time"":302},{""stimulus"":""img/green_ww/7.jpg"",""time"":366},{""stimulus"":""img/green_ww/8.jpg"",""time"":401},{""stimulus"":""img/green_ww/9.jpg"",""time"":462},{""stimulus"":""img/green_ww/10.jpg"",""time"":510},{""stimulus"":""img/green_ww/11.jpg"",""time"":558}]","[]"
"image-keyboard-response","32","54750","0.0-5.0-1.14","63f3a7e45f338798fd025d99","bdp_lott","Tue Mar 28 2023 08:23:16 GMT-0500 (Central Daylight Time)","246523","green","red","","756","","","","choice","","img/green_ww/choose11.jpg","2","211","red","0.5","0.5","0.5","l","",""
"animation","33","55353","0.0-5.0-2.14","63f3a7e45f338798fd025d99","bdp_lott","Tue Mar 28 2023 08:23:16 GMT-0500 (Central Daylight Time)","246523","green","red","","","","","","","","","","211","","","","","","[{""stimulus"":""img/red_wl/1.jpg"",""time"":60},{""stimulus"":""img/red_wl/2.jpg"",""time"":101},{""stimulus"":""img/red_wl/3.jpg"",""time"":156},{""stimulus"":""img/red_wl/4.jpg"",""time"":203},{""stimulus"":""img/red_wl/5.jpg"",""time"":251},{""stimulus"":""img/red_wl/6.jpg"",""time"":301},{""stimulus"":""img/red_wl/7.jpg"",""time"":363},{""stimulus"":""img/red_wl/8.jpg"",""time"":401},{""stimulus"":""img/red_wl/9.jpg"",""time"":459},{""stimulus"":""img/red_wl/10.jpg"",""time"":507},{""stimulus"":""img/red_wl/11.jpg"",""time"":555}]","[]"
"image-keyboard-response","34","55980","0.0-5.0-1.15","63f3a7e45f338798fd025d99","bdp_lott","Tue Mar 28 2023 08:23:16 GMT-0500 (Central Daylight Time)","246523","green","red","","627","","","","choice","","img/red_wl/choose11.jpg","1","210","green","0.5","0.5","0.5","l","",""
"animation","35","56582","0.0-5.0-2.15","63f3a7e45f338798fd025d99","bdp_lott","Tue Mar 28 2023 08:23:16 GMT-0500 (Central Daylight Time)","246523","green","red","","","","","","","","","","210","","","","","","[{""stimulus"":""img/green_ll/1.jpg"",""time"":59},{""stimulus"":""img/green_ll/2.jpg"",""time"":100},{""stimulus"":""img/green_ll/3.jpg"",""time"":155},{""stimulus"":""img/green_ll/4.jpg"",""time"":200},{""stimulus"":""img/green_ll/5.jpg"",""time"":251},{""stimulus"":""img/green_ll/6.jpg"",""time"":315},{""stimulus"":""img/green_ll/7.jpg"",""time"":362},{""stimulus"":""img/green_ll/8.jpg"",""time"":410},{""stimulus"":""img/green_ll/9.jpg"",""time"":458},{""stimulus"":""img/green_ll/10.jpg"",""time"":500},{""stimulus"":""img/green_ll/11.jpg"",""time"":554}]","[]"
"image-keyboard-response","36","57106","0.0-5.0-1.16","63f3a7e45f338798fd025d99","bdp_lott","Tue Mar 28 2023 08:23:16 GMT-0500 (Central Daylight Time)","246523","green","red","","523","","","","choice","","img/green_ll/choose11.jpg","1","209","green","0.5","0.5","0.5","l","",""
"animation","37","57718","0.0-5.0-2.16","63f3a7e45f338798fd025d99","bdp_lott","Tue Mar 28 2023 08:23:16 GMT-0500 (Central Daylight Time)","246523","green","red","","","","","","","","","","209","","","","","","[{""stimulus"":""img/green_ll/1.jpg"",""time"":53},{""stimulus"":""img/green_ll/2.jpg"",""time"":101},{""stimulus"":""img/green_ll/3.jpg"",""time"":155},{""stimulus"":""img/green_ll/4.jpg"",""time"":213},{""stimulus"":""img/green_ll/5.jpg"",""time"":251},{""stimulus"":""img/green_ll/6.jpg"",""time"":308},{""stimulus"":""img/green_ll/7.jpg"",""time"":356},{""stimulus"":""img/green_ll/8.jpg"",""time"":404},{""stimulus"":""img/green_ll/9.jpg"",""time"":452},{""stimulus"":""img/green_ll/10.jpg"",""time"":516},{""stimulus"":""img/green_ll/11.jpg"",""time"":551}]","[]"
"image-keyboard-response","38","58393","0.0-5.0-1.17","63f3a7e45f338798fd025d99","bdp_lott","Tue Mar 28 2023 08:23:16 GMT-0500 (Central Daylight Time)","246523","green","red","","675","","","","choice","","img/green_ll/choose11.jpg","2","208","red","0.5","0.5","0.5","l","",""
"animation","39","58995","0.0-5.0-2.17","63f3a7e45f338798fd025d99","bdp_lott","Tue Mar 28 2023 08:23:16 GMT-0500 (Central Daylight Time)","246523","green","red","","","","","","","","","","208","","","","","","[{""stimulus"":""img/red_ll/1.jpg"",""time"":60},{""stimulus"":""img/red_ll/2.jpg"",""time"":101},{""stimulus"":""img/red_ll/3.jpg"",""time"":153},{""stimulus"":""img/red_ll/4.jpg"",""time"":204},{""stimulus"":""img/red_ll/5.jpg"",""time"":251},{""stimulus"":""img/red_ll/6.jpg"",""time"":315},{""stimulus"":""img/red_ll/7.jpg"",""time"":363},{""stimulus"":""img/red_ll/8.jpg"",""time"":411},{""stimulus"":""img/red_ll/9.jpg"",""time"":458},{""stimulus"":""img/red_ll/10.jpg"",""time"":500},{""stimulus"":""img/red_ll/11.jpg"",""time"":554}]","[]"
"image-keyboard-response","40","59701","0.0-5.0-1.18","63f3a7e45f338798fd025d99","bdp_lott","Tue Mar 28 2023 08:23:16 GMT-0500 (Central Daylight Time)","246523","green","red","","706","","","","choice","","img/red_ll/choose11.jpg","2","207","red","0.5","0.5","0.5","l","",""
"animation","41","60305","0.0-5.0-2.18","63f3a7e45f338798fd025d99","bdp_lott","Tue Mar 28 2023 08:23:16 GMT-0500 (Central Daylight Time)","246523","green","red","","","","","","","","","","207","","","","","","[{""stimulus"":""img/red_ll/1.jpg"",""time"":50},{""stimulus"":""img/red_ll/2.jpg"",""time"":100},{""stimulus"":""img/red_ll/3.jpg"",""time"":157},{""stimulus"":""img/red_ll/4.jpg"",""time"":205},{""stimulus"":""img/red_ll/5.jpg"",""time"":252},{""stimulus"":""img/red_ll/6.jpg"",""time"":300},{""stimulus"":""img/red_ll/7.jpg"",""time"":364},{""stimulus"":""img/red_ll/8.jpg"",""time"":400},{""stimulus"":""img/red_ll/9.jpg"",""time"":460},{""stimulus"":""img/red_ll/10.jpg"",""time"":500},{""stimulus"":""img/red_ll/11.jpg"",""time"":550}]","[]"
"image-keyboard-response","42","60589","0.0-5.0-1.19","63f3a7e45f338798fd025d99","bdp_lott","Tue Mar 28 2023 08:23:16 GMT-0500 (Central Daylight Time)","246523","green","red","","283","","","","choice","","img/red_ll/choose11.jpg","1","206","green","0.5","0.5","0.5","w","",""
"animation","43","61196","0.0-5.0-2.19","63f3a7e45f338798fd025d99","bdp_lott","Tue Mar 28 2023 08:23:16 GMT-0500 (Central Daylight Time)","246523","green","red","","","","","","","","","","206","","","","","","[{""stimulus"":""img/green_wl/1.jpg"",""time"":50},{""stimulus"":""img/green_wl/2.jpg"",""time"":100},{""stimulus"":""img/green_wl/3.jpg"",""time"":159},{""stimulus"":""img/green_wl/4.jpg"",""time"":209},{""stimulus"":""img/green_wl/5.jpg"",""time"":257},{""stimulus"":""img/green_wl/6.jpg"",""time"":300},{""stimulus"":""img/green_wl/7.jpg"",""time"":354},{""stimulus"":""img/green_wl/8.jpg"",""time"":402},{""stimulus"":""img/green_wl/9.jpg"",""time"":466},{""stimulus"":""img/green_wl/10.jpg"",""time"":514},{""stimulus"":""img/green_wl/11.jpg"",""time"":550}]","[]"
"image-keyboard-response","44","61560","0.0-5.0-1.20","63f3a7e45f338798fd025d99","bdp_lott","Tue Mar 28 2023 08:23:16 GMT-0500 (Central Daylight Time)","246523","green","red","","363","","","","choice","","img/green_wl/choose11.jpg","2","205","red","0.5","0.5","0.5","l","",""
"animation","45","62172","0.0-5.0-2.20","63f3a7e45f338798fd025d99","bdp_lott","Tue Mar 28 2023 08:23:16 GMT-0500 (Central Daylight Time)","246523","green","red","","","","","","","","","","205","","","","","","[{""stimulus"":""img/red_wl/1.jpg"",""time"":51},{""stimulus"":""img/red_wl/2.jpg"",""time"":101},{""stimulus"":""img/red_wl/3.jpg"",""time"":154},{""stimulus"":""img/red_wl/4.jpg"",""time"":212},{""stimulus"":""img/red_wl/5.jpg"",""time"":260},{""stimulus"":""img/red_wl/6.jpg"",""time"":308},{""stimulus"":""img/red_wl/7.jpg"",""time"":356},{""stimulus"":""img/red_wl/8.jpg"",""time"":401},{""stimulus"":""img/red_wl/9.jpg"",""time"":452},{""stimulus"":""img/red_wl/10.jpg"",""time"":506},{""stimulus"":""img/red_wl/11.jpg"",""time"":564}]","[]"
"image-keyboard-response","46","62525","0.0-5.0-1.21","63f3a7e45f338798fd025d99","bdp_lott","Tue Mar 28 2023 08:23:16 GMT-0500 (Central Daylight Time)","246523","green","red","","353","","","","choice","","img/red_wl/choose11.jpg","2","204","red","0.5","0.5","0.5","l","",""
"animation","47","63128","0.0-5.0-2.21","63f3a7e45f338798fd025d99","bdp_lott","Tue Mar 28 2023 08:23:16 GMT-0500 (Central Daylight Time)","246523","green","red","","","","","","","","","","204","","","","","","[{""stimulus"":""img/red_wl/1.jpg"",""time"":50},{""stimulus"":""img/red_wl/2.jpg"",""time"":100},{""stimulus"":""img/red_wl/3.jpg"",""time"":155},{""stimulus"":""img/red_wl/4.jpg"",""time"":204},{""stimulus"":""img/red_wl/5.jpg"",""time"":252},{""stimulus"":""img/red_wl/6.jpg"",""time"":315},{""stimulus"":""img/red_wl/7.jpg"",""time"":350},{""stimulus"":""img/red_wl/8.jpg"",""time"":400},{""stimulus"":""img/red_wl/9.jpg"",""time"":459},{""stimulus"":""img/red_wl/10.jpg"",""time"":507},{""stimulus"":""img/red_wl/11.jpg"",""time"":555}]","[]"
"image-keyboard-response","48","63384","0.0-5.0-1.22","63f3a7e45f338798fd025d99","bdp_lott","Tue Mar 28 2023 08:23:16 GMT-0500 (Central Daylight Time)","246523","green","red","","256","","","","choice","","img/red_wl/choose11.jpg","1","203","green","0.5","0.5","0.5","l","",""
"animation","49","63991","0.0-5.0-2.22","63f3a7e45f338798fd025d99","bdp_lott","Tue Mar 28 2023 08:23:16 GMT-0500 (Central Daylight Time)","246523","green","red","","","","","","","","","","203","","","","","","[{""stimulus"":""img/green_ll/1.jpg"",""time"":63},{""stimulus"":""img/green_ll/2.jpg"",""time"":101},{""stimulus"":""img/green_ll/3.jpg"",""time"":159},{""stimulus"":""img/green_ll/4.jpg"",""time"":201},{""stimulus"":""img/green_ll/5.jpg"",""time"":255},{""stimulus"":""img/green_ll/6.jpg"",""time"":301},{""stimulus"":""img/green_ll/7.jpg"",""time"":351},{""stimulus"":""img/green_ll/8.jpg"",""time"":415},{""stimulus"":""img/green_ll/9.jpg"",""time"":463},{""stimulus"":""img/green_ll/10.jpg"",""time"":511},{""stimulus"":""img/green_ll/11.jpg"",""time"":559}]","[]"
"image-keyboard-response","50","64287","0.0-5.0-1.23","63f3a7e45f338798fd025d99","bdp_lott","Tue Mar 28 2023 08:23:16 GMT-0500 (Central Daylight Time)","246523","green","red","","296","","","","choice","","img/green_ll/choose11.jpg","1","202","green","0.5","0.5","0.5","l","",""
"animation","51","64901","0.0-5.0-2.23","63f3a7e45f338798fd025d99","bdp_lott","Tue Mar 28 2023 08:23:16 GMT-0500 (Central Daylight Time)","246523","green","red","","","","","","","","","","202","","","","","","[{""stimulus"":""img/green_ll/1.jpg"",""time"":55},{""stimulus"":""img/green_ll/2.jpg"",""time"":101},{""stimulus"":""img/green_ll/3.jpg"",""time"":166},{""stimulus"":""img/green_ll/4.jpg"",""time"":201},{""stimulus"":""img/green_ll/5.jpg"",""time"":262},{""stimulus"":""img/green_ll/6.jpg"",""time"":310},{""stimulus"":""img/green_ll/7.jpg"",""time"":358},{""stimulus"":""img/green_ll/8.jpg"",""time"":406},{""stimulus"":""img/green_ll/9.jpg"",""time"":454},{""stimulus"":""img/green_ll/10.jpg"",""time"":502},{""stimulus"":""img/green_ll/11.jpg"",""time"":566}]","[]"
"image-keyboard-response","52","65294","0.0-5.0-1.24","63f3a7e45f338798fd025d99","bdp_lott","Tue Mar 28 2023 08:23:16 GMT-0500 (Central Daylight Time)","246523","green","red","","392","","","","choice","","img/green_ll/choose11.jpg","1","201","green","0.5","0.5","0.5","w","",""
"animation","53","65905","0.0-5.0-2.24","63f3a7e45f338798fd025d99","bdp_lott","Tue Mar 28 2023 08:23:16 GMT-0500 (Central Daylight Time)","246523","green","red","","","","","","","","","","201","","","","","","[{""stimulus"":""img/green_wl/1.jpg"",""time"":56},{""stimulus"":""img/green_wl/2.jpg"",""time"":101},{""stimulus"":""img/green_wl/3.jpg"",""time"":151},{""stimulus"":""img/green_wl/4.jpg"",""time"":215},{""stimulus"":""img/green_wl/5.jpg"",""time"":263},{""stimulus"":""img/green_wl/6.jpg"",""time"":308},{""stimulus"":""img/green_wl/7.jpg"",""time"":356},{""stimulus"":""img/green_wl/8.jpg"",""time"":404},{""stimulus"":""img/green_wl/9.jpg"",""time"":452},{""stimulus"":""img/green_wl/10.jpg"",""time"":516},{""stimulus"":""img/green_wl/11.jpg"",""time"":564}]","[]"
"image-keyboard-response","54","66113","0.0-5.0-1.25","63f3a7e45f338798fd025d99","bdp_lott","Tue Mar 28 2023 08:23:16 GMT-0500 (Central Daylight Time)","246523","green","red","","207","","","","choice","","img/green_wl/choose11.jpg","2","200","red","0.5","0.5","0.5","l","",""
"animation","55","66720","0.0-5.0-2.25","63f3a7e45f338798fd025d99","bdp_lott","Tue Mar 28 2023 08:23:16 GMT-0500 (Central Daylight Time)","246523","green","red","","","","","","","","","","200","","","","","","[{""stimulus"":""img/red_wl/1.jpg"",""time"":51},{""stimulus"":""img/red_wl/2.jpg"",""time"":101},{""stimulus"":""img/red_wl/3.jpg"",""time"":159},{""stimulus"":""img/red_wl/4.jpg"",""time"":207},{""stimulus"":""img/red_wl/5.jpg"",""time"":255},{""stimulus"":""img/red_wl/6.jpg"",""time"":301},{""stimulus"":""img/red_wl/7.jpg"",""time"":351},{""stimulus"":""img/red_wl/8.jpg"",""time"":414},{""stimulus"":""img/red_wl/9.jpg"",""time"":462},{""stimulus"":""img/red_wl/10.jpg"",""time"":510},{""stimulus"":""img/red_wl/11.jpg"",""time"":558}]","[]"
"image-keyboard-response","56","67136","0.0-5.0-1.26","63f3a7e45f338798fd025d99","bdp_lott","Tue Mar 28 2023 08:23:16 GMT-0500 (Central Daylight Time)","246523","green","red","","416","","","","choice","","img/red_wl/choose11.jpg","2","199","red","0.5","0.5","0.5","w","",""
"animation","57","67743","0.0-5.0-2.26","63f3a7e45f338798fd025d99","bdp_lott","Tue Mar 28 2023 08:23:16 GMT-0500 (Central Daylight Time)","246523","green","red","","","","","","","","","","199","","","","","","[{""stimulus"":""img/red_ww/1.jpg"",""time"":63},{""stimulus"":""img/red_ww/2.jpg"",""time"":100},{""stimulus"":""img/red_ww/3.jpg"",""time"":159},{""stimulus"":""img/red_ww/4.jpg"",""time"":207},{""stimulus"":""img/red_ww/5.jpg"",""time"":250},{""stimulus"":""img/red_ww/6.jpg"",""time"":300},{""stimulus"":""img/red_ww/7.jpg"",""time"":351},{""stimulus"":""img/red_ww/8.jpg"",""time"":400},{""stimulus"":""img/red_ww/9.jpg"",""time"":450},{""stimulus"":""img/red_ww/10.jpg"",""time"":511},{""stimulus"":""img/red_ww/11.jpg"",""time"":550}]","[]"
"image-keyboard-response","58","69215","0.0-5.0-1.27","63f3a7e45f338798fd025d99","bdp_lott","Tue Mar 28 2023 08:23:16 GMT-0500 (Central Daylight Time)","246523","green","red","","1472","","","","choice","","img/red_ww/choose11.jpg","2","198","red","0.5","0.5","0.5","l","",""
"animation","59","69818","0.0-5.0-2.27","63f3a7e45f338798fd025d99","bdp_lott","Tue Mar 28 2023 08:23:16 GMT-0500 (Central Daylight Time)","246523","green","red","","","","","","","","","","198","","","","","","[{""stimulus"":""img/red_wl/1.jpg"",""time"":50},{""stimulus"":""img/red_wl/2.jpg"",""time"":100},{""stimulus"":""img/red_wl/3.jpg"",""time"":157},{""stimulus"":""img/red_wl/4.jpg"",""time"":205},{""stimulus"":""img/red_wl/5.jpg"",""time"":253},{""stimulus"":""img/red_wl/6.jpg"",""time"":301},{""stimulus"":""img/red_wl/7.jpg"",""time"":364},{""stimulus"":""img/red_wl/8.jpg"",""time"":412},{""stimulus"":""img/red_wl/9.jpg"",""time"":460},{""stimulus"":""img/red_wl/10.jpg"",""time"":508},{""stimulus"":""img/red_wl/11.jpg"",""time"":550}]","[]"
"image-keyboard-response","60","70108","0.0-5.0-1.28","63f3a7e45f338798fd025d99","bdp_lott","Tue Mar 28 2023 08:23:16 GMT-0500 (Central Daylight Time)","246523","green","red","","289","","","","choice","","img/red_wl/choose11.jpg","1","197","green","0.5","0.5","0.5","l","",""
"animation","61","70715","0.0-5.0-2.28","63f3a7e45f338798fd025d99","bdp_lott","Tue Mar 28 2023 08:23:16 GMT-0500 (Central Daylight Time)","246523","green","red","","","","","","","","","","197","","","","","","[{""stimulus"":""img/green_ll/1.jpg"",""time"":63},{""stimulus"":""img/green_ll/2.jpg"",""time"":101},{""stimulus"":""img/green_ll/3.jpg"",""time"":154},{""stimulus"":""img/green_ll/4.jpg"",""time"":207},{""stimulus"":""img/green_ll/5.jpg"",""time"":255},{""stimulus"":""img/green_ll/6.jpg"",""time"":303},{""stimulus"":""img/green_ll/7.jpg"",""time"":351},{""stimulus"":""img/green_ll/8.jpg"",""time"":415},{""stimulus"":""img/green_ll/9.jpg"",""time"":463},{""stimulus"":""img/green_ll/10.jpg"",""time"":511},{""stimulus"":""img/green_ll/11.jpg"",""time"":551}]","[]"
"image-keyboard-response","62","70931","0.0-5.0-1.29","63f3a7e45f338798fd025d99","bdp_lott","Tue Mar 28 2023 08:23:16 GMT-0500 (Central Daylight Time)","246523","green","red","","216","","","","choice","","img/green_ll/choose11.jpg","1","196","green","0.5","0.5","0.5","w","",""
"animation","63","71547","0.0-5.0-2.29","63f3a7e45f338798fd025d99","bdp_lott","Tue Mar 28 2023 08:23:16 GMT-0500 (Central Daylight Time)","246523","green","red","","","","","","","","","","196","","","","","","[{""stimulus"":""img/green_wl/1.jpg"",""time"":51},{""stimulus"":""img/green_wl/2.jpg"",""time"":101},{""stimulus"":""img/green_wl/3.jpg"",""time"":152},{""stimulus"":""img/green_wl/4.jpg"",""time"":216},{""stimulus"":""img/green_wl/5.jpg"",""time"":264},{""stimulus"":""img/green_wl/6.jpg"",""time"":312},{""stimulus"":""img/green_wl/7.jpg"",""time"":360},{""stimulus"":""img/green_wl/8.jpg"",""time"":408},{""stimulus"":""img/green_wl/9.jpg"",""time"":456},{""stimulus"":""img/green_wl/10.jpg"",""time"":504},{""stimulus"":""img/green_wl/11.jpg"",""time"":551}]","[]"
"image-keyboard-response","64","71739","0.0-5.0-1.30","63f3a7e45f338798fd025d99","bdp_lott","Tue Mar 28 2023 08:23:16 GMT-0500 (Central Daylight Time)","246523","green","red","","192","","","","choice","","img/green_wl/choose11.jpg","2","195","red","0.5","0.5","0.5","w","",""
"animation","65","72346","0.0-5.0-2.30","63f3a7e45f338798fd025d99","bdp_lott","Tue Mar 28 2023 08:23:16 GMT-0500 (Central Daylight Time)","246523","green","red","","","","","","","","","","195","","","","","","[{""stimulus"":""img/red_ww/1.jpg"",""time"":64},{""stimulus"":""img/red_ww/2.jpg"",""time"":101},{""stimulus"":""img/red_ww/3.jpg"",""time"":158},{""stimulus"":""img/red_ww/4.jpg"",""time"":208},{""stimulus"":""img/red_ww/5.jpg"",""time"":251},{""stimulus"":""img/red_ww/6.jpg"",""time"":301},{""stimulus"":""img/red_ww/7.jpg"",""time"":351},{""stimulus"":""img/red_ww/8.jpg"",""time"":401},{""stimulus"":""img/red_ww/9.jpg"",""time"":463},{""stimulus"":""img/red_ww/10.jpg"",""time"":511},{""stimulus"":""img/red_ww/11.jpg"",""time"":559}]","[]"
"image-keyboard-response","66","72693","0.0-5.0-1.31","63f3a7e45f338798fd025d99","bdp_lott","Tue Mar 28 2023 08:23:16 GMT-0500 (Central Daylight Time)","246523","green","red","","346","","","","choice","","img/red_ww/choose11.jpg","2","194","red","0.5","0.5","0.5","w","",""
"animation","67","73305","0.0-5.0-2.31","63f3a7e45f338798fd025d99","bdp_lott","Tue Mar 28 2023 08:23:16 GMT-0500 (Central Daylight Time)","246523","green","red","","","","","","","","","","194","","","","","","[{""stimulus"":""img/red_ww/1.jpg"",""time"":53},{""stimulus"":""img/red_ww/2.jpg"",""time"":100},{""stimulus"":""img/red_ww/3.jpg"",""time"":165},{""stimulus"":""img/red_ww/4.jpg"",""time"":213},{""stimulus"":""img/red_ww/5.jpg"",""time"":260},{""stimulus"":""img/red_ww/6.jpg"",""time"":308},{""stimulus"":""img/red_ww/7.jpg"",""time"":356},{""stimulus"":""img/red_ww/8.jpg"",""time"":404},{""stimulus"":""img/red_ww/9.jpg"",""time"":452},{""stimulus"":""img/red_ww/10.jpg"",""time"":500},{""stimulus"":""img/red_ww/11.jpg"",""time"":564}]","[]"
"image-keyboard-response","68","73706","0.0-5.0-1.32","63f3a7e45f338798fd025d99","bdp_lott","Tue Mar 28 2023 08:23:16 GMT-0500 (Central Daylight Time)","246523","green","red","","401","","","","choice","","img/red_ww/choose11.jpg","2","193","red","0.5","0.5","0.5","l","",""
"animation","69","74311","0.0-5.0-2.32","63f3a7e45f338798fd025d99","bdp_lott","Tue Mar 28 2023 08:23:16 GMT-0500 (Central Daylight Time)","246523","green","red","","","","","","","","","","193","","","","","","[{""stimulus"":""img/red_wl/1.jpg"",""time"":62},{""stimulus"":""img/red_wl/2.jpg"",""time"":100},{""stimulus"":""img/red_wl/3.jpg"",""time"":158},{""stimulus"":""img/red_wl/4.jpg"",""time"":206},{""stimulus"":""img/red_wl/5.jpg"",""time"":254},{""stimulus"":""img/red_wl/6.jpg"",""time"":301},{""stimulus"":""img/red_wl/7.jpg"",""time"":354},{""stimulus"":""img/red_wl/8.jpg"",""time"":413},{""stimulus"":""img/red_wl/9.jpg"",""time"":461},{""stimulus"":""img/red_wl/10.jpg"",""time"":509},{""stimulus"":""img/red_wl/11.jpg"",""time"":556}]","[]"
"image-keyboard-response","70","74800","0.0-5.0-1.33","63f3a7e45f338798fd025d99","bdp_lott","Tue Mar 28 2023 08:23:16 GMT-0500 (Central Daylight Time)","246523","green","red","","488","","","","choice","","img/red_wl/choose11.jpg","1","192","green","0.5","0.5","0.5","l","",""
"animation","71","75415","0.0-5.0-2.33","63f3a7e45f338798fd025d99","bdp_lott","Tue Mar 28 2023 08:23:16 GMT-0500 (Central Daylight Time)","246523","green","red","","","","","","","","","","192","","","","","","[{""stimulus"":""img/green_ll/1.jpg"",""time"":51},{""stimulus"":""img/green_ll/2.jpg"",""time"":101},{""stimulus"":""img/green_ll/3.jpg"",""time"":151},{""stimulus"":""img/green_ll/4.jpg"",""time"":215},{""stimulus"":""img/green_ll/5.jpg"",""time"":263},{""stimulus"":""img/green_ll/6.jpg"",""time"":311},{""stimulus"":""img/green_ll/7.jpg"",""time"":359},{""stimulus"":""img/green_ll/8.jpg"",""time"":407},{""stimulus"":""img/green_ll/9.jpg"",""time"":455},{""stimulus"":""img/green_ll/10.jpg"",""time"":503},{""stimulus"":""img/green_ll/11.jpg"",""time"":551}]","[]"
"image-keyboard-response","72","76825","0.0-5.0-1.34","63f3a7e45f338798fd025d99","bdp_lott","Tue Mar 28 2023 08:23:16 GMT-0500 (Central Daylight Time)","246523","green","red","","1410","","","","choice","","img/green_ll/choose11.jpg","2","191","red","0.5","0.5","0.5","w","",""
"animation","73","77431","0.0-5.0-2.34","63f3a7e45f338798fd025d99","bdp_lott","Tue Mar 28 2023 08:23:16 GMT-0500 (Central Daylight Time)","246523","green","red","","","","","","","","","","191","","","","","","[{""stimulus"":""img/red_lw/1.jpg"",""time"":50},{""stimulus"":""img/red_lw/2.jpg"",""time"":100},{""stimulus"":""img/red_lw/3.jpg"",""time"":158},{""stimulus"":""img/red_lw/4.jpg"",""time"":206},{""stimulus"":""img/red_lw/5.jpg"",""time"":254},{""stimulus"":""img/red_lw/6.jpg"",""time"":302},{""stimulus"":""img/red_lw/7.jpg"",""time"":350},{""stimulus"":""img/red_lw/8.jpg"",""time"":414},{""stimulus"":""img/red_lw/9.jpg"",""time"":450},{""stimulus"":""img/red_lw/10.jpg"",""time"":510},{""stimulus"":""img/red_lw/11.jpg"",""time"":550}]","[]"
"image-keyboard-response","74","78464","0.0-5.0-1.35","63f3a7e45f338798fd025d99","bdp_lott","Tue Mar 28 2023 08:23:16 GMT-0500 (Central Daylight Time)","246523","green","red","","1033","","","","choice","","img/red_lw/choose11.jpg","2","190","red","0.5","0.5","0.5","l","",""
"animation","75","79077","0.0-5.0-2.35","63f3a7e45f338798fd025d99","bdp_lott","Tue Mar 28 2023 08:23:16 GMT-0500 (Central Daylight Time)","246523","green","red","","","","","","","","","","190","","","","","","[{""stimulus"":""img/red_ll/1.jpg"",""time"":53},{""stimulus"":""img/red_ll/2.jpg"",""time"":100},{""stimulus"":""img/red_ll/3.jpg"",""time"":165},{""stimulus"":""img/red_ll/4.jpg"",""time"":200},{""stimulus"":""img/red_ll/5.jpg"",""time"":261},{""stimulus"":""img/red_ll/6.jpg"",""time"":309},{""stimulus"":""img/red_ll/7.jpg"",""time"":357},{""stimulus"":""img/red_ll/8.jpg"",""time"":406},{""stimulus"":""img/red_ll/9.jpg"",""time"":454},{""stimulus"":""img/red_ll/10.jpg"",""time"":502},{""stimulus"":""img/red_ll/11.jpg"",""time"":550}]","[]"
"image-keyboard-response","76","80039","0.0-5.0-1.36","63f3a7e45f338798fd025d99","bdp_lott","Tue Mar 28 2023 08:23:16 GMT-0500 (Central Daylight Time)","246523","green","red","","961","","","","choice","","img/red_ll/choose11.jpg","2","189","red","0.5","0.5","0.5","l","",""
"animation","77","80643","0.0-5.0-2.36","63f3a7e45f338798fd025d99","bdp_lott","Tue Mar 28 2023 08:23:16 GMT-0500 (Central Daylight Time)","246523","green","red","","","","","","","","","","189","","","","","","[{""stimulus"":""img/red_ll/1.jpg"",""time"":60},{""stimulus"":""img/red_ll/2.jpg"",""time"":101},{""stimulus"":""img/red_ll/3.jpg"",""time"":151},{""stimulus"":""img/red_ll/4.jpg"",""time"":204},{""stimulus"":""img/red_ll/5.jpg"",""time"":252},{""stimulus"":""img/red_ll/6.jpg"",""time"":316},{""stimulus"":""img/red_ll/7.jpg"",""time"":364},{""stimulus"":""img/red_ll/8.jpg"",""time"":412},{""stimulus"":""img/red_ll/9.jpg"",""time"":451},{""stimulus"":""img/red_ll/10.jpg"",""time"":501},{""stimulus"":""img/red_ll/11.jpg"",""time"":551}]","[]"
"image-keyboard-response","78","81148","0.0-5.0-1.37","63f3a7e45f338798fd025d99","bdp_lott","Tue Mar 28 2023 08:23:16 GMT-0500 (Central Daylight Time)","246523","green","red","","505","","","","choice","","img/red_ll/choose11.jpg","1","188","green","0.5","0.5","0.5","l","",""
"animation","79","81762","0.0-5.0-2.37","63f3a7e45f338798fd025d99","bdp_lott","Tue Mar 28 2023 08:23:16 GMT-0500 (Central Daylight Time)","246523","green","red","","","","","","","","","","188","","","","","","[{""stimulus"":""img/green_ll/1.jpg"",""time"":55},{""stimulus"":""img/green_ll/2.jpg"",""time"":101},{""stimulus"":""img/green_ll/3.jpg"",""time"":151},{""stimulus"":""img/green_ll/4.jpg"",""time"":201},{""stimulus"":""img/green_ll/5.jpg"",""time"":263},{""stimulus"":""img/green_ll/6.jpg"",""time"":311},{""stimulus"":""img/green_ll/7.jpg"",""time"":359},{""stimulus"":""img/green_ll/8.jpg"",""time"":407},{""stimulus"":""img/green_ll/9.jpg"",""time"":455},{""stimulus"":""img/green_ll/10.jpg"",""time"":502},{""stimulus"":""img/green_ll/11.jpg"",""time"":566}]","[]"
"image-keyboard-response","80","82332","0.0-5.0-1.38","63f3a7e45f338798fd025d99","bdp_lott","Tue Mar 28 2023 08:23:16 GMT-0500 (Central Daylight Time)","246523","green","red","","570","","","","choice","","img/green_ll/choose11.jpg","1","187","green","0.5","0.5","0.5","w","",""
"animation","81","82945","0.0-5.0-2.38","63f3a7e45f338798fd025d99","bdp_lott","Tue Mar 28 2023 08:23:16 GMT-0500 (Central Daylight Time)","246523","green","red","","","","","","","","","","187","","","","","","[{""stimulus"":""img/green_wl/1.jpg"",""time"":53},{""stimulus"":""img/green_wl/2.jpg"",""time"":101},{""stimulus"":""img/green_wl/3.jpg"",""time"":165},{""stimulus"":""img/green_wl/4.jpg"",""time"":213},{""stimulus"":""img/green_wl/5.jpg"",""time"":261},{""stimulus"":""img/green_wl/6.jpg"",""time"":309},{""stimulus"":""img/green_wl/7.jpg"",""time"":357},{""stimulus"":""img/green_wl/8.jpg"",""time"":405},{""stimulus"":""img/green_wl/9.jpg"",""time"":453},{""stimulus"":""img/green_wl/10.jpg"",""time"":501},{""stimulus"":""img/green_wl/11.jpg"",""time"":551}]","[]"
"image-keyboard-response","82","83731","0.0-5.0-1.39","63f3a7e45f338798fd025d99","bdp_lott","Tue Mar 28 2023 08:23:16 GMT-0500 (Central Daylight Time)","246523","green","red","","785","","","","choice","","img/green_wl/choose11.jpg","1","186","green","0.5","0.5","0.5","w","",""
"animation","83","84334","0.0-5.0-2.39","63f3a7e45f338798fd025d99","bdp_lott","Tue Mar 28 2023 08:23:16 GMT-0500 (Central Daylight Time)","246523","green","red","","","","","","","","","","186","","","","","","[{""stimulus"":""img/green_wl/1.jpg"",""time"":59},{""stimulus"":""img/green_wl/2.jpg"",""time"":101},{""stimulus"":""img/green_wl/3.jpg"",""time"":155},{""stimulus"":""img/green_wl/4.jpg"",""time"":203},{""stimulus"":""img/green_wl/5.jpg"",""time"":251},{""stimulus"":""img/green_wl/6.jpg"",""time"":315},{""stimulus"":""img/green_wl/7.jpg"",""time"":363},{""stimulus"":""img/green_wl/8.jpg"",""time"":401},{""stimulus"":""img/green_wl/9.jpg"",""time"":459},{""stimulus"":""img/green_wl/10.jpg"",""time"":507},{""stimulus"":""img/green_wl/11.jpg"",""time"":555}]","[]"
"image-keyboard-response","84","84834","0.0-5.0-1.40","63f3a7e45f338798fd025d99","bdp_lott","Tue Mar 28 2023 08:23:16 GMT-0500 (Central Daylight Time)","246523","green","red","","500","","","","choice","","img/green_wl/choose11.jpg","2","185","red","0.5","0.5","0.5","l","",""
"animation","85","85434","0.0-5.0-2.40","63f3a7e45f338798fd025d99","bdp_lott","Tue Mar 28 2023 08:23:16 GMT-0500 (Central Daylight Time)","246523","green","red","","","","","","","","","","185","","","","","","[{""stimulus"":""img/red_wl/1.jpg"",""time"":58},{""stimulus"":""img/red_wl/2.jpg"",""time"":101},{""stimulus"":""img/red_wl/3.jpg"",""time"":154},{""stimulus"":""img/red_wl/4.jpg"",""time"":201},{""stimulus"":""img/red_wl/5.jpg"",""time"":265},{""stimulus"":""img/red_wl/6.jpg"",""time"":313},{""stimulus"":""img/red_wl/7.jpg"",""time"":361},{""stimulus"":""img/red_wl/8.jpg"",""time"":409},{""stimulus"":""img/red_wl/9.jpg"",""time"":451},{""stimulus"":""img/red_wl/10.jpg"",""time"":505},{""stimulus"":""img/red_wl/11.jpg"",""time"":553}]","[]"
"image-keyboard-response","86","85781","0.0-5.0-1.41","63f3a7e45f338798fd025d99","bdp_lott","Tue Mar 28 2023 08:23:16 GMT-0500 (Central Daylight Time)","246523","green","red","","347","","","","choice","","img/red_wl/choose11.jpg","2","184","red","0.5","0.5","0.5","l","",""
"animation","87","86393","0.0-5.0-2.41","63f3a7e45f338798fd025d99","bdp_lott","Tue Mar 28 2023 08:23:16 GMT-0500 (Central Daylight Time)","246523","green","red","","","","","","","","","","184","","","","","","[{""stimulus"":""img/red_wl/1.jpg"",""time"":50},{""stimulus"":""img/red_wl/2.jpg"",""time"":100},{""stimulus"":""img/red_wl/3.jpg"",""time"":164},{""stimulus"":""img/red_wl/4.jpg"",""time"":212},{""stimulus"":""img/red_wl/5.jpg"",""time"":260},{""stimulus"":""img/red_wl/6.jpg"",""time"":300},{""stimulus"":""img/red_wl/7.jpg"",""time"":356},{""stimulus"":""img/red_wl/8.jpg"",""time"":400},{""stimulus"":""img/red_wl/9.jpg"",""time"":452},{""stimulus"":""img/red_wl/10.jpg"",""time"":500},{""stimulus"":""img/red_wl/11.jpg"",""time"":564}]","[]"
"image-keyboard-response","88","86818","0.0-5.0-1.42","63f3a7e45f338798fd025d99","bdp_lott","Tue Mar 28 2023 08:23:16 GMT-0500 (Central Daylight Time)","246523","green","red","","425","","","","choice","","img/red_wl/choose11.jpg","2","183","red","0.5","0.5","0.5","w","",""
"animation","89","87427","0.0-5.0-2.42","63f3a7e45f338798fd025d99","bdp_lott","Tue Mar 28 2023 08:23:16 GMT-0500 (Central Daylight Time)","246523","green","red","","","","","","","","","","183","","","","","","[{""stimulus"":""img/red_ww/1.jpg"",""time"":51},{""stimulus"":""img/red_ww/2.jpg"",""time"":100},{""stimulus"":""img/red_ww/3.jpg"",""time"":163},{""stimulus"":""img/red_ww/4.jpg"",""time"":210},{""stimulus"":""img/red_ww/5.jpg"",""time"":258},{""stimulus"":""img/red_ww/6.jpg"",""time"":306},{""stimulus"":""img/red_ww/7.jpg"",""time"":354},{""stimulus"":""img/red_ww/8.jpg"",""time"":402},{""stimulus"":""img/red_ww/9.jpg"",""time"":450},{""stimulus"":""img/red_ww/10.jpg"",""time"":514},{""stimulus"":""img/red_ww/11.jpg"",""time"":561}]","[]"
"image-keyboard-response","90","88136","0.0-5.0-1.43","63f3a7e45f338798fd025d99","bdp_lott","Tue Mar 28 2023 08:23:16 GMT-0500 (Central Daylight Time)","246523","green","red","","708","","","","choice","","img/red_ww/choose11.jpg","1","182","green","0.5","0.5","0.5","l","",""
"animation","91","88738","0.0-5.0-2.43","63f3a7e45f338798fd025d99","bdp_lott","Tue Mar 28 2023 08:23:16 GMT-0500 (Central Daylight Time)","246523","green","red","","","","","","","","","","182","","","","","","[{""stimulus"":""img/green_lw/1.jpg"",""time"":58},{""stimulus"":""img/green_lw/2.jpg"",""time"":101},{""stimulus"":""img/green_lw/3.jpg"",""time"":154},{""stimulus"":""img/green_lw/4.jpg"",""time"":202},{""stimulus"":""img/green_lw/5.jpg"",""time"":266},{""stimulus"":""img/green_lw/6.jpg"",""time"":314},{""stimulus"":""img/green_lw/7.jpg"",""time"":351},{""stimulus"":""img/green_lw/8.jpg"",""time"":410},{""stimulus"":""img/green_lw/9.jpg"",""time"":458},{""stimulus"":""img/green_lw/10.jpg"",""time"":506},{""stimulus"":""img/green_lw/11.jpg"",""time"":551}]","[]"
"image-keyboard-response","92","88969","0.0-5.0-1.44","63f3a7e45f338798fd025d99","bdp_lott","Tue Mar 28 2023 08:23:16 GMT-0500 (Central Daylight Time)","246523","green","red","","231","","","","choice","","img/green_lw/choose11.jpg","1","181","green","0.5","0.5","0.5","l","",""
"animation","93","89570","0.0-5.0-2.44","63f3a7e45f338798fd025d99","bdp_lott","Tue Mar 28 2023 08:23:16 GMT-0500 (Central Daylight Time)","246523","green","red","","","","","","","","","","181","","","","","","[{""stimulus"":""img/green_lw/1.jpg"",""time"":51},{""stimulus"":""img/green_lw/2.jpg"",""time"":101},{""stimulus"":""img/green_lw/3.jpg"",""time"":153},{""stimulus"":""img/green_lw/4.jpg"",""time"":201},{""stimulus"":""img/green_lw/5.jpg"",""time"":265},{""stimulus"":""img/green_lw/6.jpg"",""time"":307},{""stimulus"":""img/green_lw/7.jpg"",""time"":361},{""stimulus"":""img/green_lw/8.jpg"",""time"":409},{""stimulus"":""img/green_lw/9.jpg"",""time"":457},{""stimulus"":""img/green_lw/10.jpg"",""time"":505},{""stimulus"":""img/green_lw/11.jpg"",""time"":553}]","[]"
"image-keyboard-response","94","89968","0.0-5.0-1.45","63f3a7e45f338798fd025d99","bdp_lott","Tue Mar 28 2023 08:23:16 GMT-0500 (Central Daylight Time)","246523","green","red","","398","","","","choice","","img/green_lw/choose11.jpg","1","180","green","0.5","0.5","0.5","w","",""
"animation","95","90569","0.0-5.0-2.45","63f3a7e45f338798fd025d99","bdp_lott","Tue Mar 28 2023 08:23:16 GMT-0500 (Central Daylight Time)","246523","green","red","","","","","","","","","","180","","","","","","[{""stimulus"":""img/green_ww/1.jpg"",""time"":66},{""stimulus"":""img/green_ww/2.jpg"",""time"":101},{""stimulus"":""img/green_ww/3.jpg"",""time"":162},{""stimulus"":""img/green_ww/4.jpg"",""time"":201},{""stimulus"":""img/green_ww/5.jpg"",""time"":251},{""stimulus"":""img/green_ww/6.jpg"",""time"":306},{""stimulus"":""img/green_ww/7.jpg"",""time"":354},{""stimulus"":""img/green_ww/8.jpg"",""time"":402},{""stimulus"":""img/green_ww/9.jpg"",""time"":465},{""stimulus"":""img/green_ww/10.jpg"",""time"":513},{""stimulus"":""img/green_ww/11.jpg"",""time"":561}]","[]"
"image-keyboard-response","96","91071","0.0-5.0-1.46","63f3a7e45f338798fd025d99","bdp_lott","Tue Mar 28 2023 08:23:16 GMT-0500 (Central Daylight Time)","246523","green","red","","502","","","","choice","","img/green_ww/choose11.jpg","2","179","red","0.5","0.5","0.5","w","",""
"animation","97","91672","0.0-5.0-2.46","63f3a7e45f338798fd025d99","bdp_lott","Tue Mar 28 2023 08:23:16 GMT-0500 (Central Daylight Time)","246523","green","red","","","","","","","","","","179","","","","","","[{""stimulus"":""img/red_ww/1.jpg"",""time"":62},{""stimulus"":""img/red_ww/2.jpg"",""time"":101},{""stimulus"":""img/red_ww/3.jpg"",""time"":158},{""stimulus"":""img/red_ww/4.jpg"",""time"":206},{""stimulus"":""img/red_ww/5.jpg"",""time"":254},{""stimulus"":""img/red_ww/6.jpg"",""time"":302},{""stimulus"":""img/red_ww/7.jpg"",""time"":366},{""stimulus"":""img/red_ww/8.jpg"",""time"":413},{""stimulus"":""img/red_ww/9.jpg"",""time"":461},{""stimulus"":""img/red_ww/10.jpg"",""time"":508},{""stimulus"":""img/red_ww/11.jpg"",""time"":556}]","[]"
"image-keyboard-response","98","92040","0.0-5.0-1.47","63f3a7e45f338798fd025d99","bdp_lott","Tue Mar 28 2023 08:23:16 GMT-0500 (Central Daylight Time)","246523","green","red","","368","","","","choice","","img/red_ww/choose11.jpg","2","178","red","0.5","0.5","0.5","l","",""
"animation","99","92649","0.0-5.0-2.47","63f3a7e45f338798fd025d99","bdp_lott","Tue Mar 28 2023 08:23:16 GMT-0500 (Central Daylight Time)","246523","green","red","","","","","","","","","","178","","","","","","[{""stimulus"":""img/red_wl/1.jpg"",""time"":66},{""stimulus"":""img/red_wl/2.jpg"",""time"":101},{""stimulus"":""img/red_wl/3.jpg"",""time"":151},{""stimulus"":""img/red_wl/4.jpg"",""time"":211},{""stimulus"":""img/red_wl/5.jpg"",""time"":251},{""stimulus"":""img/red_wl/6.jpg"",""time"":307},{""stimulus"":""img/red_wl/7.jpg"",""time"":355},{""stimulus"":""img/red_wl/8.jpg"",""time"":403},{""stimulus"":""img/red_wl/9.jpg"",""time"":452},{""stimulus"":""img/red_wl/10.jpg"",""time"":515},{""stimulus"":""img/red_wl/11.jpg"",""time"":563}]","[]"
"image-keyboard-response","100","92967","0.0-5.0-1.48","63f3a7e45f338798fd025d99","bdp_lott","Tue Mar 28 2023 08:23:16 GMT-0500 (Central Daylight Time)","246523","green","red","","317","","","","choice","","img/red_wl/choose11.jpg","2","177","red","0.5","0.5","0.5","w","",""
"animation","101","93574","0.0-5.0-2.48","63f3a7e45f338798fd025d99","bdp_lott","Tue Mar 28 2023 08:23:16 GMT-0500 (Central Daylight Time)","246523","green","red","","","","","","","","","","177","","","","","","[{""stimulus"":""img/red_ww/1.jpg"",""time"":65},{""stimulus"":""img/red_ww/2.jpg"",""time"":101},{""stimulus"":""img/red_ww/3.jpg"",""time"":152},{""stimulus"":""img/red_ww/4.jpg"",""time"":208},{""stimulus"":""img/red_ww/5.jpg"",""time"":256},{""stimulus"":""img/red_ww/6.jpg"",""time"":301},{""stimulus"":""img/red_ww/7.jpg"",""time"":352},{""stimulus"":""img/red_ww/8.jpg"",""time"":415},{""stimulus"":""img/red_ww/9.jpg"",""time"":463},{""stimulus"":""img/red_ww/10.jpg"",""time"":510},{""stimulus"":""img/red_ww/11.jpg"",""time"":550}]","[]"
"image-keyboard-response","102","93889","0.0-5.0-1.49","63f3a7e45f338798fd025d99","bdp_lott","Tue Mar 28 2023 08:23:16 GMT-0500 (Central Daylight Time)","246523","green","red","","315","","","","choice","","img/red_ww/choose11.jpg","2","176","red","0.5","0.5","0.5","w","",""
"animation","103","94501","0.0-5.0-2.49","63f3a7e45f338798fd025d99","bdp_lott","Tue Mar 28 2023 08:23:16 GMT-0500 (Central Daylight Time)","246523","green","red","","","","","","","","","","176","","","","","","[{""stimulus"":""img/red_ww/1.jpg"",""time"":53},{""stimulus"":""img/red_ww/2.jpg"",""time"":101},{""stimulus"":""img/red_ww/3.jpg"",""time"":151},{""stimulus"":""img/red_ww/4.jpg"",""time"":213},{""stimulus"":""img/red_ww/5.jpg"",""time"":261},{""stimulus"":""img/red_ww/6.jpg"",""time"":309},{""stimulus"":""img/red_ww/7.jpg"",""time"":357},{""stimulus"":""img/red_ww/8.jpg"",""time"":404},{""stimulus"":""img/red_ww/9.jpg"",""time"":452},{""stimulus"":""img/red_ww/10.jpg"",""time"":500},{""stimulus"":""img/red_ww/11.jpg"",""time"":564}]","[]"
"image-keyboard-response","104","94759","0.0-5.0-1.50","63f3a7e45f338798fd025d99","bdp_lott","Tue Mar 28 2023 08:23:16 GMT-0500 (Central Daylight Time)","246523","green","red","","258","","","","choice","","img/red_ww/choose11.jpg","2","175","red","0.5","0.5","0.5","l","",""
"animation","105","95363","0.0-5.0-2.50","63f3a7e45f338798fd025d99","bdp_lott","Tue Mar 28 2023 08:23:16 GMT-0500 (Central Daylight Time)","246523","green","red","","","","","","","","","","175","","","","","","[{""stimulus"":""img/red_wl/1.jpg"",""time"":50},{""stimulus"":""img/red_wl/2.jpg"",""time"":100},{""stimulus"":""img/red_wl/3.jpg"",""time"":156},{""stimulus"":""img/red_wl/4.jpg"",""time"":204},{""stimulus"":""img/red_wl/5.jpg"",""time"":252},{""stimulus"":""img/red_wl/6.jpg"",""time"":300},{""stimulus"":""img/red_wl/7.jpg"",""time"":364},{""stimulus"":""img/red_wl/8.jpg"",""time"":412},{""stimulus"":""img/red_wl/9.jpg"",""time"":450},{""stimulus"":""img/red_wl/10.jpg"",""time"":508},{""stimulus"":""img/red_wl/11.jpg"",""time"":550}]","[]"
"image-keyboard-response","106","95637","0.0-5.0-1.51","63f3a7e45f338798fd025d99","bdp_lott","Tue Mar 28 2023 08:23:16 GMT-0500 (Central Daylight Time)","246523","green","red","","274","","","","choice","","img/red_wl/choose11.jpg","2","174","red","0.5","0.5","0.5","w","",""
"animation","107","96237","0.0-5.0-2.51","63f3a7e45f338798fd025d99","bdp_lott","Tue Mar 28 2023 08:23:16 GMT-0500 (Central Daylight Time)","246523","green","red","","","","","","","","","","174","","","","","","[{""stimulus"":""img/red_ww/1.jpg"",""time"":50},{""stimulus"":""img/red_ww/2.jpg"",""time"":100},{""stimulus"":""img/red_ww/3.jpg"",""time"":156},{""stimulus"":""img/red_ww/4.jpg"",""time"":204},{""stimulus"":""img/red_ww/5.jpg"",""time"":252},{""stimulus"":""img/red_ww/6.jpg"",""time"":300},{""stimulus"":""img/red_ww/7.jpg"",""time"":364},{""stimulus"":""img/red_ww/8.jpg"",""time"":400},{""stimulus"":""img/red_ww/9.jpg"",""time"":460},{""stimulus"":""img/red_ww/10.jpg"",""time"":508},{""stimulus"":""img/red_ww/11.jpg"",""time"":550}]","[]"
"image-keyboard-response","108","96805","0.0-5.0-1.52","63f3a7e45f338798fd025d99","bdp_lott","Tue Mar 28 2023 08:23:16 GMT-0500 (Central Daylight Time)","246523","green","red","","567","","","","choice","","img/red_ww/choose11.jpg","2","173","red","0.5","0.5","0.5","w","",""
"animation","109","97407","0.0-5.0-2.52","63f3a7e45f338798fd025d99","bdp_lott","Tue Mar 28 2023 08:23:16 GMT-0500 (Central Daylight Time)","246523","green","red","","","","","","","","","","173","","","","","","[{""stimulus"":""img/red_ww/1.jpg"",""time"":59},{""stimulus"":""img/red_ww/2.jpg"",""time"":101},{""stimulus"":""img/red_ww/3.jpg"",""time"":155},{""stimulus"":""img/red_ww/4.jpg"",""time"":201},{""stimulus"":""img/red_ww/5.jpg"",""time"":251},{""stimulus"":""img/red_ww/6.jpg"",""time"":301},{""stimulus"":""img/red_ww/7.jpg"",""time"":363},{""stimulus"":""img/red_ww/8.jpg"",""time"":411},{""stimulus"":""img/red_ww/9.jpg"",""time"":458},{""stimulus"":""img/red_ww/10.jpg"",""time"":506},{""stimulus"":""img/red_ww/11.jpg"",""time"":554}]","[]"
"image-keyboard-response","110","97781","0.0-5.0-1.53","63f3a7e45f338798fd025d99","bdp_lott","Tue Mar 28 2023 08:23:16 GMT-0500 (Central Daylight Time)","246523","green","red","","374","","","","choice","","img/red_ww/choose11.jpg","2","172","red","0.5","0.5","0.5","l","",""
"animation","111","98382","0.0-5.0-2.53","63f3a7e45f338798fd025d99","bdp_lott","Tue Mar 28 2023 08:23:16 GMT-0500 (Central Daylight Time)","246523","green","red","","","","","","","","","","172","","","","","","[{""stimulus"":""img/red_wl/1.jpg"",""time"":58},{""stimulus"":""img/red_wl/2.jpg"",""time"":101},{""stimulus"":""img/red_wl/3.jpg"",""time"":154},{""stimulus"":""img/red_wl/4.jpg"",""time"":202},{""stimulus"":""img/red_wl/5.jpg"",""time"":266},{""stimulus"":""img/red_wl/6.jpg"",""time"":301},{""stimulus"":""img/red_wl/7.jpg"",""time"":362},{""stimulus"":""img/red_wl/8.jpg"",""time"":410},{""stimulus"":""img/red_wl/9.jpg"",""time"":458},{""stimulus"":""img/red_wl/10.jpg"",""time"":506},{""stimulus"":""img/red_wl/11.jpg"",""time"":553}]","[]"
"image-keyboard-response","112","98606","0.0-5.0-1.54","63f3a7e45f338798fd025d99","bdp_lott","Tue Mar 28 2023 08:23:16 GMT-0500 (Central Daylight Time)","246523","green","red","","224","","","","choice","","img/red_wl/choose11.jpg","1","171","green","0.5","0.5","0.5","l","",""
"animation","113","99213","0.0-5.0-2.54","63f3a7e45f338798fd025d99","bdp_lott","Tue Mar 28 2023 08:23:16 GMT-0500 (Central Daylight Time)","246523","green","red","","","","","","","","","","171","","","","","","[{""stimulus"":""img/green_ll/1.jpg"",""time"":51},{""stimulus"":""img/green_ll/2.jpg"",""time"":101},{""stimulus"":""img/green_ll/3.jpg"",""time"":160},{""stimulus"":""img/green_ll/4.jpg"",""time"":208},{""stimulus"":""img/green_ll/5.jpg"",""time"":255},{""stimulus"":""img/green_ll/6.jpg"",""time"":303},{""stimulus"":""img/green_ll/7.jpg"",""time"":351},{""stimulus"":""img/green_ll/8.jpg"",""time"":415},{""stimulus"":""img/green_ll/9.jpg"",""time"":463},{""stimulus"":""img/green_ll/10.jpg"",""time"":511},{""stimulus"":""img/green_ll/11.jpg"",""time"":559}]","[]"
"image-keyboard-response","114","99435","0.0-5.0-1.55","63f3a7e45f338798fd025d99","bdp_lott","Tue Mar 28 2023 08:23:16 GMT-0500 (Central Daylight Time)","246523","green","red","","222","","","","choice","","img/green_ll/choose11.jpg","1","170","green","0.5","0.5","0.5","w","",""
"animation","115","100045","0.0-5.0-2.55","63f3a7e45f338798fd025d99","bdp_lott","Tue Mar 28 2023 08:23:16 GMT-0500 (Central Daylight Time)","246523","green","red","","","","","","","","","","170","","","","","","[{""stimulus"":""img/green_wl/1.jpg"",""time"":66},{""stimulus"":""img/green_wl/2.jpg"",""time"":101},{""stimulus"":""img/green_wl/3.jpg"",""time"":159},{""stimulus"":""img/green_wl/4.jpg"",""time"":210},{""stimulus"":""img/green_wl/5.jpg"",""time"":251},{""stimulus"":""img/green_wl/6.jpg"",""time"":301},{""stimulus"":""img/green_wl/7.jpg"",""time"":354},{""stimulus"":""img/green_wl/8.jpg"",""time"":402},{""stimulus"":""img/green_wl/9.jpg"",""time"":466},{""stimulus"":""img/green_wl/10.jpg"",""time"":514},{""stimulus"":""img/green_wl/11.jpg"",""time"":562}]","[]"
"image-keyboard-response","116","100298","0.0-5.0-1.56","63f3a7e45f338798fd025d99","bdp_lott","Tue Mar 28 2023 08:23:16 GMT-0500 (Central Daylight Time)","246523","green","red","","252","","","","choice","","img/green_wl/choose11.jpg","1","169","green","0.5","0.5","0.5","l","",""
"animation","117","100908","0.0-5.0-2.56","63f3a7e45f338798fd025d99","bdp_lott","Tue Mar 28 2023 08:23:16 GMT-0500 (Central Daylight Time)","246523","green","red","","","","","","","","","","169","","","","","","[{""stimulus"":""img/green_ll/1.jpg"",""time"":51},{""stimulus"":""img/green_ll/2.jpg"",""time"":101},{""stimulus"":""img/green_ll/3.jpg"",""time"":162},{""stimulus"":""img/green_ll/4.jpg"",""time"":201},{""stimulus"":""img/green_ll/5.jpg"",""time"":259},{""stimulus"":""img/green_ll/6.jpg"",""time"":307},{""stimulus"":""img/green_ll/7.jpg"",""time"":355},{""stimulus"":""img/green_ll/8.jpg"",""time"":403},{""stimulus"":""img/green_ll/9.jpg"",""time"":466},{""stimulus"":""img/green_ll/10.jpg"",""time"":514},{""stimulus"":""img/green_ll/11.jpg"",""time"":562}]","[]"
"image-keyboard-response","118","101128","0.0-5.0-1.57","63f3a7e45f338798fd025d99","bdp_lott","Tue Mar 28 2023 08:23:16 GMT-0500 (Central Daylight Time)","246523","green","red","","220","","","","choice","","img/green_ll/choose11.jpg","1","168","green","0.5","0.5","0.5","w","",""
"animation","119","101733","0.0-5.0-2.57","63f3a7e45f338798fd025d99","bdp_lott","Tue Mar 28 2023 08:23:16 GMT-0500 (Central Daylight Time)","246523","green","red","","","","","","","","","","168","","","","","","[{""stimulus"":""img/green_wl/1.jpg"",""time"":63},{""stimulus"":""img/green_wl/2.jpg"",""time"":101},{""stimulus"":""img/green_wl/3.jpg"",""time"":151},{""stimulus"":""img/green_wl/4.jpg"",""time"":206},{""stimulus"":""img/green_wl/5.jpg"",""time"":254},{""stimulus"":""img/green_wl/6.jpg"",""time"":302},{""stimulus"":""img/green_wl/7.jpg"",""time"":365},{""stimulus"":""img/green_wl/8.jpg"",""time"":412},{""stimulus"":""img/green_wl/9.jpg"",""time"":460},{""stimulus"":""img/green_wl/10.jpg"",""time"":508},{""stimulus"":""img/green_wl/11.jpg"",""time"":550}]","[]"
"image-keyboard-response","120","102018","0.0-5.0-1.58","63f3a7e45f338798fd025d99","bdp_lott","Tue Mar 28 2023 08:23:16 GMT-0500 (Central Daylight Time)","246523","green","red","","285","","","","choice","","img/green_wl/choose11.jpg","1","167","green","0.5","0.5","0.5","w","",""
"animation","121","102627","0.0-5.0-2.58","63f3a7e45f338798fd025d99","bdp_lott","Tue Mar 28 2023 08:23:16 GMT-0500 (Central Daylight Time)","246523","green","red","","","","","","","","","","167","","","","","","[{""stimulus"":""img/green_wl/1.jpg"",""time"":50},{""stimulus"":""img/green_wl/2.jpg"",""time"":100},{""stimulus"":""img/green_wl/3.jpg"",""time"":154},{""stimulus"":""img/green_wl/4.jpg"",""time"":209},{""stimulus"":""img/green_wl/5.jpg"",""time"":256},{""stimulus"":""img/green_wl/6.jpg"",""time"":304},{""stimulus"":""img/green_wl/7.jpg"",""time"":352},{""stimulus"":""img/green_wl/8.jpg"",""time"":400},{""stimulus"":""img/green_wl/9.jpg"",""time"":464},{""stimulus"":""img/green_wl/10.jpg"",""time"":512},{""stimulus"":""img/green_wl/11.jpg"",""time"":560}]","[]"
"image-keyboard-response","122","102890","0.0-5.0-1.59","63f3a7e45f338798fd025d99","bdp_lott","Tue Mar 28 2023 08:23:16 GMT-0500 (Central Daylight Time)","246523","green","red","","263","","","","choice","","img/green_wl/choose11.jpg","1","166","green","0.5","0.5","0.5","l","",""
"animation","123","103490","0.0-5.0-2.59","63f3a7e45f338798fd025d99","bdp_lott","Tue Mar 28 2023 08:23:16 GMT-0500 (Central Daylight Time)","246523","green","red","","","","","","","","","","166","","","","","","[{""stimulus"":""img/green_ll/1.jpg"",""time"":50},{""stimulus"":""img/green_ll/2.jpg"",""time"":100},{""stimulus"":""img/green_ll/3.jpg"",""time"":153},{""stimulus"":""img/green_ll/4.jpg"",""time"":201},{""stimulus"":""img/green_ll/5.jpg"",""time"":250},{""stimulus"":""img/green_ll/6.jpg"",""time"":300},{""stimulus"":""img/green_ll/7.jpg"",""time"":361},{""stimulus"":""img/green_ll/8.jpg"",""time"":400},{""stimulus"":""img/green_ll/9.jpg"",""time"":456},{""stimulus"":""img/green_ll/10.jpg"",""time"":504},{""stimulus"":""img/green_ll/11.jpg"",""time"":552}]","[]"
"image-keyboard-response","124","103790","0.0-5.0-1.60","63f3a7e45f338798fd025d99","bdp_lott","Tue Mar 28 2023 08:23:16 GMT-0500 (Central Daylight Time)","246523","green","red","","300","","","","choice","","img/green_ll/choose11.jpg","1","165","green","0.5","0.5","0.5","l","",""
"animation","125","104390","0.0-5.0-2.60","63f3a7e45f338798fd025d99","bdp_lott","Tue Mar 28 2023 08:23:16 GMT-0500 (Central Daylight Time)","246523","green","red","","","","","","","","","","165","","","","","","[{""stimulus"":""img/green_ll/1.jpg"",""time"":50},{""stimulus"":""img/green_ll/2.jpg"",""time"":100},{""stimulus"":""img/green_ll/3.jpg"",""time"":163},{""stimulus"":""img/green_ll/4.jpg"",""time"":211},{""stimulus"":""img/green_ll/5.jpg"",""time"":259},{""stimulus"":""img/green_ll/6.jpg"",""time"":307},{""stimulus"":""img/green_ll/7.jpg"",""time"":355},{""stimulus"":""img/green_ll/8.jpg"",""time"":400},{""stimulus"":""img/green_ll/9.jpg"",""time"":451},{""stimulus"":""img/green_ll/10.jpg"",""time"":515},{""stimulus"":""img/green_ll/11.jpg"",""time"":550}]","[]"
"image-keyboard-response","126","104769","0.0-5.0-1.61","63f3a7e45f338798fd025d99","bdp_lott","Tue Mar 28 2023 08:23:16 GMT-0500 (Central Daylight Time)","246523","green","red","","378","","","","choice","","img/green_ll/choose11.jpg","1","164","green","0.5","0.5","0.5","w","",""
"animation","127","105375","0.0-5.0-2.61","63f3a7e45f338798fd025d99","bdp_lott","Tue Mar 28 2023 08:23:16 GMT-0500 (Central Daylight Time)","246523","green","red","","","","","","","","","","164","","","","","","[{""stimulus"":""img/green_wl/1.jpg"",""time"":50},{""stimulus"":""img/green_wl/2.jpg"",""time"":100},{""stimulus"":""img/green_wl/3.jpg"",""time"":161},{""stimulus"":""img/green_wl/4.jpg"",""time"":208},{""stimulus"":""img/green_wl/5.jpg"",""time"":256},{""stimulus"":""img/green_wl/6.jpg"",""time"":304},{""stimulus"":""img/green_wl/7.jpg"",""time"":352},{""stimulus"":""img/green_wl/8.jpg"",""time"":416},{""stimulus"":""img/green_wl/9.jpg"",""time"":464},{""stimulus"":""img/green_wl/10.jpg"",""time"":506},{""stimulus"":""img/green_wl/11.jpg"",""time"":559}]","[]"
"image-keyboard-response","128","105672","0.0-5.0-1.62","63f3a7e45f338798fd025d99","bdp_lott","Tue Mar 28 2023 08:23:16 GMT-0500 (Central Daylight Time)","246523","green","red","","296","","","","choice","","img/green_wl/choose11.jpg","2","163","red","0.5","0.5","0.5","l","",""
"animation","129","106287","0.0-5.0-2.62","63f3a7e45f338798fd025d99","bdp_lott","Tue Mar 28 2023 08:23:16 GMT-0500 (Central Daylight Time)","246523","green","red","","","","","","","","","","163","","","","","","[{""stimulus"":""img/red_wl/1.jpg"",""time"":51},{""stimulus"":""img/red_wl/2.jpg"",""time"":101},{""stimulus"":""img/red_wl/3.jpg"",""time"":151},{""stimulus"":""img/red_wl/4.jpg"",""time"":215},{""stimulus"":""img/red_wl/5.jpg"",""time"":263},{""stimulus"":""img/red_wl/6.jpg"",""time"":311},{""stimulus"":""img/red_wl/7.jpg"",""time"":359},{""stimulus"":""img/red_wl/8.jpg"",""time"":401},{""stimulus"":""img/red_wl/9.jpg"",""time"":455},{""stimulus"":""img/red_wl/10.jpg"",""time"":503},{""stimulus"":""img/red_wl/11.jpg"",""time"":551}]","[]"
"image-keyboard-response","130","106495","0.0-5.0-1.63","63f3a7e45f338798fd025d99","bdp_lott","Tue Mar 28 2023 08:23:16 GMT-0500 (Central Daylight Time)","246523","green","red","","208","","","","choice","","img/red_wl/choose11.jpg","2","162","red","0.5","0.5","0.5","l","",""
"animation","131","107096","0.0-5.0-2.63","63f3a7e45f338798fd025d99","bdp_lott","Tue Mar 28 2023 08:23:16 GMT-0500 (Central Daylight Time)","246523","green","red","","","","","","","","","","162","","","","","","[{""stimulus"":""img/red_wl/1.jpg"",""time"":64},{""stimulus"":""img/red_wl/2.jpg"",""time"":101},{""stimulus"":""img/red_wl/3.jpg"",""time"":151},{""stimulus"":""img/red_wl/4.jpg"",""time"":208},{""stimulus"":""img/red_wl/5.jpg"",""time"":256},{""stimulus"":""img/red_wl/6.jpg"",""time"":304},{""stimulus"":""img/red_wl/7.jpg"",""time"":352},{""stimulus"":""img/red_wl/8.jpg"",""time"":401},{""stimulus"":""img/red_wl/9.jpg"",""time"":464},{""stimulus"":""img/red_wl/10.jpg"",""time"":512},{""stimulus"":""img/red_wl/11.jpg"",""time"":560}]","[]"
"image-keyboard-response","132","107308","0.0-5.0-1.64","63f3a7e45f338798fd025d99","bdp_lott","Tue Mar 28 2023 08:23:16 GMT-0500 (Central Daylight Time)","246523","green","red","","212","","","","choice","","img/red_wl/choose11.jpg","2","161","red","0.5","0.5","0.5","l","",""
"animation","133","107918","0.0-5.0-2.64","63f3a7e45f338798fd025d99","bdp_lott","Tue Mar 28 2023 08:23:16 GMT-0500 (Central Daylight Time)","246523","green","red","","","","","","","","","","161","","","","","","[{""stimulus"":""img/red_wl/1.jpg"",""time"":51},{""stimulus"":""img/red_wl/2.jpg"",""time"":101},{""stimulus"":""img/red_wl/3.jpg"",""time"":162},{""stimulus"":""img/red_wl/4.jpg"",""time"":210},{""stimulus"":""img/red_wl/5.jpg"",""time"":258},{""stimulus"":""img/red_wl/6.jpg"",""time"":306},{""stimulus"":""img/red_wl/7.jpg"",""time"":354},{""stimulus"":""img/red_wl/8.jpg"",""time"":402},{""stimulus"":""img/red_wl/9.jpg"",""time"":466},{""stimulus"":""img/red_wl/10.jpg"",""time"":514},{""stimulus"":""img/red_wl/11.jpg"",""time"":562}]","[]"
"image-keyboard-response","134","108147","0.0-5.0-1.65","63f3a7e45f338798fd025d99","bdp_lott","Tue Mar 28 2023 08:23:16 GMT-0500 (Central Daylight Time)","246523","green","red","","229","","","","choice","","img/red_wl/choose11.jpg","2","160","red","0.5","0.5","0.5","l","",""
"animation","135","108749","0.0-5.0-2.65","63f3a7e45f338798fd025d99","bdp_lott","Tue Mar 28 2023 08:23:16 GMT-0500 (Central Daylight Time)","246523","green","red","","","","","","","","","","160","","","","","","[{""stimulus"":""img/red_wl/1.jpg"",""time"":59},{""stimulus"":""img/red_wl/2.jpg"",""time"":101},{""stimulus"":""img/red_wl/3.jpg"",""time"":151},{""stimulus"":""img/red_wl/4.jpg"",""time"":203},{""stimulus"":""img/red_wl/5.jpg"",""time"":251},{""stimulus"":""img/red_wl/6.jpg"",""time"":315},{""stimulus"":""img/red_wl/7.jpg"",""time"":351},{""stimulus"":""img/red_wl/8.jpg"",""time"":411},{""stimulus"":""img/red_wl/9.jpg"",""time"":459},{""stimulus"":""img/red_wl/10.jpg"",""time"":506},{""stimulus"":""img/red_wl/11.jpg"",""time"":554}]","[]"
"image-keyboard-response","136","108974","0.0-5.0-1.66","63f3a7e45f338798fd025d99","bdp_lott","Tue Mar 28 2023 08:23:16 GMT-0500 (Central Daylight Time)","246523","green","red","","224","","","","choice","","img/red_wl/choose11.jpg","2","159","red","0.5","0.5","0.5","w","",""
"animation","137","109581","0.0-5.0-2.66","63f3a7e45f338798fd025d99","bdp_lott","Tue Mar 28 2023 08:23:16 GMT-0500 (Central Daylight Time)","246523","green","red","","","","","","","","","","159","","","","","","[{""stimulus"":""img/red_ww/1.jpg"",""time"":63},{""stimulus"":""img/red_ww/2.jpg"",""time"":101},{""stimulus"":""img/red_ww/3.jpg"",""time"":155},{""stimulus"":""img/red_ww/4.jpg"",""time"":207},{""stimulus"":""img/red_ww/5.jpg"",""time"":256},{""stimulus"":""img/red_ww/6.jpg"",""time"":301},{""stimulus"":""img/red_ww/7.jpg"",""time"":352},{""stimulus"":""img/red_ww/8.jpg"",""time"":415},{""stimulus"":""img/red_ww/9.jpg"",""time"":464},{""stimulus"":""img/red_ww/10.jpg"",""time"":512},{""stimulus"":""img/red_ww/11.jpg"",""time"":560}]","[]"
"image-keyboard-response","138","109828","0.0-5.0-1.67","63f3a7e45f338798fd025d99","bdp_lott","Tue Mar 28 2023 08:23:16 GMT-0500 (Central Daylight Time)","246523","green","red","","246","","","","choice","","img/red_ww/choose11.jpg","1","158","green","0.5","0.5","0.5","l","",""
"animation","139","110429","0.0-5.0-2.67","63f3a7e45f338798fd025d99","bdp_lott","Tue Mar 28 2023 08:23:16 GMT-0500 (Central Daylight Time)","246523","green","red","","","","","","","","","","158","","","","","","[{""stimulus"":""img/green_lw/1.jpg"",""time"":57},{""stimulus"":""img/green_lw/2.jpg"",""time"":101},{""stimulus"":""img/green_lw/3.jpg"",""time"":153},{""stimulus"":""img/green_lw/4.jpg"",""time"":201},{""stimulus"":""img/green_lw/5.jpg"",""time"":251},{""stimulus"":""img/green_lw/6.jpg"",""time"":313},{""stimulus"":""img/green_lw/7.jpg"",""time"":361},{""stimulus"":""img/green_lw/8.jpg"",""time"":409},{""stimulus"":""img/green_lw/9.jpg"",""time"":457},{""stimulus"":""img/green_lw/10.jpg"",""time"":505},{""stimulus"":""img/green_lw/11.jpg"",""time"":553}]","[]"
"image-keyboard-response","140","110597","0.0-5.0-1.68","63f3a7e45f338798fd025d99","bdp_lott","Tue Mar 28 2023 08:23:16 GMT-0500 (Central Daylight Time)","246523","green","red","","168","","","","choice","","img/green_lw/choose11.jpg","1","157","green","0.5","0.5","0.5","w","",""
"animation","141","111211","0.0-5.0-2.68","63f3a7e45f338798fd025d99","bdp_lott","Tue Mar 28 2023 08:23:16 GMT-0500 (Central Daylight Time)","246523","green","red","","","","","","","","","","157","","","","","","[{""stimulus"":""img/green_ww/1.jpg"",""time"":51},{""stimulus"":""img/green_ww/2.jpg"",""time"":101},{""stimulus"":""img/green_ww/3.jpg"",""time"":166},{""stimulus"":""img/green_ww/4.jpg"",""time"":214},{""stimulus"":""img/green_ww/5.jpg"",""time"":262},{""stimulus"":""img/green_ww/6.jpg"",""time"":310},{""stimulus"":""img/green_ww/7.jpg"",""time"":358},{""stimulus"":""img/green_ww/8.jpg"",""time"":406},{""stimulus"":""img/green_ww/9.jpg"",""time"":453},{""stimulus"":""img/green_ww/10.jpg"",""time"":501},{""stimulus"":""img/green_ww/11.jpg"",""time"":565}]","[]"
"image-keyboard-response","142","111408","0.0-5.0-1.69","63f3a7e45f338798fd025d99","bdp_lott","Tue Mar 28 2023 08:23:16 GMT-0500 (Central Daylight Time)","246523","green","red","","197","","","","choice","","img/green_ww/choose11.jpg","1","156","green","0.5","0.5","0.5","l","",""
"animation","143","112010","0.0-5.0-2.69","63f3a7e45f338798fd025d99","bdp_lott","Tue Mar 28 2023 08:23:16 GMT-0500 (Central Daylight Time)","246523","green","red","","","","","","","","","","156","","","","","","[{""stimulus"":""img/green_lw/1.jpg"",""time"":50},{""stimulus"":""img/green_lw/2.jpg"",""time"":100},{""stimulus"":""img/green_lw/3.jpg"",""time"":154},{""stimulus"":""img/green_lw/4.jpg"",""time"":203},{""stimulus"":""img/green_lw/5.jpg"",""time"":251},{""stimulus"":""img/green_lw/6.jpg"",""time"":300},{""stimulus"":""img/green_lw/7.jpg"",""time"":363},{""stimulus"":""img/green_lw/8.jpg"",""time"":411},{""stimulus"":""img/green_lw/9.jpg"",""time"":459},{""stimulus"":""img/green_lw/10.jpg"",""time"":507},{""stimulus"":""img/green_lw/11.jpg"",""time"":550}]","[]"
"image-keyboard-response","144","112221","0.0-5.0-1.70","63f3a7e45f338798fd025d99","bdp_lott","Tue Mar 28 2023 08:23:16 GMT-0500 (Central Daylight Time)","246523","green","red","","211","","","","choice","","img/green_lw/choose11.jpg","1","155","green","0.5","0.5","0.5","l","",""
"animation","145","112826","0.0-5.0-2.70","63f3a7e45f338798fd025d99","bdp_lott","Tue Mar 28 2023 08:23:16 GMT-0500 (Central Daylight Time)","246523","green","red","","","","","","","","","","155","","","","","","[{""stimulus"":""img/green_lw/1.jpg"",""time"":50},{""stimulus"":""img/green_lw/2.jpg"",""time"":100},{""stimulus"":""img/green_lw/3.jpg"",""time"":157},{""stimulus"":""img/green_lw/4.jpg"",""time"":205},{""stimulus"":""img/green_lw/5.jpg"",""time"":250},{""stimulus"":""img/green_lw/6.jpg"",""time"":301},{""stimulus"":""img/green_lw/7.jpg"",""time"":365},{""stimulus"":""img/green_lw/8.jpg"",""time"":413},{""stimulus"":""img/green_lw/9.jpg"",""time"":450},{""stimulus"":""img/green_lw/10.jpg"",""time"":509},{""stimulus"":""img/green_lw/11.jpg"",""time"":557}]","[]"
"image-keyboard-response","146","113131","0.0-5.0-1.71","63f3a7e45f338798fd025d99","bdp_lott","Tue Mar 28 2023 08:23:16 GMT-0500 (Central Daylight Time)","246523","green","red","","305","","","","choice","","img/green_lw/choose11.jpg","1","154","green","0.5","0.5","0.5","w","",""
"animation","147","113737","0.0-5.0-2.71","63f3a7e45f338798fd025d99","bdp_lott","Tue Mar 28 2023 08:23:16 GMT-0500 (Central Daylight Time)","246523","green","red","","","","","","","","","","154","","","","","","[{""stimulus"":""img/green_ww/1.jpg"",""time"":62},{""stimulus"":""img/green_ww/2.jpg"",""time"":100},{""stimulus"":""img/green_ww/3.jpg"",""time"":150},{""stimulus"":""img/green_ww/4.jpg"",""time"":200},{""stimulus"":""img/green_ww/5.jpg"",""time"":254},{""stimulus"":""img/green_ww/6.jpg"",""time"":302},{""stimulus"":""img/green_ww/7.jpg"",""time"":350},{""stimulus"":""img/green_ww/8.jpg"",""time"":400},{""stimulus"":""img/green_ww/9.jpg"",""time"":462},{""stimulus"":""img/green_ww/10.jpg"",""time"":511},{""stimulus"":""img/green_ww/11.jpg"",""time"":558}]","[]"
"image-keyboard-response","148","113986","0.0-5.0-1.72","63f3a7e45f338798fd025d99","bdp_lott","Tue Mar 28 2023 08:23:16 GMT-0500 (Central Daylight Time)","246523","green","red","","248","","","","choice","","img/green_ww/choose11.jpg","1","153","green","0.5","0.5","0.5","l","",""
"animation","149","114599","0.0-5.0-2.72","63f3a7e45f338798fd025d99","bdp_lott","Tue Mar 28 2023 08:23:16 GMT-0500 (Central Daylight Time)","246523","green","red","","","","","","","","","","153","","","","","","[{""stimulus"":""img/green_lw/1.jpg"",""time"":55},{""stimulus"":""img/green_lw/2.jpg"",""time"":100},{""stimulus"":""img/green_lw/3.jpg"",""time"":151},{""stimulus"":""img/green_lw/4.jpg"",""time"":214},{""stimulus"":""img/green_lw/5.jpg"",""time"":262},{""stimulus"":""img/green_lw/6.jpg"",""time"":310},{""stimulus"":""img/green_lw/7.jpg"",""time"":358},{""stimulus"":""img/green_lw/8.jpg"",""time"":406},{""stimulus"":""img/green_lw/9.jpg"",""time"":454},{""stimulus"":""img/green_lw/10.jpg"",""time"":501},{""stimulus"":""img/green_lw/11.jpg"",""time"":565}]","[]"
"image-keyboard-response","150","114901","0.0-5.0-1.73","63f3a7e45f338798fd025d99","bdp_lott","Tue Mar 28 2023 08:23:16 GMT-0500 (Central Daylight Time)","246523","green","red","","302","","","","choice","","img/green_lw/choose11.jpg","1","152","green","0.5","0.5","0.5","w","",""
"animation","151","115511","0.0-5.0-2.73","63f3a7e45f338798fd025d99","bdp_lott","Tue Mar 28 2023 08:23:16 GMT-0500 (Central Daylight Time)","246523","green","red","","","","","","","","","","152","","","","","","[{""stimulus"":""img/green_ww/1.jpg"",""time"":66},{""stimulus"":""img/green_ww/2.jpg"",""time"":101},{""stimulus"":""img/green_ww/3.jpg"",""time"":162},{""stimulus"":""img/green_ww/4.jpg"",""time"":210},{""stimulus"":""img/green_ww/5.jpg"",""time"":258},{""stimulus"":""img/green_ww/6.jpg"",""time"":301},{""stimulus"":""img/green_ww/7.jpg"",""time"":354},{""stimulus"":""img/green_ww/8.jpg"",""time"":402},{""stimulus"":""img/green_ww/9.jpg"",""time"":466},{""stimulus"":""img/green_ww/10.jpg"",""time"":514},{""stimulus"":""img/green_ww/11.jpg"",""time"":562}]","[]"
"image-keyboard-response","152","115693","0.0-5.0-1.74","63f3a7e45f338798fd025d99","bdp_lott","Tue Mar 28 2023 08:23:16 GMT-0500 (Central Daylight Time)","246523","green","red","","182","","","","choice","","img/green_ww/choose11.jpg","1","151","green","0.5","0.5","0.5","l","",""
"animation","153","116295","0.0-5.0-2.74","63f3a7e45f338798fd025d99","bdp_lott","Tue Mar 28 2023 08:23:16 GMT-0500 (Central Daylight Time)","246523","green","red","","","","","","","","","","151","","","","","","[{""stimulus"":""img/green_lw/1.jpg"",""time"":51},{""stimulus"":""img/green_lw/2.jpg"",""time"":101},{""stimulus"":""img/green_lw/3.jpg"",""time"":154},{""stimulus"":""img/green_lw/4.jpg"",""time"":202},{""stimulus"":""img/green_lw/5.jpg"",""time"":266},{""stimulus"":""img/green_lw/6.jpg"",""time"":301},{""stimulus"":""img/green_lw/7.jpg"",""time"":362},{""stimulus"":""img/green_lw/8.jpg"",""time"":410},{""stimulus"":""img/green_lw/9.jpg"",""time"":458},{""stimulus"":""img/green_lw/10.jpg"",""time"":506},{""stimulus"":""img/green_lw/11.jpg"",""time"":554}]","[]"
"image-keyboard-response","154","116615","0.0-5.0-1.75","63f3a7e45f338798fd025d99","bdp_lott","Tue Mar 28 2023 08:23:16 GMT-0500 (Central Daylight Time)","246523","green","red","","320","","","","choice","","img/green_lw/choose11.jpg","1","150","green","0.5","0.5","0.5","w","",""
"animation","155","117223","0.0-5.0-2.75","63f3a7e45f338798fd025d99","bdp_lott","Tue Mar 28 2023 08:23:16 GMT-0500 (Central Daylight Time)","246523","green","red","","","","","","","","","","150","","","","","","[{""stimulus"":""img/green_ww/1.jpg"",""time"":51},{""stimulus"":""img/green_ww/2.jpg"",""time"":101},{""stimulus"":""img/green_ww/3.jpg"",""time"":160},{""stimulus"":""img/green_ww/4.jpg"",""time"":201},{""stimulus"":""img/green_ww/5.jpg"",""time"":256},{""stimulus"":""img/green_ww/6.jpg"",""time"":301},{""stimulus"":""img/green_ww/7.jpg"",""time"":352},{""stimulus"":""img/green_ww/8.jpg"",""time"":416},{""stimulus"":""img/green_ww/9.jpg"",""time"":464},{""stimulus"":""img/green_ww/10.jpg"",""time"":512},{""stimulus"":""img/green_ww/11.jpg"",""time"":560}]","[]"
"image-keyboard-response","156","117437","0.0-5.0-1.76","63f3a7e45f338798fd025d99","bdp_lott","Tue Mar 28 2023 08:23:16 GMT-0500 (Central Daylight Time)","246523","green","red","","214","","","","choice","","img/green_ww/choose11.jpg","1","149","green","0.5","0.1","0.5","w","",""
"animation","157","118053","0.0-5.0-2.76","63f3a7e45f338798fd025d99","bdp_lott","Tue Mar 28 2023 08:23:16 GMT-0500 (Central Daylight Time)","246523","green","red","","","","","","","","","","149","","","","","","[{""stimulus"":""img/green_ww/1.jpg"",""time"":58},{""stimulus"":""img/green_ww/2.jpg"",""time"":101},{""stimulus"":""img/green_ww/3.jpg"",""time"":154},{""stimulus"":""img/green_ww/4.jpg"",""time"":202},{""stimulus"":""img/green_ww/5.jpg"",""time"":251},{""stimulus"":""img/green_ww/6.jpg"",""time"":313},{""stimulus"":""img/green_ww/7.jpg"",""time"":361},{""stimulus"":""img/green_ww/8.jpg"",""time"":409},{""stimulus"":""img/green_ww/9.jpg"",""time"":457},{""stimulus"":""img/green_ww/10.jpg"",""time"":505},{""stimulus"":""img/green_ww/11.jpg"",""time"":553}]","[]"
"image-keyboard-response","158","118328","0.0-5.0-1.77","63f3a7e45f338798fd025d99","bdp_lott","Tue Mar 28 2023 08:23:16 GMT-0500 (Central Daylight Time)","246523","green","red","","274","","","","choice","","img/green_ww/choose11.jpg","1","148","green","0.5","0.1","0.5","w","",""
"animation","159","118930","0.0-5.0-2.77","63f3a7e45f338798fd025d99","bdp_lott","Tue Mar 28 2023 08:23:16 GMT-0500 (Central Daylight Time)","246523","green","red","","","","","","","","","","148","","","","","","[{""stimulus"":""img/green_ww/1.jpg"",""time"":61},{""stimulus"":""img/green_ww/2.jpg"",""time"":101},{""stimulus"":""img/green_ww/3.jpg"",""time"":157},{""stimulus"":""img/green_ww/4.jpg"",""time"":205},{""stimulus"":""img/green_ww/5.jpg"",""time"":252},{""stimulus"":""img/green_ww/6.jpg"",""time"":302},{""stimulus"":""img/green_ww/7.jpg"",""time"":363},{""stimulus"":""img/green_ww/8.jpg"",""time"":401},{""stimulus"":""img/green_ww/9.jpg"",""time"":458},{""stimulus"":""img/green_ww/10.jpg"",""time"":506},{""stimulus"":""img/green_ww/11.jpg"",""time"":551}]","[]"
"image-keyboard-response","160","119238","0.0-5.0-1.78","63f3a7e45f338798fd025d99","bdp_lott","Tue Mar 28 2023 08:23:16 GMT-0500 (Central Daylight Time)","246523","green","red","","308","","","","choice","","img/green_ww/choose11.jpg","1","147","green","0.5","0.1","0.5","w","",""
"animation","161","119854","0.0-5.0-2.78","63f3a7e45f338798fd025d99","bdp_lott","Tue Mar 28 2023 08:23:16 GMT-0500 (Central Daylight Time)","246523","green","red","","","","","","","","","","147","","","","","","[{""stimulus"":""img/green_ww/1.jpg"",""time"":57},{""stimulus"":""img/green_ww/2.jpg"",""time"":100},{""stimulus"":""img/green_ww/3.jpg"",""time"":153},{""stimulus"":""img/green_ww/4.jpg"",""time"":201},{""stimulus"":""img/green_ww/5.jpg"",""time"":265},{""stimulus"":""img/green_ww/6.jpg"",""time"":313},{""stimulus"":""img/green_ww/7.jpg"",""time"":360},{""stimulus"":""img/green_ww/8.jpg"",""time"":400},{""stimulus"":""img/green_ww/9.jpg"",""time"":450},{""stimulus"":""img/green_ww/10.jpg"",""time"":503},{""stimulus"":""img/green_ww/11.jpg"",""time"":550}]","[]"
"image-keyboard-response","162","120182","0.0-5.0-1.79","63f3a7e45f338798fd025d99","bdp_lott","Tue Mar 28 2023 08:23:16 GMT-0500 (Central Daylight Time)","246523","green","red","","327","","","","choice","","img/green_ww/choose11.jpg","2","146","red","0.5","0.1","0.1","l","",""
"animation","163","120782","0.0-5.0-2.79","63f3a7e45f338798fd025d99","bdp_lott","Tue Mar 28 2023 08:23:16 GMT-0500 (Central Daylight Time)","246523","green","red","","","","","","","","","","146","","","","","","[{""stimulus"":""img/red_wl/1.jpg"",""time"":50},{""stimulus"":""img/red_wl/2.jpg"",""time"":100},{""stimulus"":""img/red_wl/3.jpg"",""time"":152},{""stimulus"":""img/red_wl/4.jpg"",""time"":200},{""stimulus"":""img/red_wl/5.jpg"",""time"":264},{""stimulus"":""img/red_wl/6.jpg"",""time"":300},{""stimulus"":""img/red_wl/7.jpg"",""time"":360},{""stimulus"":""img/red_wl/8.jpg"",""time"":408},{""stimulus"":""img/red_wl/9.jpg"",""time"":450},{""stimulus"":""img/red_wl/10.jpg"",""time"":504},{""stimulus"":""img/red_wl/11.jpg"",""time"":552}]","[]"
"image-keyboard-response","164","121059","0.0-5.0-1.80","63f3a7e45f338798fd025d99","bdp_lott","Tue Mar 28 2023 08:23:16 GMT-0500 (Central Daylight Time)","246523","green","red","","277","","","","choice","","img/red_wl/choose11.jpg","2","145","red","0.5","0.1","0.1","l","",""
"animation","165","121659","0.0-5.0-2.80","63f3a7e45f338798fd025d99","bdp_lott","Tue Mar 28 2023 08:23:16 GMT-0500 (Central Daylight Time)","246523","green","red","","","","","","","","","","145","","","","","","[{""stimulus"":""img/red_wl/1.jpg"",""time"":50},{""stimulus"":""img/red_wl/2.jpg"",""time"":100},{""stimulus"":""img/red_wl/3.jpg"",""time"":153},{""stimulus"":""img/red_wl/4.jpg"",""time"":201},{""stimulus"":""img/red_wl/5.jpg"",""time"":265},{""stimulus"":""img/red_wl/6.jpg"",""time"":313},{""stimulus"":""img/red_wl/7.jpg"",""time"":361},{""stimulus"":""img/red_wl/8.jpg"",""time"":408},{""stimulus"":""img/red_wl/9.jpg"",""time"":456},{""stimulus"":""img/red_wl/10.jpg"",""time"":504},{""stimulus"":""img/red_wl/11.jpg"",""time"":552}]","[]"
"image-keyboard-response","166","122026","0.0-5.0-1.81","63f3a7e45f338798fd025d99","bdp_lott","Tue Mar 28 2023 08:23:16 GMT-0500 (Central Daylight Time)","246523","green","red","","367","","","","choice","","img/red_wl/choose11.jpg","1","144","green","0.5","0.1","0.5","w","",""
"animation","167","122632","0.0-5.0-2.81","63f3a7e45f338798fd025d99","bdp_lott","Tue Mar 28 2023 08:23:16 GMT-0500 (Central Daylight Time)","246523","green","red","","","","","","","","","","144","","","","","","[{""stimulus"":""img/green_wl/1.jpg"",""time"":50},{""stimulus"":""img/green_wl/2.jpg"",""time"":100},{""stimulus"":""img/green_wl/3.jpg"",""time"":160},{""stimulus"":""img/green_wl/4.jpg"",""time"":200},{""stimulus"":""img/green_wl/5.jpg"",""time"":250},{""stimulus"":""img/green_wl/6.jpg"",""time"":303},{""stimulus"":""img/green_wl/7.jpg"",""time"":351},{""stimulus"":""img/green_wl/8.jpg"",""time"":415},{""stimulus"":""img/green_wl/9.jpg"",""time"":462},{""stimulus"":""img/green_wl/10.jpg"",""time"":510},{""stimulus"":""img/green_wl/11.jpg"",""time"":550}]","[]"
"image-keyboard-response","168","122924","0.0-5.0-1.82","63f3a7e45f338798fd025d99","bdp_lott","Tue Mar 28 2023 08:23:16 GMT-0500 (Central Daylight Time)","246523","green","red","","291","","","","choice","","img/green_wl/choose11.jpg","1","143","green","0.5","0.1","0.5","l","",""
"animation","169","123539","0.0-5.0-2.82","63f3a7e45f338798fd025d99","bdp_lott","Tue Mar 28 2023 08:23:16 GMT-0500 (Central Daylight Time)","246523","green","red","","","","","","","","","","143","","","","","","[{""stimulus"":""img/green_ll/1.jpg"",""time"":57},{""stimulus"":""img/green_ll/2.jpg"",""time"":101},{""stimulus"":""img/green_ll/3.jpg"",""time"":152},{""stimulus"":""img/green_ll/4.jpg"",""time"":216},{""stimulus"":""img/green_ll/5.jpg"",""time"":263},{""stimulus"":""img/green_ll/6.jpg"",""time"":311},{""stimulus"":""img/green_ll/7.jpg"",""time"":359},{""stimulus"":""img/green_ll/8.jpg"",""time"":407},{""stimulus"":""img/green_ll/9.jpg"",""time"":455},{""stimulus"":""img/green_ll/10.jpg"",""time"":503},{""stimulus"":""img/green_ll/11.jpg"",""time"":551}]","[]"
"image-keyboard-response","170","124300","0.0-5.0-1.83","63f3a7e45f338798fd025d99","bdp_lott","Tue Mar 28 2023 08:23:16 GMT-0500 (Central Daylight Time)","246523","green","red","","761","","","","choice","","img/green_ll/choose11.jpg","2","142","red","0.5","0.1","0.1","l","",""
"animation","171","124914","0.0-5.0-2.83","63f3a7e45f338798fd025d99","bdp_lott","Tue Mar 28 2023 08:23:16 GMT-0500 (Central Daylight Time)","246523","green","red","","","","","","","","","","142","","","","","","[{""stimulus"":""img/red_ll/1.jpg"",""time"":54},{""stimulus"":""img/red_ll/2.jpg"",""time"":101},{""stimulus"":""img/red_ll/3.jpg"",""time"":166},{""stimulus"":""img/red_ll/4.jpg"",""time"":201},{""stimulus"":""img/red_ll/5.jpg"",""time"":262},{""stimulus"":""img/red_ll/6.jpg"",""time"":310},{""stimulus"":""img/red_ll/7.jpg"",""time"":351},{""stimulus"":""img/red_ll/8.jpg"",""time"":406},{""stimulus"":""img/red_ll/9.jpg"",""time"":454},{""stimulus"":""img/red_ll/10.jpg"",""time"":502},{""stimulus"":""img/red_ll/11.jpg"",""time"":551}]","[]"
"image-keyboard-response","172","125265","0.0-5.0-1.84","63f3a7e45f338798fd025d99","bdp_lott","Tue Mar 28 2023 08:23:16 GMT-0500 (Central Daylight Time)","246523","green","red","","351","","","","choice","","img/red_ll/choose11.jpg","2","141","red","0.5","0.1","0.1","l","",""
"animation","173","125871","0.0-5.0-2.84","63f3a7e45f338798fd025d99","bdp_lott","Tue Mar 28 2023 08:23:16 GMT-0500 (Central Daylight Time)","246523","green","red","","","","","","","","","","141","","","","","","[{""stimulus"":""img/red_ll/1.jpg"",""time"":51},{""stimulus"":""img/red_ll/2.jpg"",""time"":101},{""stimulus"":""img/red_ll/3.jpg"",""time"":159},{""stimulus"":""img/red_ll/4.jpg"",""time"":207},{""stimulus"":""img/red_ll/5.jpg"",""time"":255},{""stimulus"":""img/red_ll/6.jpg"",""time"":302},{""stimulus"":""img/red_ll/7.jpg"",""time"":366},{""stimulus"":""img/red_ll/8.jpg"",""time"":414},{""stimulus"":""img/red_ll/9.jpg"",""time"":462},{""stimulus"":""img/red_ll/10.jpg"",""time"":510},{""stimulus"":""img/red_ll/11.jpg"",""time"":558}]","[]"
"image-keyboard-response","174","126236","0.0-5.0-1.85","63f3a7e45f338798fd025d99","bdp_lott","Tue Mar 28 2023 08:23:16 GMT-0500 (Central Daylight Time)","246523","green","red","","365","","","","choice","","img/red_ll/choose11.jpg","2","140","red","0.5","0.1","0.1","l","",""
"animation","175","126846","0.0-5.0-2.85","63f3a7e45f338798fd025d99","bdp_lott","Tue Mar 28 2023 08:23:16 GMT-0500 (Central Daylight Time)","246523","green","red","","","","","","","","","","140","","","","","","[{""stimulus"":""img/red_ll/1.jpg"",""time"":51},{""stimulus"":""img/red_ll/2.jpg"",""time"":101},{""stimulus"":""img/red_ll/3.jpg"",""time"":163},{""stimulus"":""img/red_ll/4.jpg"",""time"":211},{""stimulus"":""img/red_ll/5.jpg"",""time"":259},{""stimulus"":""img/red_ll/6.jpg"",""time"":307},{""stimulus"":""img/red_ll/7.jpg"",""time"":355},{""stimulus"":""img/red_ll/8.jpg"",""time"":403},{""stimulus"":""img/red_ll/9.jpg"",""time"":450},{""stimulus"":""img/red_ll/10.jpg"",""time"":514},{""stimulus"":""img/red_ll/11.jpg"",""time"":562}]","[]"
"image-keyboard-response","176","127175","0.0-5.0-1.86","63f3a7e45f338798fd025d99","bdp_lott","Tue Mar 28 2023 08:23:16 GMT-0500 (Central Daylight Time)","246523","green","red","","328","","","","choice","","img/red_ll/choose11.jpg","2","139","red","0.5","0.1","0.1","l","",""
"animation","177","127790","0.0-5.0-2.86","63f3a7e45f338798fd025d99","bdp_lott","Tue Mar 28 2023 08:23:16 GMT-0500 (Central Daylight Time)","246523","green","red","","","","","","","","","","139","","","","","","[{""stimulus"":""img/red_ll/1.jpg"",""time"":54},{""stimulus"":""img/red_ll/2.jpg"",""time"":101},{""stimulus"":""img/red_ll/3.jpg"",""time"":157},{""stimulus"":""img/red_ll/4.jpg"",""time"":215},{""stimulus"":""img/red_ll/5.jpg"",""time"":263},{""stimulus"":""img/red_ll/6.jpg"",""time"":311},{""stimulus"":""img/red_ll/7.jpg"",""time"":359},{""stimulus"":""img/red_ll/8.jpg"",""time"":407},{""stimulus"":""img/red_ll/9.jpg"",""time"":455},{""stimulus"":""img/red_ll/10.jpg"",""time"":502},{""stimulus"":""img/red_ll/11.jpg"",""time"":567}]","[]"
"image-keyboard-response","178","128010","0.0-5.0-1.87","63f3a7e45f338798fd025d99","bdp_lott","Tue Mar 28 2023 08:23:16 GMT-0500 (Central Daylight Time)","246523","green","red","","220","","","","choice","","img/red_ll/choose11.jpg","1","138","green","0.5","0.1","0.5","l","",""
"animation","179","128619","0.0-5.0-2.87","63f3a7e45f338798fd025d99","bdp_lott","Tue Mar 28 2023 08:23:16 GMT-0500 (Central Daylight Time)","246523","green","red","","","","","","","","","","138","","","","","","[{""stimulus"":""img/green_ll/1.jpg"",""time"":52},{""stimulus"":""img/green_ll/2.jpg"",""time"":101},{""stimulus"":""img/green_ll/3.jpg"",""time"":164},{""stimulus"":""img/green_ll/4.jpg"",""time"":212},{""stimulus"":""img/green_ll/5.jpg"",""time"":260},{""stimulus"":""img/green_ll/6.jpg"",""time"":301},{""stimulus"":""img/green_ll/7.jpg"",""time"":356},{""stimulus"":""img/green_ll/8.jpg"",""time"":401},{""stimulus"":""img/green_ll/9.jpg"",""time"":455},{""stimulus"":""img/green_ll/10.jpg"",""time"":514},{""stimulus"":""img/green_ll/11.jpg"",""time"":562}]","[]"
"image-keyboard-response","180","128883","0.0-5.0-1.88","63f3a7e45f338798fd025d99","bdp_lott","Tue Mar 28 2023 08:23:16 GMT-0500 (Central Daylight Time)","246523","green","red","","263","","","","choice","","img/green_ll/choose11.jpg","1","137","green","0.5","0.1","0.5","w","",""
"animation","181","129483","0.0-5.0-2.88","63f3a7e45f338798fd025d99","bdp_lott","Tue Mar 28 2023 08:23:16 GMT-0500 (Central Daylight Time)","246523","green","red","","","","","","","","","","137","","","","","","[{""stimulus"":""img/green_wl/1.jpg"",""time"":56},{""stimulus"":""img/green_wl/2.jpg"",""time"":100},{""stimulus"":""img/green_wl/3.jpg"",""time"":152},{""stimulus"":""img/green_wl/4.jpg"",""time"":200},{""stimulus"":""img/green_wl/5.jpg"",""time"":250},{""stimulus"":""img/green_wl/6.jpg"",""time"":312},{""stimulus"":""img/green_wl/7.jpg"",""time"":360},{""stimulus"":""img/green_wl/8.jpg"",""time"":400},{""stimulus"":""img/green_wl/9.jpg"",""time"":456},{""stimulus"":""img/green_wl/10.jpg"",""time"":504},{""stimulus"":""img/green_wl/11.jpg"",""time"":550}]","[]"
"image-keyboard-response","182","129667","0.0-5.0-1.89","63f3a7e45f338798fd025d99","bdp_lott","Tue Mar 28 2023 08:23:16 GMT-0500 (Central Daylight Time)","246523","green","red","","184","","","","choice","","img/green_wl/choose11.jpg","1","136","green","0.5","0.1","0.5","w","",""
"animation","183","130267","0.0-5.0-2.89","63f3a7e45f338798fd025d99","bdp_lott","Tue Mar 28 2023 08:23:16 GMT-0500 (Central Daylight Time)","246523","green","red","","","","","","","","","","136","","","","","","[{""stimulus"":""img/green_wl/1.jpg"",""time"":50},{""stimulus"":""img/green_wl/2.jpg"",""time"":100},{""stimulus"":""img/green_wl/3.jpg"",""time"":152},{""stimulus"":""img/green_wl/4.jpg"",""time"":200},{""stimulus"":""img/green_wl/5.jpg"",""time"":264},{""stimulus"":""img/green_wl/6.jpg"",""time"":312},{""stimulus"":""img/green_wl/7.jpg"",""time"":360},{""stimulus"":""img/green_wl/8.jpg"",""time"":400},{""stimulus"":""img/green_wl/9.jpg"",""time"":456},{""stimulus"":""img/green_wl/10.jpg"",""time"":504},{""stimulus"":""img/green_wl/11.jpg"",""time"":552}]","[]"
"image-keyboard-response","184","130483","0.0-5.0-1.90","63f3a7e45f338798fd025d99","bdp_lott","Tue Mar 28 2023 08:23:16 GMT-0500 (Central Daylight Time)","246523","green","red","","216","","","","choice","","img/green_wl/choose11.jpg","1","135","green","0.5","0.1","0.5","l","",""
"animation","185","131097","0.0-5.0-2.90","63f3a7e45f338798fd025d99","bdp_lott","Tue Mar 28 2023 08:23:16 GMT-0500 (Central Daylight Time)","246523","green","red","","","","","","","","","","135","","","","","","[{""stimulus"":""img/green_ll/1.jpg"",""time"":50},{""stimulus"":""img/green_ll/2.jpg"",""time"":100},{""stimulus"":""img/green_ll/3.jpg"",""time"":151},{""stimulus"":""img/green_ll/4.jpg"",""time"":215},{""stimulus"":""img/green_ll/5.jpg"",""time"":263},{""stimulus"":""img/green_ll/6.jpg"",""time"":311},{""stimulus"":""img/green_ll/7.jpg"",""time"":359},{""stimulus"":""img/green_ll/8.jpg"",""time"":400},{""stimulus"":""img/green_ll/9.jpg"",""time"":454},{""stimulus"":""img/green_ll/10.jpg"",""time"":502},{""stimulus"":""img/green_ll/11.jpg"",""time"":550}]","[]"
"image-keyboard-response","186","131383","0.0-5.0-1.91","63f3a7e45f338798fd025d99","bdp_lott","Tue Mar 28 2023 08:23:16 GMT-0500 (Central Daylight Time)","246523","green","red","","285","","","","choice","","img/green_ll/choose11.jpg","1","134","green","0.5","0.1","0.5","l","",""
"animation","187","131993","0.0-5.0-2.91","63f3a7e45f338798fd025d99","bdp_lott","Tue Mar 28 2023 08:23:16 GMT-0500 (Central Daylight Time)","246523","green","red","","","","","","","","","","134","","","","","","[{""stimulus"":""img/green_ll/1.jpg"",""time"":50},{""stimulus"":""img/green_ll/2.jpg"",""time"":100},{""stimulus"":""img/green_ll/3.jpg"",""time"":162},{""stimulus"":""img/green_ll/4.jpg"",""time"":211},{""stimulus"":""img/green_ll/5.jpg"",""time"":258},{""stimulus"":""img/green_ll/6.jpg"",""time"":300},{""stimulus"":""img/green_ll/7.jpg"",""time"":354},{""stimulus"":""img/green_ll/8.jpg"",""time"":400},{""stimulus"":""img/green_ll/9.jpg"",""time"":451},{""stimulus"":""img/green_ll/10.jpg"",""time"":515},{""stimulus"":""img/green_ll/11.jpg"",""time"":551}]","[]"
"image-keyboard-response","188","132332","0.0-5.0-1.92","63f3a7e45f338798fd025d99","bdp_lott","Tue Mar 28 2023 08:23:16 GMT-0500 (Central Daylight Time)","246523","green","red","","338","","","","choice","","img/green_ll/choose11.jpg","2","133","red","0.5","0.1","0.1","l","",""
"animation","189","132935","0.0-5.0-2.92","63f3a7e45f338798fd025d99","bdp_lott","Tue Mar 28 2023 08:23:16 GMT-0500 (Central Daylight Time)","246523","green","red","","","","","","","","","","133","","","","","","[{""stimulus"":""img/red_ll/1.jpg"",""time"":60},{""stimulus"":""img/red_ll/2.jpg"",""time"":101},{""stimulus"":""img/red_ll/3.jpg"",""time"":151},{""stimulus"":""img/red_ll/4.jpg"",""time"":201},{""stimulus"":""img/red_ll/5.jpg"",""time"":251},{""stimulus"":""img/red_ll/6.jpg"",""time"":315},{""stimulus"":""img/red_ll/7.jpg"",""time"":363},{""stimulus"":""img/red_ll/8.jpg"",""time"":411},{""stimulus"":""img/red_ll/9.jpg"",""time"":459},{""stimulus"":""img/red_ll/10.jpg"",""time"":507},{""stimulus"":""img/red_ll/11.jpg"",""time"":551}]","[]"
"image-keyboard-response","190","133150","0.0-5.0-1.93","63f3a7e45f338798fd025d99","bdp_lott","Tue Mar 28 2023 08:23:16 GMT-0500 (Central Daylight Time)","246523","green","red","","215","","","","choice","","img/red_ll/choose11.jpg","2","132","red","0.5","0.1","0.1","l","",""
