"trial_type","trial_index","time_elapsed","internal_node_id","subject_id","task","startTime","totalTime","fairMachine","unfairMachine","view_history","rt","event","trial","time","trialtype","success","stimulus","key_press","roundsLeft","chosen","pFairMachWin","pUnfairMachWin","pTrialWin","outcome","animation_sequence","responses"
"pavlovia","0","10","0.0-0.0","63ed9dbc1c7838ffcbb42142","bdp_lott","Sun Mar 26 2023 13:35:22 GMT-0700 (Pacific Daylight Time)","289825","green","red","","","","","","","","","","","","","","","","",""
"instructions","1","8431","0.0-1.0","63ed9dbc1c7838ffcbb42142","bdp_lott","Sun Mar 26 2023 13:35:22 GMT-0700 (Pacific Daylight Time)","289825","green","red","[{""page_index"":0,""viewing_time"":8417}]","8420","","","","","","","","","","","","","","",""
"","","","","63ed9dbc1c7838ffcbb42142","bdp_lott","Sun Mar 26 2023 13:35:22 GMT-0700 (Pacific Daylight Time)","289825","green","red","","","fullscreenenter","2","11592","fullscreenenter","","","","","","","","","","",""
"fullscreen","2","12546","0.0-2.0","63ed9dbc1c7838ffcbb42142","bdp_lott","Sun Mar 26 2023 13:35:22 GMT-0700 (Pacific Daylight Time)","289825","green","red","","","","","","","true","","","","","","","","","",""
"instructions","3","38020","0.0-4.0","63ed9dbc1c7838ffcbb42142","bdp_lott","Sun Mar 26 2023 13:35:22 GMT-0700 (Pacific Daylight Time)","289825","green","red","[{""page_index"":0,""viewing_time"":25471}]","25471","","","","","","","","","","","","","","",""
"image-keyboard-response","4","40610","0.0-5.0-1.0","63ed9dbc1c7838ffcbb42142","bdp_lott","Sun Mar 26 2023 13:35:22 GMT-0700 (Pacific Daylight Time)","289825","green","red","","2585","","","","choice","","img/red_ll/initchoose11.jpg","1","225","green","0.5","0.5","0.5","w","",""
"animation","5","41223","0.0-5.0-2.0","63ed9dbc1c7838ffcbb42142","bdp_lott","Sun Mar 26 2023 13:35:22 GMT-0700 (Pacific Daylight Time)","289825","green","red","","","","","","","","","","225","","","","","","[{""stimulus"":""img/green_wl/1.jpg"",""time"":56},{""stimulus"":""img/green_wl/2.jpg"",""time"":105},{""stimulus"":""img/green_wl/3.jpg"",""time"":158},{""stimulus"":""img/green_wl/4.jpg"",""time"":210},{""stimulus"":""img/green_wl/5.jpg"",""time"":260},{""stimulus"":""img/green_wl/6.jpg"",""time"":311},{""stimulus"":""img/green_wl/7.jpg"",""time"":362},{""stimulus"":""img/green_wl/8.jpg"",""time"":413},{""stimulus"":""img/green_wl/9.jpg"",""time"":464},{""stimulus"":""img/green_wl/10.jpg"",""time"":515},{""stimulus"":""img/green_wl/11.jpg"",""time"":567}]","[]"
"image-keyboard-response","6","43362","0.0-5.0-1.1","63ed9dbc1c7838ffcbb42142","bdp_lott","Sun Mar 26 2023 13:35:22 GMT-0700 (Pacific Daylight Time)","289825","green","red","","2132","","","","choice","","img/green_wl/choose11.jpg","2","224","red","0.5","0.5","0.5","w","",""
"animation","7","43975","0.0-5.0-2.1","63ed9dbc1c7838ffcbb42142","bdp_lott","Sun Mar 26 2023 13:35:22 GMT-0700 (Pacific Daylight Time)","289825","green","red","","","","","","","","","","224","","","","","","[{""stimulus"":""img/red_ww/1.jpg"",""time"":57},{""stimulus"":""img/red_ww/2.jpg"",""time"":108},{""stimulus"":""img/red_ww/3.jpg"",""time"":160},{""stimulus"":""img/red_ww/4.jpg"",""time"":211},{""stimulus"":""img/red_ww/5.jpg"",""time"":259},{""stimulus"":""img/red_ww/6.jpg"",""time"":311},{""stimulus"":""img/red_ww/7.jpg"",""time"":363},{""stimulus"":""img/red_ww/8.jpg"",""time"":414},{""stimulus"":""img/red_ww/9.jpg"",""time"":465},{""stimulus"":""img/red_ww/10.jpg"",""time"":516},{""stimulus"":""img/red_ww/11.jpg"",""time"":568}]","[]"
"image-keyboard-response","8","45745","0.0-5.0-1.2","63ed9dbc1c7838ffcbb42142","bdp_lott","Sun Mar 26 2023 13:35:22 GMT-0700 (Pacific Daylight Time)","289825","green","red","","1764","","","","choice","","img/red_ww/choose11.jpg","2","223","red","0.5","0.5","0.5","l","",""
"animation","9","46360","0.0-5.0-2.2","63ed9dbc1c7838ffcbb42142","bdp_lott","Sun Mar 26 2023 13:35:22 GMT-0700 (Pacific Daylight Time)","289825","green","red","","","","","","","","","","223","","","","","","[{""stimulus"":""img/red_wl/1.jpg"",""time"":57},{""stimulus"":""img/red_wl/2.jpg"",""time"":108},{""stimulus"":""img/red_wl/3.jpg"",""time"":159},{""stimulus"":""img/red_wl/4.jpg"",""time"":210},{""stimulus"":""img/red_wl/5.jpg"",""time"":262},{""stimulus"":""img/red_wl/6.jpg"",""time"":311},{""stimulus"":""img/red_wl/7.jpg"",""time"":363},{""stimulus"":""img/red_wl/8.jpg"",""time"":415},{""stimulus"":""img/red_wl/9.jpg"",""time"":466},{""stimulus"":""img/red_wl/10.jpg"",""time"":517},{""stimulus"":""img/red_wl/11.jpg"",""time"":568}]","[]"
"image-keyboard-response","10","47249","0.0-5.0-1.3","63ed9dbc1c7838ffcbb42142","bdp_lott","Sun Mar 26 2023 13:35:22 GMT-0700 (Pacific Daylight Time)","289825","green","red","","883","","","","choice","","img/red_wl/choose11.jpg","1","222","green","0.5","0.5","0.5","l","",""
"animation","11","47862","0.0-5.0-2.3","63ed9dbc1c7838ffcbb42142","bdp_lott","Sun Mar 26 2023 13:35:22 GMT-0700 (Pacific Daylight Time)","289825","green","red","","","","","","","","","","222","","","","","","[{""stimulus"":""img/green_ll/1.jpg"",""time"":56},{""stimulus"":""img/green_ll/2.jpg"",""time"":107},{""stimulus"":""img/green_ll/3.jpg"",""time"":159},{""stimulus"":""img/green_ll/4.jpg"",""time"":210},{""stimulus"":""img/green_ll/5.jpg"",""time"":261},{""stimulus"":""img/green_ll/6.jpg"",""time"":312},{""stimulus"":""img/green_ll/7.jpg"",""time"":363},{""stimulus"":""img/green_ll/8.jpg"",""time"":414},{""stimulus"":""img/green_ll/9.jpg"",""time"":465},{""stimulus"":""img/green_ll/10.jpg"",""time"":516},{""stimulus"":""img/green_ll/11.jpg"",""time"":566}]","[]"
"image-keyboard-response","12","48697","0.0-5.0-1.4","63ed9dbc1c7838ffcbb42142","bdp_lott","Sun Mar 26 2023 13:35:22 GMT-0700 (Pacific Daylight Time)","289825","green","red","","829","","","","choice","","img/green_ll/choose11.jpg","2","221","red","0.5","0.5","0.5","l","",""
"animation","13","49308","0.0-5.0-2.4","63ed9dbc1c7838ffcbb42142","bdp_lott","Sun Mar 26 2023 13:35:22 GMT-0700 (Pacific Daylight Time)","289825","green","red","","","","","","","","","","221","","","","","","[{""stimulus"":""img/red_ll/1.jpg"",""time"":57},{""stimulus"":""img/red_ll/2.jpg"",""time"":108},{""stimulus"":""img/red_ll/3.jpg"",""time"":157},{""stimulus"":""img/red_ll/4.jpg"",""time"":209},{""stimulus"":""img/red_ll/5.jpg"",""time"":260},{""stimulus"":""img/red_ll/6.jpg"",""time"":311},{""stimulus"":""img/red_ll/7.jpg"",""time"":362},{""stimulus"":""img/red_ll/8.jpg"",""time"":413},{""stimulus"":""img/red_ll/9.jpg"",""time"":464},{""stimulus"":""img/red_ll/10.jpg"",""time"":514},{""stimulus"":""img/red_ll/11.jpg"",""time"":565}]","[]"
"image-keyboard-response","14","50329","0.0-5.0-1.5","63ed9dbc1c7838ffcbb42142","bdp_lott","Sun Mar 26 2023 13:35:22 GMT-0700 (Pacific Daylight Time)","289825","green","red","","1015","","","","choice","","img/red_ll/choose11.jpg","2","220","red","0.5","0.5","0.5","l","",""
"animation","15","50939","0.0-5.0-2.5","63ed9dbc1c7838ffcbb42142","bdp_lott","Sun Mar 26 2023 13:35:22 GMT-0700 (Pacific Daylight Time)","289825","green","red","","","","","","","","","","220","","","","","","[{""stimulus"":""img/red_ll/1.jpg"",""time"":56},{""stimulus"":""img/red_ll/2.jpg"",""time"":106},{""stimulus"":""img/red_ll/3.jpg"",""time"":159},{""stimulus"":""img/red_ll/4.jpg"",""time"":208},{""stimulus"":""img/red_ll/5.jpg"",""time"":259},{""stimulus"":""img/red_ll/6.jpg"",""time"":310},{""stimulus"":""img/red_ll/7.jpg"",""time"":362},{""stimulus"":""img/red_ll/8.jpg"",""time"":413},{""stimulus"":""img/red_ll/9.jpg"",""time"":464},{""stimulus"":""img/red_ll/10.jpg"",""time"":514},{""stimulus"":""img/red_ll/11.jpg"",""time"":565}]","[]"
"image-keyboard-response","16","51601","0.0-5.0-1.6","63ed9dbc1c7838ffcbb42142","bdp_lott","Sun Mar 26 2023 13:35:22 GMT-0700 (Pacific Daylight Time)","289825","green","red","","656","","","","choice","","img/red_ll/choose11.jpg","1","219","green","0.5","0.5","0.5","l","",""
"animation","17","52212","0.0-5.0-2.6","63ed9dbc1c7838ffcbb42142","bdp_lott","Sun Mar 26 2023 13:35:22 GMT-0700 (Pacific Daylight Time)","289825","green","red","","","","","","","","","","219","","","","","","[{""stimulus"":""img/green_ll/1.jpg"",""time"":57},{""stimulus"":""img/green_ll/2.jpg"",""time"":107},{""stimulus"":""img/green_ll/3.jpg"",""time"":158},{""stimulus"":""img/green_ll/4.jpg"",""time"":210},{""stimulus"":""img/green_ll/5.jpg"",""time"":261},{""stimulus"":""img/green_ll/6.jpg"",""time"":311},{""stimulus"":""img/green_ll/7.jpg"",""time"":362},{""stimulus"":""img/green_ll/8.jpg"",""time"":413},{""stimulus"":""img/green_ll/9.jpg"",""time"":465},{""stimulus"":""img/green_ll/10.jpg"",""time"":516},{""stimulus"":""img/green_ll/11.jpg"",""time"":567}]","[]"
"image-keyboard-response","18","53200","0.0-5.0-1.7","63ed9dbc1c7838ffcbb42142","bdp_lott","Sun Mar 26 2023 13:35:22 GMT-0700 (Pacific Daylight Time)","289825","green","red","","982","","","","choice","","img/green_ll/choose11.jpg","1","218","green","0.5","0.5","0.5","l","",""
"animation","19","53812","0.0-5.0-2.7","63ed9dbc1c7838ffcbb42142","bdp_lott","Sun Mar 26 2023 13:35:22 GMT-0700 (Pacific Daylight Time)","289825","green","red","","","","","","","","","","218","","","","","","[{""stimulus"":""img/green_ll/1.jpg"",""time"":56},{""stimulus"":""img/green_ll/2.jpg"",""time"":108},{""stimulus"":""img/green_ll/3.jpg"",""time"":158},{""stimulus"":""img/green_ll/4.jpg"",""time"":210},{""stimulus"":""img/green_ll/5.jpg"",""time"":261},{""stimulus"":""img/green_ll/6.jpg"",""time"":311},{""stimulus"":""img/green_ll/7.jpg"",""time"":362},{""stimulus"":""img/green_ll/8.jpg"",""time"":412},{""stimulus"":""img/green_ll/9.jpg"",""time"":464},{""stimulus"":""img/green_ll/10.jpg"",""time"":515},{""stimulus"":""img/green_ll/11.jpg"",""time"":566}]","[]"
"image-keyboard-response","20","55049","0.0-5.0-1.8","63ed9dbc1c7838ffcbb42142","bdp_lott","Sun Mar 26 2023 13:35:22 GMT-0700 (Pacific Daylight Time)","289825","green","red","","1231","","","","choice","","img/green_ll/choose11.jpg","2","217","red","0.5","0.5","0.5","l","",""
"animation","21","55661","0.0-5.0-2.8","63ed9dbc1c7838ffcbb42142","bdp_lott","Sun Mar 26 2023 13:35:22 GMT-0700 (Pacific Daylight Time)","289825","green","red","","","","","","","","","","217","","","","","","[{""stimulus"":""img/red_ll/1.jpg"",""time"":57},{""stimulus"":""img/red_ll/2.jpg"",""time"":109},{""stimulus"":""img/red_ll/3.jpg"",""time"":158},{""stimulus"":""img/red_ll/4.jpg"",""time"":208},{""stimulus"":""img/red_ll/5.jpg"",""time"":261},{""stimulus"":""img/red_ll/6.jpg"",""time"":312},{""stimulus"":""img/red_ll/7.jpg"",""time"":363},{""stimulus"":""img/red_ll/8.jpg"",""time"":413},{""stimulus"":""img/red_ll/9.jpg"",""time"":464},{""stimulus"":""img/red_ll/10.jpg"",""time"":515},{""stimulus"":""img/red_ll/11.jpg"",""time"":567}]","[]"
"image-keyboard-response","22","56913","0.0-5.0-1.9","63ed9dbc1c7838ffcbb42142","bdp_lott","Sun Mar 26 2023 13:35:22 GMT-0700 (Pacific Daylight Time)","289825","green","red","","1246","","","","choice","","img/red_ll/choose11.jpg","1","216","green","0.5","0.5","0.5","l","",""
"animation","23","57524","0.0-5.0-2.9","63ed9dbc1c7838ffcbb42142","bdp_lott","Sun Mar 26 2023 13:35:22 GMT-0700 (Pacific Daylight Time)","289825","green","red","","","","","","","","","","216","","","","","","[{""stimulus"":""img/green_ll/1.jpg"",""time"":56},{""stimulus"":""img/green_ll/2.jpg"",""time"":106},{""stimulus"":""img/green_ll/3.jpg"",""time"":157},{""stimulus"":""img/green_ll/4.jpg"",""time"":209},{""stimulus"":""img/green_ll/5.jpg"",""time"":260},{""stimulus"":""img/green_ll/6.jpg"",""time"":311},{""stimulus"":""img/green_ll/7.jpg"",""time"":361},{""stimulus"":""img/green_ll/8.jpg"",""time"":413},{""stimulus"":""img/green_ll/9.jpg"",""time"":464},{""stimulus"":""img/green_ll/10.jpg"",""time"":514},{""stimulus"":""img/green_ll/11.jpg"",""time"":565}]","[]"
"image-keyboard-response","24","58153","0.0-5.0-1.10","63ed9dbc1c7838ffcbb42142","bdp_lott","Sun Mar 26 2023 13:35:22 GMT-0700 (Pacific Daylight Time)","289825","green","red","","623","","","","choice","","img/green_ll/choose11.jpg","1","215","green","0.5","0.5","0.5","w","",""
"animation","25","58767","0.0-5.0-2.10","63ed9dbc1c7838ffcbb42142","bdp_lott","Sun Mar 26 2023 13:35:22 GMT-0700 (Pacific Daylight Time)","289825","green","red","","","","","","","","","","215","","","","","","[{""stimulus"":""img/green_wl/1.jpg"",""time"":57},{""stimulus"":""img/green_wl/2.jpg"",""time"":109},{""stimulus"":""img/green_wl/3.jpg"",""time"":160},{""stimulus"":""img/green_wl/4.jpg"",""time"":211},{""stimulus"":""img/green_wl/5.jpg"",""time"":261},{""stimulus"":""img/green_wl/6.jpg"",""time"":313},{""stimulus"":""img/green_wl/7.jpg"",""time"":364},{""stimulus"":""img/green_wl/8.jpg"",""time"":415},{""stimulus"":""img/green_wl/9.jpg"",""time"":466},{""stimulus"":""img/green_wl/10.jpg"",""time"":517},{""stimulus"":""img/green_wl/11.jpg"",""time"":569}]","[]"
"image-keyboard-response","26","59721","0.0-5.0-1.11","63ed9dbc1c7838ffcbb42142","bdp_lott","Sun Mar 26 2023 13:35:22 GMT-0700 (Pacific Daylight Time)","289825","green","red","","948","","","","choice","","img/green_wl/choose11.jpg","1","214","green","0.5","0.5","0.5","l","",""
"animation","27","60330","0.0-5.0-2.11","63ed9dbc1c7838ffcbb42142","bdp_lott","Sun Mar 26 2023 13:35:22 GMT-0700 (Pacific Daylight Time)","289825","green","red","","","","","","","","","","214","","","","","","[{""stimulus"":""img/green_ll/1.jpg"",""time"":56},{""stimulus"":""img/green_ll/2.jpg"",""time"":107},{""stimulus"":""img/green_ll/3.jpg"",""time"":157},{""stimulus"":""img/green_ll/4.jpg"",""time"":208},{""stimulus"":""img/green_ll/5.jpg"",""time"":259},{""stimulus"":""img/green_ll/6.jpg"",""time"":309},{""stimulus"":""img/green_ll/7.jpg"",""time"":360},{""stimulus"":""img/green_ll/8.jpg"",""time"":411},{""stimulus"":""img/green_ll/9.jpg"",""time"":462},{""stimulus"":""img/green_ll/10.jpg"",""time"":513},{""stimulus"":""img/green_ll/11.jpg"",""time"":563}]","[]"
"image-keyboard-response","28","60913","0.0-5.0-1.12","63ed9dbc1c7838ffcbb42142","bdp_lott","Sun Mar 26 2023 13:35:22 GMT-0700 (Pacific Daylight Time)","289825","green","red","","577","","","","choice","","img/green_ll/choose11.jpg","2","213","red","0.5","0.5","0.5","l","",""
"animation","29","61524","0.0-5.0-2.12","63ed9dbc1c7838ffcbb42142","bdp_lott","Sun Mar 26 2023 13:35:22 GMT-0700 (Pacific Daylight Time)","289825","green","red","","","","","","","","","","213","","","","","","[{""stimulus"":""img/red_ll/1.jpg"",""time"":57},{""stimulus"":""img/red_ll/2.jpg"",""time"":108},{""stimulus"":""img/red_ll/3.jpg"",""time"":159},{""stimulus"":""img/red_ll/4.jpg"",""time"":210},{""stimulus"":""img/red_ll/5.jpg"",""time"":261},{""stimulus"":""img/red_ll/6.jpg"",""time"":312},{""stimulus"":""img/red_ll/7.jpg"",""time"":364},{""stimulus"":""img/red_ll/8.jpg"",""time"":415},{""stimulus"":""img/red_ll/9.jpg"",""time"":466},{""stimulus"":""img/red_ll/10.jpg"",""time"":517},{""stimulus"":""img/red_ll/11.jpg"",""time"":567}]","[]"
"image-keyboard-response","30","62409","0.0-5.0-1.13","63ed9dbc1c7838ffcbb42142","bdp_lott","Sun Mar 26 2023 13:35:22 GMT-0700 (Pacific Daylight Time)","289825","green","red","","879","","","","choice","","img/red_ll/choose11.jpg","2","212","red","0.5","0.5","0.5","w","",""
"animation","31","63022","0.0-5.0-2.13","63ed9dbc1c7838ffcbb42142","bdp_lott","Sun Mar 26 2023 13:35:22 GMT-0700 (Pacific Daylight Time)","289825","green","red","","","","","","","","","","212","","","","","","[{""stimulus"":""img/red_lw/1.jpg"",""time"":57},{""stimulus"":""img/red_lw/2.jpg"",""time"":108},{""stimulus"":""img/red_lw/3.jpg"",""time"":158},{""stimulus"":""img/red_lw/4.jpg"",""time"":209},{""stimulus"":""img/red_lw/5.jpg"",""time"":258},{""stimulus"":""img/red_lw/6.jpg"",""time"":311},{""stimulus"":""img/red_lw/7.jpg"",""time"":363},{""stimulus"":""img/red_lw/8.jpg"",""time"":413},{""stimulus"":""img/red_lw/9.jpg"",""time"":464},{""stimulus"":""img/red_lw/10.jpg"",""time"":515},{""stimulus"":""img/red_lw/11.jpg"",""time"":566}]","[]"
"image-keyboard-response","32","63785","0.0-5.0-1.14","63ed9dbc1c7838ffcbb42142","bdp_lott","Sun Mar 26 2023 13:35:22 GMT-0700 (Pacific Daylight Time)","289825","green","red","","756","","","","choice","","img/red_lw/choose11.jpg","1","211","green","0.5","0.5","0.5","l","",""
"animation","33","64395","0.0-5.0-2.14","63ed9dbc1c7838ffcbb42142","bdp_lott","Sun Mar 26 2023 13:35:22 GMT-0700 (Pacific Daylight Time)","289825","green","red","","","","","","","","","","211","","","","","","[{""stimulus"":""img/green_lw/1.jpg"",""time"":56},{""stimulus"":""img/green_lw/2.jpg"",""time"":107},{""stimulus"":""img/green_lw/3.jpg"",""time"":158},{""stimulus"":""img/green_lw/4.jpg"",""time"":210},{""stimulus"":""img/green_lw/5.jpg"",""time"":260},{""stimulus"":""img/green_lw/6.jpg"",""time"":312},{""stimulus"":""img/green_lw/7.jpg"",""time"":362},{""stimulus"":""img/green_lw/8.jpg"",""time"":411},{""stimulus"":""img/green_lw/9.jpg"",""time"":463},{""stimulus"":""img/green_lw/10.jpg"",""time"":514},{""stimulus"":""img/green_lw/11.jpg"",""time"":565}]","[]"
"image-keyboard-response","34","65129","0.0-5.0-1.15","63ed9dbc1c7838ffcbb42142","bdp_lott","Sun Mar 26 2023 13:35:22 GMT-0700 (Pacific Daylight Time)","289825","green","red","","728","","","","choice","","img/green_lw/choose11.jpg","2","210","red","0.5","0.5","0.5","w","",""
"animation","35","65740","0.0-5.0-2.15","63ed9dbc1c7838ffcbb42142","bdp_lott","Sun Mar 26 2023 13:35:22 GMT-0700 (Pacific Daylight Time)","289825","green","red","","","","","","","","","","210","","","","","","[{""stimulus"":""img/red_lw/1.jpg"",""time"":57},{""stimulus"":""img/red_lw/2.jpg"",""time"":108},{""stimulus"":""img/red_lw/3.jpg"",""time"":159},{""stimulus"":""img/red_lw/4.jpg"",""time"":210},{""stimulus"":""img/red_lw/5.jpg"",""time"":262},{""stimulus"":""img/red_lw/6.jpg"",""time"":313},{""stimulus"":""img/red_lw/7.jpg"",""time"":363},{""stimulus"":""img/red_lw/8.jpg"",""time"":415},{""stimulus"":""img/red_lw/9.jpg"",""time"":465},{""stimulus"":""img/red_lw/10.jpg"",""time"":514},{""stimulus"":""img/red_lw/11.jpg"",""time"":565}]","[]"
"image-keyboard-response","36","67320","0.0-5.0-1.16","63ed9dbc1c7838ffcbb42142","bdp_lott","Sun Mar 26 2023 13:35:22 GMT-0700 (Pacific Daylight Time)","289825","green","red","","1575","","","","choice","","img/red_lw/choose11.jpg","2","209","red","0.5","0.5","0.5","l","",""
"animation","37","67928","0.0-5.0-2.16","63ed9dbc1c7838ffcbb42142","bdp_lott","Sun Mar 26 2023 13:35:22 GMT-0700 (Pacific Daylight Time)","289825","green","red","","","","","","","","","","209","","","","","","[{""stimulus"":""img/red_ll/1.jpg"",""time"":56},{""stimulus"":""img/red_ll/2.jpg"",""time"":107},{""stimulus"":""img/red_ll/3.jpg"",""time"":157},{""stimulus"":""img/red_ll/4.jpg"",""time"":208},{""stimulus"":""img/red_ll/5.jpg"",""time"":258},{""stimulus"":""img/red_ll/6.jpg"",""time"":308},{""stimulus"":""img/red_ll/7.jpg"",""time"":360},{""stimulus"":""img/red_ll/8.jpg"",""time"":411},{""stimulus"":""img/red_ll/9.jpg"",""time"":463},{""stimulus"":""img/red_ll/10.jpg"",""time"":513},{""stimulus"":""img/red_ll/11.jpg"",""time"":563}]","[]"
"image-keyboard-response","38","68400","0.0-5.0-1.17","63ed9dbc1c7838ffcbb42142","bdp_lott","Sun Mar 26 2023 13:35:22 GMT-0700 (Pacific Daylight Time)","289825","green","red","","467","","","","choice","","img/red_ll/choose11.jpg","2","208","red","0.5","0.5","0.5","w","",""
"animation","39","69008","0.0-5.0-2.17","63ed9dbc1c7838ffcbb42142","bdp_lott","Sun Mar 26 2023 13:35:22 GMT-0700 (Pacific Daylight Time)","289825","green","red","","","","","","","","","","208","","","","","","[{""stimulus"":""img/red_lw/1.jpg"",""time"":56},{""stimulus"":""img/red_lw/2.jpg"",""time"":106},{""stimulus"":""img/red_lw/3.jpg"",""time"":155},{""stimulus"":""img/red_lw/4.jpg"",""time"":207},{""stimulus"":""img/red_lw/5.jpg"",""time"":256},{""stimulus"":""img/red_lw/6.jpg"",""time"":308},{""stimulus"":""img/red_lw/7.jpg"",""time"":358},{""stimulus"":""img/red_lw/8.jpg"",""time"":410},{""stimulus"":""img/red_lw/9.jpg"",""time"":460},{""stimulus"":""img/red_lw/10.jpg"",""time"":511},{""stimulus"":""img/red_lw/11.jpg"",""time"":563}]","[]"
"image-keyboard-response","40","69921","0.0-5.0-1.18","63ed9dbc1c7838ffcbb42142","bdp_lott","Sun Mar 26 2023 13:35:22 GMT-0700 (Pacific Daylight Time)","289825","green","red","","907","","","","choice","","img/red_lw/choose11.jpg","2","207","red","0.5","0.5","0.5","w","",""
"animation","41","70528","0.0-5.0-2.18","63ed9dbc1c7838ffcbb42142","bdp_lott","Sun Mar 26 2023 13:35:22 GMT-0700 (Pacific Daylight Time)","289825","green","red","","","","","","","","","","207","","","","","","[{""stimulus"":""img/red_lw/1.jpg"",""time"":56},{""stimulus"":""img/red_lw/2.jpg"",""time"":106},{""stimulus"":""img/red_lw/3.jpg"",""time"":156},{""stimulus"":""img/red_lw/4.jpg"",""time"":207},{""stimulus"":""img/red_lw/5.jpg"",""time"":258},{""stimulus"":""img/red_lw/6.jpg"",""time"":309},{""stimulus"":""img/red_lw/7.jpg"",""time"":360},{""stimulus"":""img/red_lw/8.jpg"",""time"":410},{""stimulus"":""img/red_lw/9.jpg"",""time"":460},{""stimulus"":""img/red_lw/10.jpg"",""time"":512},{""stimulus"":""img/red_lw/11.jpg"",""time"":562}]","[]"
"image-keyboard-response","42","71312","0.0-5.0-1.19","63ed9dbc1c7838ffcbb42142","bdp_lott","Sun Mar 26 2023 13:35:22 GMT-0700 (Pacific Daylight Time)","289825","green","red","","778","","","","choice","","img/red_lw/choose11.jpg","2","206","red","0.5","0.5","0.5","w","",""
"animation","43","71920","0.0-5.0-2.19","63ed9dbc1c7838ffcbb42142","bdp_lott","Sun Mar 26 2023 13:35:22 GMT-0700 (Pacific Daylight Time)","289825","green","red","","","","","","","","","","206","","","","","","[{""stimulus"":""img/red_lw/1.jpg"",""time"":56},{""stimulus"":""img/red_lw/2.jpg"",""time"":107},{""stimulus"":""img/red_lw/3.jpg"",""time"":157},{""stimulus"":""img/red_lw/4.jpg"",""time"":207},{""stimulus"":""img/red_lw/5.jpg"",""time"":258},{""stimulus"":""img/red_lw/6.jpg"",""time"":310},{""stimulus"":""img/red_lw/7.jpg"",""time"":360},{""stimulus"":""img/red_lw/8.jpg"",""time"":411},{""stimulus"":""img/red_lw/9.jpg"",""time"":461},{""stimulus"":""img/red_lw/10.jpg"",""time"":513},{""stimulus"":""img/red_lw/11.jpg"",""time"":562}]","[]"
"image-keyboard-response","44","72640","0.0-5.0-1.20","63ed9dbc1c7838ffcbb42142","bdp_lott","Sun Mar 26 2023 13:35:22 GMT-0700 (Pacific Daylight Time)","289825","green","red","","715","","","","choice","","img/red_lw/choose11.jpg","2","205","red","0.5","0.5","0.5","l","",""
"animation","45","73246","0.0-5.0-2.20","63ed9dbc1c7838ffcbb42142","bdp_lott","Sun Mar 26 2023 13:35:22 GMT-0700 (Pacific Daylight Time)","289825","green","red","","","","","","","","","","205","","","","","","[{""stimulus"":""img/red_ll/1.jpg"",""time"":56},{""stimulus"":""img/red_ll/2.jpg"",""time"":106},{""stimulus"":""img/red_ll/3.jpg"",""time"":155},{""stimulus"":""img/red_ll/4.jpg"",""time"":207},{""stimulus"":""img/red_ll/5.jpg"",""time"":258},{""stimulus"":""img/red_ll/6.jpg"",""time"":308},{""stimulus"":""img/red_ll/7.jpg"",""time"":357},{""stimulus"":""img/red_ll/8.jpg"",""time"":408},{""stimulus"":""img/red_ll/9.jpg"",""time"":459},{""stimulus"":""img/red_ll/10.jpg"",""time"":509},{""stimulus"":""img/red_ll/11.jpg"",""time"":559}]","[]"
"image-keyboard-response","46","73760","0.0-5.0-1.21","63ed9dbc1c7838ffcbb42142","bdp_lott","Sun Mar 26 2023 13:35:22 GMT-0700 (Pacific Daylight Time)","289825","green","red","","509","","","","choice","","img/red_ll/choose11.jpg","1","204","green","0.5","0.5","0.5","l","",""
"animation","47","74367","0.0-5.0-2.21","63ed9dbc1c7838ffcbb42142","bdp_lott","Sun Mar 26 2023 13:35:22 GMT-0700 (Pacific Daylight Time)","289825","green","red","","","","","","","","","","204","","","","","","[{""stimulus"":""img/green_ll/1.jpg"",""time"":56},{""stimulus"":""img/green_ll/2.jpg"",""time"":105},{""stimulus"":""img/green_ll/3.jpg"",""time"":156},{""stimulus"":""img/green_ll/4.jpg"",""time"":207},{""stimulus"":""img/green_ll/5.jpg"",""time"":258},{""stimulus"":""img/green_ll/6.jpg"",""time"":309},{""stimulus"":""img/green_ll/7.jpg"",""time"":360},{""stimulus"":""img/green_ll/8.jpg"",""time"":410},{""stimulus"":""img/green_ll/9.jpg"",""time"":461},{""stimulus"":""img/green_ll/10.jpg"",""time"":511},{""stimulus"":""img/green_ll/11.jpg"",""time"":562}]","[]"
"image-keyboard-response","48","75128","0.0-5.0-1.22","63ed9dbc1c7838ffcbb42142","bdp_lott","Sun Mar 26 2023 13:35:22 GMT-0700 (Pacific Daylight Time)","289825","green","red","","755","","","","choice","","img/green_ll/choose11.jpg","2","203","red","0.5","0.5","0.5","l","",""
"animation","49","75734","0.0-5.0-2.22","63ed9dbc1c7838ffcbb42142","bdp_lott","Sun Mar 26 2023 13:35:22 GMT-0700 (Pacific Daylight Time)","289825","green","red","","","","","","","","","","203","","","","","","[{""stimulus"":""img/red_ll/1.jpg"",""time"":56},{""stimulus"":""img/red_ll/2.jpg"",""time"":106},{""stimulus"":""img/red_ll/3.jpg"",""time"":156},{""stimulus"":""img/red_ll/4.jpg"",""time"":207},{""stimulus"":""img/red_ll/5.jpg"",""time"":257},{""stimulus"":""img/red_ll/6.jpg"",""time"":307},{""stimulus"":""img/red_ll/7.jpg"",""time"":359},{""stimulus"":""img/red_ll/8.jpg"",""time"":409},{""stimulus"":""img/red_ll/9.jpg"",""time"":459},{""stimulus"":""img/red_ll/10.jpg"",""time"":510},{""stimulus"":""img/red_ll/11.jpg"",""time"":560}]","[]"
"image-keyboard-response","50","76144","0.0-5.0-1.23","63ed9dbc1c7838ffcbb42142","bdp_lott","Sun Mar 26 2023 13:35:22 GMT-0700 (Pacific Daylight Time)","289825","green","red","","404","","","","choice","","img/red_ll/choose11.jpg","1","202","green","0.5","0.5","0.5","w","",""
"animation","51","76752","0.0-5.0-2.23","63ed9dbc1c7838ffcbb42142","bdp_lott","Sun Mar 26 2023 13:35:22 GMT-0700 (Pacific Daylight Time)","289825","green","red","","","","","","","","","","202","","","","","","[{""stimulus"":""img/green_wl/1.jpg"",""time"":57},{""stimulus"":""img/green_wl/2.jpg"",""time"":107},{""stimulus"":""img/green_wl/3.jpg"",""time"":157},{""stimulus"":""img/green_wl/4.jpg"",""time"":208},{""stimulus"":""img/green_wl/5.jpg"",""time"":258},{""stimulus"":""img/green_wl/6.jpg"",""time"":310},{""stimulus"":""img/green_wl/7.jpg"",""time"":360},{""stimulus"":""img/green_wl/8.jpg"",""time"":411},{""stimulus"":""img/green_wl/9.jpg"",""time"":462},{""stimulus"":""img/green_wl/10.jpg"",""time"":512},{""stimulus"":""img/green_wl/11.jpg"",""time"":563}]","[]"
"image-keyboard-response","52","77640","0.0-5.0-1.24","63ed9dbc1c7838ffcbb42142","bdp_lott","Sun Mar 26 2023 13:35:22 GMT-0700 (Pacific Daylight Time)","289825","green","red","","882","","","","choice","","img/green_wl/choose11.jpg","1","201","green","0.5","0.5","0.5","w","",""
"animation","53","78246","0.0-5.0-2.24","63ed9dbc1c7838ffcbb42142","bdp_lott","Sun Mar 26 2023 13:35:22 GMT-0700 (Pacific Daylight Time)","289825","green","red","","","","","","","","","","201","","","","","","[{""stimulus"":""img/green_wl/1.jpg"",""time"":56},{""stimulus"":""img/green_wl/2.jpg"",""time"":104},{""stimulus"":""img/green_wl/3.jpg"",""time"":155},{""stimulus"":""img/green_wl/4.jpg"",""time"":205},{""stimulus"":""img/green_wl/5.jpg"",""time"":256},{""stimulus"":""img/green_wl/6.jpg"",""time"":307},{""stimulus"":""img/green_wl/7.jpg"",""time"":357},{""stimulus"":""img/green_wl/8.jpg"",""time"":406},{""stimulus"":""img/green_wl/9.jpg"",""time"":459},{""stimulus"":""img/green_wl/10.jpg"",""time"":507},{""stimulus"":""img/green_wl/11.jpg"",""time"":558}]","[]"
"image-keyboard-response","54","78864","0.0-5.0-1.25","63ed9dbc1c7838ffcbb42142","bdp_lott","Sun Mar 26 2023 13:35:22 GMT-0700 (Pacific Daylight Time)","289825","green","red","","615","","","","choice","","img/green_wl/choose11.jpg","1","200","green","0.5","0.5","0.5","w","",""
"animation","55","79472","0.0-5.0-2.25","63ed9dbc1c7838ffcbb42142","bdp_lott","Sun Mar 26 2023 13:35:22 GMT-0700 (Pacific Daylight Time)","289825","green","red","","","","","","","","","","200","","","","","","[{""stimulus"":""img/green_wl/1.jpg"",""time"":57},{""stimulus"":""img/green_wl/2.jpg"",""time"":105},{""stimulus"":""img/green_wl/3.jpg"",""time"":157},{""stimulus"":""img/green_wl/4.jpg"",""time"":207},{""stimulus"":""img/green_wl/5.jpg"",""time"":258},{""stimulus"":""img/green_wl/6.jpg"",""time"":309},{""stimulus"":""img/green_wl/7.jpg"",""time"":359},{""stimulus"":""img/green_wl/8.jpg"",""time"":410},{""stimulus"":""img/green_wl/9.jpg"",""time"":462},{""stimulus"":""img/green_wl/10.jpg"",""time"":511},{""stimulus"":""img/green_wl/11.jpg"",""time"":562}]","[]"
"image-keyboard-response","56","79912","0.0-5.0-1.26","63ed9dbc1c7838ffcbb42142","bdp_lott","Sun Mar 26 2023 13:35:22 GMT-0700 (Pacific Daylight Time)","289825","green","red","","435","","","","choice","","img/green_wl/choose11.jpg","1","199","green","0.5","0.5","0.5","w","",""
"animation","57","80520","0.0-5.0-2.26","63ed9dbc1c7838ffcbb42142","bdp_lott","Sun Mar 26 2023 13:35:22 GMT-0700 (Pacific Daylight Time)","289825","green","red","","","","","","","","","","199","","","","","","[{""stimulus"":""img/green_wl/1.jpg"",""time"":56},{""stimulus"":""img/green_wl/2.jpg"",""time"":105},{""stimulus"":""img/green_wl/3.jpg"",""time"":156},{""stimulus"":""img/green_wl/4.jpg"",""time"":206},{""stimulus"":""img/green_wl/5.jpg"",""time"":258},{""stimulus"":""img/green_wl/6.jpg"",""time"":309},{""stimulus"":""img/green_wl/7.jpg"",""time"":360},{""stimulus"":""img/green_wl/8.jpg"",""time"":410},{""stimulus"":""img/green_wl/9.jpg"",""time"":462},{""stimulus"":""img/green_wl/10.jpg"",""time"":511},{""stimulus"":""img/green_wl/11.jpg"",""time"":562}]","[]"
"image-keyboard-response","58","80968","0.0-5.0-1.27","63ed9dbc1c7838ffcbb42142","bdp_lott","Sun Mar 26 2023 13:35:22 GMT-0700 (Pacific Daylight Time)","289825","green","red","","443","","","","choice","","img/green_wl/choose11.jpg","1","198","green","0.5","0.5","0.5","w","",""
"animation","59","81576","0.0-5.0-2.27","63ed9dbc1c7838ffcbb42142","bdp_lott","Sun Mar 26 2023 13:35:22 GMT-0700 (Pacific Daylight Time)","289825","green","red","","","","","","","","","","198","","","","","","[{""stimulus"":""img/green_wl/1.jpg"",""time"":57},{""stimulus"":""img/green_wl/2.jpg"",""time"":106},{""stimulus"":""img/green_wl/3.jpg"",""time"":156},{""stimulus"":""img/green_wl/4.jpg"",""time"":207},{""stimulus"":""img/green_wl/5.jpg"",""time"":259},{""stimulus"":""img/green_wl/6.jpg"",""time"":309},{""stimulus"":""img/green_wl/7.jpg"",""time"":361},{""stimulus"":""img/green_wl/8.jpg"",""time"":411},{""stimulus"":""img/green_wl/9.jpg"",""time"":463},{""stimulus"":""img/green_wl/10.jpg"",""time"":513},{""stimulus"":""img/green_wl/11.jpg"",""time"":562}]","[]"
"image-keyboard-response","60","82064","0.0-5.0-1.28","63ed9dbc1c7838ffcbb42142","bdp_lott","Sun Mar 26 2023 13:35:22 GMT-0700 (Pacific Daylight Time)","289825","green","red","","483","","","","choice","","img/green_wl/choose11.jpg","1","197","green","0.5","0.5","0.5","l","",""
"animation","61","82672","0.0-5.0-2.28","63ed9dbc1c7838ffcbb42142","bdp_lott","Sun Mar 26 2023 13:35:22 GMT-0700 (Pacific Daylight Time)","289825","green","red","","","","","","","","","","197","","","","","","[{""stimulus"":""img/green_ll/1.jpg"",""time"":57},{""stimulus"":""img/green_ll/2.jpg"",""time"":107},{""stimulus"":""img/green_ll/3.jpg"",""time"":157},{""stimulus"":""img/green_ll/4.jpg"",""time"":207},{""stimulus"":""img/green_ll/5.jpg"",""time"":257},{""stimulus"":""img/green_ll/6.jpg"",""time"":308},{""stimulus"":""img/green_ll/7.jpg"",""time"":360},{""stimulus"":""img/green_ll/8.jpg"",""time"":410},{""stimulus"":""img/green_ll/9.jpg"",""time"":461},{""stimulus"":""img/green_ll/10.jpg"",""time"":512},{""stimulus"":""img/green_ll/11.jpg"",""time"":562}]","[]"
"image-keyboard-response","62","83215","0.0-5.0-1.29","63ed9dbc1c7838ffcbb42142","bdp_lott","Sun Mar 26 2023 13:35:22 GMT-0700 (Pacific Daylight Time)","289825","green","red","","537","","","","choice","","img/green_ll/choose11.jpg","2","196","red","0.5","0.5","0.5","l","",""
"animation","63","83822","0.0-5.0-2.29","63ed9dbc1c7838ffcbb42142","bdp_lott","Sun Mar 26 2023 13:35:22 GMT-0700 (Pacific Daylight Time)","289825","green","red","","","","","","","","","","196","","","","","","[{""stimulus"":""img/red_ll/1.jpg"",""time"":55},{""stimulus"":""img/red_ll/2.jpg"",""time"":107},{""stimulus"":""img/red_ll/3.jpg"",""time"":158},{""stimulus"":""img/red_ll/4.jpg"",""time"":209},{""stimulus"":""img/red_ll/5.jpg"",""time"":258},{""stimulus"":""img/red_ll/6.jpg"",""time"":309},{""stimulus"":""img/red_ll/7.jpg"",""time"":360},{""stimulus"":""img/red_ll/8.jpg"",""time"":410},{""stimulus"":""img/red_ll/9.jpg"",""time"":461},{""stimulus"":""img/red_ll/10.jpg"",""time"":512},{""stimulus"":""img/red_ll/11.jpg"",""time"":562}]","[]"
"image-keyboard-response","64","84208","0.0-5.0-1.30","63ed9dbc1c7838ffcbb42142","bdp_lott","Sun Mar 26 2023 13:35:22 GMT-0700 (Pacific Daylight Time)","289825","green","red","","380","","","","choice","","img/red_ll/choose11.jpg","1","195","green","0.5","0.5","0.5","l","",""
"animation","65","84815","0.0-5.0-2.30","63ed9dbc1c7838ffcbb42142","bdp_lott","Sun Mar 26 2023 13:35:22 GMT-0700 (Pacific Daylight Time)","289825","green","red","","","","","","","","","","195","","","","","","[{""stimulus"":""img/green_ll/1.jpg"",""time"":56},{""stimulus"":""img/green_ll/2.jpg"",""time"":106},{""stimulus"":""img/green_ll/3.jpg"",""time"":157},{""stimulus"":""img/green_ll/4.jpg"",""time"":208},{""stimulus"":""img/green_ll/5.jpg"",""time"":258},{""stimulus"":""img/green_ll/6.jpg"",""time"":306},{""stimulus"":""img/green_ll/7.jpg"",""time"":359},{""stimulus"":""img/green_ll/8.jpg"",""time"":410},{""stimulus"":""img/green_ll/9.jpg"",""time"":460},{""stimulus"":""img/green_ll/10.jpg"",""time"":511},{""stimulus"":""img/green_ll/11.jpg"",""time"":561}]","[]"
"image-keyboard-response","66","85336","0.0-5.0-1.31","63ed9dbc1c7838ffcbb42142","bdp_lott","Sun Mar 26 2023 13:35:22 GMT-0700 (Pacific Daylight Time)","289825","green","red","","515","","","","choice","","img/green_ll/choose11.jpg","2","194","red","0.5","0.5","0.5","l","",""
"animation","67","85943","0.0-5.0-2.31","63ed9dbc1c7838ffcbb42142","bdp_lott","Sun Mar 26 2023 13:35:22 GMT-0700 (Pacific Daylight Time)","289825","green","red","","","","","","","","","","194","","","","","","[{""stimulus"":""img/red_ll/1.jpg"",""time"":56},{""stimulus"":""img/red_ll/2.jpg"",""time"":107},{""stimulus"":""img/red_ll/3.jpg"",""time"":157},{""stimulus"":""img/red_ll/4.jpg"",""time"":209},{""stimulus"":""img/red_ll/5.jpg"",""time"":259},{""stimulus"":""img/red_ll/6.jpg"",""time"":309},{""stimulus"":""img/red_ll/7.jpg"",""time"":361},{""stimulus"":""img/red_ll/8.jpg"",""time"":411},{""stimulus"":""img/red_ll/9.jpg"",""time"":461},{""stimulus"":""img/red_ll/10.jpg"",""time"":512},{""stimulus"":""img/red_ll/11.jpg"",""time"":562}]","[]"
"image-keyboard-response","68","86351","0.0-5.0-1.32","63ed9dbc1c7838ffcbb42142","bdp_lott","Sun Mar 26 2023 13:35:22 GMT-0700 (Pacific Daylight Time)","289825","green","red","","402","","","","choice","","img/red_ll/choose11.jpg","1","193","green","0.5","0.5","0.5","l","",""
"animation","69","86957","0.0-5.0-2.32","63ed9dbc1c7838ffcbb42142","bdp_lott","Sun Mar 26 2023 13:35:22 GMT-0700 (Pacific Daylight Time)","289825","green","red","","","","","","","","","","193","","","","","","[{""stimulus"":""img/green_ll/1.jpg"",""time"":56},{""stimulus"":""img/green_ll/2.jpg"",""time"":105},{""stimulus"":""img/green_ll/3.jpg"",""time"":156},{""stimulus"":""img/green_ll/4.jpg"",""time"":206},{""stimulus"":""img/green_ll/5.jpg"",""time"":256},{""stimulus"":""img/green_ll/6.jpg"",""time"":306},{""stimulus"":""img/green_ll/7.jpg"",""time"":358},{""stimulus"":""img/green_ll/8.jpg"",""time"":408},{""stimulus"":""img/green_ll/9.jpg"",""time"":459},{""stimulus"":""img/green_ll/10.jpg"",""time"":509},{""stimulus"":""img/green_ll/11.jpg"",""time"":561}]","[]"
"image-keyboard-response","70","87448","0.0-5.0-1.33","63ed9dbc1c7838ffcbb42142","bdp_lott","Sun Mar 26 2023 13:35:22 GMT-0700 (Pacific Daylight Time)","289825","green","red","","484","","","","choice","","img/green_ll/choose11.jpg","2","192","red","0.5","0.5","0.5","w","",""
"animation","71","88056","0.0-5.0-2.33","63ed9dbc1c7838ffcbb42142","bdp_lott","Sun Mar 26 2023 13:35:22 GMT-0700 (Pacific Daylight Time)","289825","green","red","","","","","","","","","","192","","","","","","[{""stimulus"":""img/red_lw/1.jpg"",""time"":55},{""stimulus"":""img/red_lw/2.jpg"",""time"":107},{""stimulus"":""img/red_lw/3.jpg"",""time"":157},{""stimulus"":""img/red_lw/4.jpg"",""time"":208},{""stimulus"":""img/red_lw/5.jpg"",""time"":259},{""stimulus"":""img/red_lw/6.jpg"",""time"":309},{""stimulus"":""img/red_lw/7.jpg"",""time"":360},{""stimulus"":""img/red_lw/8.jpg"",""time"":407},{""stimulus"":""img/red_lw/9.jpg"",""time"":459},{""stimulus"":""img/red_lw/10.jpg"",""time"":511},{""stimulus"":""img/red_lw/11.jpg"",""time"":562}]","[]"
"image-keyboard-response","72","88576","0.0-5.0-1.34","63ed9dbc1c7838ffcbb42142","bdp_lott","Sun Mar 26 2023 13:35:22 GMT-0700 (Pacific Daylight Time)","289825","green","red","","515","","","","choice","","img/red_lw/choose11.jpg","2","191","red","0.5","0.5","0.5","w","",""
"animation","73","89181","0.0-5.0-2.34","63ed9dbc1c7838ffcbb42142","bdp_lott","Sun Mar 26 2023 13:35:22 GMT-0700 (Pacific Daylight Time)","289825","green","red","","","","","","","","","","191","","","","","","[{""stimulus"":""img/red_lw/1.jpg"",""time"":55},{""stimulus"":""img/red_lw/2.jpg"",""time"":105},{""stimulus"":""img/red_lw/3.jpg"",""time"":154},{""stimulus"":""img/red_lw/4.jpg"",""time"":206},{""stimulus"":""img/red_lw/5.jpg"",""time"":257},{""stimulus"":""img/red_lw/6.jpg"",""time"":308},{""stimulus"":""img/red_lw/7.jpg"",""time"":358},{""stimulus"":""img/red_lw/8.jpg"",""time"":408},{""stimulus"":""img/red_lw/9.jpg"",""time"":459},{""stimulus"":""img/red_lw/10.jpg"",""time"":510},{""stimulus"":""img/red_lw/11.jpg"",""time"":560}]","[]"
"image-keyboard-response","74","89536","0.0-5.0-1.35","63ed9dbc1c7838ffcbb42142","bdp_lott","Sun Mar 26 2023 13:35:22 GMT-0700 (Pacific Daylight Time)","289825","green","red","","349","","","","choice","","img/red_lw/choose11.jpg","2","190","red","0.5","0.5","0.5","l","",""
"animation","75","90141","0.0-5.0-2.35","63ed9dbc1c7838ffcbb42142","bdp_lott","Sun Mar 26 2023 13:35:22 GMT-0700 (Pacific Daylight Time)","289825","green","red","","","","","","","","","","190","","","","","","[{""stimulus"":""img/red_ll/1.jpg"",""time"":56},{""stimulus"":""img/red_ll/2.jpg"",""time"":106},{""stimulus"":""img/red_ll/3.jpg"",""time"":155},{""stimulus"":""img/red_ll/4.jpg"",""time"":206},{""stimulus"":""img/red_ll/5.jpg"",""time"":255},{""stimulus"":""img/red_ll/6.jpg"",""time"":308},{""stimulus"":""img/red_ll/7.jpg"",""time"":358},{""stimulus"":""img/red_ll/8.jpg"",""time"":408},{""stimulus"":""img/red_ll/9.jpg"",""time"":459},{""stimulus"":""img/red_ll/10.jpg"",""time"":509},{""stimulus"":""img/red_ll/11.jpg"",""time"":560}]","[]"
"image-keyboard-response","76","90704","0.0-5.0-1.36","63ed9dbc1c7838ffcbb42142","bdp_lott","Sun Mar 26 2023 13:35:22 GMT-0700 (Pacific Daylight Time)","289825","green","red","","557","","","","choice","","img/red_ll/choose11.jpg","1","189","green","0.5","0.5","0.5","l","",""
"animation","77","91309","0.0-5.0-2.36","63ed9dbc1c7838ffcbb42142","bdp_lott","Sun Mar 26 2023 13:35:22 GMT-0700 (Pacific Daylight Time)","289825","green","red","","","","","","","","","","189","","","","","","[{""stimulus"":""img/green_ll/1.jpg"",""time"":57},{""stimulus"":""img/green_ll/2.jpg"",""time"":107},{""stimulus"":""img/green_ll/3.jpg"",""time"":156},{""stimulus"":""img/green_ll/4.jpg"",""time"":207},{""stimulus"":""img/green_ll/5.jpg"",""time"":258},{""stimulus"":""img/green_ll/6.jpg"",""time"":308},{""stimulus"":""img/green_ll/7.jpg"",""time"":358},{""stimulus"":""img/green_ll/8.jpg"",""time"":408},{""stimulus"":""img/green_ll/9.jpg"",""time"":459},{""stimulus"":""img/green_ll/10.jpg"",""time"":509},{""stimulus"":""img/green_ll/11.jpg"",""time"":560}]","[]"
"image-keyboard-response","78","91664","0.0-5.0-1.37","63ed9dbc1c7838ffcbb42142","bdp_lott","Sun Mar 26 2023 13:35:22 GMT-0700 (Pacific Daylight Time)","289825","green","red","","348","","","","choice","","img/green_ll/choose11.jpg","1","188","green","0.5","0.5","0.5","l","",""
"animation","79","92272","0.0-5.0-2.37","63ed9dbc1c7838ffcbb42142","bdp_lott","Sun Mar 26 2023 13:35:22 GMT-0700 (Pacific Daylight Time)","289825","green","red","","","","","","","","","","188","","","","","","[{""stimulus"":""img/green_ll/1.jpg"",""time"":56},{""stimulus"":""img/green_ll/2.jpg"",""time"":106},{""stimulus"":""img/green_ll/3.jpg"",""time"":157},{""stimulus"":""img/green_ll/4.jpg"",""time"":208},{""stimulus"":""img/green_ll/5.jpg"",""time"":259},{""stimulus"":""img/green_ll/6.jpg"",""time"":310},{""stimulus"":""img/green_ll/7.jpg"",""time"":361},{""stimulus"":""img/green_ll/8.jpg"",""time"":411},{""stimulus"":""img/green_ll/9.jpg"",""time"":461},{""stimulus"":""img/green_ll/10.jpg"",""time"":513},{""stimulus"":""img/green_ll/11.jpg"",""time"":563}]","[]"
"image-keyboard-response","80","92751","0.0-5.0-1.38","63ed9dbc1c7838ffcbb42142","bdp_lott","Sun Mar 26 2023 13:35:22 GMT-0700 (Pacific Daylight Time)","289825","green","red","","473","","","","choice","","img/green_ll/choose11.jpg","2","187","red","0.5","0.5","0.5","w","",""
"animation","81","93355","0.0-5.0-2.38","63ed9dbc1c7838ffcbb42142","bdp_lott","Sun Mar 26 2023 13:35:22 GMT-0700 (Pacific Daylight Time)","289825","green","red","","","","","","","","","","187","","","","","","[{""stimulus"":""img/red_lw/1.jpg"",""time"":56},{""stimulus"":""img/red_lw/2.jpg"",""time"":107},{""stimulus"":""img/red_lw/3.jpg"",""time"":157},{""stimulus"":""img/red_lw/4.jpg"",""time"":208},{""stimulus"":""img/red_lw/5.jpg"",""time"":258},{""stimulus"":""img/red_lw/6.jpg"",""time"":307},{""stimulus"":""img/red_lw/7.jpg"",""time"":358},{""stimulus"":""img/red_lw/8.jpg"",""time"":409},{""stimulus"":""img/red_lw/9.jpg"",""time"":459},{""stimulus"":""img/red_lw/10.jpg"",""time"":509},{""stimulus"":""img/red_lw/11.jpg"",""time"":559}]","[]"
"image-keyboard-response","82","93880","0.0-5.0-1.39","63ed9dbc1c7838ffcbb42142","bdp_lott","Sun Mar 26 2023 13:35:22 GMT-0700 (Pacific Daylight Time)","289825","green","red","","519","","","","choice","","img/red_lw/choose11.jpg","2","186","red","0.5","0.5","0.5","w","",""
"animation","83","94486","0.0-5.0-2.39","63ed9dbc1c7838ffcbb42142","bdp_lott","Sun Mar 26 2023 13:35:22 GMT-0700 (Pacific Daylight Time)","289825","green","red","","","","","","","","","","186","","","","","","[{""stimulus"":""img/red_lw/1.jpg"",""time"":56},{""stimulus"":""img/red_lw/2.jpg"",""time"":107},{""stimulus"":""img/red_lw/3.jpg"",""time"":156},{""stimulus"":""img/red_lw/4.jpg"",""time"":208},{""stimulus"":""img/red_lw/5.jpg"",""time"":258},{""stimulus"":""img/red_lw/6.jpg"",""time"":308},{""stimulus"":""img/red_lw/7.jpg"",""time"":358},{""stimulus"":""img/red_lw/8.jpg"",""time"":409},{""stimulus"":""img/red_lw/9.jpg"",""time"":460},{""stimulus"":""img/red_lw/10.jpg"",""time"":509},{""stimulus"":""img/red_lw/11.jpg"",""time"":561}]","[]"
"image-keyboard-response","84","94864","0.0-5.0-1.40","63ed9dbc1c7838ffcbb42142","bdp_lott","Sun Mar 26 2023 13:35:22 GMT-0700 (Pacific Daylight Time)","289825","green","red","","372","","","","choice","","img/red_lw/choose11.jpg","2","185","red","0.5","0.5","0.5","l","",""
"animation","85","95470","0.0-5.0-2.40","63ed9dbc1c7838ffcbb42142","bdp_lott","Sun Mar 26 2023 13:35:22 GMT-0700 (Pacific Daylight Time)","289825","green","red","","","","","","","","","","185","","","","","","[{""stimulus"":""img/red_ll/1.jpg"",""time"":56},{""stimulus"":""img/red_ll/2.jpg"",""time"":106},{""stimulus"":""img/red_ll/3.jpg"",""time"":156},{""stimulus"":""img/red_ll/4.jpg"",""time"":207},{""stimulus"":""img/red_ll/5.jpg"",""time"":257},{""stimulus"":""img/red_ll/6.jpg"",""time"":308},{""stimulus"":""img/red_ll/7.jpg"",""time"":358},{""stimulus"":""img/red_ll/8.jpg"",""time"":408},{""stimulus"":""img/red_ll/9.jpg"",""time"":460},{""stimulus"":""img/red_ll/10.jpg"",""time"":510},{""stimulus"":""img/red_ll/11.jpg"",""time"":561}]","[]"
"image-keyboard-response","86","95911","0.0-5.0-1.41","63ed9dbc1c7838ffcbb42142","bdp_lott","Sun Mar 26 2023 13:35:22 GMT-0700 (Pacific Daylight Time)","289825","green","red","","435","","","","choice","","img/red_ll/choose11.jpg","1","184","green","0.5","0.5","0.5","w","",""
"animation","87","96519","0.0-5.0-2.41","63ed9dbc1c7838ffcbb42142","bdp_lott","Sun Mar 26 2023 13:35:22 GMT-0700 (Pacific Daylight Time)","289825","green","red","","","","","","","","","","184","","","","","","[{""stimulus"":""img/green_wl/1.jpg"",""time"":56},{""stimulus"":""img/green_wl/2.jpg"",""time"":106},{""stimulus"":""img/green_wl/3.jpg"",""time"":157},{""stimulus"":""img/green_wl/4.jpg"",""time"":207},{""stimulus"":""img/green_wl/5.jpg"",""time"":258},{""stimulus"":""img/green_wl/6.jpg"",""time"":308},{""stimulus"":""img/green_wl/7.jpg"",""time"":360},{""stimulus"":""img/green_wl/8.jpg"",""time"":410},{""stimulus"":""img/green_wl/9.jpg"",""time"":462},{""stimulus"":""img/green_wl/10.jpg"",""time"":511},{""stimulus"":""img/green_wl/11.jpg"",""time"":563}]","[]"
"image-keyboard-response","88","97024","0.0-5.0-1.42","63ed9dbc1c7838ffcbb42142","bdp_lott","Sun Mar 26 2023 13:35:22 GMT-0700 (Pacific Daylight Time)","289825","green","red","","498","","","","choice","","img/green_wl/choose11.jpg","1","183","green","0.5","0.5","0.5","l","",""
"animation","89","97631","0.0-5.0-2.42","63ed9dbc1c7838ffcbb42142","bdp_lott","Sun Mar 26 2023 13:35:22 GMT-0700 (Pacific Daylight Time)","289825","green","red","","","","","","","","","","183","","","","","","[{""stimulus"":""img/green_ll/1.jpg"",""time"":57},{""stimulus"":""img/green_ll/2.jpg"",""time"":107},{""stimulus"":""img/green_ll/3.jpg"",""time"":159},{""stimulus"":""img/green_ll/4.jpg"",""time"":210},{""stimulus"":""img/green_ll/5.jpg"",""time"":259},{""stimulus"":""img/green_ll/6.jpg"",""time"":310},{""stimulus"":""img/green_ll/7.jpg"",""time"":361},{""stimulus"":""img/green_ll/8.jpg"",""time"":411},{""stimulus"":""img/green_ll/9.jpg"",""time"":461},{""stimulus"":""img/green_ll/10.jpg"",""time"":511},{""stimulus"":""img/green_ll/11.jpg"",""time"":563}]","[]"
"image-keyboard-response","90","98280","0.0-5.0-1.43","63ed9dbc1c7838ffcbb42142","bdp_lott","Sun Mar 26 2023 13:35:22 GMT-0700 (Pacific Daylight Time)","289825","green","red","","643","","","","choice","","img/green_ll/choose11.jpg","2","182","red","0.5","0.5","0.5","l","",""
"animation","91","98887","0.0-5.0-2.43","63ed9dbc1c7838ffcbb42142","bdp_lott","Sun Mar 26 2023 13:35:22 GMT-0700 (Pacific Daylight Time)","289825","green","red","","","","","","","","","","182","","","","","","[{""stimulus"":""img/red_ll/1.jpg"",""time"":56},{""stimulus"":""img/red_ll/2.jpg"",""time"":107},{""stimulus"":""img/red_ll/3.jpg"",""time"":157},{""stimulus"":""img/red_ll/4.jpg"",""time"":208},{""stimulus"":""img/red_ll/5.jpg"",""time"":259},{""stimulus"":""img/red_ll/6.jpg"",""time"":308},{""stimulus"":""img/red_ll/7.jpg"",""time"":359},{""stimulus"":""img/red_ll/8.jpg"",""time"":410},{""stimulus"":""img/red_ll/9.jpg"",""time"":461},{""stimulus"":""img/red_ll/10.jpg"",""time"":511},{""stimulus"":""img/red_ll/11.jpg"",""time"":561}]","[]"
"image-keyboard-response","92","99167","0.0-5.0-1.44","63ed9dbc1c7838ffcbb42142","bdp_lott","Sun Mar 26 2023 13:35:22 GMT-0700 (Pacific Daylight Time)","289825","green","red","","274","","","","choice","","img/red_ll/choose11.jpg","1","181","green","0.5","0.5","0.5","w","",""
"animation","93","99774","0.0-5.0-2.44","63ed9dbc1c7838ffcbb42142","bdp_lott","Sun Mar 26 2023 13:35:22 GMT-0700 (Pacific Daylight Time)","289825","green","red","","","","","","","","","","181","","","","","","[{""stimulus"":""img/green_wl/1.jpg"",""time"":56},{""stimulus"":""img/green_wl/2.jpg"",""time"":106},{""stimulus"":""img/green_wl/3.jpg"",""time"":156},{""stimulus"":""img/green_wl/4.jpg"",""time"":208},{""stimulus"":""img/green_wl/5.jpg"",""time"":258},{""stimulus"":""img/green_wl/6.jpg"",""time"":309},{""stimulus"":""img/green_wl/7.jpg"",""time"":358},{""stimulus"":""img/green_wl/8.jpg"",""time"":410},{""stimulus"":""img/green_wl/9.jpg"",""time"":461},{""stimulus"":""img/green_wl/10.jpg"",""time"":511},{""stimulus"":""img/green_wl/11.jpg"",""time"":560}]","[]"
"image-keyboard-response","94","100264","0.0-5.0-1.45","63ed9dbc1c7838ffcbb42142","bdp_lott","Sun Mar 26 2023 13:35:22 GMT-0700 (Pacific Daylight Time)","289825","green","red","","485","","","","choice","","img/green_wl/choose11.jpg","1","180","green","0.5","0.5","0.5","w","",""
"animation","95","100874","0.0-5.0-2.45","63ed9dbc1c7838ffcbb42142","bdp_lott","Sun Mar 26 2023 13:35:22 GMT-0700 (Pacific Daylight Time)","289825","green","red","","","","","","","","","","180","","","","","","[{""stimulus"":""img/green_wl/1.jpg"",""time"":56},{""stimulus"":""img/green_wl/2.jpg"",""time"":107},{""stimulus"":""img/green_wl/3.jpg"",""time"":157},{""stimulus"":""img/green_wl/4.jpg"",""time"":209},{""stimulus"":""img/green_wl/5.jpg"",""time"":260},{""stimulus"":""img/green_wl/6.jpg"",""time"":311},{""stimulus"":""img/green_wl/7.jpg"",""time"":361},{""stimulus"":""img/green_wl/8.jpg"",""time"":411},{""stimulus"":""img/green_wl/9.jpg"",""time"":463},{""stimulus"":""img/green_wl/10.jpg"",""time"":513},{""stimulus"":""img/green_wl/11.jpg"",""time"":564}]","[]"
"image-keyboard-response","96","101351","0.0-5.0-1.46","63ed9dbc1c7838ffcbb42142","bdp_lott","Sun Mar 26 2023 13:35:22 GMT-0700 (Pacific Daylight Time)","289825","green","red","","472","","","","choice","","img/green_wl/choose11.jpg","2","179","red","0.5","0.5","0.5","l","",""
"animation","97","101957","0.0-5.0-2.46","63ed9dbc1c7838ffcbb42142","bdp_lott","Sun Mar 26 2023 13:35:22 GMT-0700 (Pacific Daylight Time)","289825","green","red","","","","","","","","","","179","","","","","","[{""stimulus"":""img/red_wl/1.jpg"",""time"":56},{""stimulus"":""img/red_wl/2.jpg"",""time"":106},{""stimulus"":""img/red_wl/3.jpg"",""time"":155},{""stimulus"":""img/red_wl/4.jpg"",""time"":205},{""stimulus"":""img/red_wl/5.jpg"",""time"":256},{""stimulus"":""img/red_wl/6.jpg"",""time"":308},{""stimulus"":""img/red_wl/7.jpg"",""time"":359},{""stimulus"":""img/red_wl/8.jpg"",""time"":409},{""stimulus"":""img/red_wl/9.jpg"",""time"":459},{""stimulus"":""img/red_wl/10.jpg"",""time"":510},{""stimulus"":""img/red_wl/11.jpg"",""time"":561}]","[]"
"image-keyboard-response","98","102415","0.0-5.0-1.47","63ed9dbc1c7838ffcbb42142","bdp_lott","Sun Mar 26 2023 13:35:22 GMT-0700 (Pacific Daylight Time)","289825","green","red","","453","","","","choice","","img/red_wl/choose11.jpg","2","178","red","0.5","0.5","0.5","w","",""
"animation","99","103020","0.0-5.0-2.47","63ed9dbc1c7838ffcbb42142","bdp_lott","Sun Mar 26 2023 13:35:22 GMT-0700 (Pacific Daylight Time)","289825","green","red","","","","","","","","","","178","","","","","","[{""stimulus"":""img/red_ww/1.jpg"",""time"":58},{""stimulus"":""img/red_ww/2.jpg"",""time"":107},{""stimulus"":""img/red_ww/3.jpg"",""time"":158},{""stimulus"":""img/red_ww/4.jpg"",""time"":208},{""stimulus"":""img/red_ww/5.jpg"",""time"":258},{""stimulus"":""img/red_ww/6.jpg"",""time"":309},{""stimulus"":""img/red_ww/7.jpg"",""time"":359},{""stimulus"":""img/red_ww/8.jpg"",""time"":410},{""stimulus"":""img/red_ww/9.jpg"",""time"":459},{""stimulus"":""img/red_ww/10.jpg"",""time"":510},{""stimulus"":""img/red_ww/11.jpg"",""time"":560}]","[]"
"image-keyboard-response","100","103599","0.0-5.0-1.48","63ed9dbc1c7838ffcbb42142","bdp_lott","Sun Mar 26 2023 13:35:22 GMT-0700 (Pacific Daylight Time)","289825","green","red","","573","","","","choice","","img/red_ww/choose11.jpg","2","177","red","0.5","0.5","0.5","w","",""
"animation","101","104206","0.0-5.0-2.48","63ed9dbc1c7838ffcbb42142","bdp_lott","Sun Mar 26 2023 13:35:22 GMT-0700 (Pacific Daylight Time)","289825","green","red","","","","","","","","","","177","","","","","","[{""stimulus"":""img/red_ww/1.jpg"",""time"":54},{""stimulus"":""img/red_ww/2.jpg"",""time"":106},{""stimulus"":""img/red_ww/3.jpg"",""time"":157},{""stimulus"":""img/red_ww/4.jpg"",""time"":208},{""stimulus"":""img/red_ww/5.jpg"",""time"":259},{""stimulus"":""img/red_ww/6.jpg"",""time"":310},{""stimulus"":""img/red_ww/7.jpg"",""time"":360},{""stimulus"":""img/red_ww/8.jpg"",""time"":411},{""stimulus"":""img/red_ww/9.jpg"",""time"":460},{""stimulus"":""img/red_ww/10.jpg"",""time"":511},{""stimulus"":""img/red_ww/11.jpg"",""time"":562}]","[]"
"image-keyboard-response","102","104679","0.0-5.0-1.49","63ed9dbc1c7838ffcbb42142","bdp_lott","Sun Mar 26 2023 13:35:22 GMT-0700 (Pacific Daylight Time)","289825","green","red","","467","","","","choice","","img/red_ww/choose11.jpg","2","176","red","0.5","0.5","0.5","l","",""
"animation","103","105284","0.0-5.0-2.49","63ed9dbc1c7838ffcbb42142","bdp_lott","Sun Mar 26 2023 13:35:22 GMT-0700 (Pacific Daylight Time)","289825","green","red","","","","","","","","","","176","","","","","","[{""stimulus"":""img/red_wl/1.jpg"",""time"":55},{""stimulus"":""img/red_wl/2.jpg"",""time"":105},{""stimulus"":""img/red_wl/3.jpg"",""time"":155},{""stimulus"":""img/red_wl/4.jpg"",""time"":206},{""stimulus"":""img/red_wl/5.jpg"",""time"":256},{""stimulus"":""img/red_wl/6.jpg"",""time"":307},{""stimulus"":""img/red_wl/7.jpg"",""time"":356},{""stimulus"":""img/red_wl/8.jpg"",""time"":408},{""stimulus"":""img/red_wl/9.jpg"",""time"":458},{""stimulus"":""img/red_wl/10.jpg"",""time"":509},{""stimulus"":""img/red_wl/11.jpg"",""time"":559}]","[]"
"image-keyboard-response","104","105655","0.0-5.0-1.50","63ed9dbc1c7838ffcbb42142","bdp_lott","Sun Mar 26 2023 13:35:22 GMT-0700 (Pacific Daylight Time)","289825","green","red","","366","","","","choice","","img/red_wl/choose11.jpg","1","175","green","0.5","0.5","0.5","l","",""
"animation","105","106262","0.0-5.0-2.50","63ed9dbc1c7838ffcbb42142","bdp_lott","Sun Mar 26 2023 13:35:22 GMT-0700 (Pacific Daylight Time)","289825","green","red","","","","","","","","","","175","","","","","","[{""stimulus"":""img/green_ll/1.jpg"",""time"":57},{""stimulus"":""img/green_ll/2.jpg"",""time"":107},{""stimulus"":""img/green_ll/3.jpg"",""time"":156},{""stimulus"":""img/green_ll/4.jpg"",""time"":208},{""stimulus"":""img/green_ll/5.jpg"",""time"":259},{""stimulus"":""img/green_ll/6.jpg"",""time"":309},{""stimulus"":""img/green_ll/7.jpg"",""time"":360},{""stimulus"":""img/green_ll/8.jpg"",""time"":409},{""stimulus"":""img/green_ll/9.jpg"",""time"":461},{""stimulus"":""img/green_ll/10.jpg"",""time"":512},{""stimulus"":""img/green_ll/11.jpg"",""time"":562}]","[]"
"image-keyboard-response","106","106767","0.0-5.0-1.51","63ed9dbc1c7838ffcbb42142","bdp_lott","Sun Mar 26 2023 13:35:22 GMT-0700 (Pacific Daylight Time)","289825","green","red","","500","","","","choice","","img/green_ll/choose11.jpg","2","174","red","0.5","0.5","0.5","l","",""
"animation","107","107375","0.0-5.0-2.51","63ed9dbc1c7838ffcbb42142","bdp_lott","Sun Mar 26 2023 13:35:22 GMT-0700 (Pacific Daylight Time)","289825","green","red","","","","","","","","","","174","","","","","","[{""stimulus"":""img/red_ll/1.jpg"",""time"":56},{""stimulus"":""img/red_ll/2.jpg"",""time"":106},{""stimulus"":""img/red_ll/3.jpg"",""time"":156},{""stimulus"":""img/red_ll/4.jpg"",""time"":207},{""stimulus"":""img/red_ll/5.jpg"",""time"":258},{""stimulus"":""img/red_ll/6.jpg"",""time"":309},{""stimulus"":""img/red_ll/7.jpg"",""time"":359},{""stimulus"":""img/red_ll/8.jpg"",""time"":409},{""stimulus"":""img/red_ll/9.jpg"",""time"":459},{""stimulus"":""img/red_ll/10.jpg"",""time"":511},{""stimulus"":""img/red_ll/11.jpg"",""time"":561}]","[]"
"image-keyboard-response","108","107735","0.0-5.0-1.52","63ed9dbc1c7838ffcbb42142","bdp_lott","Sun Mar 26 2023 13:35:22 GMT-0700 (Pacific Daylight Time)","289825","green","red","","355","","","","choice","","img/red_ll/choose11.jpg","2","173","red","0.5","0.5","0.5","l","",""
"animation","109","108342","0.0-5.0-2.52","63ed9dbc1c7838ffcbb42142","bdp_lott","Sun Mar 26 2023 13:35:22 GMT-0700 (Pacific Daylight Time)","289825","green","red","","","","","","","","","","173","","","","","","[{""stimulus"":""img/red_ll/1.jpg"",""time"":56},{""stimulus"":""img/red_ll/2.jpg"",""time"":106},{""stimulus"":""img/red_ll/3.jpg"",""time"":155},{""stimulus"":""img/red_ll/4.jpg"",""time"":206},{""stimulus"":""img/red_ll/5.jpg"",""time"":258},{""stimulus"":""img/red_ll/6.jpg"",""time"":310},{""stimulus"":""img/red_ll/7.jpg"",""time"":360},{""stimulus"":""img/red_ll/8.jpg"",""time"":410},{""stimulus"":""img/red_ll/9.jpg"",""time"":460},{""stimulus"":""img/red_ll/10.jpg"",""time"":510},{""stimulus"":""img/red_ll/11.jpg"",""time"":562}]","[]"
"image-keyboard-response","110","108870","0.0-5.0-1.53","63ed9dbc1c7838ffcbb42142","bdp_lott","Sun Mar 26 2023 13:35:22 GMT-0700 (Pacific Daylight Time)","289825","green","red","","523","","","","choice","","img/red_ll/choose11.jpg","1","172","green","0.5","0.5","0.5","w","",""
"animation","111","109479","0.0-5.0-2.53","63ed9dbc1c7838ffcbb42142","bdp_lott","Sun Mar 26 2023 13:35:22 GMT-0700 (Pacific Daylight Time)","289825","green","red","","","","","","","","","","172","","","","","","[{""stimulus"":""img/green_wl/1.jpg"",""time"":55},{""stimulus"":""img/green_wl/2.jpg"",""time"":105},{""stimulus"":""img/green_wl/3.jpg"",""time"":155},{""stimulus"":""img/green_wl/4.jpg"",""time"":207},{""stimulus"":""img/green_wl/5.jpg"",""time"":258},{""stimulus"":""img/green_wl/6.jpg"",""time"":308},{""stimulus"":""img/green_wl/7.jpg"",""time"":359},{""stimulus"":""img/green_wl/8.jpg"",""time"":410},{""stimulus"":""img/green_wl/9.jpg"",""time"":461},{""stimulus"":""img/green_wl/10.jpg"",""time"":513},{""stimulus"":""img/green_wl/11.jpg"",""time"":563}]","[]"
"image-keyboard-response","112","109975","0.0-5.0-1.54","63ed9dbc1c7838ffcbb42142","bdp_lott","Sun Mar 26 2023 13:35:22 GMT-0700 (Pacific Daylight Time)","289825","green","red","","490","","","","choice","","img/green_wl/choose11.jpg","1","171","green","0.5","0.5","0.5","l","",""
"animation","113","110581","0.0-5.0-2.54","63ed9dbc1c7838ffcbb42142","bdp_lott","Sun Mar 26 2023 13:35:22 GMT-0700 (Pacific Daylight Time)","289825","green","red","","","","","","","","","","171","","","","","","[{""stimulus"":""img/green_ll/1.jpg"",""time"":56},{""stimulus"":""img/green_ll/2.jpg"",""time"":106},{""stimulus"":""img/green_ll/3.jpg"",""time"":157},{""stimulus"":""img/green_ll/4.jpg"",""time"":208},{""stimulus"":""img/green_ll/5.jpg"",""time"":258},{""stimulus"":""img/green_ll/6.jpg"",""time"":308},{""stimulus"":""img/green_ll/7.jpg"",""time"":359},{""stimulus"":""img/green_ll/8.jpg"",""time"":409},{""stimulus"":""img/green_ll/9.jpg"",""time"":460},{""stimulus"":""img/green_ll/10.jpg"",""time"":510},{""stimulus"":""img/green_ll/11.jpg"",""time"":560}]","[]"
"image-keyboard-response","114","111407","0.0-5.0-1.55","63ed9dbc1c7838ffcbb42142","bdp_lott","Sun Mar 26 2023 13:35:22 GMT-0700 (Pacific Daylight Time)","289825","green","red","","820","","","","choice","","img/green_ll/choose11.jpg","2","170","red","0.5","0.5","0.5","w","",""
"animation","115","112014","0.0-5.0-2.55","63ed9dbc1c7838ffcbb42142","bdp_lott","Sun Mar 26 2023 13:35:22 GMT-0700 (Pacific Daylight Time)","289825","green","red","","","","","","","","","","170","","","","","","[{""stimulus"":""img/red_lw/1.jpg"",""time"":56},{""stimulus"":""img/red_lw/2.jpg"",""time"":105},{""stimulus"":""img/red_lw/3.jpg"",""time"":155},{""stimulus"":""img/red_lw/4.jpg"",""time"":207},{""stimulus"":""img/red_lw/5.jpg"",""time"":258},{""stimulus"":""img/red_lw/6.jpg"",""time"":309},{""stimulus"":""img/red_lw/7.jpg"",""time"":360},{""stimulus"":""img/red_lw/8.jpg"",""time"":410},{""stimulus"":""img/red_lw/9.jpg"",""time"":460},{""stimulus"":""img/red_lw/10.jpg"",""time"":511},{""stimulus"":""img/red_lw/11.jpg"",""time"":561}]","[]"
"image-keyboard-response","116","112439","0.0-5.0-1.56","63ed9dbc1c7838ffcbb42142","bdp_lott","Sun Mar 26 2023 13:35:22 GMT-0700 (Pacific Daylight Time)","289825","green","red","","419","","","","choice","","img/red_lw/choose11.jpg","2","169","red","0.5","0.5","0.5","w","",""
"animation","117","113047","0.0-5.0-2.56","63ed9dbc1c7838ffcbb42142","bdp_lott","Sun Mar 26 2023 13:35:22 GMT-0700 (Pacific Daylight Time)","289825","green","red","","","","","","","","","","169","","","","","","[{""stimulus"":""img/red_lw/1.jpg"",""time"":56},{""stimulus"":""img/red_lw/2.jpg"",""time"":106},{""stimulus"":""img/red_lw/3.jpg"",""time"":157},{""stimulus"":""img/red_lw/4.jpg"",""time"":208},{""stimulus"":""img/red_lw/5.jpg"",""time"":259},{""stimulus"":""img/red_lw/6.jpg"",""time"":309},{""stimulus"":""img/red_lw/7.jpg"",""time"":360},{""stimulus"":""img/red_lw/8.jpg"",""time"":410},{""stimulus"":""img/red_lw/9.jpg"",""time"":461},{""stimulus"":""img/red_lw/10.jpg"",""time"":512},{""stimulus"":""img/red_lw/11.jpg"",""time"":563}]","[]"
"image-keyboard-response","118","113471","0.0-5.0-1.57","63ed9dbc1c7838ffcbb42142","bdp_lott","Sun Mar 26 2023 13:35:22 GMT-0700 (Pacific Daylight Time)","289825","green","red","","420","","","","choice","","img/red_lw/choose11.jpg","2","168","red","0.5","0.5","0.5","w","",""
"animation","119","114078","0.0-5.0-2.57","63ed9dbc1c7838ffcbb42142","bdp_lott","Sun Mar 26 2023 13:35:22 GMT-0700 (Pacific Daylight Time)","289825","green","red","","","","","","","","","","168","","","","","","[{""stimulus"":""img/red_lw/1.jpg"",""time"":56},{""stimulus"":""img/red_lw/2.jpg"",""time"":106},{""stimulus"":""img/red_lw/3.jpg"",""time"":155},{""stimulus"":""img/red_lw/4.jpg"",""time"":206},{""stimulus"":""img/red_lw/5.jpg"",""time"":257},{""stimulus"":""img/red_lw/6.jpg"",""time"":308},{""stimulus"":""img/red_lw/7.jpg"",""time"":359},{""stimulus"":""img/red_lw/8.jpg"",""time"":409},{""stimulus"":""img/red_lw/9.jpg"",""time"":458},{""stimulus"":""img/red_lw/10.jpg"",""time"":508},{""stimulus"":""img/red_lw/11.jpg"",""time"":559}]","[]"
"image-keyboard-response","120","114742","0.0-5.0-1.58","63ed9dbc1c7838ffcbb42142","bdp_lott","Sun Mar 26 2023 13:35:22 GMT-0700 (Pacific Daylight Time)","289825","green","red","","660","","","","choice","","img/red_lw/choose11.jpg","1","167","green","0.5","0.5","0.5","w","",""
"animation","121","115353","0.0-5.0-2.58","63ed9dbc1c7838ffcbb42142","bdp_lott","Sun Mar 26 2023 13:35:22 GMT-0700 (Pacific Daylight Time)","289825","green","red","","","","","","","","","","167","","","","","","[{""stimulus"":""img/green_ww/1.jpg"",""time"":57},{""stimulus"":""img/green_ww/2.jpg"",""time"":108},{""stimulus"":""img/green_ww/3.jpg"",""time"":158},{""stimulus"":""img/green_ww/4.jpg"",""time"":209},{""stimulus"":""img/green_ww/5.jpg"",""time"":260},{""stimulus"":""img/green_ww/6.jpg"",""time"":310},{""stimulus"":""img/green_ww/7.jpg"",""time"":362},{""stimulus"":""img/green_ww/8.jpg"",""time"":413},{""stimulus"":""img/green_ww/9.jpg"",""time"":464},{""stimulus"":""img/green_ww/10.jpg"",""time"":514},{""stimulus"":""img/green_ww/11.jpg"",""time"":564}]","[]"
"image-keyboard-response","122","116238","0.0-5.0-1.59","63ed9dbc1c7838ffcbb42142","bdp_lott","Sun Mar 26 2023 13:35:22 GMT-0700 (Pacific Daylight Time)","289825","green","red","","879","","","","choice","","img/green_ww/choose11.jpg","2","166","red","0.5","0.5","0.5","l","",""
"animation","123","116848","0.0-5.0-2.59","63ed9dbc1c7838ffcbb42142","bdp_lott","Sun Mar 26 2023 13:35:22 GMT-0700 (Pacific Daylight Time)","289825","green","red","","","","","","","","","","166","","","","","","[{""stimulus"":""img/red_wl/1.jpg"",""time"":54},{""stimulus"":""img/red_wl/2.jpg"",""time"":105},{""stimulus"":""img/red_wl/3.jpg"",""time"":156},{""stimulus"":""img/red_wl/4.jpg"",""time"":207},{""stimulus"":""img/red_wl/5.jpg"",""time"":258},{""stimulus"":""img/red_wl/6.jpg"",""time"":309},{""stimulus"":""img/red_wl/7.jpg"",""time"":360},{""stimulus"":""img/red_wl/8.jpg"",""time"":411},{""stimulus"":""img/red_wl/9.jpg"",""time"":462},{""stimulus"":""img/red_wl/10.jpg"",""time"":512},{""stimulus"":""img/red_wl/11.jpg"",""time"":563}]","[]"
"image-keyboard-response","124","117269","0.0-5.0-1.60","63ed9dbc1c7838ffcbb42142","bdp_lott","Sun Mar 26 2023 13:35:22 GMT-0700 (Pacific Daylight Time)","289825","green","red","","417","","","","choice","","img/red_wl/choose11.jpg","1","165","green","0.5","0.5","0.5","l","",""
"animation","125","117879","0.0-5.0-2.60","63ed9dbc1c7838ffcbb42142","bdp_lott","Sun Mar 26 2023 13:35:22 GMT-0700 (Pacific Daylight Time)","289825","green","red","","","","","","","","","","165","","","","","","[{""stimulus"":""img/green_ll/1.jpg"",""time"":54},{""stimulus"":""img/green_ll/2.jpg"",""time"":105},{""stimulus"":""img/green_ll/3.jpg"",""time"":156},{""stimulus"":""img/green_ll/4.jpg"",""time"":207},{""stimulus"":""img/green_ll/5.jpg"",""time"":258},{""stimulus"":""img/green_ll/6.jpg"",""time"":308},{""stimulus"":""img/green_ll/7.jpg"",""time"":359},{""stimulus"":""img/green_ll/8.jpg"",""time"":410},{""stimulus"":""img/green_ll/9.jpg"",""time"":461},{""stimulus"":""img/green_ll/10.jpg"",""time"":511},{""stimulus"":""img/green_ll/11.jpg"",""time"":562}]","[]"
"image-keyboard-response","126","118261","0.0-5.0-1.61","63ed9dbc1c7838ffcbb42142","bdp_lott","Sun Mar 26 2023 13:35:22 GMT-0700 (Pacific Daylight Time)","289825","green","red","","378","","","","choice","","img/green_ll/choose11.jpg","1","164","green","0.5","0.5","0.5","w","",""
"animation","127","118872","0.0-5.0-2.61","63ed9dbc1c7838ffcbb42142","bdp_lott","Sun Mar 26 2023 13:35:22 GMT-0700 (Pacific Daylight Time)","289825","green","red","","","","","","","","","","164","","","","","","[{""stimulus"":""img/green_wl/1.jpg"",""time"":55},{""stimulus"":""img/green_wl/2.jpg"",""time"":106},{""stimulus"":""img/green_wl/3.jpg"",""time"":157},{""stimulus"":""img/green_wl/4.jpg"",""time"":207},{""stimulus"":""img/green_wl/5.jpg"",""time"":258},{""stimulus"":""img/green_wl/6.jpg"",""time"":309},{""stimulus"":""img/green_wl/7.jpg"",""time"":361},{""stimulus"":""img/green_wl/8.jpg"",""time"":411},{""stimulus"":""img/green_wl/9.jpg"",""time"":462},{""stimulus"":""img/green_wl/10.jpg"",""time"":514},{""stimulus"":""img/green_wl/11.jpg"",""time"":564}]","[]"
"image-keyboard-response","128","119277","0.0-5.0-1.62","63ed9dbc1c7838ffcbb42142","bdp_lott","Sun Mar 26 2023 13:35:22 GMT-0700 (Pacific Daylight Time)","289825","green","red","","401","","","","choice","","img/green_wl/choose11.jpg","1","163","green","0.5","0.5","0.5","l","",""
"animation","129","119887","0.0-5.0-2.62","63ed9dbc1c7838ffcbb42142","bdp_lott","Sun Mar 26 2023 13:35:22 GMT-0700 (Pacific Daylight Time)","289825","green","red","","","","","","","","","","163","","","","","","[{""stimulus"":""img/green_ll/1.jpg"",""time"":54},{""stimulus"":""img/green_ll/2.jpg"",""time"":104},{""stimulus"":""img/green_ll/3.jpg"",""time"":156},{""stimulus"":""img/green_ll/4.jpg"",""time"":207},{""stimulus"":""img/green_ll/5.jpg"",""time"":258},{""stimulus"":""img/green_ll/6.jpg"",""time"":309},{""stimulus"":""img/green_ll/7.jpg"",""time"":360},{""stimulus"":""img/green_ll/8.jpg"",""time"":411},{""stimulus"":""img/green_ll/9.jpg"",""time"":462},{""stimulus"":""img/green_ll/10.jpg"",""time"":513},{""stimulus"":""img/green_ll/11.jpg"",""time"":563}]","[]"
"image-keyboard-response","130","120397","0.0-5.0-1.63","63ed9dbc1c7838ffcbb42142","bdp_lott","Sun Mar 26 2023 13:35:22 GMT-0700 (Pacific Daylight Time)","289825","green","red","","506","","","","choice","","img/green_ll/choose11.jpg","2","162","red","0.5","0.5","0.5","w","",""
"animation","131","121008","0.0-5.0-2.63","63ed9dbc1c7838ffcbb42142","bdp_lott","Sun Mar 26 2023 13:35:22 GMT-0700 (Pacific Daylight Time)","289825","green","red","","","","","","","","","","162","","","","","","[{""stimulus"":""img/red_lw/1.jpg"",""time"":54},{""stimulus"":""img/red_lw/2.jpg"",""time"":105},{""stimulus"":""img/red_lw/3.jpg"",""time"":156},{""stimulus"":""img/red_lw/4.jpg"",""time"":207},{""stimulus"":""img/red_lw/5.jpg"",""time"":258},{""stimulus"":""img/red_lw/6.jpg"",""time"":309},{""stimulus"":""img/red_lw/7.jpg"",""time"":361},{""stimulus"":""img/red_lw/8.jpg"",""time"":412},{""stimulus"":""img/red_lw/9.jpg"",""time"":463},{""stimulus"":""img/red_lw/10.jpg"",""time"":513},{""stimulus"":""img/red_lw/11.jpg"",""time"":563}]","[]"
"image-keyboard-response","132","121893","0.0-5.0-1.64","63ed9dbc1c7838ffcbb42142","bdp_lott","Sun Mar 26 2023 13:35:22 GMT-0700 (Pacific Daylight Time)","289825","green","red","","881","","","","choice","","img/red_lw/choose11.jpg","2","161","red","0.5","0.5","0.5","l","",""
"animation","133","122504","0.0-5.0-2.64","63ed9dbc1c7838ffcbb42142","bdp_lott","Sun Mar 26 2023 13:35:22 GMT-0700 (Pacific Daylight Time)","289825","green","red","","","","","","","","","","161","","","","","","[{""stimulus"":""img/red_ll/1.jpg"",""time"":55},{""stimulus"":""img/red_ll/2.jpg"",""time"":106},{""stimulus"":""img/red_ll/3.jpg"",""time"":157},{""stimulus"":""img/red_ll/4.jpg"",""time"":208},{""stimulus"":""img/red_ll/5.jpg"",""time"":259},{""stimulus"":""img/red_ll/6.jpg"",""time"":309},{""stimulus"":""img/red_ll/7.jpg"",""time"":360},{""stimulus"":""img/red_ll/8.jpg"",""time"":411},{""stimulus"":""img/red_ll/9.jpg"",""time"":462},{""stimulus"":""img/red_ll/10.jpg"",""time"":513},{""stimulus"":""img/red_ll/11.jpg"",""time"":564}]","[]"
"image-keyboard-response","134","122877","0.0-5.0-1.65","63ed9dbc1c7838ffcbb42142","bdp_lott","Sun Mar 26 2023 13:35:22 GMT-0700 (Pacific Daylight Time)","289825","green","red","","369","","","","choice","","img/red_ll/choose11.jpg","2","160","red","0.5","0.5","0.5","w","",""
"animation","135","123487","0.0-5.0-2.65","63ed9dbc1c7838ffcbb42142","bdp_lott","Sun Mar 26 2023 13:35:22 GMT-0700 (Pacific Daylight Time)","289825","green","red","","","","","","","","","","160","","","","","","[{""stimulus"":""img/red_lw/1.jpg"",""time"":55},{""stimulus"":""img/red_lw/2.jpg"",""time"":106},{""stimulus"":""img/red_lw/3.jpg"",""time"":157},{""stimulus"":""img/red_lw/4.jpg"",""time"":208},{""stimulus"":""img/red_lw/5.jpg"",""time"":259},{""stimulus"":""img/red_lw/6.jpg"",""time"":309},{""stimulus"":""img/red_lw/7.jpg"",""time"":360},{""stimulus"":""img/red_lw/8.jpg"",""time"":411},{""stimulus"":""img/red_lw/9.jpg"",""time"":461},{""stimulus"":""img/red_lw/10.jpg"",""time"":512},{""stimulus"":""img/red_lw/11.jpg"",""time"":565}]","[]"
"image-keyboard-response","136","124245","0.0-5.0-1.66","63ed9dbc1c7838ffcbb42142","bdp_lott","Sun Mar 26 2023 13:35:22 GMT-0700 (Pacific Daylight Time)","289825","green","red","","754","","","","choice","","img/red_lw/choose11.jpg","2","159","red","0.5","0.5","0.5","w","",""
"animation","137","124854","0.0-5.0-2.66","63ed9dbc1c7838ffcbb42142","bdp_lott","Sun Mar 26 2023 13:35:22 GMT-0700 (Pacific Daylight Time)","289825","green","red","","","","","","","","","","159","","","","","","[{""stimulus"":""img/red_lw/1.jpg"",""time"":54},{""stimulus"":""img/red_lw/2.jpg"",""time"":105},{""stimulus"":""img/red_lw/3.jpg"",""time"":156},{""stimulus"":""img/red_lw/4.jpg"",""time"":206},{""stimulus"":""img/red_lw/5.jpg"",""time"":257},{""stimulus"":""img/red_lw/6.jpg"",""time"":309},{""stimulus"":""img/red_lw/7.jpg"",""time"":359},{""stimulus"":""img/red_lw/8.jpg"",""time"":410},{""stimulus"":""img/red_lw/9.jpg"",""time"":461},{""stimulus"":""img/red_lw/10.jpg"",""time"":512},{""stimulus"":""img/red_lw/11.jpg"",""time"":562}]","[]"
"image-keyboard-response","138","125381","0.0-5.0-1.67","63ed9dbc1c7838ffcbb42142","bdp_lott","Sun Mar 26 2023 13:35:22 GMT-0700 (Pacific Daylight Time)","289825","green","red","","523","","","","choice","","img/red_lw/choose11.jpg","2","158","red","0.5","0.5","0.5","l","",""
"animation","139","125993","0.0-5.0-2.67","63ed9dbc1c7838ffcbb42142","bdp_lott","Sun Mar 26 2023 13:35:22 GMT-0700 (Pacific Daylight Time)","289825","green","red","","","","","","","","","","158","","","","","","[{""stimulus"":""img/red_ll/1.jpg"",""time"":55},{""stimulus"":""img/red_ll/2.jpg"",""time"":106},{""stimulus"":""img/red_ll/3.jpg"",""time"":157},{""stimulus"":""img/red_ll/4.jpg"",""time"":208},{""stimulus"":""img/red_ll/5.jpg"",""time"":259},{""stimulus"":""img/red_ll/6.jpg"",""time"":310},{""stimulus"":""img/red_ll/7.jpg"",""time"":361},{""stimulus"":""img/red_ll/8.jpg"",""time"":412},{""stimulus"":""img/red_ll/9.jpg"",""time"":463},{""stimulus"":""img/red_ll/10.jpg"",""time"":514},{""stimulus"":""img/red_ll/11.jpg"",""time"":563}]","[]"
"image-keyboard-response","140","126509","0.0-5.0-1.68","63ed9dbc1c7838ffcbb42142","bdp_lott","Sun Mar 26 2023 13:35:22 GMT-0700 (Pacific Daylight Time)","289825","green","red","","513","","","","choice","","img/red_ll/choose11.jpg","1","157","green","0.5","0.5","0.5","w","",""
"animation","141","127119","0.0-5.0-2.68","63ed9dbc1c7838ffcbb42142","bdp_lott","Sun Mar 26 2023 13:35:22 GMT-0700 (Pacific Daylight Time)","289825","green","red","","","","","","","","","","157","","","","","","[{""stimulus"":""img/green_wl/1.jpg"",""time"":54},{""stimulus"":""img/green_wl/2.jpg"",""time"":105},{""stimulus"":""img/green_wl/3.jpg"",""time"":157},{""stimulus"":""img/green_wl/4.jpg"",""time"":208},{""stimulus"":""img/green_wl/5.jpg"",""time"":259},{""stimulus"":""img/green_wl/6.jpg"",""time"":310},{""stimulus"":""img/green_wl/7.jpg"",""time"":360},{""stimulus"":""img/green_wl/8.jpg"",""time"":410},{""stimulus"":""img/green_wl/9.jpg"",""time"":461},{""stimulus"":""img/green_wl/10.jpg"",""time"":511},{""stimulus"":""img/green_wl/11.jpg"",""time"":563}]","[]"
"image-keyboard-response","142","127757","0.0-5.0-1.69","63ed9dbc1c7838ffcbb42142","bdp_lott","Sun Mar 26 2023 13:35:22 GMT-0700 (Pacific Daylight Time)","289825","green","red","","634","","","","choice","","img/green_wl/choose11.jpg","1","156","green","0.5","0.5","0.5","l","",""
"animation","143","128371","0.0-5.0-2.69","63ed9dbc1c7838ffcbb42142","bdp_lott","Sun Mar 26 2023 13:35:22 GMT-0700 (Pacific Daylight Time)","289825","green","red","","","","","","","","","","156","","","","","","[{""stimulus"":""img/green_ll/1.jpg"",""time"":57},{""stimulus"":""img/green_ll/2.jpg"",""time"":108},{""stimulus"":""img/green_ll/3.jpg"",""time"":158},{""stimulus"":""img/green_ll/4.jpg"",""time"":210},{""stimulus"":""img/green_ll/5.jpg"",""time"":261},{""stimulus"":""img/green_ll/6.jpg"",""time"":313},{""stimulus"":""img/green_ll/7.jpg"",""time"":364},{""stimulus"":""img/green_ll/8.jpg"",""time"":415},{""stimulus"":""img/green_ll/9.jpg"",""time"":466},{""stimulus"":""img/green_ll/10.jpg"",""time"":517},{""stimulus"":""img/green_ll/11.jpg"",""time"":568}]","[]"
"image-keyboard-response","144","128871","0.0-5.0-1.70","63ed9dbc1c7838ffcbb42142","bdp_lott","Sun Mar 26 2023 13:35:22 GMT-0700 (Pacific Daylight Time)","289825","green","red","","495","","","","choice","","img/green_ll/choose11.jpg","2","155","red","0.5","0.5","0.5","l","",""
"animation","145","129484","0.0-5.0-2.70","63ed9dbc1c7838ffcbb42142","bdp_lott","Sun Mar 26 2023 13:35:22 GMT-0700 (Pacific Daylight Time)","289825","green","red","","","","","","","","","","155","","","","","","[{""stimulus"":""img/red_ll/1.jpg"",""time"":57},{""stimulus"":""img/red_ll/2.jpg"",""time"":107},{""stimulus"":""img/red_ll/3.jpg"",""time"":159},{""stimulus"":""img/red_ll/4.jpg"",""time"":210},{""stimulus"":""img/red_ll/5.jpg"",""time"":261},{""stimulus"":""img/red_ll/6.jpg"",""time"":312},{""stimulus"":""img/red_ll/7.jpg"",""time"":363},{""stimulus"":""img/red_ll/8.jpg"",""time"":415},{""stimulus"":""img/red_ll/9.jpg"",""time"":466},{""stimulus"":""img/red_ll/10.jpg"",""time"":517},{""stimulus"":""img/red_ll/11.jpg"",""time"":568}]","[]"
"image-keyboard-response","146","130015","0.0-5.0-1.71","63ed9dbc1c7838ffcbb42142","bdp_lott","Sun Mar 26 2023 13:35:22 GMT-0700 (Pacific Daylight Time)","289825","green","red","","525","","","","choice","","img/red_ll/choose11.jpg","1","154","green","0.5","0.5","0.5","w","",""
"animation","147","130626","0.0-5.0-2.71","63ed9dbc1c7838ffcbb42142","bdp_lott","Sun Mar 26 2023 13:35:22 GMT-0700 (Pacific Daylight Time)","289825","green","red","","","","","","","","","","154","","","","","","[{""stimulus"":""img/green_wl/1.jpg"",""time"":56},{""stimulus"":""img/green_wl/2.jpg"",""time"":107},{""stimulus"":""img/green_wl/3.jpg"",""time"":158},{""stimulus"":""img/green_wl/4.jpg"",""time"":210},{""stimulus"":""img/green_wl/5.jpg"",""time"":261},{""stimulus"":""img/green_wl/6.jpg"",""time"":312},{""stimulus"":""img/green_wl/7.jpg"",""time"":363},{""stimulus"":""img/green_wl/8.jpg"",""time"":414},{""stimulus"":""img/green_wl/9.jpg"",""time"":465},{""stimulus"":""img/green_wl/10.jpg"",""time"":516},{""stimulus"":""img/green_wl/11.jpg"",""time"":567}]","[]"
"image-keyboard-response","148","131255","0.0-5.0-1.72","63ed9dbc1c7838ffcbb42142","bdp_lott","Sun Mar 26 2023 13:35:22 GMT-0700 (Pacific Daylight Time)","289825","green","red","","623","","","","choice","","img/green_wl/choose11.jpg","2","153","red","0.5","0.5","0.5","w","",""
"animation","149","131866","0.0-5.0-2.72","63ed9dbc1c7838ffcbb42142","bdp_lott","Sun Mar 26 2023 13:35:22 GMT-0700 (Pacific Daylight Time)","289825","green","red","","","","","","","","","","153","","","","","","[{""stimulus"":""img/red_ww/1.jpg"",""time"":57},{""stimulus"":""img/red_ww/2.jpg"",""time"":108},{""stimulus"":""img/red_ww/3.jpg"",""time"":158},{""stimulus"":""img/red_ww/4.jpg"",""time"":211},{""stimulus"":""img/red_ww/5.jpg"",""time"":260},{""stimulus"":""img/red_ww/6.jpg"",""time"":310},{""stimulus"":""img/red_ww/7.jpg"",""time"":361},{""stimulus"":""img/red_ww/8.jpg"",""time"":413},{""stimulus"":""img/red_ww/9.jpg"",""time"":464},{""stimulus"":""img/red_ww/10.jpg"",""time"":515},{""stimulus"":""img/red_ww/11.jpg"",""time"":565}]","[]"
"image-keyboard-response","150","132334","0.0-5.0-1.73","63ed9dbc1c7838ffcbb42142","bdp_lott","Sun Mar 26 2023 13:35:22 GMT-0700 (Pacific Daylight Time)","289825","green","red","","462","","","","choice","","img/red_ww/choose11.jpg","2","152","red","0.5","0.5","0.5","l","",""
"animation","151","132949","0.0-5.0-2.73","63ed9dbc1c7838ffcbb42142","bdp_lott","Sun Mar 26 2023 13:35:22 GMT-0700 (Pacific Daylight Time)","289825","green","red","","","","","","","","","","152","","","","","","[{""stimulus"":""img/red_wl/1.jpg"",""time"":57},{""stimulus"":""img/red_wl/2.jpg"",""time"":108},{""stimulus"":""img/red_wl/3.jpg"",""time"":159},{""stimulus"":""img/red_wl/4.jpg"",""time"":209},{""stimulus"":""img/red_wl/5.jpg"",""time"":261},{""stimulus"":""img/red_wl/6.jpg"",""time"":312},{""stimulus"":""img/red_wl/7.jpg"",""time"":363},{""stimulus"":""img/red_wl/8.jpg"",""time"":415},{""stimulus"":""img/red_wl/9.jpg"",""time"":466},{""stimulus"":""img/red_wl/10.jpg"",""time"":517},{""stimulus"":""img/red_wl/11.jpg"",""time"":568}]","[]"
"image-keyboard-response","152","133446","0.0-5.0-1.74","63ed9dbc1c7838ffcbb42142","bdp_lott","Sun Mar 26 2023 13:35:22 GMT-0700 (Pacific Daylight Time)","289825","green","red","","491","","","","choice","","img/red_wl/choose11.jpg","1","151","green","0.5","0.5","0.5","w","",""
"animation","153","134058","0.0-5.0-2.74","63ed9dbc1c7838ffcbb42142","bdp_lott","Sun Mar 26 2023 13:35:22 GMT-0700 (Pacific Daylight Time)","289825","green","red","","","","","","","","","","151","","","","","","[{""stimulus"":""img/green_wl/1.jpg"",""time"":57},{""stimulus"":""img/green_wl/2.jpg"",""time"":108},{""stimulus"":""img/green_wl/3.jpg"",""time"":159},{""stimulus"":""img/green_wl/4.jpg"",""time"":210},{""stimulus"":""img/green_wl/5.jpg"",""time"":261},{""stimulus"":""img/green_wl/6.jpg"",""time"":312},{""stimulus"":""img/green_wl/7.jpg"",""time"":363},{""stimulus"":""img/green_wl/8.jpg"",""time"":413},{""stimulus"":""img/green_wl/9.jpg"",""time"":464},{""stimulus"":""img/green_wl/10.jpg"",""time"":515},{""stimulus"":""img/green_wl/11.jpg"",""time"":566}]","[]"
"image-keyboard-response","154","134734","0.0-5.0-1.75","63ed9dbc1c7838ffcbb42142","bdp_lott","Sun Mar 26 2023 13:35:22 GMT-0700 (Pacific Daylight Time)","289825","green","red","","670","","","","choice","","img/green_wl/choose11.jpg","2","150","red","0.5","0.5","0.5","w","",""
"animation","155","135345","0.0-5.0-2.75","63ed9dbc1c7838ffcbb42142","bdp_lott","Sun Mar 26 2023 13:35:22 GMT-0700 (Pacific Daylight Time)","289825","green","red","","","","","","","","","","150","","","","","","[{""stimulus"":""img/red_ww/1.jpg"",""time"":57},{""stimulus"":""img/red_ww/2.jpg"",""time"":108},{""stimulus"":""img/red_ww/3.jpg"",""time"":158},{""stimulus"":""img/red_ww/4.jpg"",""time"":209},{""stimulus"":""img/red_ww/5.jpg"",""time"":260},{""stimulus"":""img/red_ww/6.jpg"",""time"":310},{""stimulus"":""img/red_ww/7.jpg"",""time"":362},{""stimulus"":""img/red_ww/8.jpg"",""time"":413},{""stimulus"":""img/red_ww/9.jpg"",""time"":463},{""stimulus"":""img/red_ww/10.jpg"",""time"":514},{""stimulus"":""img/red_ww/11.jpg"",""time"":565}]","[]"
"image-keyboard-response","156","135910","0.0-5.0-1.76","63ed9dbc1c7838ffcbb42142","bdp_lott","Sun Mar 26 2023 13:35:22 GMT-0700 (Pacific Daylight Time)","289825","green","red","","559","","","","choice","","img/red_ww/choose11.jpg","2","149","red","0.5","0.1","0.1","l","",""
"animation","157","136524","0.0-5.0-2.76","63ed9dbc1c7838ffcbb42142","bdp_lott","Sun Mar 26 2023 13:35:22 GMT-0700 (Pacific Daylight Time)","289825","green","red","","","","","","","","","","149","","","","","","[{""stimulus"":""img/red_wl/1.jpg"",""time"":57},{""stimulus"":""img/red_wl/2.jpg"",""time"":108},{""stimulus"":""img/red_wl/3.jpg"",""time"":159},{""stimulus"":""img/red_wl/4.jpg"",""time"":210},{""stimulus"":""img/red_wl/5.jpg"",""time"":261},{""stimulus"":""img/red_wl/6.jpg"",""time"":312},{""stimulus"":""img/red_wl/7.jpg"",""time"":363},{""stimulus"":""img/red_wl/8.jpg"",""time"":414},{""stimulus"":""img/red_wl/9.jpg"",""time"":465},{""stimulus"":""img/red_wl/10.jpg"",""time"":516},{""stimulus"":""img/red_wl/11.jpg"",""time"":568}]","[]"
"image-keyboard-response","158","136830","0.0-5.0-1.77","63ed9dbc1c7838ffcbb42142","bdp_lott","Sun Mar 26 2023 13:35:22 GMT-0700 (Pacific Daylight Time)","289825","green","red","","300","","","","choice","","img/red_wl/choose11.jpg","2","148","red","0.5","0.1","0.1","l","",""
"animation","159","137440","0.0-5.0-2.77","63ed9dbc1c7838ffcbb42142","bdp_lott","Sun Mar 26 2023 13:35:22 GMT-0700 (Pacific Daylight Time)","289825","green","red","","","","","","","","","","148","","","","","","[{""stimulus"":""img/red_wl/1.jpg"",""time"":56},{""stimulus"":""img/red_wl/2.jpg"",""time"":107},{""stimulus"":""img/red_wl/3.jpg"",""time"":157},{""stimulus"":""img/red_wl/4.jpg"",""time"":207},{""stimulus"":""img/red_wl/5.jpg"",""time"":258},{""stimulus"":""img/red_wl/6.jpg"",""time"":309},{""stimulus"":""img/red_wl/7.jpg"",""time"":359},{""stimulus"":""img/red_wl/8.jpg"",""time"":411},{""stimulus"":""img/red_wl/9.jpg"",""time"":462},{""stimulus"":""img/red_wl/10.jpg"",""time"":513},{""stimulus"":""img/red_wl/11.jpg"",""time"":564}]","[]"
"image-keyboard-response","160","137766","0.0-5.0-1.78","63ed9dbc1c7838ffcbb42142","bdp_lott","Sun Mar 26 2023 13:35:22 GMT-0700 (Pacific Daylight Time)","289825","green","red","","320","","","","choice","","img/red_wl/choose11.jpg","1","147","green","0.5","0.1","0.5","l","",""
"animation","161","138378","0.0-5.0-2.78","63ed9dbc1c7838ffcbb42142","bdp_lott","Sun Mar 26 2023 13:35:22 GMT-0700 (Pacific Daylight Time)","289825","green","red","","","","","","","","","","147","","","","","","[{""stimulus"":""img/green_ll/1.jpg"",""time"":56},{""stimulus"":""img/green_ll/2.jpg"",""time"":107},{""stimulus"":""img/green_ll/3.jpg"",""time"":158},{""stimulus"":""img/green_ll/4.jpg"",""time"":209},{""stimulus"":""img/green_ll/5.jpg"",""time"":261},{""stimulus"":""img/green_ll/6.jpg"",""time"":312},{""stimulus"":""img/green_ll/7.jpg"",""time"":363},{""stimulus"":""img/green_ll/8.jpg"",""time"":414},{""stimulus"":""img/green_ll/9.jpg"",""time"":465},{""stimulus"":""img/green_ll/10.jpg"",""time"":515},{""stimulus"":""img/green_ll/11.jpg"",""time"":567}]","[]"
"image-keyboard-response","162","138718","0.0-5.0-1.79","63ed9dbc1c7838ffcbb42142","bdp_lott","Sun Mar 26 2023 13:35:22 GMT-0700 (Pacific Daylight Time)","289825","green","red","","334","","","","choice","","img/green_ll/choose11.jpg","1","146","green","0.5","0.1","0.5","w","",""
"animation","163","139332","0.0-5.0-2.79","63ed9dbc1c7838ffcbb42142","bdp_lott","Sun Mar 26 2023 13:35:22 GMT-0700 (Pacific Daylight Time)","289825","green","red","","","","","","","","","","146","","","","","","[{""stimulus"":""img/green_wl/1.jpg"",""time"":57},{""stimulus"":""img/green_wl/2.jpg"",""time"":108},{""stimulus"":""img/green_wl/3.jpg"",""time"":159},{""stimulus"":""img/green_wl/4.jpg"",""time"":210},{""stimulus"":""img/green_wl/5.jpg"",""time"":261},{""stimulus"":""img/green_wl/6.jpg"",""time"":312},{""stimulus"":""img/green_wl/7.jpg"",""time"":363},{""stimulus"":""img/green_wl/8.jpg"",""time"":414},{""stimulus"":""img/green_wl/9.jpg"",""time"":465},{""stimulus"":""img/green_wl/10.jpg"",""time"":517},{""stimulus"":""img/green_wl/11.jpg"",""time"":568}]","[]"
"image-keyboard-response","164","139918","0.0-5.0-1.80","63ed9dbc1c7838ffcbb42142","bdp_lott","Sun Mar 26 2023 13:35:22 GMT-0700 (Pacific Daylight Time)","289825","green","red","","580","","","","choice","","img/green_wl/choose11.jpg","2","145","red","0.5","0.1","0.1","l","",""
"animation","165","140527","0.0-5.0-2.80","63ed9dbc1c7838ffcbb42142","bdp_lott","Sun Mar 26 2023 13:35:22 GMT-0700 (Pacific Daylight Time)","289825","green","red","","","","","","","","","","145","","","","","","[{""stimulus"":""img/red_wl/1.jpg"",""time"":57},{""stimulus"":""img/red_wl/2.jpg"",""time"":107},{""stimulus"":""img/red_wl/3.jpg"",""time"":158},{""stimulus"":""img/red_wl/4.jpg"",""time"":208},{""stimulus"":""img/red_wl/5.jpg"",""time"":258},{""stimulus"":""img/red_wl/6.jpg"",""time"":309},{""stimulus"":""img/red_wl/7.jpg"",""time"":361},{""stimulus"":""img/red_wl/8.jpg"",""time"":412},{""stimulus"":""img/red_wl/9.jpg"",""time"":462},{""stimulus"":""img/red_wl/10.jpg"",""time"":512},{""stimulus"":""img/red_wl/11.jpg"",""time"":563}]","[]"
"image-keyboard-response","166","141045","0.0-5.0-1.81","63ed9dbc1c7838ffcbb42142","bdp_lott","Sun Mar 26 2023 13:35:22 GMT-0700 (Pacific Daylight Time)","289825","green","red","","512","","","","choice","","img/red_wl/choose11.jpg","2","144","red","0.5","0.1","0.1","l","",""
"animation","167","141656","0.0-5.0-2.81","63ed9dbc1c7838ffcbb42142","bdp_lott","Sun Mar 26 2023 13:35:22 GMT-0700 (Pacific Daylight Time)","289825","green","red","","","","","","","","","","144","","","","","","[{""stimulus"":""img/red_wl/1.jpg"",""time"":58},{""stimulus"":""img/red_wl/2.jpg"",""time"":107},{""stimulus"":""img/red_wl/3.jpg"",""time"":158},{""stimulus"":""img/red_wl/4.jpg"",""time"":210},{""stimulus"":""img/red_wl/5.jpg"",""time"":259},{""stimulus"":""img/red_wl/6.jpg"",""time"":311},{""stimulus"":""img/red_wl/7.jpg"",""time"":361},{""stimulus"":""img/red_wl/8.jpg"",""time"":412},{""stimulus"":""img/red_wl/9.jpg"",""time"":463},{""stimulus"":""img/red_wl/10.jpg"",""time"":512},{""stimulus"":""img/red_wl/11.jpg"",""time"":564}]","[]"
"image-keyboard-response","168","142006","0.0-5.0-1.82","63ed9dbc1c7838ffcbb42142","bdp_lott","Sun Mar 26 2023 13:35:22 GMT-0700 (Pacific Daylight Time)","289825","green","red","","343","","","","choice","","img/red_wl/choose11.jpg","1","143","green","0.5","0.1","0.5","w","",""
"animation","169","142616","0.0-5.0-2.82","63ed9dbc1c7838ffcbb42142","bdp_lott","Sun Mar 26 2023 13:35:22 GMT-0700 (Pacific Daylight Time)","289825","green","red","","","","","","","","","","143","","","","","","[{""stimulus"":""img/green_wl/1.jpg"",""time"":55},{""stimulus"":""img/green_wl/2.jpg"",""time"":106},{""stimulus"":""img/green_wl/3.jpg"",""time"":157},{""stimulus"":""img/green_wl/4.jpg"",""time"":208},{""stimulus"":""img/green_wl/5.jpg"",""time"":258},{""stimulus"":""img/green_wl/6.jpg"",""time"":308},{""stimulus"":""img/green_wl/7.jpg"",""time"":360},{""stimulus"":""img/green_wl/8.jpg"",""time"":411},{""stimulus"":""img/green_wl/9.jpg"",""time"":462},{""stimulus"":""img/green_wl/10.jpg"",""time"":513},{""stimulus"":""img/green_wl/11.jpg"",""time"":565}]","[]"
"image-keyboard-response","170","143230","0.0-5.0-1.83","63ed9dbc1c7838ffcbb42142","bdp_lott","Sun Mar 26 2023 13:35:22 GMT-0700 (Pacific Daylight Time)","289825","green","red","","608","","","","choice","","img/green_wl/choose11.jpg","2","142","red","0.5","0.1","0.1","l","",""
"animation","171","143842","0.0-5.0-2.83","63ed9dbc1c7838ffcbb42142","bdp_lott","Sun Mar 26 2023 13:35:22 GMT-0700 (Pacific Daylight Time)","289825","green","red","","","","","","","","","","142","","","","","","[{""stimulus"":""img/red_wl/1.jpg"",""time"":56},{""stimulus"":""img/red_wl/2.jpg"",""time"":108},{""stimulus"":""img/red_wl/3.jpg"",""time"":159},{""stimulus"":""img/red_wl/4.jpg"",""time"":209},{""stimulus"":""img/red_wl/5.jpg"",""time"":260},{""stimulus"":""img/red_wl/6.jpg"",""time"":311},{""stimulus"":""img/red_wl/7.jpg"",""time"":361},{""stimulus"":""img/red_wl/8.jpg"",""time"":413},{""stimulus"":""img/red_wl/9.jpg"",""time"":463},{""stimulus"":""img/red_wl/10.jpg"",""time"":513},{""stimulus"":""img/red_wl/11.jpg"",""time"":565}]","[]"
"image-keyboard-response","172","144790","0.0-5.0-1.84","63ed9dbc1c7838ffcbb42142","bdp_lott","Sun Mar 26 2023 13:35:22 GMT-0700 (Pacific Daylight Time)","289825","green","red","","942","","","","choice","","img/red_wl/choose11.jpg","1","141","green","0.5","0.1","0.5","l","",""
"animation","173","145399","0.0-5.0-2.84","63ed9dbc1c7838ffcbb42142","bdp_lott","Sun Mar 26 2023 13:35:22 GMT-0700 (Pacific Daylight Time)","289825","green","red","","","","","","","","","","141","","","","","","[{""stimulus"":""img/green_ll/1.jpg"",""time"":57},{""stimulus"":""img/green_ll/2.jpg"",""time"":107},{""stimulus"":""img/green_ll/3.jpg"",""time"":158},{""stimulus"":""img/green_ll/4.jpg"",""time"":209},{""stimulus"":""img/green_ll/5.jpg"",""time"":258},{""stimulus"":""img/green_ll/6.jpg"",""time"":310},{""stimulus"":""img/green_ll/7.jpg"",""time"":361},{""stimulus"":""img/green_ll/8.jpg"",""time"":412},{""stimulus"":""img/green_ll/9.jpg"",""time"":462},{""stimulus"":""img/green_ll/10.jpg"",""time"":512},{""stimulus"":""img/green_ll/11.jpg"",""time"":564}]","[]"
"image-keyboard-response","174","145846","0.0-5.0-1.85","63ed9dbc1c7838ffcbb42142","bdp_lott","Sun Mar 26 2023 13:35:22 GMT-0700 (Pacific Daylight Time)","289825","green","red","","441","","","","choice","","img/green_ll/choose11.jpg","2","140","red","0.5","0.1","0.1","l","",""
"animation","175","146457","0.0-5.0-2.85","63ed9dbc1c7838ffcbb42142","bdp_lott","Sun Mar 26 2023 13:35:22 GMT-0700 (Pacific Daylight Time)","289825","green","red","","","","","","","","","","140","","","","","","[{""stimulus"":""img/red_ll/1.jpg"",""time"":58},{""stimulus"":""img/red_ll/2.jpg"",""time"":109},{""stimulus"":""img/red_ll/3.jpg"",""time"":160},{""stimulus"":""img/red_ll/4.jpg"",""time"":210},{""stimulus"":""img/red_ll/5.jpg"",""time"":261},{""stimulus"":""img/red_ll/6.jpg"",""time"":311},{""stimulus"":""img/red_ll/7.jpg"",""time"":363},{""stimulus"":""img/red_ll/8.jpg"",""time"":414},{""stimulus"":""img/red_ll/9.jpg"",""time"":465},{""stimulus"":""img/red_ll/10.jpg"",""time"":515},{""stimulus"":""img/red_ll/11.jpg"",""time"":566}]","[]"
"image-keyboard-response","176","146870","0.0-5.0-1.86","63ed9dbc1c7838ffcbb42142","bdp_lott","Sun Mar 26 2023 13:35:22 GMT-0700 (Pacific Daylight Time)","289825","green","red","","407","","","","choice","","img/red_ll/choose11.jpg","1","139","green","0.5","0.1","0.5","w","",""
"animation","177","147482","0.0-5.0-2.86","63ed9dbc1c7838ffcbb42142","bdp_lott","Sun Mar 26 2023 13:35:22 GMT-0700 (Pacific Daylight Time)","289825","green","red","","","","","","","","","","139","","","","","","[{""stimulus"":""img/green_wl/1.jpg"",""time"":56},{""stimulus"":""img/green_wl/2.jpg"",""time"":108},{""stimulus"":""img/green_wl/3.jpg"",""time"":158},{""stimulus"":""img/green_wl/4.jpg"",""time"":210},{""stimulus"":""img/green_wl/5.jpg"",""time"":260},{""stimulus"":""img/green_wl/6.jpg"",""time"":310},{""stimulus"":""img/green_wl/7.jpg"",""time"":362},{""stimulus"":""img/green_wl/8.jpg"",""time"":412},{""stimulus"":""img/green_wl/9.jpg"",""time"":464},{""stimulus"":""img/green_wl/10.jpg"",""time"":514},{""stimulus"":""img/green_wl/11.jpg"",""time"":566}]","[]"
"image-keyboard-response","178","147990","0.0-5.0-1.87","63ed9dbc1c7838ffcbb42142","bdp_lott","Sun Mar 26 2023 13:35:22 GMT-0700 (Pacific Daylight Time)","289825","green","red","","502","","","","choice","","img/green_wl/choose11.jpg","1","138","green","0.5","0.1","0.5","l","",""
"animation","179","148602","0.0-5.0-2.87","63ed9dbc1c7838ffcbb42142","bdp_lott","Sun Mar 26 2023 13:35:22 GMT-0700 (Pacific Daylight Time)","289825","green","red","","","","","","","","","","138","","","","","","[{""stimulus"":""img/green_ll/1.jpg"",""time"":55},{""stimulus"":""img/green_ll/2.jpg"",""time"":107},{""stimulus"":""img/green_ll/3.jpg"",""time"":158},{""stimulus"":""img/green_ll/4.jpg"",""time"":209},{""stimulus"":""img/green_ll/5.jpg"",""time"":260},{""stimulus"":""img/green_ll/6.jpg"",""time"":312},{""stimulus"":""img/green_ll/7.jpg"",""time"":363},{""stimulus"":""img/green_ll/8.jpg"",""time"":414},{""stimulus"":""img/green_ll/9.jpg"",""time"":465},{""stimulus"":""img/green_ll/10.jpg"",""time"":516},{""stimulus"":""img/green_ll/11.jpg"",""time"":568}]","[]"
"image-keyboard-response","180","148958","0.0-5.0-1.88","63ed9dbc1c7838ffcbb42142","bdp_lott","Sun Mar 26 2023 13:35:22 GMT-0700 (Pacific Daylight Time)","289825","green","red","","350","","","","choice","","img/green_ll/choose11.jpg","2","137","red","0.5","0.1","0.1","l","",""
"animation","181","149569","0.0-5.0-2.88","63ed9dbc1c7838ffcbb42142","bdp_lott","Sun Mar 26 2023 13:35:22 GMT-0700 (Pacific Daylight Time)","289825","green","red","","","","","","","","","","137","","","","","","[{""stimulus"":""img/red_ll/1.jpg"",""time"":57},{""stimulus"":""img/red_ll/2.jpg"",""time"":108},{""stimulus"":""img/red_ll/3.jpg"",""time"":159},{""stimulus"":""img/red_ll/4.jpg"",""time"":210},{""stimulus"":""img/red_ll/5.jpg"",""time"":261},{""stimulus"":""img/red_ll/6.jpg"",""time"":312},{""stimulus"":""img/red_ll/7.jpg"",""time"":363},{""stimulus"":""img/red_ll/8.jpg"",""time"":414},{""stimulus"":""img/red_ll/9.jpg"",""time"":466},{""stimulus"":""img/red_ll/10.jpg"",""time"":517},{""stimulus"":""img/red_ll/11.jpg"",""time"":567}]","[]"
"image-keyboard-response","182","149974","0.0-5.0-1.89","63ed9dbc1c7838ffcbb42142","bdp_lott","Sun Mar 26 2023 13:35:22 GMT-0700 (Pacific Daylight Time)","289825","green","red","","399","","","","choice","","img/red_ll/choose11.jpg","2","136","red","0.5","0.1","0.1","l","",""
"animation","183","150581","0.0-5.0-2.89","63ed9dbc1c7838ffcbb42142","bdp_lott","Sun Mar 26 2023 13:35:22 GMT-0700 (Pacific Daylight Time)","289825","green","red","","","","","","","","","","136","","","","","","[{""stimulus"":""img/red_ll/1.jpg"",""time"":56},{""stimulus"":""img/red_ll/2.jpg"",""time"":107},{""stimulus"":""img/red_ll/3.jpg"",""time"":155},{""stimulus"":""img/red_ll/4.jpg"",""time"":207},{""stimulus"":""img/red_ll/5.jpg"",""time"":259},{""stimulus"":""img/red_ll/6.jpg"",""time"":309},{""stimulus"":""img/red_ll/7.jpg"",""time"":360},{""stimulus"":""img/red_ll/8.jpg"",""time"":412},{""stimulus"":""img/red_ll/9.jpg"",""time"":462},{""stimulus"":""img/red_ll/10.jpg"",""time"":512},{""stimulus"":""img/red_ll/11.jpg"",""time"":563}]","[]"
"image-keyboard-response","184","150966","0.0-5.0-1.90","63ed9dbc1c7838ffcbb42142","bdp_lott","Sun Mar 26 2023 13:35:22 GMT-0700 (Pacific Daylight Time)","289825","green","red","","379","","","","choice","","img/red_ll/choose11.jpg","1","135","green","0.5","0.1","0.5","l","",""
"animation","185","151575","0.0-5.0-2.90","63ed9dbc1c7838ffcbb42142","bdp_lott","Sun Mar 26 2023 13:35:22 GMT-0700 (Pacific Daylight Time)","289825","green","red","","","","","","","","","","135","","","","","","[{""stimulus"":""img/green_ll/1.jpg"",""time"":57},{""stimulus"":""img/green_ll/2.jpg"",""time"":108},{""stimulus"":""img/green_ll/3.jpg"",""time"":159},{""stimulus"":""img/green_ll/4.jpg"",""time"":209},{""stimulus"":""img/green_ll/5.jpg"",""time"":259},{""stimulus"":""img/green_ll/6.jpg"",""time"":309},{""stimulus"":""img/green_ll/7.jpg"",""time"":360},{""stimulus"":""img/green_ll/8.jpg"",""time"":412},{""stimulus"":""img/green_ll/9.jpg"",""time"":463},{""stimulus"":""img/green_ll/10.jpg"",""time"":514},{""stimulus"":""img/green_ll/11.jpg"",""time"":564}]","[]"
"image-keyboard-response","186","152158","0.0-5.0-1.91","63ed9dbc1c7838ffcbb42142","bdp_lott","Sun Mar 26 2023 13:35:22 GMT-0700 (Pacific Daylight Time)","289825","green","red","","577","","","","choice","","img/green_ll/choose11.jpg","1","134","green","0.5","0.1","0.5","l","",""
"animation","187","152770","0.0-5.0-2.91","63ed9dbc1c7838ffcbb42142","bdp_lott","Sun Mar 26 2023 13:35:22 GMT-0700 (Pacific Daylight Time)","289825","green","red","","","","","","","","","","134","","","","","","[{""stimulus"":""img/green_ll/1.jpg"",""time"":56},{""stimulus"":""img/green_ll/2.jpg"",""time"":108},{""stimulus"":""img/green_ll/3.jpg"",""time"":159},{""stimulus"":""img/green_ll/4.jpg"",""time"":210},{""stimulus"":""img/green_ll/5.jpg"",""time"":260},{""stimulus"":""img/green_ll/6.jpg"",""time"":311},{""stimulus"":""img/green_ll/7.jpg"",""time"":362},{""stimulus"":""img/green_ll/8.jpg"",""time"":413},{""stimulus"":""img/green_ll/9.jpg"",""time"":465},{""stimulus"":""img/green_ll/10.jpg"",""time"":516},{""stimulus"":""img/green_ll/11.jpg"",""time"":565}]","[]"
"image-keyboard-response","188","153230","0.0-5.0-1.92","63ed9dbc1c7838ffcbb42142","bdp_lott","Sun Mar 26 2023 13:35:22 GMT-0700 (Pacific Daylight Time)","289825","green","red","","453","","","","choice","","img/green_ll/choose11.jpg","2","133","red","0.5","0.1","0.1","l","",""
"animation","189","153842","0.0-5.0-2.92","63ed9dbc1c7838ffcbb42142","bdp_lott","Sun Mar 26 2023 13:35:22 GMT-0700 (Pacific Daylight Time)","289825","green","red","","","","","","","","","","133","","","","","","[{""stimulus"":""img/red_ll/1.jpg"",""time"":57},{""stimulus"":""img/red_ll/2.jpg"",""time"":107},{""stimulus"":""img/red_ll/3.jpg"",""time"":158},{""stimulus"":""img/red_ll/4.jpg"",""time"":209},{""stimulus"":""img/red_ll/5.jpg"",""time"":261},{""stimulus"":""img/red_ll/6.jpg"",""time"":312},{""stimulus"":""img/red_ll/7.jpg"",""time"":362},{""stimulus"":""img/red_ll/8.jpg"",""time"":413},{""stimulus"":""img/red_ll/9.jpg"",""time"":464},{""stimulus"":""img/red_ll/10.jpg"",""time"":516},{""stimulus"":""img/red_ll/11.jpg"",""time"":567}]","[]"
"image-keyboard-response","190","154310","0.0-5.0-1.93","63ed9dbc1c7838ffcbb42142","bdp_lott","Sun Mar 26 2023 13:35:22 GMT-0700 (Pacific Daylight Time)","289825","green","red","","462","","","","choice","","img/red_ll/choose11.jpg","2","132","red","0.5","0.1","0.1","l","",""
"animation","191","154920","0.0-5.0-2.93","63ed9dbc1c7838ffcbb42142","bdp_lott","Sun Mar 26 2023 13:35:22 GMT-0700 (Pacific Daylight Time)","289825","green","red","","","","","","","","","","132","","","","","","[{""stimulus"":""img/red_ll/1.jpg"",""time"":57},{""stimulus"":""img/red_ll/2.jpg"",""time"":107},{""stimulus"":""img/red_ll/3.jpg"",""time"":158},{""stimulus"":""img/red_ll/4.jpg"",""time"":208},{""stimulus"":""img/red_ll/5.jpg"",""time"":260},{""stimulus"":""img/red_ll/6.jpg"",""time"":311},{""stimulus"":""img/red_ll/7.jpg"",""time"":362},{""stimulus"":""img/red_ll/8.jpg"",""time"":413},{""stimulus"":""img/red_ll/9.jpg"",""time"":464},{""stimulus"":""img/red_ll/10.jpg"",""time"":515},{""stimulus"":""img/red_ll/11.jpg"",""time"":565}]","[]"
