"trial_type","trial_index","time_elapsed","internal_node_id","subject_id","task","startTime","totalTime","fairMachine","unfairMachine","view_history","rt","event","trial","time","trialtype","success","stimulus","key_press","roundsLeft","chosen","pFairMachWin","pUnfairMachWin","pTrialWin","outcome","animation_sequence","responses"
"pavlovia","0","3","0.0-0.0","5dbf692c2a1dd63f64ef5ae4","bdp_lott","Sat Mar 25 2023 16:09:41 GMT-0700 (Pacific Daylight Time)","312519","green","red","","","","","","","","","","","","","","","","",""
"instructions","1","3958","0.0-1.0","5dbf692c2a1dd63f64ef5ae4","bdp_lott","Sat Mar 25 2023 16:09:41 GMT-0700 (Pacific Daylight Time)","312519","green","red","[{""page_index"":0,""viewing_time"":3955}]","3955","","","","","","","","","","","","","","",""
"","","","","5dbf692c2a1dd63f64ef5ae4","bdp_lott","Sat Mar 25 2023 16:09:41 GMT-0700 (Pacific Daylight Time)","312519","green","red","","","fullscreenenter","2","6868","fullscreenenter","","","","","","","","","","",""
"fullscreen","2","7816","0.0-2.0","5dbf692c2a1dd63f64ef5ae4","bdp_lott","Sat Mar 25 2023 16:09:41 GMT-0700 (Pacific Daylight Time)","312519","green","red","","","","","","","true","","","","","","","","","",""
"instructions","3","99104","0.0-4.0","5dbf692c2a1dd63f64ef5ae4","bdp_lott","Sat Mar 25 2023 16:09:41 GMT-0700 (Pacific Daylight Time)","312519","green","red","[{""page_index"":0,""viewing_time"":91287}]","91287","","","","","","","","","","","","","","",""
"image-keyboard-response","4","105919","0.0-5.0-1.0","5dbf692c2a1dd63f64ef5ae4","bdp_lott","Sat Mar 25 2023 16:09:41 GMT-0700 (Pacific Daylight Time)","312519","green","red","","6813","","","","choice","","img/red_ll/initchoose11.jpg","2","225","red","0.5","0.5","0.5","w","",""
"animation","5","106519","0.0-5.0-2.0","5dbf692c2a1dd63f64ef5ae4","bdp_lott","Sat Mar 25 2023 16:09:41 GMT-0700 (Pacific Daylight Time)","312519","green","red","","","","","","","","","","225","","","","","","[{""stimulus"":""img/red_lw/1.jpg"",""time"":57},{""stimulus"":""img/red_lw/2.jpg"",""time"":109},{""stimulus"":""img/red_lw/3.jpg"",""time"":160},{""stimulus"":""img/red_lw/4.jpg"",""time"":209},{""stimulus"":""img/red_lw/5.jpg"",""time"":250},{""stimulus"":""img/red_lw/6.jpg"",""time"":300},{""stimulus"":""img/red_lw/7.jpg"",""time"":350},{""stimulus"":""img/red_lw/8.jpg"",""time"":400},{""stimulus"":""img/red_lw/9.jpg"",""time"":460},{""stimulus"":""img/red_lw/10.jpg"",""time"":500},{""stimulus"":""img/red_lw/11.jpg"",""time"":550}]","[]"
"image-keyboard-response","6","107471","0.0-5.0-1.1","5dbf692c2a1dd63f64ef5ae4","bdp_lott","Sat Mar 25 2023 16:09:41 GMT-0700 (Pacific Daylight Time)","312519","green","red","","951","","","","choice","","img/red_lw/choose11.jpg","1","224","green","0.5","0.5","0.5","w","",""
"animation","7","108072","0.0-5.0-2.1","5dbf692c2a1dd63f64ef5ae4","bdp_lott","Sat Mar 25 2023 16:09:41 GMT-0700 (Pacific Daylight Time)","312519","green","red","","","","","","","","","","224","","","","","","[{""stimulus"":""img/green_ww/1.jpg"",""time"":63},{""stimulus"":""img/green_ww/2.jpg"",""time"":101},{""stimulus"":""img/green_ww/3.jpg"",""time"":150},{""stimulus"":""img/green_ww/4.jpg"",""time"":201},{""stimulus"":""img/green_ww/5.jpg"",""time"":251},{""stimulus"":""img/green_ww/6.jpg"",""time"":301},{""stimulus"":""img/green_ww/7.jpg"",""time"":351},{""stimulus"":""img/green_ww/8.jpg"",""time"":401},{""stimulus"":""img/green_ww/9.jpg"",""time"":457},{""stimulus"":""img/green_ww/10.jpg"",""time"":506},{""stimulus"":""img/green_ww/11.jpg"",""time"":550}]","[]"
"image-keyboard-response","8","109723","0.0-5.0-1.2","5dbf692c2a1dd63f64ef5ae4","bdp_lott","Sat Mar 25 2023 16:09:41 GMT-0700 (Pacific Daylight Time)","312519","green","red","","1651","","","","choice","","img/green_ww/choose11.jpg","1","223","green","0.5","0.5","0.5","l","",""
"animation","9","110324","0.0-5.0-2.2","5dbf692c2a1dd63f64ef5ae4","bdp_lott","Sat Mar 25 2023 16:09:41 GMT-0700 (Pacific Daylight Time)","312519","green","red","","","","","","","","","","223","","","","","","[{""stimulus"":""img/green_lw/1.jpg"",""time"":64},{""stimulus"":""img/green_lw/2.jpg"",""time"":101},{""stimulus"":""img/green_lw/3.jpg"",""time"":151},{""stimulus"":""img/green_lw/4.jpg"",""time"":201},{""stimulus"":""img/green_lw/5.jpg"",""time"":251},{""stimulus"":""img/green_lw/6.jpg"",""time"":301},{""stimulus"":""img/green_lw/7.jpg"",""time"":355},{""stimulus"":""img/green_lw/8.jpg"",""time"":401},{""stimulus"":""img/green_lw/9.jpg"",""time"":454},{""stimulus"":""img/green_lw/10.jpg"",""time"":501},{""stimulus"":""img/green_lw/11.jpg"",""time"":551}]","[]"
"image-keyboard-response","10","110966","0.0-5.0-1.3","5dbf692c2a1dd63f64ef5ae4","bdp_lott","Sat Mar 25 2023 16:09:41 GMT-0700 (Pacific Daylight Time)","312519","green","red","","642","","","","choice","","img/green_lw/choose11.jpg","2","222","red","0.5","0.5","0.5","l","",""
"animation","11","111566","0.0-5.0-2.3","5dbf692c2a1dd63f64ef5ae4","bdp_lott","Sat Mar 25 2023 16:09:41 GMT-0700 (Pacific Daylight Time)","312519","green","red","","","","","","","","","","222","","","","","","[{""stimulus"":""img/red_ll/1.jpg"",""time"":55},{""stimulus"":""img/red_ll/2.jpg"",""time"":111},{""stimulus"":""img/red_ll/3.jpg"",""time"":151},{""stimulus"":""img/red_ll/4.jpg"",""time"":201},{""stimulus"":""img/red_ll/5.jpg"",""time"":251},{""stimulus"":""img/red_ll/6.jpg"",""time"":301},{""stimulus"":""img/red_ll/7.jpg"",""time"":362},{""stimulus"":""img/red_ll/8.jpg"",""time"":401},{""stimulus"":""img/red_ll/9.jpg"",""time"":451},{""stimulus"":""img/red_ll/10.jpg"",""time"":501},{""stimulus"":""img/red_ll/11.jpg"",""time"":551}]","[]"
"image-keyboard-response","12","112044","0.0-5.0-1.4","5dbf692c2a1dd63f64ef5ae4","bdp_lott","Sat Mar 25 2023 16:09:41 GMT-0700 (Pacific Daylight Time)","312519","green","red","","477","","","","choice","","img/red_ll/choose11.jpg","1","221","green","0.5","0.5","0.5","w","",""
"animation","13","112645","0.0-5.0-2.4","5dbf692c2a1dd63f64ef5ae4","bdp_lott","Sat Mar 25 2023 16:09:41 GMT-0700 (Pacific Daylight Time)","312519","green","red","","","","","","","","","","221","","","","","","[{""stimulus"":""img/green_wl/1.jpg"",""time"":55},{""stimulus"":""img/green_wl/2.jpg"",""time"":118},{""stimulus"":""img/green_wl/3.jpg"",""time"":152},{""stimulus"":""img/green_wl/4.jpg"",""time"":202},{""stimulus"":""img/green_wl/5.jpg"",""time"":251},{""stimulus"":""img/green_wl/6.jpg"",""time"":301},{""stimulus"":""img/green_wl/7.jpg"",""time"":351},{""stimulus"":""img/green_wl/8.jpg"",""time"":402},{""stimulus"":""img/green_wl/9.jpg"",""time"":451},{""stimulus"":""img/green_wl/10.jpg"",""time"":501},{""stimulus"":""img/green_wl/11.jpg"",""time"":552}]","[]"
"image-keyboard-response","14","114613","0.0-5.0-1.5","5dbf692c2a1dd63f64ef5ae4","bdp_lott","Sat Mar 25 2023 16:09:41 GMT-0700 (Pacific Daylight Time)","312519","green","red","","1968","","","","choice","","img/green_wl/choose11.jpg","2","220","red","0.5","0.5","0.5","l","",""
"animation","15","115226","0.0-5.0-2.5","5dbf692c2a1dd63f64ef5ae4","bdp_lott","Sat Mar 25 2023 16:09:41 GMT-0700 (Pacific Daylight Time)","312519","green","red","","","","","","","","","","220","","","","","","[{""stimulus"":""img/red_wl/1.jpg"",""time"":53},{""stimulus"":""img/red_wl/2.jpg"",""time"":116},{""stimulus"":""img/red_wl/3.jpg"",""time"":165},{""stimulus"":""img/red_wl/4.jpg"",""time"":200},{""stimulus"":""img/red_wl/5.jpg"",""time"":250},{""stimulus"":""img/red_wl/6.jpg"",""time"":300},{""stimulus"":""img/red_wl/7.jpg"",""time"":350},{""stimulus"":""img/red_wl/8.jpg"",""time"":401},{""stimulus"":""img/red_wl/9.jpg"",""time"":451},{""stimulus"":""img/red_wl/10.jpg"",""time"":500},{""stimulus"":""img/red_wl/11.jpg"",""time"":564}]","[]"
"image-keyboard-response","16","115666","0.0-5.0-1.6","5dbf692c2a1dd63f64ef5ae4","bdp_lott","Sat Mar 25 2023 16:09:41 GMT-0700 (Pacific Daylight Time)","312519","green","red","","439","","","","choice","","img/red_wl/choose11.jpg","1","219","green","0.5","0.5","0.5","w","",""
"animation","17","116276","0.0-5.0-2.6","5dbf692c2a1dd63f64ef5ae4","bdp_lott","Sat Mar 25 2023 16:09:41 GMT-0700 (Pacific Daylight Time)","312519","green","red","","","","","","","","","","219","","","","","","[{""stimulus"":""img/green_wl/1.jpg"",""time"":67},{""stimulus"":""img/green_wl/2.jpg"",""time"":130},{""stimulus"":""img/green_wl/3.jpg"",""time"":150},{""stimulus"":""img/green_wl/4.jpg"",""time"":212},{""stimulus"":""img/green_wl/5.jpg"",""time"":250},{""stimulus"":""img/green_wl/6.jpg"",""time"":312},{""stimulus"":""img/green_wl/7.jpg"",""time"":350},{""stimulus"":""img/green_wl/8.jpg"",""time"":410},{""stimulus"":""img/green_wl/9.jpg"",""time"":460},{""stimulus"":""img/green_wl/10.jpg"",""time"":510},{""stimulus"":""img/green_wl/11.jpg"",""time"":560}]","[]"
"image-keyboard-response","18","116568","0.0-5.0-1.7","5dbf692c2a1dd63f64ef5ae4","bdp_lott","Sat Mar 25 2023 16:09:41 GMT-0700 (Pacific Daylight Time)","312519","green","red","","292","","","","choice","","img/green_wl/choose11.jpg","1","218","green","0.5","0.5","0.5","w","",""
"animation","19","117177","0.0-5.0-2.7","5dbf692c2a1dd63f64ef5ae4","bdp_lott","Sat Mar 25 2023 16:09:41 GMT-0700 (Pacific Daylight Time)","312519","green","red","","","","","","","","","","218","","","","","","[{""stimulus"":""img/green_wl/1.jpg"",""time"":58},{""stimulus"":""img/green_wl/2.jpg"",""time"":109},{""stimulus"":""img/green_wl/3.jpg"",""time"":159},{""stimulus"":""img/green_wl/4.jpg"",""time"":205},{""stimulus"":""img/green_wl/5.jpg"",""time"":250},{""stimulus"":""img/green_wl/6.jpg"",""time"":309},{""stimulus"":""img/green_wl/7.jpg"",""time"":350},{""stimulus"":""img/green_wl/8.jpg"",""time"":400},{""stimulus"":""img/green_wl/9.jpg"",""time"":450},{""stimulus"":""img/green_wl/10.jpg"",""time"":500},{""stimulus"":""img/green_wl/11.jpg"",""time"":551}]","[]"
"image-keyboard-response","20","117488","0.0-5.0-1.8","5dbf692c2a1dd63f64ef5ae4","bdp_lott","Sat Mar 25 2023 16:09:41 GMT-0700 (Pacific Daylight Time)","312519","green","red","","310","","","","choice","","img/green_wl/choose11.jpg","1","217","green","0.5","0.5","0.5","w","",""
"animation","21","118088","0.0-5.0-2.8","5dbf692c2a1dd63f64ef5ae4","bdp_lott","Sat Mar 25 2023 16:09:41 GMT-0700 (Pacific Daylight Time)","312519","green","red","","","","","","","","","","217","","","","","","[{""stimulus"":""img/green_wl/1.jpg"",""time"":54},{""stimulus"":""img/green_wl/2.jpg"",""time"":106},{""stimulus"":""img/green_wl/3.jpg"",""time"":151},{""stimulus"":""img/green_wl/4.jpg"",""time"":205},{""stimulus"":""img/green_wl/5.jpg"",""time"":250},{""stimulus"":""img/green_wl/6.jpg"",""time"":301},{""stimulus"":""img/green_wl/7.jpg"",""time"":351},{""stimulus"":""img/green_wl/8.jpg"",""time"":401},{""stimulus"":""img/green_wl/9.jpg"",""time"":455},{""stimulus"":""img/green_wl/10.jpg"",""time"":500},{""stimulus"":""img/green_wl/11.jpg"",""time"":551}]","[]"
"image-keyboard-response","22","118405","0.0-5.0-1.9","5dbf692c2a1dd63f64ef5ae4","bdp_lott","Sat Mar 25 2023 16:09:41 GMT-0700 (Pacific Daylight Time)","312519","green","red","","316","","","","choice","","img/green_wl/choose11.jpg","1","216","green","0.5","0.5","0.5","w","",""
"animation","23","119006","0.0-5.0-2.9","5dbf692c2a1dd63f64ef5ae4","bdp_lott","Sat Mar 25 2023 16:09:41 GMT-0700 (Pacific Daylight Time)","312519","green","red","","","","","","","","","","216","","","","","","[{""stimulus"":""img/green_wl/1.jpg"",""time"":53},{""stimulus"":""img/green_wl/2.jpg"",""time"":105},{""stimulus"":""img/green_wl/3.jpg"",""time"":154},{""stimulus"":""img/green_wl/4.jpg"",""time"":200},{""stimulus"":""img/green_wl/5.jpg"",""time"":250},{""stimulus"":""img/green_wl/6.jpg"",""time"":300},{""stimulus"":""img/green_wl/7.jpg"",""time"":350},{""stimulus"":""img/green_wl/8.jpg"",""time"":400},{""stimulus"":""img/green_wl/9.jpg"",""time"":454},{""stimulus"":""img/green_wl/10.jpg"",""time"":500},{""stimulus"":""img/green_wl/11.jpg"",""time"":554}]","[]"
"image-keyboard-response","24","119487","0.0-5.0-1.10","5dbf692c2a1dd63f64ef5ae4","bdp_lott","Sat Mar 25 2023 16:09:41 GMT-0700 (Pacific Daylight Time)","312519","green","red","","481","","","","choice","","img/green_wl/choose11.jpg","2","215","red","0.5","0.5","0.5","w","",""
"animation","25","120087","0.0-5.0-2.10","5dbf692c2a1dd63f64ef5ae4","bdp_lott","Sat Mar 25 2023 16:09:41 GMT-0700 (Pacific Daylight Time)","312519","green","red","","","","","","","","","","215","","","","","","[{""stimulus"":""img/red_ww/1.jpg"",""time"":60},{""stimulus"":""img/red_ww/2.jpg"",""time"":100},{""stimulus"":""img/red_ww/3.jpg"",""time"":150},{""stimulus"":""img/red_ww/4.jpg"",""time"":205},{""stimulus"":""img/red_ww/5.jpg"",""time"":250},{""stimulus"":""img/red_ww/6.jpg"",""time"":306},{""stimulus"":""img/red_ww/7.jpg"",""time"":350},{""stimulus"":""img/red_ww/8.jpg"",""time"":400},{""stimulus"":""img/red_ww/9.jpg"",""time"":450},{""stimulus"":""img/red_ww/10.jpg"",""time"":505},{""stimulus"":""img/red_ww/11.jpg"",""time"":550}]","[]"
"image-keyboard-response","26","120347","0.0-5.0-1.11","5dbf692c2a1dd63f64ef5ae4","bdp_lott","Sat Mar 25 2023 16:09:41 GMT-0700 (Pacific Daylight Time)","312519","green","red","","259","","","","choice","","img/red_ww/choose11.jpg","2","214","red","0.5","0.5","0.5","l","",""
"animation","27","120959","0.0-5.0-2.11","5dbf692c2a1dd63f64ef5ae4","bdp_lott","Sat Mar 25 2023 16:09:41 GMT-0700 (Pacific Daylight Time)","312519","green","red","","","","","","","","","","214","","","","","","[{""stimulus"":""img/red_wl/1.jpg"",""time"":64},{""stimulus"":""img/red_wl/2.jpg"",""time"":111},{""stimulus"":""img/red_wl/3.jpg"",""time"":163},{""stimulus"":""img/red_wl/4.jpg"",""time"":212},{""stimulus"":""img/red_wl/5.jpg"",""time"":262},{""stimulus"":""img/red_wl/6.jpg"",""time"":300},{""stimulus"":""img/red_wl/7.jpg"",""time"":350},{""stimulus"":""img/red_wl/8.jpg"",""time"":400},{""stimulus"":""img/red_wl/9.jpg"",""time"":450},{""stimulus"":""img/red_wl/10.jpg"",""time"":500},{""stimulus"":""img/red_wl/11.jpg"",""time"":562}]","[]"
"image-keyboard-response","28","121438","0.0-5.0-1.12","5dbf692c2a1dd63f64ef5ae4","bdp_lott","Sat Mar 25 2023 16:09:41 GMT-0700 (Pacific Daylight Time)","312519","green","red","","479","","","","choice","","img/red_wl/choose11.jpg","2","213","red","0.5","0.5","0.5","l","",""
"animation","29","122042","0.0-5.0-2.12","5dbf692c2a1dd63f64ef5ae4","bdp_lott","Sat Mar 25 2023 16:09:41 GMT-0700 (Pacific Daylight Time)","312519","green","red","","","","","","","","","","213","","","","","","[{""stimulus"":""img/red_wl/1.jpg"",""time"":59},{""stimulus"":""img/red_wl/2.jpg"",""time"":100},{""stimulus"":""img/red_wl/3.jpg"",""time"":156},{""stimulus"":""img/red_wl/4.jpg"",""time"":200},{""stimulus"":""img/red_wl/5.jpg"",""time"":254},{""stimulus"":""img/red_wl/6.jpg"",""time"":304},{""stimulus"":""img/red_wl/7.jpg"",""time"":355},{""stimulus"":""img/red_wl/8.jpg"",""time"":404},{""stimulus"":""img/red_wl/9.jpg"",""time"":454},{""stimulus"":""img/red_wl/10.jpg"",""time"":500},{""stimulus"":""img/red_wl/11.jpg"",""time"":554}]","[]"
"image-keyboard-response","30","124058","0.0-5.0-1.13","5dbf692c2a1dd63f64ef5ae4","bdp_lott","Sat Mar 25 2023 16:09:41 GMT-0700 (Pacific Daylight Time)","312519","green","red","","2016","","","","choice","","img/red_wl/choose11.jpg","1","212","green","0.5","0.5","0.5","w","",""
"animation","31","124660","0.0-5.0-2.13","5dbf692c2a1dd63f64ef5ae4","bdp_lott","Sat Mar 25 2023 16:09:41 GMT-0700 (Pacific Daylight Time)","312519","green","red","","","","","","","","","","212","","","","","","[{""stimulus"":""img/green_wl/1.jpg"",""time"":52},{""stimulus"":""img/green_wl/2.jpg"",""time"":100},{""stimulus"":""img/green_wl/3.jpg"",""time"":150},{""stimulus"":""img/green_wl/4.jpg"",""time"":201},{""stimulus"":""img/green_wl/5.jpg"",""time"":268},{""stimulus"":""img/green_wl/6.jpg"",""time"":301},{""stimulus"":""img/green_wl/7.jpg"",""time"":350},{""stimulus"":""img/green_wl/8.jpg"",""time"":401},{""stimulus"":""img/green_wl/9.jpg"",""time"":451},{""stimulus"":""img/green_wl/10.jpg"",""time"":500},{""stimulus"":""img/green_wl/11.jpg"",""time"":551}]","[]"
"image-keyboard-response","32","125032","0.0-5.0-1.14","5dbf692c2a1dd63f64ef5ae4","bdp_lott","Sat Mar 25 2023 16:09:41 GMT-0700 (Pacific Daylight Time)","312519","green","red","","372","","","","choice","","img/green_wl/choose11.jpg","1","211","green","0.5","0.5","0.5","l","",""
"animation","33","125642","0.0-5.0-2.14","5dbf692c2a1dd63f64ef5ae4","bdp_lott","Sat Mar 25 2023 16:09:41 GMT-0700 (Pacific Daylight Time)","312519","green","red","","","","","","","","","","211","","","","","","[{""stimulus"":""img/green_ll/1.jpg"",""time"":55},{""stimulus"":""img/green_ll/2.jpg"",""time"":105},{""stimulus"":""img/green_ll/3.jpg"",""time"":162},{""stimulus"":""img/green_ll/4.jpg"",""time"":210},{""stimulus"":""img/green_ll/5.jpg"",""time"":262},{""stimulus"":""img/green_ll/6.jpg"",""time"":301},{""stimulus"":""img/green_ll/7.jpg"",""time"":362},{""stimulus"":""img/green_ll/8.jpg"",""time"":400},{""stimulus"":""img/green_ll/9.jpg"",""time"":451},{""stimulus"":""img/green_ll/10.jpg"",""time"":511},{""stimulus"":""img/green_ll/11.jpg"",""time"":551}]","[]"
"image-keyboard-response","34","126727","0.0-5.0-1.15","5dbf692c2a1dd63f64ef5ae4","bdp_lott","Sat Mar 25 2023 16:09:41 GMT-0700 (Pacific Daylight Time)","312519","green","red","","1085","","","","choice","","img/green_ll/choose11.jpg","1","210","green","0.5","0.5","0.5","w","",""
"animation","35","127344","0.0-5.0-2.15","5dbf692c2a1dd63f64ef5ae4","bdp_lott","Sat Mar 25 2023 16:09:41 GMT-0700 (Pacific Daylight Time)","312519","green","red","","","","","","","","","","210","","","","","","[{""stimulus"":""img/green_wl/1.jpg"",""time"":54},{""stimulus"":""img/green_wl/2.jpg"",""time"":114},{""stimulus"":""img/green_wl/3.jpg"",""time"":151},{""stimulus"":""img/green_wl/4.jpg"",""time"":201},{""stimulus"":""img/green_wl/5.jpg"",""time"":251},{""stimulus"":""img/green_wl/6.jpg"",""time"":301},{""stimulus"":""img/green_wl/7.jpg"",""time"":351},{""stimulus"":""img/green_wl/8.jpg"",""time"":401},{""stimulus"":""img/green_wl/9.jpg"",""time"":451},{""stimulus"":""img/green_wl/10.jpg"",""time"":500},{""stimulus"":""img/green_wl/11.jpg"",""time"":551}]","[]"
"image-keyboard-response","36","128590","0.0-5.0-1.16","5dbf692c2a1dd63f64ef5ae4","bdp_lott","Sat Mar 25 2023 16:09:41 GMT-0700 (Pacific Daylight Time)","312519","green","red","","1246","","","","choice","","img/green_wl/choose11.jpg","1","209","green","0.5","0.5","0.5","w","",""
"animation","37","129192","0.0-5.0-2.16","5dbf692c2a1dd63f64ef5ae4","bdp_lott","Sat Mar 25 2023 16:09:41 GMT-0700 (Pacific Daylight Time)","312519","green","red","","","","","","","","","","209","","","","","","[{""stimulus"":""img/green_wl/1.jpg"",""time"":55},{""stimulus"":""img/green_wl/2.jpg"",""time"":102},{""stimulus"":""img/green_wl/3.jpg"",""time"":151},{""stimulus"":""img/green_wl/4.jpg"",""time"":201},{""stimulus"":""img/green_wl/5.jpg"",""time"":251},{""stimulus"":""img/green_wl/6.jpg"",""time"":303},{""stimulus"":""img/green_wl/7.jpg"",""time"":353},{""stimulus"":""img/green_wl/8.jpg"",""time"":403},{""stimulus"":""img/green_wl/9.jpg"",""time"":451},{""stimulus"":""img/green_wl/10.jpg"",""time"":502},{""stimulus"":""img/green_wl/11.jpg"",""time"":551}]","[]"
"image-keyboard-response","38","129770","0.0-5.0-1.17","5dbf692c2a1dd63f64ef5ae4","bdp_lott","Sat Mar 25 2023 16:09:41 GMT-0700 (Pacific Daylight Time)","312519","green","red","","578","","","","choice","","img/green_wl/choose11.jpg","1","208","green","0.5","0.5","0.5","w","",""
"animation","39","130370","0.0-5.0-2.17","5dbf692c2a1dd63f64ef5ae4","bdp_lott","Sat Mar 25 2023 16:09:41 GMT-0700 (Pacific Daylight Time)","312519","green","red","","","","","","","","","","208","","","","","","[{""stimulus"":""img/green_wl/1.jpg"",""time"":52},{""stimulus"":""img/green_wl/2.jpg"",""time"":107},{""stimulus"":""img/green_wl/3.jpg"",""time"":150},{""stimulus"":""img/green_wl/4.jpg"",""time"":205},{""stimulus"":""img/green_wl/5.jpg"",""time"":250},{""stimulus"":""img/green_wl/6.jpg"",""time"":300},{""stimulus"":""img/green_wl/7.jpg"",""time"":351},{""stimulus"":""img/green_wl/8.jpg"",""time"":401},{""stimulus"":""img/green_wl/9.jpg"",""time"":456},{""stimulus"":""img/green_wl/10.jpg"",""time"":500},{""stimulus"":""img/green_wl/11.jpg"",""time"":550}]","[]"
"image-keyboard-response","40","130907","0.0-5.0-1.18","5dbf692c2a1dd63f64ef5ae4","bdp_lott","Sat Mar 25 2023 16:09:41 GMT-0700 (Pacific Daylight Time)","312519","green","red","","536","","","","choice","","img/green_wl/choose11.jpg","1","207","green","0.5","0.5","0.5","l","",""
"animation","41","131509","0.0-5.0-2.18","5dbf692c2a1dd63f64ef5ae4","bdp_lott","Sat Mar 25 2023 16:09:41 GMT-0700 (Pacific Daylight Time)","312519","green","red","","","","","","","","","","207","","","","","","[{""stimulus"":""img/green_ll/1.jpg"",""time"":52},{""stimulus"":""img/green_ll/2.jpg"",""time"":101},{""stimulus"":""img/green_ll/3.jpg"",""time"":153},{""stimulus"":""img/green_ll/4.jpg"",""time"":201},{""stimulus"":""img/green_ll/5.jpg"",""time"":252},{""stimulus"":""img/green_ll/6.jpg"",""time"":303},{""stimulus"":""img/green_ll/7.jpg"",""time"":351},{""stimulus"":""img/green_ll/8.jpg"",""time"":401},{""stimulus"":""img/green_ll/9.jpg"",""time"":452},{""stimulus"":""img/green_ll/10.jpg"",""time"":501},{""stimulus"":""img/green_ll/11.jpg"",""time"":551}]","[]"
"image-keyboard-response","42","132218","0.0-5.0-1.19","5dbf692c2a1dd63f64ef5ae4","bdp_lott","Sat Mar 25 2023 16:09:41 GMT-0700 (Pacific Daylight Time)","312519","green","red","","708","","","","choice","","img/green_ll/choose11.jpg","1","206","green","0.5","0.5","0.5","w","",""
"animation","43","132819","0.0-5.0-2.19","5dbf692c2a1dd63f64ef5ae4","bdp_lott","Sat Mar 25 2023 16:09:41 GMT-0700 (Pacific Daylight Time)","312519","green","red","","","","","","","","","","206","","","","","","[{""stimulus"":""img/green_wl/1.jpg"",""time"":62},{""stimulus"":""img/green_wl/2.jpg"",""time"":124},{""stimulus"":""img/green_wl/3.jpg"",""time"":151},{""stimulus"":""img/green_wl/4.jpg"",""time"":201},{""stimulus"":""img/green_wl/5.jpg"",""time"":251},{""stimulus"":""img/green_wl/6.jpg"",""time"":301},{""stimulus"":""img/green_wl/7.jpg"",""time"":350},{""stimulus"":""img/green_wl/8.jpg"",""time"":400},{""stimulus"":""img/green_wl/9.jpg"",""time"":451},{""stimulus"":""img/green_wl/10.jpg"",""time"":507},{""stimulus"":""img/green_wl/11.jpg"",""time"":551}]","[]"
"image-keyboard-response","44","133285","0.0-5.0-1.20","5dbf692c2a1dd63f64ef5ae4","bdp_lott","Sat Mar 25 2023 16:09:41 GMT-0700 (Pacific Daylight Time)","312519","green","red","","466","","","","choice","","img/green_wl/choose11.jpg","1","205","green","0.5","0.5","0.5","w","",""
"animation","45","133885","0.0-5.0-2.20","5dbf692c2a1dd63f64ef5ae4","bdp_lott","Sat Mar 25 2023 16:09:41 GMT-0700 (Pacific Daylight Time)","312519","green","red","","","","","","","","","","205","","","","","","[{""stimulus"":""img/green_wl/1.jpg"",""time"":61},{""stimulus"":""img/green_wl/2.jpg"",""time"":108},{""stimulus"":""img/green_wl/3.jpg"",""time"":157},{""stimulus"":""img/green_wl/4.jpg"",""time"":208},{""stimulus"":""img/green_wl/5.jpg"",""time"":251},{""stimulus"":""img/green_wl/6.jpg"",""time"":301},{""stimulus"":""img/green_wl/7.jpg"",""time"":351},{""stimulus"":""img/green_wl/8.jpg"",""time"":401},{""stimulus"":""img/green_wl/9.jpg"",""time"":450},{""stimulus"":""img/green_wl/10.jpg"",""time"":507},{""stimulus"":""img/green_wl/11.jpg"",""time"":551}]","[]"
"image-keyboard-response","46","134356","0.0-5.0-1.21","5dbf692c2a1dd63f64ef5ae4","bdp_lott","Sat Mar 25 2023 16:09:41 GMT-0700 (Pacific Daylight Time)","312519","green","red","","470","","","","choice","","img/green_wl/choose11.jpg","1","204","green","0.5","0.5","0.5","l","",""
"animation","47","134958","0.0-5.0-2.21","5dbf692c2a1dd63f64ef5ae4","bdp_lott","Sat Mar 25 2023 16:09:41 GMT-0700 (Pacific Daylight Time)","312519","green","red","","","","","","","","","","204","","","","","","[{""stimulus"":""img/green_ll/1.jpg"",""time"":57},{""stimulus"":""img/green_ll/2.jpg"",""time"":100},{""stimulus"":""img/green_ll/3.jpg"",""time"":150},{""stimulus"":""img/green_ll/4.jpg"",""time"":202},{""stimulus"":""img/green_ll/5.jpg"",""time"":252},{""stimulus"":""img/green_ll/6.jpg"",""time"":302},{""stimulus"":""img/green_ll/7.jpg"",""time"":350},{""stimulus"":""img/green_ll/8.jpg"",""time"":401},{""stimulus"":""img/green_ll/9.jpg"",""time"":450},{""stimulus"":""img/green_ll/10.jpg"",""time"":501},{""stimulus"":""img/green_ll/11.jpg"",""time"":550}]","[]"
"image-keyboard-response","48","135545","0.0-5.0-1.22","5dbf692c2a1dd63f64ef5ae4","bdp_lott","Sat Mar 25 2023 16:09:41 GMT-0700 (Pacific Daylight Time)","312519","green","red","","586","","","","choice","","img/green_ll/choose11.jpg","1","203","green","0.5","0.5","0.5","w","",""
"animation","49","136146","0.0-5.0-2.22","5dbf692c2a1dd63f64ef5ae4","bdp_lott","Sat Mar 25 2023 16:09:41 GMT-0700 (Pacific Daylight Time)","312519","green","red","","","","","","","","","","203","","","","","","[{""stimulus"":""img/green_wl/1.jpg"",""time"":60},{""stimulus"":""img/green_wl/2.jpg"",""time"":114},{""stimulus"":""img/green_wl/3.jpg"",""time"":163},{""stimulus"":""img/green_wl/4.jpg"",""time"":214},{""stimulus"":""img/green_wl/5.jpg"",""time"":251},{""stimulus"":""img/green_wl/6.jpg"",""time"":301},{""stimulus"":""img/green_wl/7.jpg"",""time"":351},{""stimulus"":""img/green_wl/8.jpg"",""time"":401},{""stimulus"":""img/green_wl/9.jpg"",""time"":451},{""stimulus"":""img/green_wl/10.jpg"",""time"":512},{""stimulus"":""img/green_wl/11.jpg"",""time"":551}]","[]"
"image-keyboard-response","50","136637","0.0-5.0-1.23","5dbf692c2a1dd63f64ef5ae4","bdp_lott","Sat Mar 25 2023 16:09:41 GMT-0700 (Pacific Daylight Time)","312519","green","red","","491","","","","choice","","img/green_wl/choose11.jpg","1","202","green","0.5","0.5","0.5","w","",""
"animation","51","137238","0.0-5.0-2.23","5dbf692c2a1dd63f64ef5ae4","bdp_lott","Sat Mar 25 2023 16:09:41 GMT-0700 (Pacific Daylight Time)","312519","green","red","","","","","","","","","","202","","","","","","[{""stimulus"":""img/green_wl/1.jpg"",""time"":58},{""stimulus"":""img/green_wl/2.jpg"",""time"":101},{""stimulus"":""img/green_wl/3.jpg"",""time"":151},{""stimulus"":""img/green_wl/4.jpg"",""time"":201},{""stimulus"":""img/green_wl/5.jpg"",""time"":255},{""stimulus"":""img/green_wl/6.jpg"",""time"":301},{""stimulus"":""img/green_wl/7.jpg"",""time"":351},{""stimulus"":""img/green_wl/8.jpg"",""time"":401},{""stimulus"":""img/green_wl/9.jpg"",""time"":451},{""stimulus"":""img/green_wl/10.jpg"",""time"":504},{""stimulus"":""img/green_wl/11.jpg"",""time"":551}]","[]"
"image-keyboard-response","52","137700","0.0-5.0-1.24","5dbf692c2a1dd63f64ef5ae4","bdp_lott","Sat Mar 25 2023 16:09:41 GMT-0700 (Pacific Daylight Time)","312519","green","red","","461","","","","choice","","img/green_wl/choose11.jpg","2","201","red","0.5","0.5","0.5","w","",""
"animation","53","138301","0.0-5.0-2.24","5dbf692c2a1dd63f64ef5ae4","bdp_lott","Sat Mar 25 2023 16:09:41 GMT-0700 (Pacific Daylight Time)","312519","green","red","","","","","","","","","","201","","","","","","[{""stimulus"":""img/red_ww/1.jpg"",""time"":63},{""stimulus"":""img/red_ww/2.jpg"",""time"":101},{""stimulus"":""img/red_ww/3.jpg"",""time"":156},{""stimulus"":""img/red_ww/4.jpg"",""time"":201},{""stimulus"":""img/red_ww/5.jpg"",""time"":251},{""stimulus"":""img/red_ww/6.jpg"",""time"":301},{""stimulus"":""img/red_ww/7.jpg"",""time"":351},{""stimulus"":""img/red_ww/8.jpg"",""time"":401},{""stimulus"":""img/red_ww/9.jpg"",""time"":451},{""stimulus"":""img/red_ww/10.jpg"",""time"":508},{""stimulus"":""img/red_ww/11.jpg"",""time"":551}]","[]"
"image-keyboard-response","54","138870","0.0-5.0-1.25","5dbf692c2a1dd63f64ef5ae4","bdp_lott","Sat Mar 25 2023 16:09:41 GMT-0700 (Pacific Daylight Time)","312519","green","red","","569","","","","choice","","img/red_ww/choose11.jpg","2","200","red","0.5","0.5","0.5","w","",""
"animation","55","139475","0.0-5.0-2.25","5dbf692c2a1dd63f64ef5ae4","bdp_lott","Sat Mar 25 2023 16:09:41 GMT-0700 (Pacific Daylight Time)","312519","green","red","","","","","","","","","","200","","","","","","[{""stimulus"":""img/red_ww/1.jpg"",""time"":54},{""stimulus"":""img/red_ww/2.jpg"",""time"":106},{""stimulus"":""img/red_ww/3.jpg"",""time"":151},{""stimulus"":""img/red_ww/4.jpg"",""time"":200},{""stimulus"":""img/red_ww/5.jpg"",""time"":254},{""stimulus"":""img/red_ww/6.jpg"",""time"":300},{""stimulus"":""img/red_ww/7.jpg"",""time"":350},{""stimulus"":""img/red_ww/8.jpg"",""time"":403},{""stimulus"":""img/red_ww/9.jpg"",""time"":451},{""stimulus"":""img/red_ww/10.jpg"",""time"":500},{""stimulus"":""img/red_ww/11.jpg"",""time"":550}]","[]"
"image-keyboard-response","56","139886","0.0-5.0-1.26","5dbf692c2a1dd63f64ef5ae4","bdp_lott","Sat Mar 25 2023 16:09:41 GMT-0700 (Pacific Daylight Time)","312519","green","red","","410","","","","choice","","img/red_ww/choose11.jpg","2","199","red","0.5","0.5","0.5","l","",""
"animation","57","140487","0.0-5.0-2.26","5dbf692c2a1dd63f64ef5ae4","bdp_lott","Sat Mar 25 2023 16:09:41 GMT-0700 (Pacific Daylight Time)","312519","green","red","","","","","","","","","","199","","","","","","[{""stimulus"":""img/red_wl/1.jpg"",""time"":62},{""stimulus"":""img/red_wl/2.jpg"",""time"":100},{""stimulus"":""img/red_wl/3.jpg"",""time"":150},{""stimulus"":""img/red_wl/4.jpg"",""time"":204},{""stimulus"":""img/red_wl/5.jpg"",""time"":250},{""stimulus"":""img/red_wl/6.jpg"",""time"":300},{""stimulus"":""img/red_wl/7.jpg"",""time"":350},{""stimulus"":""img/red_wl/8.jpg"",""time"":403},{""stimulus"":""img/red_wl/9.jpg"",""time"":457},{""stimulus"":""img/red_wl/10.jpg"",""time"":504},{""stimulus"":""img/red_wl/11.jpg"",""time"":550}]","[]"
"image-keyboard-response","58","141038","0.0-5.0-1.27","5dbf692c2a1dd63f64ef5ae4","bdp_lott","Sat Mar 25 2023 16:09:41 GMT-0700 (Pacific Daylight Time)","312519","green","red","","551","","","","choice","","img/red_wl/choose11.jpg","2","198","red","0.5","0.5","0.5","l","",""
"animation","59","141638","0.0-5.0-2.27","5dbf692c2a1dd63f64ef5ae4","bdp_lott","Sat Mar 25 2023 16:09:41 GMT-0700 (Pacific Daylight Time)","312519","green","red","","","","","","","","","","198","","","","","","[{""stimulus"":""img/red_wl/1.jpg"",""time"":52},{""stimulus"":""img/red_wl/2.jpg"",""time"":104},{""stimulus"":""img/red_wl/3.jpg"",""time"":153},{""stimulus"":""img/red_wl/4.jpg"",""time"":204},{""stimulus"":""img/red_wl/5.jpg"",""time"":251},{""stimulus"":""img/red_wl/6.jpg"",""time"":301},{""stimulus"":""img/red_wl/7.jpg"",""time"":350},{""stimulus"":""img/red_wl/8.jpg"",""time"":401},{""stimulus"":""img/red_wl/9.jpg"",""time"":452},{""stimulus"":""img/red_wl/10.jpg"",""time"":503},{""stimulus"":""img/red_wl/11.jpg"",""time"":551}]","[]"
"image-keyboard-response","60","142039","0.0-5.0-1.28","5dbf692c2a1dd63f64ef5ae4","bdp_lott","Sat Mar 25 2023 16:09:41 GMT-0700 (Pacific Daylight Time)","312519","green","red","","400","","","","choice","","img/red_wl/choose11.jpg","2","197","red","0.5","0.5","0.5","l","",""
"animation","61","142640","0.0-5.0-2.28","5dbf692c2a1dd63f64ef5ae4","bdp_lott","Sat Mar 25 2023 16:09:41 GMT-0700 (Pacific Daylight Time)","312519","green","red","","","","","","","","","","197","","","","","","[{""stimulus"":""img/red_wl/1.jpg"",""time"":60},{""stimulus"":""img/red_wl/2.jpg"",""time"":101},{""stimulus"":""img/red_wl/3.jpg"",""time"":152},{""stimulus"":""img/red_wl/4.jpg"",""time"":201},{""stimulus"":""img/red_wl/5.jpg"",""time"":251},{""stimulus"":""img/red_wl/6.jpg"",""time"":301},{""stimulus"":""img/red_wl/7.jpg"",""time"":351},{""stimulus"":""img/red_wl/8.jpg"",""time"":401},{""stimulus"":""img/red_wl/9.jpg"",""time"":451},{""stimulus"":""img/red_wl/10.jpg"",""time"":501},{""stimulus"":""img/red_wl/11.jpg"",""time"":551}]","[]"
"image-keyboard-response","62","143032","0.0-5.0-1.29","5dbf692c2a1dd63f64ef5ae4","bdp_lott","Sat Mar 25 2023 16:09:41 GMT-0700 (Pacific Daylight Time)","312519","green","red","","391","","","","choice","","img/red_wl/choose11.jpg","1","196","green","0.5","0.5","0.5","l","",""
"animation","63","143632","0.0-5.0-2.29","5dbf692c2a1dd63f64ef5ae4","bdp_lott","Sat Mar 25 2023 16:09:41 GMT-0700 (Pacific Daylight Time)","312519","green","red","","","","","","","","","","196","","","","","","[{""stimulus"":""img/green_ll/1.jpg"",""time"":52},{""stimulus"":""img/green_ll/2.jpg"",""time"":110},{""stimulus"":""img/green_ll/3.jpg"",""time"":158},{""stimulus"":""img/green_ll/4.jpg"",""time"":200},{""stimulus"":""img/green_ll/5.jpg"",""time"":259},{""stimulus"":""img/green_ll/6.jpg"",""time"":307},{""stimulus"":""img/green_ll/7.jpg"",""time"":351},{""stimulus"":""img/green_ll/8.jpg"",""time"":401},{""stimulus"":""img/green_ll/9.jpg"",""time"":451},{""stimulus"":""img/green_ll/10.jpg"",""time"":501},{""stimulus"":""img/green_ll/11.jpg"",""time"":551}]","[]"
"image-keyboard-response","64","144039","0.0-5.0-1.30","5dbf692c2a1dd63f64ef5ae4","bdp_lott","Sat Mar 25 2023 16:09:41 GMT-0700 (Pacific Daylight Time)","312519","green","red","","407","","","","choice","","img/green_ll/choose11.jpg","1","195","green","0.5","0.5","0.5","w","",""
"animation","65","144640","0.0-5.0-2.30","5dbf692c2a1dd63f64ef5ae4","bdp_lott","Sat Mar 25 2023 16:09:41 GMT-0700 (Pacific Daylight Time)","312519","green","red","","","","","","","","","","195","","","","","","[{""stimulus"":""img/green_wl/1.jpg"",""time"":60},{""stimulus"":""img/green_wl/2.jpg"",""time"":101},{""stimulus"":""img/green_wl/3.jpg"",""time"":151},{""stimulus"":""img/green_wl/4.jpg"",""time"":201},{""stimulus"":""img/green_wl/5.jpg"",""time"":251},{""stimulus"":""img/green_wl/6.jpg"",""time"":301},{""stimulus"":""img/green_wl/7.jpg"",""time"":351},{""stimulus"":""img/green_wl/8.jpg"",""time"":400},{""stimulus"":""img/green_wl/9.jpg"",""time"":451},{""stimulus"":""img/green_wl/10.jpg"",""time"":501},{""stimulus"":""img/green_wl/11.jpg"",""time"":550}]","[]"
"image-keyboard-response","66","145100","0.0-5.0-1.31","5dbf692c2a1dd63f64ef5ae4","bdp_lott","Sat Mar 25 2023 16:09:41 GMT-0700 (Pacific Daylight Time)","312519","green","red","","460","","","","choice","","img/green_wl/choose11.jpg","1","194","green","0.5","0.5","0.5","w","",""
"animation","67","145700","0.0-5.0-2.31","5dbf692c2a1dd63f64ef5ae4","bdp_lott","Sat Mar 25 2023 16:09:41 GMT-0700 (Pacific Daylight Time)","312519","green","red","","","","","","","","","","194","","","","","","[{""stimulus"":""img/green_wl/1.jpg"",""time"":61},{""stimulus"":""img/green_wl/2.jpg"",""time"":125},{""stimulus"":""img/green_wl/3.jpg"",""time"":150},{""stimulus"":""img/green_wl/4.jpg"",""time"":208},{""stimulus"":""img/green_wl/5.jpg"",""time"":251},{""stimulus"":""img/green_wl/6.jpg"",""time"":301},{""stimulus"":""img/green_wl/7.jpg"",""time"":350},{""stimulus"":""img/green_wl/8.jpg"",""time"":408},{""stimulus"":""img/green_wl/9.jpg"",""time"":451},{""stimulus"":""img/green_wl/10.jpg"",""time"":507},{""stimulus"":""img/green_wl/11.jpg"",""time"":551}]","[]"
"image-keyboard-response","68","146058","0.0-5.0-1.32","5dbf692c2a1dd63f64ef5ae4","bdp_lott","Sat Mar 25 2023 16:09:41 GMT-0700 (Pacific Daylight Time)","312519","green","red","","357","","","","choice","","img/green_wl/choose11.jpg","1","193","green","0.5","0.5","0.5","w","",""
"animation","69","146659","0.0-5.0-2.32","5dbf692c2a1dd63f64ef5ae4","bdp_lott","Sat Mar 25 2023 16:09:41 GMT-0700 (Pacific Daylight Time)","312519","green","red","","","","","","","","","","193","","","","","","[{""stimulus"":""img/green_wl/1.jpg"",""time"":61},{""stimulus"":""img/green_wl/2.jpg"",""time"":101},{""stimulus"":""img/green_wl/3.jpg"",""time"":151},{""stimulus"":""img/green_wl/4.jpg"",""time"":201},{""stimulus"":""img/green_wl/5.jpg"",""time"":267},{""stimulus"":""img/green_wl/6.jpg"",""time"":301},{""stimulus"":""img/green_wl/7.jpg"",""time"":351},{""stimulus"":""img/green_wl/8.jpg"",""time"":401},{""stimulus"":""img/green_wl/9.jpg"",""time"":451},{""stimulus"":""img/green_wl/10.jpg"",""time"":501},{""stimulus"":""img/green_wl/11.jpg"",""time"":551}]","[]"
"image-keyboard-response","70","146834","0.0-5.0-1.33","5dbf692c2a1dd63f64ef5ae4","bdp_lott","Sat Mar 25 2023 16:09:41 GMT-0700 (Pacific Daylight Time)","312519","green","red","","175","","","","choice","","img/green_wl/choose11.jpg","1","192","green","0.5","0.5","0.5","l","",""
"animation","71","147435","0.0-5.0-2.33","5dbf692c2a1dd63f64ef5ae4","bdp_lott","Sat Mar 25 2023 16:09:41 GMT-0700 (Pacific Daylight Time)","312519","green","red","","","","","","","","","","192","","","","","","[{""stimulus"":""img/green_ll/1.jpg"",""time"":64},{""stimulus"":""img/green_ll/2.jpg"",""time"":112},{""stimulus"":""img/green_ll/3.jpg"",""time"":151},{""stimulus"":""img/green_ll/4.jpg"",""time"":201},{""stimulus"":""img/green_ll/5.jpg"",""time"":251},{""stimulus"":""img/green_ll/6.jpg"",""time"":301},{""stimulus"":""img/green_ll/7.jpg"",""time"":351},{""stimulus"":""img/green_ll/8.jpg"",""time"":401},{""stimulus"":""img/green_ll/9.jpg"",""time"":456},{""stimulus"":""img/green_ll/10.jpg"",""time"":505},{""stimulus"":""img/green_ll/11.jpg"",""time"":551}]","[]"
"image-keyboard-response","72","147662","0.0-5.0-1.34","5dbf692c2a1dd63f64ef5ae4","bdp_lott","Sat Mar 25 2023 16:09:41 GMT-0700 (Pacific Daylight Time)","312519","green","red","","227","","","","choice","","img/green_ll/choose11.jpg","1","191","green","0.5","0.5","0.5","l","",""
"animation","73","148262","0.0-5.0-2.34","5dbf692c2a1dd63f64ef5ae4","bdp_lott","Sat Mar 25 2023 16:09:41 GMT-0700 (Pacific Daylight Time)","312519","green","red","","","","","","","","","","191","","","","","","[{""stimulus"":""img/green_ll/1.jpg"",""time"":64},{""stimulus"":""img/green_ll/2.jpg"",""time"":100},{""stimulus"":""img/green_ll/3.jpg"",""time"":161},{""stimulus"":""img/green_ll/4.jpg"",""time"":210},{""stimulus"":""img/green_ll/5.jpg"",""time"":250},{""stimulus"":""img/green_ll/6.jpg"",""time"":301},{""stimulus"":""img/green_ll/7.jpg"",""time"":351},{""stimulus"":""img/green_ll/8.jpg"",""time"":411},{""stimulus"":""img/green_ll/9.jpg"",""time"":450},{""stimulus"":""img/green_ll/10.jpg"",""time"":500},{""stimulus"":""img/green_ll/11.jpg"",""time"":550}]","[]"
"image-keyboard-response","74","148402","0.0-5.0-1.35","5dbf692c2a1dd63f64ef5ae4","bdp_lott","Sat Mar 25 2023 16:09:41 GMT-0700 (Pacific Daylight Time)","312519","green","red","","139","","","","choice","","img/green_ll/choose11.jpg","1","190","green","0.5","0.5","0.5","l","",""
"animation","75","149004","0.0-5.0-2.35","5dbf692c2a1dd63f64ef5ae4","bdp_lott","Sat Mar 25 2023 16:09:41 GMT-0700 (Pacific Daylight Time)","312519","green","red","","","","","","","","","","190","","","","","","[{""stimulus"":""img/green_ll/1.jpg"",""time"":63},{""stimulus"":""img/green_ll/2.jpg"",""time"":101},{""stimulus"":""img/green_ll/3.jpg"",""time"":151},{""stimulus"":""img/green_ll/4.jpg"",""time"":200},{""stimulus"":""img/green_ll/5.jpg"",""time"":251},{""stimulus"":""img/green_ll/6.jpg"",""time"":301},{""stimulus"":""img/green_ll/7.jpg"",""time"":351},{""stimulus"":""img/green_ll/8.jpg"",""time"":401},{""stimulus"":""img/green_ll/9.jpg"",""time"":451},{""stimulus"":""img/green_ll/10.jpg"",""time"":504},{""stimulus"":""img/green_ll/11.jpg"",""time"":550}]","[]"
"image-keyboard-response","76","149145","0.0-5.0-1.36","5dbf692c2a1dd63f64ef5ae4","bdp_lott","Sat Mar 25 2023 16:09:41 GMT-0700 (Pacific Daylight Time)","312519","green","red","","141","","","","choice","","img/green_ll/choose11.jpg","1","189","green","0.5","0.5","0.5","l","",""
"animation","77","149745","0.0-5.0-2.36","5dbf692c2a1dd63f64ef5ae4","bdp_lott","Sat Mar 25 2023 16:09:41 GMT-0700 (Pacific Daylight Time)","312519","green","red","","","","","","","","","","189","","","","","","[{""stimulus"":""img/green_ll/1.jpg"",""time"":54},{""stimulus"":""img/green_ll/2.jpg"",""time"":108},{""stimulus"":""img/green_ll/3.jpg"",""time"":163},{""stimulus"":""img/green_ll/4.jpg"",""time"":201},{""stimulus"":""img/green_ll/5.jpg"",""time"":250},{""stimulus"":""img/green_ll/6.jpg"",""time"":301},{""stimulus"":""img/green_ll/7.jpg"",""time"":351},{""stimulus"":""img/green_ll/8.jpg"",""time"":413},{""stimulus"":""img/green_ll/9.jpg"",""time"":462},{""stimulus"":""img/green_ll/10.jpg"",""time"":512},{""stimulus"":""img/green_ll/11.jpg"",""time"":550}]","[]"
"image-keyboard-response","78","150109","0.0-5.0-1.37","5dbf692c2a1dd63f64ef5ae4","bdp_lott","Sat Mar 25 2023 16:09:41 GMT-0700 (Pacific Daylight Time)","312519","green","red","","363","","","","choice","","img/green_ll/choose11.jpg","2","188","red","0.5","0.5","0.5","w","",""
"animation","79","150710","0.0-5.0-2.37","5dbf692c2a1dd63f64ef5ae4","bdp_lott","Sat Mar 25 2023 16:09:41 GMT-0700 (Pacific Daylight Time)","312519","green","red","","","","","","","","","","188","","","","","","[{""stimulus"":""img/red_lw/1.jpg"",""time"":59},{""stimulus"":""img/red_lw/2.jpg"",""time"":103},{""stimulus"":""img/red_lw/3.jpg"",""time"":166},{""stimulus"":""img/red_lw/4.jpg"",""time"":201},{""stimulus"":""img/red_lw/5.jpg"",""time"":251},{""stimulus"":""img/red_lw/6.jpg"",""time"":302},{""stimulus"":""img/red_lw/7.jpg"",""time"":351},{""stimulus"":""img/red_lw/8.jpg"",""time"":401},{""stimulus"":""img/red_lw/9.jpg"",""time"":451},{""stimulus"":""img/red_lw/10.jpg"",""time"":501},{""stimulus"":""img/red_lw/11.jpg"",""time"":563}]","[]"
"image-keyboard-response","80","150874","0.0-5.0-1.38","5dbf692c2a1dd63f64ef5ae4","bdp_lott","Sat Mar 25 2023 16:09:41 GMT-0700 (Pacific Daylight Time)","312519","green","red","","164","","","","choice","","img/red_lw/choose11.jpg","2","187","red","0.5","0.5","0.5","l","",""
"animation","81","151474","0.0-5.0-2.38","5dbf692c2a1dd63f64ef5ae4","bdp_lott","Sat Mar 25 2023 16:09:41 GMT-0700 (Pacific Daylight Time)","312519","green","red","","","","","","","","","","187","","","","","","[{""stimulus"":""img/red_ll/1.jpg"",""time"":58},{""stimulus"":""img/red_ll/2.jpg"",""time"":100},{""stimulus"":""img/red_ll/3.jpg"",""time"":150},{""stimulus"":""img/red_ll/4.jpg"",""time"":217},{""stimulus"":""img/red_ll/5.jpg"",""time"":251},{""stimulus"":""img/red_ll/6.jpg"",""time"":300},{""stimulus"":""img/red_ll/7.jpg"",""time"":351},{""stimulus"":""img/red_ll/8.jpg"",""time"":400},{""stimulus"":""img/red_ll/9.jpg"",""time"":450},{""stimulus"":""img/red_ll/10.jpg"",""time"":501},{""stimulus"":""img/red_ll/11.jpg"",""time"":551}]","[]"
"image-keyboard-response","82","151862","0.0-5.0-1.39","5dbf692c2a1dd63f64ef5ae4","bdp_lott","Sat Mar 25 2023 16:09:41 GMT-0700 (Pacific Daylight Time)","312519","green","red","","387","","","","choice","","img/red_ll/choose11.jpg","2","186","red","0.5","0.5","0.5","w","",""
"animation","83","152474","0.0-5.0-2.39","5dbf692c2a1dd63f64ef5ae4","bdp_lott","Sat Mar 25 2023 16:09:41 GMT-0700 (Pacific Daylight Time)","312519","green","red","","","","","","","","","","186","","","","","","[{""stimulus"":""img/red_lw/1.jpg"",""time"":55},{""stimulus"":""img/red_lw/2.jpg"",""time"":113},{""stimulus"":""img/red_lw/3.jpg"",""time"":151},{""stimulus"":""img/red_lw/4.jpg"",""time"":201},{""stimulus"":""img/red_lw/5.jpg"",""time"":251},{""stimulus"":""img/red_lw/6.jpg"",""time"":300},{""stimulus"":""img/red_lw/7.jpg"",""time"":351},{""stimulus"":""img/red_lw/8.jpg"",""time"":401},{""stimulus"":""img/red_lw/9.jpg"",""time"":451},{""stimulus"":""img/red_lw/10.jpg"",""time"":500},{""stimulus"":""img/red_lw/11.jpg"",""time"":562}]","[]"
"image-keyboard-response","84","152506","0.0-5.0-1.40","5dbf692c2a1dd63f64ef5ae4","bdp_lott","Sat Mar 25 2023 16:09:41 GMT-0700 (Pacific Daylight Time)","312519","green","red","","32","","","","choice","","img/red_lw/choose11.jpg","1","185","green","0.5","0.5","0.5","w","",""
"animation","85","153107","0.0-5.0-2.40","5dbf692c2a1dd63f64ef5ae4","bdp_lott","Sat Mar 25 2023 16:09:41 GMT-0700 (Pacific Daylight Time)","312519","green","red","","","","","","","","","","185","","","","","","[{""stimulus"":""img/green_ww/1.jpg"",""time"":66},{""stimulus"":""img/green_ww/2.jpg"",""time"":101},{""stimulus"":""img/green_ww/3.jpg"",""time"":168},{""stimulus"":""img/green_ww/4.jpg"",""time"":201},{""stimulus"":""img/green_ww/5.jpg"",""time"":251},{""stimulus"":""img/green_ww/6.jpg"",""time"":301},{""stimulus"":""img/green_ww/7.jpg"",""time"":351},{""stimulus"":""img/green_ww/8.jpg"",""time"":401},{""stimulus"":""img/green_ww/9.jpg"",""time"":450},{""stimulus"":""img/green_ww/10.jpg"",""time"":500},{""stimulus"":""img/green_ww/11.jpg"",""time"":551}]","[]"
"image-keyboard-response","86","153384","0.0-5.0-1.41","5dbf692c2a1dd63f64ef5ae4","bdp_lott","Sat Mar 25 2023 16:09:41 GMT-0700 (Pacific Daylight Time)","312519","green","red","","277","","","","choice","","img/green_ww/choose11.jpg","1","184","green","0.5","0.5","0.5","w","",""
"animation","87","153984","0.0-5.0-2.41","5dbf692c2a1dd63f64ef5ae4","bdp_lott","Sat Mar 25 2023 16:09:41 GMT-0700 (Pacific Daylight Time)","312519","green","red","","","","","","","","","","184","","","","","","[{""stimulus"":""img/green_ww/1.jpg"",""time"":56},{""stimulus"":""img/green_ww/2.jpg"",""time"":100},{""stimulus"":""img/green_ww/3.jpg"",""time"":157},{""stimulus"":""img/green_ww/4.jpg"",""time"":204},{""stimulus"":""img/green_ww/5.jpg"",""time"":255},{""stimulus"":""img/green_ww/6.jpg"",""time"":307},{""stimulus"":""img/green_ww/7.jpg"",""time"":350},{""stimulus"":""img/green_ww/8.jpg"",""time"":400},{""stimulus"":""img/green_ww/9.jpg"",""time"":455},{""stimulus"":""img/green_ww/10.jpg"",""time"":504},{""stimulus"":""img/green_ww/11.jpg"",""time"":555}]","[]"
"image-keyboard-response","88","154304","0.0-5.0-1.42","5dbf692c2a1dd63f64ef5ae4","bdp_lott","Sat Mar 25 2023 16:09:41 GMT-0700 (Pacific Daylight Time)","312519","green","red","","319","","","","choice","","img/green_ww/choose11.jpg","2","183","red","0.5","0.5","0.5","l","",""
"animation","89","154905","0.0-5.0-2.42","5dbf692c2a1dd63f64ef5ae4","bdp_lott","Sat Mar 25 2023 16:09:41 GMT-0700 (Pacific Daylight Time)","312519","green","red","","","","","","","","","","183","","","","","","[{""stimulus"":""img/red_wl/1.jpg"",""time"":67},{""stimulus"":""img/red_wl/2.jpg"",""time"":100},{""stimulus"":""img/red_wl/3.jpg"",""time"":151},{""stimulus"":""img/red_wl/4.jpg"",""time"":201},{""stimulus"":""img/red_wl/5.jpg"",""time"":251},{""stimulus"":""img/red_wl/6.jpg"",""time"":300},{""stimulus"":""img/red_wl/7.jpg"",""time"":353},{""stimulus"":""img/red_wl/8.jpg"",""time"":403},{""stimulus"":""img/red_wl/9.jpg"",""time"":470},{""stimulus"":""img/red_wl/10.jpg"",""time"":501},{""stimulus"":""img/red_wl/11.jpg"",""time"":550}]","[]"
"image-keyboard-response","90","155126","0.0-5.0-1.43","5dbf692c2a1dd63f64ef5ae4","bdp_lott","Sat Mar 25 2023 16:09:41 GMT-0700 (Pacific Daylight Time)","312519","green","red","","221","","","","choice","","img/red_wl/choose11.jpg","2","182","red","0.5","0.5","0.5","w","",""
"animation","91","155728","0.0-5.0-2.43","5dbf692c2a1dd63f64ef5ae4","bdp_lott","Sat Mar 25 2023 16:09:41 GMT-0700 (Pacific Daylight Time)","312519","green","red","","","","","","","","","","182","","","","","","[{""stimulus"":""img/red_ww/1.jpg"",""time"":51},{""stimulus"":""img/red_ww/2.jpg"",""time"":115},{""stimulus"":""img/red_ww/3.jpg"",""time"":151},{""stimulus"":""img/red_ww/4.jpg"",""time"":201},{""stimulus"":""img/red_ww/5.jpg"",""time"":251},{""stimulus"":""img/red_ww/6.jpg"",""time"":314},{""stimulus"":""img/red_ww/7.jpg"",""time"":363},{""stimulus"":""img/red_ww/8.jpg"",""time"":414},{""stimulus"":""img/red_ww/9.jpg"",""time"":451},{""stimulus"":""img/red_ww/10.jpg"",""time"":513},{""stimulus"":""img/red_ww/11.jpg"",""time"":551}]","[]"
"image-keyboard-response","92","155996","0.0-5.0-1.44","5dbf692c2a1dd63f64ef5ae4","bdp_lott","Sat Mar 25 2023 16:09:41 GMT-0700 (Pacific Daylight Time)","312519","green","red","","267","","","","choice","","img/red_ww/choose11.jpg","1","181","green","0.5","0.5","0.5","l","",""
"animation","93","156597","0.0-5.0-2.44","5dbf692c2a1dd63f64ef5ae4","bdp_lott","Sat Mar 25 2023 16:09:41 GMT-0700 (Pacific Daylight Time)","312519","green","red","","","","","","","","","","181","","","","","","[{""stimulus"":""img/green_lw/1.jpg"",""time"":62},{""stimulus"":""img/green_lw/2.jpg"",""time"":109},{""stimulus"":""img/green_lw/3.jpg"",""time"":151},{""stimulus"":""img/green_lw/4.jpg"",""time"":201},{""stimulus"":""img/green_lw/5.jpg"",""time"":251},{""stimulus"":""img/green_lw/6.jpg"",""time"":300},{""stimulus"":""img/green_lw/7.jpg"",""time"":351},{""stimulus"":""img/green_lw/8.jpg"",""time"":400},{""stimulus"":""img/green_lw/9.jpg"",""time"":451},{""stimulus"":""img/green_lw/10.jpg"",""time"":511},{""stimulus"":""img/green_lw/11.jpg"",""time"":551}]","[]"
"image-keyboard-response","94","156765","0.0-5.0-1.45","5dbf692c2a1dd63f64ef5ae4","bdp_lott","Sat Mar 25 2023 16:09:41 GMT-0700 (Pacific Daylight Time)","312519","green","red","","168","","","","choice","","img/green_lw/choose11.jpg","1","180","green","0.5","0.5","0.5","l","",""
"animation","95","157365","0.0-5.0-2.45","5dbf692c2a1dd63f64ef5ae4","bdp_lott","Sat Mar 25 2023 16:09:41 GMT-0700 (Pacific Daylight Time)","312519","green","red","","","","","","","","","","180","","","","","","[{""stimulus"":""img/green_lw/1.jpg"",""time"":65},{""stimulus"":""img/green_lw/2.jpg"",""time"":100},{""stimulus"":""img/green_lw/3.jpg"",""time"":157},{""stimulus"":""img/green_lw/4.jpg"",""time"":207},{""stimulus"":""img/green_lw/5.jpg"",""time"":257},{""stimulus"":""img/green_lw/6.jpg"",""time"":301},{""stimulus"":""img/green_lw/7.jpg"",""time"":351},{""stimulus"":""img/green_lw/8.jpg"",""time"":401},{""stimulus"":""img/green_lw/9.jpg"",""time"":456},{""stimulus"":""img/green_lw/10.jpg"",""time"":506},{""stimulus"":""img/green_lw/11.jpg"",""time"":557}]","[]"
"image-keyboard-response","96","157600","0.0-5.0-1.46","5dbf692c2a1dd63f64ef5ae4","bdp_lott","Sat Mar 25 2023 16:09:41 GMT-0700 (Pacific Daylight Time)","312519","green","red","","234","","","","choice","","img/green_lw/choose11.jpg","2","179","red","0.5","0.5","0.5","w","",""
"animation","97","158200","0.0-5.0-2.46","5dbf692c2a1dd63f64ef5ae4","bdp_lott","Sat Mar 25 2023 16:09:41 GMT-0700 (Pacific Daylight Time)","312519","green","red","","","","","","","","","","179","","","","","","[{""stimulus"":""img/red_lw/1.jpg"",""time"":59},{""stimulus"":""img/red_lw/2.jpg"",""time"":107},{""stimulus"":""img/red_lw/3.jpg"",""time"":150},{""stimulus"":""img/red_lw/4.jpg"",""time"":200},{""stimulus"":""img/red_lw/5.jpg"",""time"":251},{""stimulus"":""img/red_lw/6.jpg"",""time"":300},{""stimulus"":""img/red_lw/7.jpg"",""time"":351},{""stimulus"":""img/red_lw/8.jpg"",""time"":401},{""stimulus"":""img/red_lw/9.jpg"",""time"":451},{""stimulus"":""img/red_lw/10.jpg"",""time"":505},{""stimulus"":""img/red_lw/11.jpg"",""time"":551}]","[]"
"image-keyboard-response","98","158347","0.0-5.0-1.47","5dbf692c2a1dd63f64ef5ae4","bdp_lott","Sat Mar 25 2023 16:09:41 GMT-0700 (Pacific Daylight Time)","312519","green","red","","147","","","","choice","","img/red_lw/choose11.jpg","2","178","red","0.5","0.5","0.5","l","",""
"animation","99","158947","0.0-5.0-2.47","5dbf692c2a1dd63f64ef5ae4","bdp_lott","Sat Mar 25 2023 16:09:41 GMT-0700 (Pacific Daylight Time)","312519","green","red","","","","","","","","","","178","","","","","","[{""stimulus"":""img/red_ll/1.jpg"",""time"":52},{""stimulus"":""img/red_ll/2.jpg"",""time"":110},{""stimulus"":""img/red_ll/3.jpg"",""time"":150},{""stimulus"":""img/red_ll/4.jpg"",""time"":201},{""stimulus"":""img/red_ll/5.jpg"",""time"":251},{""stimulus"":""img/red_ll/6.jpg"",""time"":301},{""stimulus"":""img/red_ll/7.jpg"",""time"":351},{""stimulus"":""img/red_ll/8.jpg"",""time"":401},{""stimulus"":""img/red_ll/9.jpg"",""time"":457},{""stimulus"":""img/red_ll/10.jpg"",""time"":508},{""stimulus"":""img/red_ll/11.jpg"",""time"":550}]","[]"
"image-keyboard-response","100","159189","0.0-5.0-1.48","5dbf692c2a1dd63f64ef5ae4","bdp_lott","Sat Mar 25 2023 16:09:41 GMT-0700 (Pacific Daylight Time)","312519","green","red","","241","","","","choice","","img/red_ll/choose11.jpg","1","177","green","0.5","0.5","0.5","l","",""
"animation","101","159790","0.0-5.0-2.48","5dbf692c2a1dd63f64ef5ae4","bdp_lott","Sat Mar 25 2023 16:09:41 GMT-0700 (Pacific Daylight Time)","312519","green","red","","","","","","","","","","177","","","","","","[{""stimulus"":""img/green_ll/1.jpg"",""time"":62},{""stimulus"":""img/green_ll/2.jpg"",""time"":110},{""stimulus"":""img/green_ll/3.jpg"",""time"":158},{""stimulus"":""img/green_ll/4.jpg"",""time"":201},{""stimulus"":""img/green_ll/5.jpg"",""time"":250},{""stimulus"":""img/green_ll/6.jpg"",""time"":301},{""stimulus"":""img/green_ll/7.jpg"",""time"":351},{""stimulus"":""img/green_ll/8.jpg"",""time"":401},{""stimulus"":""img/green_ll/9.jpg"",""time"":450},{""stimulus"":""img/green_ll/10.jpg"",""time"":508},{""stimulus"":""img/green_ll/11.jpg"",""time"":551}]","[]"
"image-keyboard-response","102","159939","0.0-5.0-1.49","5dbf692c2a1dd63f64ef5ae4","bdp_lott","Sat Mar 25 2023 16:09:41 GMT-0700 (Pacific Daylight Time)","312519","green","red","","149","","","","choice","","img/green_ll/choose11.jpg","1","176","green","0.5","0.5","0.5","w","",""
"animation","103","160547","0.0-5.0-2.49","5dbf692c2a1dd63f64ef5ae4","bdp_lott","Sat Mar 25 2023 16:09:41 GMT-0700 (Pacific Daylight Time)","312519","green","red","","","","","","","","","","176","","","","","","[{""stimulus"":""img/green_wl/1.jpg"",""time"":52},{""stimulus"":""img/green_wl/2.jpg"",""time"":110},{""stimulus"":""img/green_wl/3.jpg"",""time"":151},{""stimulus"":""img/green_wl/4.jpg"",""time"":208},{""stimulus"":""img/green_wl/5.jpg"",""time"":258},{""stimulus"":""img/green_wl/6.jpg"",""time"":301},{""stimulus"":""img/green_wl/7.jpg"",""time"":351},{""stimulus"":""img/green_wl/8.jpg"",""time"":408},{""stimulus"":""img/green_wl/9.jpg"",""time"":460},{""stimulus"":""img/green_wl/10.jpg"",""time"":508},{""stimulus"":""img/green_wl/11.jpg"",""time"":560}]","[]"
"image-keyboard-response","104","160818","0.0-5.0-1.50","5dbf692c2a1dd63f64ef5ae4","bdp_lott","Sat Mar 25 2023 16:09:41 GMT-0700 (Pacific Daylight Time)","312519","green","red","","270","","","","choice","","img/green_wl/choose11.jpg","2","175","red","0.5","0.5","0.5","l","",""
"animation","105","161418","0.0-5.0-2.50","5dbf692c2a1dd63f64ef5ae4","bdp_lott","Sat Mar 25 2023 16:09:41 GMT-0700 (Pacific Daylight Time)","312519","green","red","","","","","","","","","","175","","","","","","[{""stimulus"":""img/red_wl/1.jpg"",""time"":59},{""stimulus"":""img/red_wl/2.jpg"",""time"":114},{""stimulus"":""img/red_wl/3.jpg"",""time"":161},{""stimulus"":""img/red_wl/4.jpg"",""time"":214},{""stimulus"":""img/red_wl/5.jpg"",""time"":250},{""stimulus"":""img/red_wl/6.jpg"",""time"":312},{""stimulus"":""img/red_wl/7.jpg"",""time"":362},{""stimulus"":""img/red_wl/8.jpg"",""time"":412},{""stimulus"":""img/red_wl/9.jpg"",""time"":462},{""stimulus"":""img/red_wl/10.jpg"",""time"":514},{""stimulus"":""img/red_wl/11.jpg"",""time"":551}]","[]"
"image-keyboard-response","106","161597","0.0-5.0-1.51","5dbf692c2a1dd63f64ef5ae4","bdp_lott","Sat Mar 25 2023 16:09:41 GMT-0700 (Pacific Daylight Time)","312519","green","red","","179","","","","choice","","img/red_wl/choose11.jpg","2","174","red","0.5","0.5","0.5","w","",""
"animation","107","162215","0.0-5.0-2.51","5dbf692c2a1dd63f64ef5ae4","bdp_lott","Sat Mar 25 2023 16:09:41 GMT-0700 (Pacific Daylight Time)","312519","green","red","","","","","","","","","","174","","","","","","[{""stimulus"":""img/red_ww/1.jpg"",""time"":58},{""stimulus"":""img/red_ww/2.jpg"",""time"":119},{""stimulus"":""img/red_ww/3.jpg"",""time"":151},{""stimulus"":""img/red_ww/4.jpg"",""time"":218},{""stimulus"":""img/red_ww/5.jpg"",""time"":251},{""stimulus"":""img/red_ww/6.jpg"",""time"":301},{""stimulus"":""img/red_ww/7.jpg"",""time"":368},{""stimulus"":""img/red_ww/8.jpg"",""time"":402},{""stimulus"":""img/red_ww/9.jpg"",""time"":470},{""stimulus"":""img/red_ww/10.jpg"",""time"":502},{""stimulus"":""img/red_ww/11.jpg"",""time"":551}]","[]"
"image-keyboard-response","108","162513","0.0-5.0-1.52","5dbf692c2a1dd63f64ef5ae4","bdp_lott","Sat Mar 25 2023 16:09:41 GMT-0700 (Pacific Daylight Time)","312519","green","red","","297","","","","choice","","img/red_ww/choose11.jpg","1","173","green","0.5","0.5","0.5","w","",""
"animation","109","163114","0.0-5.0-2.52","5dbf692c2a1dd63f64ef5ae4","bdp_lott","Sat Mar 25 2023 16:09:41 GMT-0700 (Pacific Daylight Time)","312519","green","red","","","","","","","","","","173","","","","","","[{""stimulus"":""img/green_ww/1.jpg"",""time"":66},{""stimulus"":""img/green_ww/2.jpg"",""time"":119},{""stimulus"":""img/green_ww/3.jpg"",""time"":152},{""stimulus"":""img/green_ww/4.jpg"",""time"":201},{""stimulus"":""img/green_ww/5.jpg"",""time"":251},{""stimulus"":""img/green_ww/6.jpg"",""time"":300},{""stimulus"":""img/green_ww/7.jpg"",""time"":351},{""stimulus"":""img/green_ww/8.jpg"",""time"":402},{""stimulus"":""img/green_ww/9.jpg"",""time"":451},{""stimulus"":""img/green_ww/10.jpg"",""time"":519},{""stimulus"":""img/green_ww/11.jpg"",""time"":551}]","[]"
"image-keyboard-response","110","163279","0.0-5.0-1.53","5dbf692c2a1dd63f64ef5ae4","bdp_lott","Sat Mar 25 2023 16:09:41 GMT-0700 (Pacific Daylight Time)","312519","green","red","","165","","","","choice","","img/green_ww/choose11.jpg","1","172","green","0.5","0.5","0.5","l","",""
"animation","111","163880","0.0-5.0-2.53","5dbf692c2a1dd63f64ef5ae4","bdp_lott","Sat Mar 25 2023 16:09:41 GMT-0700 (Pacific Daylight Time)","312519","green","red","","","","","","","","","","172","","","","","","[{""stimulus"":""img/green_lw/1.jpg"",""time"":59},{""stimulus"":""img/green_lw/2.jpg"",""time"":119},{""stimulus"":""img/green_lw/3.jpg"",""time"":151},{""stimulus"":""img/green_lw/4.jpg"",""time"":203},{""stimulus"":""img/green_lw/5.jpg"",""time"":251},{""stimulus"":""img/green_lw/6.jpg"",""time"":301},{""stimulus"":""img/green_lw/7.jpg"",""time"":351},{""stimulus"":""img/green_lw/8.jpg"",""time"":401},{""stimulus"":""img/green_lw/9.jpg"",""time"":452},{""stimulus"":""img/green_lw/10.jpg"",""time"":501},{""stimulus"":""img/green_lw/11.jpg"",""time"":551}]","[]"
"image-keyboard-response","112","164086","0.0-5.0-1.54","5dbf692c2a1dd63f64ef5ae4","bdp_lott","Sat Mar 25 2023 16:09:41 GMT-0700 (Pacific Daylight Time)","312519","green","red","","206","","","","choice","","img/green_lw/choose11.jpg","2","171","red","0.5","0.5","0.5","w","",""
"animation","113","164687","0.0-5.0-2.54","5dbf692c2a1dd63f64ef5ae4","bdp_lott","Sat Mar 25 2023 16:09:41 GMT-0700 (Pacific Daylight Time)","312519","green","red","","","","","","","","","","171","","","","","","[{""stimulus"":""img/red_lw/1.jpg"",""time"":65},{""stimulus"":""img/red_lw/2.jpg"",""time"":113},{""stimulus"":""img/red_lw/3.jpg"",""time"":161},{""stimulus"":""img/red_lw/4.jpg"",""time"":210},{""stimulus"":""img/red_lw/5.jpg"",""time"":260},{""stimulus"":""img/red_lw/6.jpg"",""time"":301},{""stimulus"":""img/red_lw/7.jpg"",""time"":361},{""stimulus"":""img/red_lw/8.jpg"",""time"":401},{""stimulus"":""img/red_lw/9.jpg"",""time"":451},{""stimulus"":""img/red_lw/10.jpg"",""time"":512},{""stimulus"":""img/red_lw/11.jpg"",""time"":551}]","[]"
"image-keyboard-response","114","164802","0.0-5.0-1.55","5dbf692c2a1dd63f64ef5ae4","bdp_lott","Sat Mar 25 2023 16:09:41 GMT-0700 (Pacific Daylight Time)","312519","green","red","","115","","","","choice","","img/red_lw/choose11.jpg","2","170","red","0.5","0.5","0.5","w","",""
"animation","115","165412","0.0-5.0-2.55","5dbf692c2a1dd63f64ef5ae4","bdp_lott","Sat Mar 25 2023 16:09:41 GMT-0700 (Pacific Daylight Time)","312519","green","red","","","","","","","","","","170","","","","","","[{""stimulus"":""img/red_lw/1.jpg"",""time"":57},{""stimulus"":""img/red_lw/2.jpg"",""time"":113},{""stimulus"":""img/red_lw/3.jpg"",""time"":160},{""stimulus"":""img/red_lw/4.jpg"",""time"":213},{""stimulus"":""img/red_lw/5.jpg"",""time"":252},{""stimulus"":""img/red_lw/6.jpg"",""time"":311},{""stimulus"":""img/red_lw/7.jpg"",""time"":361},{""stimulus"":""img/red_lw/8.jpg"",""time"":412},{""stimulus"":""img/red_lw/9.jpg"",""time"":451},{""stimulus"":""img/red_lw/10.jpg"",""time"":501},{""stimulus"":""img/red_lw/11.jpg"",""time"":562}]","[]"
"image-keyboard-response","116","165642","0.0-5.0-1.56","5dbf692c2a1dd63f64ef5ae4","bdp_lott","Sat Mar 25 2023 16:09:41 GMT-0700 (Pacific Daylight Time)","312519","green","red","","229","","","","choice","","img/red_lw/choose11.jpg","1","169","green","0.5","0.5","0.5","l","",""
"animation","117","166242","0.0-5.0-2.56","5dbf692c2a1dd63f64ef5ae4","bdp_lott","Sat Mar 25 2023 16:09:41 GMT-0700 (Pacific Daylight Time)","312519","green","red","","","","","","","","","","169","","","","","","[{""stimulus"":""img/green_lw/1.jpg"",""time"":58},{""stimulus"":""img/green_lw/2.jpg"",""time"":107},{""stimulus"":""img/green_lw/3.jpg"",""time"":151},{""stimulus"":""img/green_lw/4.jpg"",""time"":201},{""stimulus"":""img/green_lw/5.jpg"",""time"":251},{""stimulus"":""img/green_lw/6.jpg"",""time"":301},{""stimulus"":""img/green_lw/7.jpg"",""time"":351},{""stimulus"":""img/green_lw/8.jpg"",""time"":401},{""stimulus"":""img/green_lw/9.jpg"",""time"":451},{""stimulus"":""img/green_lw/10.jpg"",""time"":504},{""stimulus"":""img/green_lw/11.jpg"",""time"":551}]","[]"
"image-keyboard-response","118","166414","0.0-5.0-1.57","5dbf692c2a1dd63f64ef5ae4","bdp_lott","Sat Mar 25 2023 16:09:41 GMT-0700 (Pacific Daylight Time)","312519","green","red","","171","","","","choice","","img/green_lw/choose11.jpg","1","168","green","0.5","0.5","0.5","w","",""
"animation","119","167015","0.0-5.0-2.57","5dbf692c2a1dd63f64ef5ae4","bdp_lott","Sat Mar 25 2023 16:09:41 GMT-0700 (Pacific Daylight Time)","312519","green","red","","","","","","","","","","168","","","","","","[{""stimulus"":""img/green_ww/1.jpg"",""time"":58},{""stimulus"":""img/green_ww/2.jpg"",""time"":101},{""stimulus"":""img/green_ww/3.jpg"",""time"":151},{""stimulus"":""img/green_ww/4.jpg"",""time"":201},{""stimulus"":""img/green_ww/5.jpg"",""time"":250},{""stimulus"":""img/green_ww/6.jpg"",""time"":301},{""stimulus"":""img/green_ww/7.jpg"",""time"":351},{""stimulus"":""img/green_ww/8.jpg"",""time"":401},{""stimulus"":""img/green_ww/9.jpg"",""time"":451},{""stimulus"":""img/green_ww/10.jpg"",""time"":501},{""stimulus"":""img/green_ww/11.jpg"",""time"":551}]","[]"
"image-keyboard-response","120","167185","0.0-5.0-1.58","5dbf692c2a1dd63f64ef5ae4","bdp_lott","Sat Mar 25 2023 16:09:41 GMT-0700 (Pacific Daylight Time)","312519","green","red","","170","","","","choice","","img/green_ww/choose11.jpg","2","167","red","0.5","0.5","0.5","w","",""
"animation","121","167786","0.0-5.0-2.58","5dbf692c2a1dd63f64ef5ae4","bdp_lott","Sat Mar 25 2023 16:09:41 GMT-0700 (Pacific Daylight Time)","312519","green","red","","","","","","","","","","167","","","","","","[{""stimulus"":""img/red_ww/1.jpg"",""time"":53},{""stimulus"":""img/red_ww/2.jpg"",""time"":113},{""stimulus"":""img/red_ww/3.jpg"",""time"":161},{""stimulus"":""img/red_ww/4.jpg"",""time"":201},{""stimulus"":""img/red_ww/5.jpg"",""time"":263},{""stimulus"":""img/red_ww/6.jpg"",""time"":301},{""stimulus"":""img/red_ww/7.jpg"",""time"":362},{""stimulus"":""img/red_ww/8.jpg"",""time"":411},{""stimulus"":""img/red_ww/9.jpg"",""time"":461},{""stimulus"":""img/red_ww/10.jpg"",""time"":501},{""stimulus"":""img/red_ww/11.jpg"",""time"":561}]","[]"
"image-keyboard-response","122","167911","0.0-5.0-1.59","5dbf692c2a1dd63f64ef5ae4","bdp_lott","Sat Mar 25 2023 16:09:41 GMT-0700 (Pacific Daylight Time)","312519","green","red","","125","","","","choice","","img/red_ww/choose11.jpg","2","166","red","0.5","0.5","0.5","l","",""
"animation","123","168514","0.0-5.0-2.59","5dbf692c2a1dd63f64ef5ae4","bdp_lott","Sat Mar 25 2023 16:09:41 GMT-0700 (Pacific Daylight Time)","312519","green","red","","","","","","","","","","166","","","","","","[{""stimulus"":""img/red_wl/1.jpg"",""time"":63},{""stimulus"":""img/red_wl/2.jpg"",""time"":104},{""stimulus"":""img/red_wl/3.jpg"",""time"":150},{""stimulus"":""img/red_wl/4.jpg"",""time"":200},{""stimulus"":""img/red_wl/5.jpg"",""time"":250},{""stimulus"":""img/red_wl/6.jpg"",""time"":301},{""stimulus"":""img/red_wl/7.jpg"",""time"":350},{""stimulus"":""img/red_wl/8.jpg"",""time"":400},{""stimulus"":""img/red_wl/9.jpg"",""time"":451},{""stimulus"":""img/red_wl/10.jpg"",""time"":501},{""stimulus"":""img/red_wl/11.jpg"",""time"":553}]","[]"
"image-keyboard-response","124","168668","0.0-5.0-1.60","5dbf692c2a1dd63f64ef5ae4","bdp_lott","Sat Mar 25 2023 16:09:41 GMT-0700 (Pacific Daylight Time)","312519","green","red","","154","","","","choice","","img/red_wl/choose11.jpg","1","165","green","0.5","0.5","0.5","l","",""
"animation","125","169269","0.0-5.0-2.60","5dbf692c2a1dd63f64ef5ae4","bdp_lott","Sat Mar 25 2023 16:09:41 GMT-0700 (Pacific Daylight Time)","312519","green","red","","","","","","","","","","165","","","","","","[{""stimulus"":""img/green_ll/1.jpg"",""time"":54},{""stimulus"":""img/green_ll/2.jpg"",""time"":113},{""stimulus"":""img/green_ll/3.jpg"",""time"":161},{""stimulus"":""img/green_ll/4.jpg"",""time"":212},{""stimulus"":""img/green_ll/5.jpg"",""time"":263},{""stimulus"":""img/green_ll/6.jpg"",""time"":313},{""stimulus"":""img/green_ll/7.jpg"",""time"":358},{""stimulus"":""img/green_ll/8.jpg"",""time"":411},{""stimulus"":""img/green_ll/9.jpg"",""time"":451},{""stimulus"":""img/green_ll/10.jpg"",""time"":501},{""stimulus"":""img/green_ll/11.jpg"",""time"":551}]","[]"
"image-keyboard-response","126","169339","0.0-5.0-1.61","5dbf692c2a1dd63f64ef5ae4","bdp_lott","Sat Mar 25 2023 16:09:41 GMT-0700 (Pacific Daylight Time)","312519","green","red","","70","","","","choice","","img/green_ll/choose11.jpg","1","164","green","0.5","0.5","0.5","w","",""
"animation","127","169947","0.0-5.0-2.61","5dbf692c2a1dd63f64ef5ae4","bdp_lott","Sat Mar 25 2023 16:09:41 GMT-0700 (Pacific Daylight Time)","312519","green","red","","","","","","","","","","164","","","","","","[{""stimulus"":""img/green_wl/1.jpg"",""time"":56},{""stimulus"":""img/green_wl/2.jpg"",""time"":109},{""stimulus"":""img/green_wl/3.jpg"",""time"":151},{""stimulus"":""img/green_wl/4.jpg"",""time"":207},{""stimulus"":""img/green_wl/5.jpg"",""time"":251},{""stimulus"":""img/green_wl/6.jpg"",""time"":301},{""stimulus"":""img/green_wl/7.jpg"",""time"":351},{""stimulus"":""img/green_wl/8.jpg"",""time"":401},{""stimulus"":""img/green_wl/9.jpg"",""time"":451},{""stimulus"":""img/green_wl/10.jpg"",""time"":501},{""stimulus"":""img/green_wl/11.jpg"",""time"":550}]","[]"
"image-keyboard-response","128","170171","0.0-5.0-1.62","5dbf692c2a1dd63f64ef5ae4","bdp_lott","Sat Mar 25 2023 16:09:41 GMT-0700 (Pacific Daylight Time)","312519","green","red","","223","","","","choice","","img/green_wl/choose11.jpg","2","163","red","0.5","0.5","0.5","l","",""
"animation","129","170771","0.0-5.0-2.62","5dbf692c2a1dd63f64ef5ae4","bdp_lott","Sat Mar 25 2023 16:09:41 GMT-0700 (Pacific Daylight Time)","312519","green","red","","","","","","","","","","163","","","","","","[{""stimulus"":""img/red_wl/1.jpg"",""time"":63},{""stimulus"":""img/red_wl/2.jpg"",""time"":101},{""stimulus"":""img/red_wl/3.jpg"",""time"":151},{""stimulus"":""img/red_wl/4.jpg"",""time"":201},{""stimulus"":""img/red_wl/5.jpg"",""time"":259},{""stimulus"":""img/red_wl/6.jpg"",""time"":301},{""stimulus"":""img/red_wl/7.jpg"",""time"":360},{""stimulus"":""img/red_wl/8.jpg"",""time"":409},{""stimulus"":""img/red_wl/9.jpg"",""time"":456},{""stimulus"":""img/red_wl/10.jpg"",""time"":501},{""stimulus"":""img/red_wl/11.jpg"",""time"":558}]","[]"
"image-keyboard-response","130","170891","0.0-5.0-1.63","5dbf692c2a1dd63f64ef5ae4","bdp_lott","Sat Mar 25 2023 16:09:41 GMT-0700 (Pacific Daylight Time)","312519","green","red","","119","","","","choice","","img/red_wl/choose11.jpg","2","162","red","0.5","0.5","0.5","l","",""
"animation","131","171492","0.0-5.0-2.63","5dbf692c2a1dd63f64ef5ae4","bdp_lott","Sat Mar 25 2023 16:09:41 GMT-0700 (Pacific Daylight Time)","312519","green","red","","","","","","","","","","162","","","","","","[{""stimulus"":""img/red_wl/1.jpg"",""time"":66},{""stimulus"":""img/red_wl/2.jpg"",""time"":123},{""stimulus"":""img/red_wl/3.jpg"",""time"":152},{""stimulus"":""img/red_wl/4.jpg"",""time"":207},{""stimulus"":""img/red_wl/5.jpg"",""time"":252},{""stimulus"":""img/red_wl/6.jpg"",""time"":307},{""stimulus"":""img/red_wl/7.jpg"",""time"":352},{""stimulus"":""img/red_wl/8.jpg"",""time"":401},{""stimulus"":""img/red_wl/9.jpg"",""time"":455},{""stimulus"":""img/red_wl/10.jpg"",""time"":505},{""stimulus"":""img/red_wl/11.jpg"",""time"":551}]","[]"
"image-keyboard-response","132","172130","0.0-5.0-1.64","5dbf692c2a1dd63f64ef5ae4","bdp_lott","Sat Mar 25 2023 16:09:41 GMT-0700 (Pacific Daylight Time)","312519","green","red","","637","","","","choice","","img/red_wl/choose11.jpg","1","161","green","0.5","0.5","0.5","w","",""
"animation","133","172731","0.0-5.0-2.64","5dbf692c2a1dd63f64ef5ae4","bdp_lott","Sat Mar 25 2023 16:09:41 GMT-0700 (Pacific Daylight Time)","312519","green","red","","","","","","","","","","161","","","","","","[{""stimulus"":""img/green_wl/1.jpg"",""time"":59},{""stimulus"":""img/green_wl/2.jpg"",""time"":101},{""stimulus"":""img/green_wl/3.jpg"",""time"":151},{""stimulus"":""img/green_wl/4.jpg"",""time"":201},{""stimulus"":""img/green_wl/5.jpg"",""time"":251},{""stimulus"":""img/green_wl/6.jpg"",""time"":301},{""stimulus"":""img/green_wl/7.jpg"",""time"":351},{""stimulus"":""img/green_wl/8.jpg"",""time"":401},{""stimulus"":""img/green_wl/9.jpg"",""time"":451},{""stimulus"":""img/green_wl/10.jpg"",""time"":501},{""stimulus"":""img/green_wl/11.jpg"",""time"":551}]","[]"
"image-keyboard-response","134","172880","0.0-5.0-1.65","5dbf692c2a1dd63f64ef5ae4","bdp_lott","Sat Mar 25 2023 16:09:41 GMT-0700 (Pacific Daylight Time)","312519","green","red","","148","","","","choice","","img/green_wl/choose11.jpg","1","160","green","0.5","0.5","0.5","w","",""
"animation","135","173481","0.0-5.0-2.65","5dbf692c2a1dd63f64ef5ae4","bdp_lott","Sat Mar 25 2023 16:09:41 GMT-0700 (Pacific Daylight Time)","312519","green","red","","","","","","","","","","160","","","","","","[{""stimulus"":""img/green_wl/1.jpg"",""time"":60},{""stimulus"":""img/green_wl/2.jpg"",""time"":101},{""stimulus"":""img/green_wl/3.jpg"",""time"":150},{""stimulus"":""img/green_wl/4.jpg"",""time"":201},{""stimulus"":""img/green_wl/5.jpg"",""time"":251},{""stimulus"":""img/green_wl/6.jpg"",""time"":301},{""stimulus"":""img/green_wl/7.jpg"",""time"":351},{""stimulus"":""img/green_wl/8.jpg"",""time"":401},{""stimulus"":""img/green_wl/9.jpg"",""time"":450},{""stimulus"":""img/green_wl/10.jpg"",""time"":501},{""stimulus"":""img/green_wl/11.jpg"",""time"":568}]","[]"
"image-keyboard-response","136","173732","0.0-5.0-1.66","5dbf692c2a1dd63f64ef5ae4","bdp_lott","Sat Mar 25 2023 16:09:41 GMT-0700 (Pacific Daylight Time)","312519","green","red","","250","","","","choice","","img/green_wl/choose11.jpg","2","159","red","0.5","0.5","0.5","l","",""
"animation","137","174333","0.0-5.0-2.66","5dbf692c2a1dd63f64ef5ae4","bdp_lott","Sat Mar 25 2023 16:09:41 GMT-0700 (Pacific Daylight Time)","312519","green","red","","","","","","","","","","159","","","","","","[{""stimulus"":""img/red_wl/1.jpg"",""time"":66},{""stimulus"":""img/red_wl/2.jpg"",""time"":114},{""stimulus"":""img/red_wl/3.jpg"",""time"":152},{""stimulus"":""img/red_wl/4.jpg"",""time"":213},{""stimulus"":""img/red_wl/5.jpg"",""time"":265},{""stimulus"":""img/red_wl/6.jpg"",""time"":301},{""stimulus"":""img/red_wl/7.jpg"",""time"":351},{""stimulus"":""img/red_wl/8.jpg"",""time"":401},{""stimulus"":""img/red_wl/9.jpg"",""time"":451},{""stimulus"":""img/red_wl/10.jpg"",""time"":501},{""stimulus"":""img/red_wl/11.jpg"",""time"":551}]","[]"
"image-keyboard-response","138","174496","0.0-5.0-1.67","5dbf692c2a1dd63f64ef5ae4","bdp_lott","Sat Mar 25 2023 16:09:41 GMT-0700 (Pacific Daylight Time)","312519","green","red","","163","","","","choice","","img/red_wl/choose11.jpg","2","158","red","0.5","0.5","0.5","l","",""
"animation","139","175098","0.0-5.0-2.67","5dbf692c2a1dd63f64ef5ae4","bdp_lott","Sat Mar 25 2023 16:09:41 GMT-0700 (Pacific Daylight Time)","312519","green","red","","","","","","","","","","158","","","","","","[{""stimulus"":""img/red_wl/1.jpg"",""time"":59},{""stimulus"":""img/red_wl/2.jpg"",""time"":101},{""stimulus"":""img/red_wl/3.jpg"",""time"":168},{""stimulus"":""img/red_wl/4.jpg"",""time"":202},{""stimulus"":""img/red_wl/5.jpg"",""time"":251},{""stimulus"":""img/red_wl/6.jpg"",""time"":301},{""stimulus"":""img/red_wl/7.jpg"",""time"":351},{""stimulus"":""img/red_wl/8.jpg"",""time"":401},{""stimulus"":""img/red_wl/9.jpg"",""time"":467},{""stimulus"":""img/red_wl/10.jpg"",""time"":502},{""stimulus"":""img/red_wl/11.jpg"",""time"":552}]","[]"
"image-keyboard-response","140","175265","0.0-5.0-1.68","5dbf692c2a1dd63f64ef5ae4","bdp_lott","Sat Mar 25 2023 16:09:41 GMT-0700 (Pacific Daylight Time)","312519","green","red","","167","","","","choice","","img/red_wl/choose11.jpg","1","157","green","0.5","0.5","0.5","l","",""
"animation","141","175866","0.0-5.0-2.68","5dbf692c2a1dd63f64ef5ae4","bdp_lott","Sat Mar 25 2023 16:09:41 GMT-0700 (Pacific Daylight Time)","312519","green","red","","","","","","","","","","157","","","","","","[{""stimulus"":""img/green_ll/1.jpg"",""time"":55},{""stimulus"":""img/green_ll/2.jpg"",""time"":115},{""stimulus"":""img/green_ll/3.jpg"",""time"":151},{""stimulus"":""img/green_ll/4.jpg"",""time"":200},{""stimulus"":""img/green_ll/5.jpg"",""time"":264},{""stimulus"":""img/green_ll/6.jpg"",""time"":300},{""stimulus"":""img/green_ll/7.jpg"",""time"":363},{""stimulus"":""img/green_ll/8.jpg"",""time"":400},{""stimulus"":""img/green_ll/9.jpg"",""time"":450},{""stimulus"":""img/green_ll/10.jpg"",""time"":500},{""stimulus"":""img/green_ll/11.jpg"",""time"":550}]","[]"
"image-keyboard-response","142","176157","0.0-5.0-1.69","5dbf692c2a1dd63f64ef5ae4","bdp_lott","Sat Mar 25 2023 16:09:41 GMT-0700 (Pacific Daylight Time)","312519","green","red","","291","","","","choice","","img/green_ll/choose11.jpg","1","156","green","0.5","0.5","0.5","w","",""
"animation","143","176762","0.0-5.0-2.69","5dbf692c2a1dd63f64ef5ae4","bdp_lott","Sat Mar 25 2023 16:09:41 GMT-0700 (Pacific Daylight Time)","312519","green","red","","","","","","","","","","156","","","","","","[{""stimulus"":""img/green_wl/1.jpg"",""time"":56},{""stimulus"":""img/green_wl/2.jpg"",""time"":100},{""stimulus"":""img/green_wl/3.jpg"",""time"":157},{""stimulus"":""img/green_wl/4.jpg"",""time"":200},{""stimulus"":""img/green_wl/5.jpg"",""time"":255},{""stimulus"":""img/green_wl/6.jpg"",""time"":307},{""stimulus"":""img/green_wl/7.jpg"",""time"":356},{""stimulus"":""img/green_wl/8.jpg"",""time"":402},{""stimulus"":""img/green_wl/9.jpg"",""time"":455},{""stimulus"":""img/green_wl/10.jpg"",""time"":505},{""stimulus"":""img/green_wl/11.jpg"",""time"":551}]","[]"
"image-keyboard-response","144","177144","0.0-5.0-1.70","5dbf692c2a1dd63f64ef5ae4","bdp_lott","Sat Mar 25 2023 16:09:41 GMT-0700 (Pacific Daylight Time)","312519","green","red","","382","","","","choice","","img/green_wl/choose11.jpg","2","155","red","0.5","0.5","0.5","l","",""
"animation","145","177745","0.0-5.0-2.70","5dbf692c2a1dd63f64ef5ae4","bdp_lott","Sat Mar 25 2023 16:09:41 GMT-0700 (Pacific Daylight Time)","312519","green","red","","","","","","","","","","155","","","","","","[{""stimulus"":""img/red_wl/1.jpg"",""time"":62},{""stimulus"":""img/red_wl/2.jpg"",""time"":120},{""stimulus"":""img/red_wl/3.jpg"",""time"":151},{""stimulus"":""img/red_wl/4.jpg"",""time"":203},{""stimulus"":""img/red_wl/5.jpg"",""time"":270},{""stimulus"":""img/red_wl/6.jpg"",""time"":300},{""stimulus"":""img/red_wl/7.jpg"",""time"":353},{""stimulus"":""img/red_wl/8.jpg"",""time"":400},{""stimulus"":""img/red_wl/9.jpg"",""time"":451},{""stimulus"":""img/red_wl/10.jpg"",""time"":501},{""stimulus"":""img/red_wl/11.jpg"",""time"":551}]","[]"
"image-keyboard-response","146","178000","0.0-5.0-1.71","5dbf692c2a1dd63f64ef5ae4","bdp_lott","Sat Mar 25 2023 16:09:41 GMT-0700 (Pacific Daylight Time)","312519","green","red","","255","","","","choice","","img/red_wl/choose11.jpg","2","154","red","0.5","0.5","0.5","w","",""
"animation","147","178601","0.0-5.0-2.71","5dbf692c2a1dd63f64ef5ae4","bdp_lott","Sat Mar 25 2023 16:09:41 GMT-0700 (Pacific Daylight Time)","312519","green","red","","","","","","","","","","154","","","","","","[{""stimulus"":""img/red_ww/1.jpg"",""time"":63},{""stimulus"":""img/red_ww/2.jpg"",""time"":100},{""stimulus"":""img/red_ww/3.jpg"",""time"":150},{""stimulus"":""img/red_ww/4.jpg"",""time"":200},{""stimulus"":""img/red_ww/5.jpg"",""time"":250},{""stimulus"":""img/red_ww/6.jpg"",""time"":300},{""stimulus"":""img/red_ww/7.jpg"",""time"":350},{""stimulus"":""img/red_ww/8.jpg"",""time"":400},{""stimulus"":""img/red_ww/9.jpg"",""time"":450},{""stimulus"":""img/red_ww/10.jpg"",""time"":500},{""stimulus"":""img/red_ww/11.jpg"",""time"":550}]","[]"
"image-keyboard-response","148","178851","0.0-5.0-1.72","5dbf692c2a1dd63f64ef5ae4","bdp_lott","Sat Mar 25 2023 16:09:41 GMT-0700 (Pacific Daylight Time)","312519","green","red","","250","","","","choice","","img/red_ww/choose11.jpg","1","153","green","0.5","0.5","0.5","l","",""
"animation","149","179452","0.0-5.0-2.72","5dbf692c2a1dd63f64ef5ae4","bdp_lott","Sat Mar 25 2023 16:09:41 GMT-0700 (Pacific Daylight Time)","312519","green","red","","","","","","","","","","153","","","","","","[{""stimulus"":""img/green_lw/1.jpg"",""time"":64},{""stimulus"":""img/green_lw/2.jpg"",""time"":112},{""stimulus"":""img/green_lw/3.jpg"",""time"":160},{""stimulus"":""img/green_lw/4.jpg"",""time"":212},{""stimulus"":""img/green_lw/5.jpg"",""time"":261},{""stimulus"":""img/green_lw/6.jpg"",""time"":301},{""stimulus"":""img/green_lw/7.jpg"",""time"":351},{""stimulus"":""img/green_lw/8.jpg"",""time"":401},{""stimulus"":""img/green_lw/9.jpg"",""time"":451},{""stimulus"":""img/green_lw/10.jpg"",""time"":510},{""stimulus"":""img/green_lw/11.jpg"",""time"":551}]","[]"
"image-keyboard-response","150","179624","0.0-5.0-1.73","5dbf692c2a1dd63f64ef5ae4","bdp_lott","Sat Mar 25 2023 16:09:41 GMT-0700 (Pacific Daylight Time)","312519","green","red","","172","","","","choice","","img/green_lw/choose11.jpg","2","152","red","0.5","0.5","0.5","w","",""
"animation","151","180228","0.0-5.0-2.73","5dbf692c2a1dd63f64ef5ae4","bdp_lott","Sat Mar 25 2023 16:09:41 GMT-0700 (Pacific Daylight Time)","312519","green","red","","","","","","","","","","152","","","","","","[{""stimulus"":""img/red_lw/1.jpg"",""time"":63},{""stimulus"":""img/red_lw/2.jpg"",""time"":101},{""stimulus"":""img/red_lw/3.jpg"",""time"":151},{""stimulus"":""img/red_lw/4.jpg"",""time"":201},{""stimulus"":""img/red_lw/5.jpg"",""time"":251},{""stimulus"":""img/red_lw/6.jpg"",""time"":301},{""stimulus"":""img/red_lw/7.jpg"",""time"":351},{""stimulus"":""img/red_lw/8.jpg"",""time"":401},{""stimulus"":""img/red_lw/9.jpg"",""time"":451},{""stimulus"":""img/red_lw/10.jpg"",""time"":503},{""stimulus"":""img/red_lw/11.jpg"",""time"":554}]","[]"
"image-keyboard-response","152","180423","0.0-5.0-1.74","5dbf692c2a1dd63f64ef5ae4","bdp_lott","Sat Mar 25 2023 16:09:41 GMT-0700 (Pacific Daylight Time)","312519","green","red","","195","","","","choice","","img/red_lw/choose11.jpg","1","151","green","0.5","0.5","0.5","w","",""
"animation","153","181023","0.0-5.0-2.74","5dbf692c2a1dd63f64ef5ae4","bdp_lott","Sat Mar 25 2023 16:09:41 GMT-0700 (Pacific Daylight Time)","312519","green","red","","","","","","","","","","151","","","","","","[{""stimulus"":""img/green_ww/1.jpg"",""time"":61},{""stimulus"":""img/green_ww/2.jpg"",""time"":101},{""stimulus"":""img/green_ww/3.jpg"",""time"":151},{""stimulus"":""img/green_ww/4.jpg"",""time"":201},{""stimulus"":""img/green_ww/5.jpg"",""time"":250},{""stimulus"":""img/green_ww/6.jpg"",""time"":301},{""stimulus"":""img/green_ww/7.jpg"",""time"":350},{""stimulus"":""img/green_ww/8.jpg"",""time"":401},{""stimulus"":""img/green_ww/9.jpg"",""time"":451},{""stimulus"":""img/green_ww/10.jpg"",""time"":500},{""stimulus"":""img/green_ww/11.jpg"",""time"":551}]","[]"
"image-keyboard-response","154","181326","0.0-5.0-1.75","5dbf692c2a1dd63f64ef5ae4","bdp_lott","Sat Mar 25 2023 16:09:41 GMT-0700 (Pacific Daylight Time)","312519","green","red","","302","","","","choice","","img/green_ww/choose11.jpg","2","150","red","0.5","0.5","0.5","l","",""
"animation","155","181927","0.0-5.0-2.75","5dbf692c2a1dd63f64ef5ae4","bdp_lott","Sat Mar 25 2023 16:09:41 GMT-0700 (Pacific Daylight Time)","312519","green","red","","","","","","","","","","150","","","","","","[{""stimulus"":""img/red_wl/1.jpg"",""time"":51},{""stimulus"":""img/red_wl/2.jpg"",""time"":103},{""stimulus"":""img/red_wl/3.jpg"",""time"":152},{""stimulus"":""img/red_wl/4.jpg"",""time"":201},{""stimulus"":""img/red_wl/5.jpg"",""time"":250},{""stimulus"":""img/red_wl/6.jpg"",""time"":301},{""stimulus"":""img/red_wl/7.jpg"",""time"":350},{""stimulus"":""img/red_wl/8.jpg"",""time"":400},{""stimulus"":""img/red_wl/9.jpg"",""time"":451},{""stimulus"":""img/red_wl/10.jpg"",""time"":500},{""stimulus"":""img/red_wl/11.jpg"",""time"":552}]","[]"
"image-keyboard-response","156","182257","0.0-5.0-1.76","5dbf692c2a1dd63f64ef5ae4","bdp_lott","Sat Mar 25 2023 16:09:41 GMT-0700 (Pacific Daylight Time)","312519","green","red","","329","","","","choice","","img/red_wl/choose11.jpg","1","149","green","0.5","0.1","0.5","w","",""
"animation","157","182857","0.0-5.0-2.76","5dbf692c2a1dd63f64ef5ae4","bdp_lott","Sat Mar 25 2023 16:09:41 GMT-0700 (Pacific Daylight Time)","312519","green","red","","","","","","","","","","149","","","","","","[{""stimulus"":""img/green_wl/1.jpg"",""time"":53},{""stimulus"":""img/green_wl/2.jpg"",""time"":106},{""stimulus"":""img/green_wl/3.jpg"",""time"":150},{""stimulus"":""img/green_wl/4.jpg"",""time"":201},{""stimulus"":""img/green_wl/5.jpg"",""time"":251},{""stimulus"":""img/green_wl/6.jpg"",""time"":301},{""stimulus"":""img/green_wl/7.jpg"",""time"":351},{""stimulus"":""img/green_wl/8.jpg"",""time"":401},{""stimulus"":""img/green_wl/9.jpg"",""time"":451},{""stimulus"":""img/green_wl/10.jpg"",""time"":504},{""stimulus"":""img/green_wl/11.jpg"",""time"":551}]","[]"
"image-keyboard-response","158","183110","0.0-5.0-1.77","5dbf692c2a1dd63f64ef5ae4","bdp_lott","Sat Mar 25 2023 16:09:41 GMT-0700 (Pacific Daylight Time)","312519","green","red","","252","","","","choice","","img/green_wl/choose11.jpg","2","148","red","0.5","0.1","0.1","l","",""
"animation","159","183710","0.0-5.0-2.77","5dbf692c2a1dd63f64ef5ae4","bdp_lott","Sat Mar 25 2023 16:09:41 GMT-0700 (Pacific Daylight Time)","312519","green","red","","","","","","","","","","148","","","","","","[{""stimulus"":""img/red_wl/1.jpg"",""time"":54},{""stimulus"":""img/red_wl/2.jpg"",""time"":101},{""stimulus"":""img/red_wl/3.jpg"",""time"":151},{""stimulus"":""img/red_wl/4.jpg"",""time"":203},{""stimulus"":""img/red_wl/5.jpg"",""time"":251},{""stimulus"":""img/red_wl/6.jpg"",""time"":301},{""stimulus"":""img/red_wl/7.jpg"",""time"":351},{""stimulus"":""img/red_wl/8.jpg"",""time"":401},{""stimulus"":""img/red_wl/9.jpg"",""time"":451},{""stimulus"":""img/red_wl/10.jpg"",""time"":500},{""stimulus"":""img/red_wl/11.jpg"",""time"":551}]","[]"
"image-keyboard-response","160","184011","0.0-5.0-1.78","5dbf692c2a1dd63f64ef5ae4","bdp_lott","Sat Mar 25 2023 16:09:41 GMT-0700 (Pacific Daylight Time)","312519","green","red","","301","","","","choice","","img/red_wl/choose11.jpg","1","147","green","0.5","0.1","0.5","w","",""
"animation","161","184612","0.0-5.0-2.78","5dbf692c2a1dd63f64ef5ae4","bdp_lott","Sat Mar 25 2023 16:09:41 GMT-0700 (Pacific Daylight Time)","312519","green","red","","","","","","","","","","147","","","","","","[{""stimulus"":""img/green_wl/1.jpg"",""time"":64},{""stimulus"":""img/green_wl/2.jpg"",""time"":118},{""stimulus"":""img/green_wl/3.jpg"",""time"":150},{""stimulus"":""img/green_wl/4.jpg"",""time"":217},{""stimulus"":""img/green_wl/5.jpg"",""time"":250},{""stimulus"":""img/green_wl/6.jpg"",""time"":300},{""stimulus"":""img/green_wl/7.jpg"",""time"":351},{""stimulus"":""img/green_wl/8.jpg"",""time"":400},{""stimulus"":""img/green_wl/9.jpg"",""time"":450},{""stimulus"":""img/green_wl/10.jpg"",""time"":500},{""stimulus"":""img/green_wl/11.jpg"",""time"":551}]","[]"
"image-keyboard-response","162","184894","0.0-5.0-1.79","5dbf692c2a1dd63f64ef5ae4","bdp_lott","Sat Mar 25 2023 16:09:41 GMT-0700 (Pacific Daylight Time)","312519","green","red","","281","","","","choice","","img/green_wl/choose11.jpg","2","146","red","0.5","0.1","0.1","l","",""
"animation","163","185496","0.0-5.0-2.79","5dbf692c2a1dd63f64ef5ae4","bdp_lott","Sat Mar 25 2023 16:09:41 GMT-0700 (Pacific Daylight Time)","312519","green","red","","","","","","","","","","146","","","","","","[{""stimulus"":""img/red_wl/1.jpg"",""time"":51},{""stimulus"":""img/red_wl/2.jpg"",""time"":101},{""stimulus"":""img/red_wl/3.jpg"",""time"":169},{""stimulus"":""img/red_wl/4.jpg"",""time"":201},{""stimulus"":""img/red_wl/5.jpg"",""time"":251},{""stimulus"":""img/red_wl/6.jpg"",""time"":319},{""stimulus"":""img/red_wl/7.jpg"",""time"":351},{""stimulus"":""img/red_wl/8.jpg"",""time"":402},{""stimulus"":""img/red_wl/9.jpg"",""time"":453},{""stimulus"":""img/red_wl/10.jpg"",""time"":519},{""stimulus"":""img/red_wl/11.jpg"",""time"":551}]","[]"
"image-keyboard-response","164","185770","0.0-5.0-1.80","5dbf692c2a1dd63f64ef5ae4","bdp_lott","Sat Mar 25 2023 16:09:41 GMT-0700 (Pacific Daylight Time)","312519","green","red","","274","","","","choice","","img/red_wl/choose11.jpg","1","145","green","0.5","0.1","0.5","l","",""
"animation","165","186377","0.0-5.0-2.80","5dbf692c2a1dd63f64ef5ae4","bdp_lott","Sat Mar 25 2023 16:09:41 GMT-0700 (Pacific Daylight Time)","312519","green","red","","","","","","","","","","145","","","","","","[{""stimulus"":""img/green_ll/1.jpg"",""time"":59},{""stimulus"":""img/green_ll/2.jpg"",""time"":107},{""stimulus"":""img/green_ll/3.jpg"",""time"":159},{""stimulus"":""img/green_ll/4.jpg"",""time"":200},{""stimulus"":""img/green_ll/5.jpg"",""time"":250},{""stimulus"":""img/green_ll/6.jpg"",""time"":308},{""stimulus"":""img/green_ll/7.jpg"",""time"":350},{""stimulus"":""img/green_ll/8.jpg"",""time"":400},{""stimulus"":""img/green_ll/9.jpg"",""time"":450},{""stimulus"":""img/green_ll/10.jpg"",""time"":507},{""stimulus"":""img/green_ll/11.jpg"",""time"":557}]","[]"
"image-keyboard-response","166","186717","0.0-5.0-1.81","5dbf692c2a1dd63f64ef5ae4","bdp_lott","Sat Mar 25 2023 16:09:41 GMT-0700 (Pacific Daylight Time)","312519","green","red","","340","","","","choice","","img/green_ll/choose11.jpg","2","144","red","0.5","0.1","0.1","l","",""
"animation","167","187318","0.0-5.0-2.81","5dbf692c2a1dd63f64ef5ae4","bdp_lott","Sat Mar 25 2023 16:09:41 GMT-0700 (Pacific Daylight Time)","312519","green","red","","","","","","","","","","144","","","","","","[{""stimulus"":""img/red_ll/1.jpg"",""time"":57},{""stimulus"":""img/red_ll/2.jpg"",""time"":112},{""stimulus"":""img/red_ll/3.jpg"",""time"":160},{""stimulus"":""img/red_ll/4.jpg"",""time"":201},{""stimulus"":""img/red_ll/5.jpg"",""time"":261},{""stimulus"":""img/red_ll/6.jpg"",""time"":301},{""stimulus"":""img/red_ll/7.jpg"",""time"":360},{""stimulus"":""img/red_ll/8.jpg"",""time"":401},{""stimulus"":""img/red_ll/9.jpg"",""time"":451},{""stimulus"":""img/red_ll/10.jpg"",""time"":500},{""stimulus"":""img/red_ll/11.jpg"",""time"":551}]","[]"
"image-keyboard-response","168","187664","0.0-5.0-1.82","5dbf692c2a1dd63f64ef5ae4","bdp_lott","Sat Mar 25 2023 16:09:41 GMT-0700 (Pacific Daylight Time)","312519","green","red","","346","","","","choice","","img/red_ll/choose11.jpg","1","143","green","0.5","0.1","0.5","l","",""
"animation","169","188265","0.0-5.0-2.82","5dbf692c2a1dd63f64ef5ae4","bdp_lott","Sat Mar 25 2023 16:09:41 GMT-0700 (Pacific Daylight Time)","312519","green","red","","","","","","","","","","143","","","","","","[{""stimulus"":""img/green_ll/1.jpg"",""time"":60},{""stimulus"":""img/green_ll/2.jpg"",""time"":115},{""stimulus"":""img/green_ll/3.jpg"",""time"":151},{""stimulus"":""img/green_ll/4.jpg"",""time"":201},{""stimulus"":""img/green_ll/5.jpg"",""time"":251},{""stimulus"":""img/green_ll/6.jpg"",""time"":301},{""stimulus"":""img/green_ll/7.jpg"",""time"":362},{""stimulus"":""img/green_ll/8.jpg"",""time"":401},{""stimulus"":""img/green_ll/9.jpg"",""time"":451},{""stimulus"":""img/green_ll/10.jpg"",""time"":502},{""stimulus"":""img/green_ll/11.jpg"",""time"":564}]","[]"
"image-keyboard-response","170","188505","0.0-5.0-1.83","5dbf692c2a1dd63f64ef5ae4","bdp_lott","Sat Mar 25 2023 16:09:41 GMT-0700 (Pacific Daylight Time)","312519","green","red","","240","","","","choice","","img/green_ll/choose11.jpg","2","142","red","0.5","0.1","0.1","l","",""
"animation","171","189106","0.0-5.0-2.83","5dbf692c2a1dd63f64ef5ae4","bdp_lott","Sat Mar 25 2023 16:09:41 GMT-0700 (Pacific Daylight Time)","312519","green","red","","","","","","","","","","142","","","","","","[{""stimulus"":""img/red_ll/1.jpg"",""time"":60},{""stimulus"":""img/red_ll/2.jpg"",""time"":101},{""stimulus"":""img/red_ll/3.jpg"",""time"":151},{""stimulus"":""img/red_ll/4.jpg"",""time"":201},{""stimulus"":""img/red_ll/5.jpg"",""time"":251},{""stimulus"":""img/red_ll/6.jpg"",""time"":301},{""stimulus"":""img/red_ll/7.jpg"",""time"":356},{""stimulus"":""img/red_ll/8.jpg"",""time"":401},{""stimulus"":""img/red_ll/9.jpg"",""time"":451},{""stimulus"":""img/red_ll/10.jpg"",""time"":501},{""stimulus"":""img/red_ll/11.jpg"",""time"":551}]","[]"
"image-keyboard-response","172","189269","0.0-5.0-1.84","5dbf692c2a1dd63f64ef5ae4","bdp_lott","Sat Mar 25 2023 16:09:41 GMT-0700 (Pacific Daylight Time)","312519","green","red","","162","","","","choice","","img/red_ll/choose11.jpg","1","141","green","0.5","0.1","0.5","w","",""
"animation","173","189869","0.0-5.0-2.84","5dbf692c2a1dd63f64ef5ae4","bdp_lott","Sat Mar 25 2023 16:09:41 GMT-0700 (Pacific Daylight Time)","312519","green","red","","","","","","","","","","141","","","","","","[{""stimulus"":""img/green_wl/1.jpg"",""time"":51},{""stimulus"":""img/green_wl/2.jpg"",""time"":110},{""stimulus"":""img/green_wl/3.jpg"",""time"":151},{""stimulus"":""img/green_wl/4.jpg"",""time"":209},{""stimulus"":""img/green_wl/5.jpg"",""time"":250},{""stimulus"":""img/green_wl/6.jpg"",""time"":308},{""stimulus"":""img/green_wl/7.jpg"",""time"":350},{""stimulus"":""img/green_wl/8.jpg"",""time"":401},{""stimulus"":""img/green_wl/9.jpg"",""time"":450},{""stimulus"":""img/green_wl/10.jpg"",""time"":508},{""stimulus"":""img/green_wl/11.jpg"",""time"":550}]","[]"
"image-keyboard-response","174","190163","0.0-5.0-1.85","5dbf692c2a1dd63f64ef5ae4","bdp_lott","Sat Mar 25 2023 16:09:41 GMT-0700 (Pacific Daylight Time)","312519","green","red","","293","","","","choice","","img/green_wl/choose11.jpg","2","140","red","0.5","0.1","0.1","l","",""
"animation","175","190764","0.0-5.0-2.85","5dbf692c2a1dd63f64ef5ae4","bdp_lott","Sat Mar 25 2023 16:09:41 GMT-0700 (Pacific Daylight Time)","312519","green","red","","","","","","","","","","140","","","","","","[{""stimulus"":""img/red_wl/1.jpg"",""time"":64},{""stimulus"":""img/red_wl/2.jpg"",""time"":115},{""stimulus"":""img/red_wl/3.jpg"",""time"":151},{""stimulus"":""img/red_wl/4.jpg"",""time"":201},{""stimulus"":""img/red_wl/5.jpg"",""time"":251},{""stimulus"":""img/red_wl/6.jpg"",""time"":301},{""stimulus"":""img/red_wl/7.jpg"",""time"":351},{""stimulus"":""img/red_wl/8.jpg"",""time"":401},{""stimulus"":""img/red_wl/9.jpg"",""time"":450},{""stimulus"":""img/red_wl/10.jpg"",""time"":501},{""stimulus"":""img/red_wl/11.jpg"",""time"":551}]","[]"
"image-keyboard-response","176","191065","0.0-5.0-1.86","5dbf692c2a1dd63f64ef5ae4","bdp_lott","Sat Mar 25 2023 16:09:41 GMT-0700 (Pacific Daylight Time)","312519","green","red","","301","","","","choice","","img/red_wl/choose11.jpg","1","139","green","0.5","0.1","0.5","w","",""
"animation","177","191666","0.0-5.0-2.86","5dbf692c2a1dd63f64ef5ae4","bdp_lott","Sat Mar 25 2023 16:09:41 GMT-0700 (Pacific Daylight Time)","312519","green","red","","","","","","","","","","139","","","","","","[{""stimulus"":""img/green_wl/1.jpg"",""time"":62},{""stimulus"":""img/green_wl/2.jpg"",""time"":109},{""stimulus"":""img/green_wl/3.jpg"",""time"":163},{""stimulus"":""img/green_wl/4.jpg"",""time"":212},{""stimulus"":""img/green_wl/5.jpg"",""time"":262},{""stimulus"":""img/green_wl/6.jpg"",""time"":315},{""stimulus"":""img/green_wl/7.jpg"",""time"":364},{""stimulus"":""img/green_wl/8.jpg"",""time"":401},{""stimulus"":""img/green_wl/9.jpg"",""time"":464},{""stimulus"":""img/green_wl/10.jpg"",""time"":512},{""stimulus"":""img/green_wl/11.jpg"",""time"":551}]","[]"
"image-keyboard-response","178","192211","0.0-5.0-1.87","5dbf692c2a1dd63f64ef5ae4","bdp_lott","Sat Mar 25 2023 16:09:41 GMT-0700 (Pacific Daylight Time)","312519","green","red","","544","","","","choice","","img/green_wl/choose11.jpg","1","138","green","0.5","0.1","0.5","w","",""
"animation","179","192812","0.0-5.0-2.87","5dbf692c2a1dd63f64ef5ae4","bdp_lott","Sat Mar 25 2023 16:09:41 GMT-0700 (Pacific Daylight Time)","312519","green","red","","","","","","","","","","138","","","","","","[{""stimulus"":""img/green_wl/1.jpg"",""time"":65},{""stimulus"":""img/green_wl/2.jpg"",""time"":101},{""stimulus"":""img/green_wl/3.jpg"",""time"":168},{""stimulus"":""img/green_wl/4.jpg"",""time"":201},{""stimulus"":""img/green_wl/5.jpg"",""time"":251},{""stimulus"":""img/green_wl/6.jpg"",""time"":301},{""stimulus"":""img/green_wl/7.jpg"",""time"":351},{""stimulus"":""img/green_wl/8.jpg"",""time"":401},{""stimulus"":""img/green_wl/9.jpg"",""time"":451},{""stimulus"":""img/green_wl/10.jpg"",""time"":502},{""stimulus"":""img/green_wl/11.jpg"",""time"":551}]","[]"
"image-keyboard-response","180","193254","0.0-5.0-1.88","5dbf692c2a1dd63f64ef5ae4","bdp_lott","Sat Mar 25 2023 16:09:41 GMT-0700 (Pacific Daylight Time)","312519","green","red","","441","","","","choice","","img/green_wl/choose11.jpg","1","137","green","0.5","0.1","0.5","w","",""
"animation","181","193855","0.0-5.0-2.88","5dbf692c2a1dd63f64ef5ae4","bdp_lott","Sat Mar 25 2023 16:09:41 GMT-0700 (Pacific Daylight Time)","312519","green","red","","","","","","","","","","137","","","","","","[{""stimulus"":""img/green_wl/1.jpg"",""time"":61},{""stimulus"":""img/green_wl/2.jpg"",""time"":123},{""stimulus"":""img/green_wl/3.jpg"",""time"":151},{""stimulus"":""img/green_wl/4.jpg"",""time"":201},{""stimulus"":""img/green_wl/5.jpg"",""time"":250},{""stimulus"":""img/green_wl/6.jpg"",""time"":300},{""stimulus"":""img/green_wl/7.jpg"",""time"":351},{""stimulus"":""img/green_wl/8.jpg"",""time"":400},{""stimulus"":""img/green_wl/9.jpg"",""time"":451},{""stimulus"":""img/green_wl/10.jpg"",""time"":505},{""stimulus"":""img/green_wl/11.jpg"",""time"":551}]","[]"
"image-keyboard-response","182","194299","0.0-5.0-1.89","5dbf692c2a1dd63f64ef5ae4","bdp_lott","Sat Mar 25 2023 16:09:41 GMT-0700 (Pacific Daylight Time)","312519","green","red","","443","","","","choice","","img/green_wl/choose11.jpg","1","136","green","0.5","0.1","0.5","w","",""
"animation","183","194899","0.0-5.0-2.89","5dbf692c2a1dd63f64ef5ae4","bdp_lott","Sat Mar 25 2023 16:09:41 GMT-0700 (Pacific Daylight Time)","312519","green","red","","","","","","","","","","136","","","","","","[{""stimulus"":""img/green_wl/1.jpg"",""time"":52},{""stimulus"":""img/green_wl/2.jpg"",""time"":113},{""stimulus"":""img/green_wl/3.jpg"",""time"":161},{""stimulus"":""img/green_wl/4.jpg"",""time"":211},{""stimulus"":""img/green_wl/5.jpg"",""time"":250},{""stimulus"":""img/green_wl/6.jpg"",""time"":300},{""stimulus"":""img/green_wl/7.jpg"",""time"":350},{""stimulus"":""img/green_wl/8.jpg"",""time"":400},{""stimulus"":""img/green_wl/9.jpg"",""time"":450},{""stimulus"":""img/green_wl/10.jpg"",""time"":500},{""stimulus"":""img/green_wl/11.jpg"",""time"":550}]","[]"
"image-keyboard-response","184","195243","0.0-5.0-1.90","5dbf692c2a1dd63f64ef5ae4","bdp_lott","Sat Mar 25 2023 16:09:41 GMT-0700 (Pacific Daylight Time)","312519","green","red","","343","","","","choice","","img/green_wl/choose11.jpg","1","135","green","0.5","0.1","0.5","l","",""
"animation","185","195844","0.0-5.0-2.90","5dbf692c2a1dd63f64ef5ae4","bdp_lott","Sat Mar 25 2023 16:09:41 GMT-0700 (Pacific Daylight Time)","312519","green","red","","","","","","","","","","135","","","","","","[{""stimulus"":""img/green_ll/1.jpg"",""time"":64},{""stimulus"":""img/green_ll/2.jpg"",""time"":118},{""stimulus"":""img/green_ll/3.jpg"",""time"":151},{""stimulus"":""img/green_ll/4.jpg"",""time"":202},{""stimulus"":""img/green_ll/5.jpg"",""time"":250},{""stimulus"":""img/green_ll/6.jpg"",""time"":300},{""stimulus"":""img/green_ll/7.jpg"",""time"":351},{""stimulus"":""img/green_ll/8.jpg"",""time"":401},{""stimulus"":""img/green_ll/9.jpg"",""time"":451},{""stimulus"":""img/green_ll/10.jpg"",""time"":501},{""stimulus"":""img/green_ll/11.jpg"",""time"":550}]","[]"
"image-keyboard-response","186","196434","0.0-5.0-1.91","5dbf692c2a1dd63f64ef5ae4","bdp_lott","Sat Mar 25 2023 16:09:41 GMT-0700 (Pacific Daylight Time)","312519","green","red","","590","","","","choice","","img/green_ll/choose11.jpg","2","134","red","0.5","0.1","0.1","l","",""
"animation","187","197043","0.0-5.0-2.91","5dbf692c2a1dd63f64ef5ae4","bdp_lott","Sat Mar 25 2023 16:09:41 GMT-0700 (Pacific Daylight Time)","312519","green","red","","","","","","","","","","134","","","","","","[{""stimulus"":""img/red_ll/1.jpg"",""time"":56},{""stimulus"":""img/red_ll/2.jpg"",""time"":111},{""stimulus"":""img/red_ll/3.jpg"",""time"":151},{""stimulus"":""img/red_ll/4.jpg"",""time"":200},{""stimulus"":""img/red_ll/5.jpg"",""time"":259},{""stimulus"":""img/red_ll/6.jpg"",""time"":309},{""stimulus"":""img/red_ll/7.jpg"",""time"":351},{""stimulus"":""img/red_ll/8.jpg"",""time"":400},{""stimulus"":""img/red_ll/9.jpg"",""time"":451},{""stimulus"":""img/red_ll/10.jpg"",""time"":510},{""stimulus"":""img/red_ll/11.jpg"",""time"":551}]","[]"
"image-keyboard-response","188","197647","0.0-5.0-1.92","5dbf692c2a1dd63f64ef5ae4","bdp_lott","Sat Mar 25 2023 16:09:41 GMT-0700 (Pacific Daylight Time)","312519","green","red","","604","","","","choice","","img/red_ll/choose11.jpg","1","133","green","0.5","0.1","0.5","w","",""
"animation","189","198248","0.0-5.0-2.92","5dbf692c2a1dd63f64ef5ae4","bdp_lott","Sat Mar 25 2023 16:09:41 GMT-0700 (Pacific Daylight Time)","312519","green","red","","","","","","","","","","133","","","","","","[{""stimulus"":""img/green_wl/1.jpg"",""time"":58},{""stimulus"":""img/green_wl/2.jpg"",""time"":115},{""stimulus"":""img/green_wl/3.jpg"",""time"":162},{""stimulus"":""img/green_wl/4.jpg"",""time"":213},{""stimulus"":""img/green_wl/5.jpg"",""time"":251},{""stimulus"":""img/green_wl/6.jpg"",""time"":313},{""stimulus"":""img/green_wl/7.jpg"",""time"":362},{""stimulus"":""img/green_wl/8.jpg"",""time"":401},{""stimulus"":""img/green_wl/9.jpg"",""time"":451},{""stimulus"":""img/green_wl/10.jpg"",""time"":512},{""stimulus"":""img/green_wl/11.jpg"",""time"":551}]","[]"
"image-keyboard-response","190","198611","0.0-5.0-1.93","5dbf692c2a1dd63f64ef5ae4","bdp_lott","Sat Mar 25 2023 16:09:41 GMT-0700 (Pacific Daylight Time)","312519","green","red","","363","","","","choice","","img/green_wl/choose11.jpg","1","132","green","0.5","0.1","0.5","l","",""
