"trial_type","trial_index","time_elapsed","internal_node_id","subject_id","task","startTime","totalTime","fairMachine","unfairMachine","event","trial","time","trialtype","view_history","rt","success","stimulus","key_press","roundsLeft","chosen","pFairMachWin","pUnfairMachWin","pTrialWin","outcome","animation_sequence","responses"
"pavlovia","0","2","0.0-0.0","63ea5b93d1c6d38e1f57dcfa","bdp_lott","Sun Apr 09 2023 20:13:27 GMT-0400 (Eastern Daylight Time)","254296","red","green","","","","","","","","","","","","","","","","",""
"","","","","63ea5b93d1c6d38e1f57dcfa","bdp_lott","Sun Apr 09 2023 20:13:27 GMT-0400 (Eastern Daylight Time)","254296","red","green","focus","1","2561","focusevent","","","","","","","","","","","","",""
"instructions","1","7546","0.0-1.0","63ea5b93d1c6d38e1f57dcfa","bdp_lott","Sun Apr 09 2023 20:13:27 GMT-0400 (Eastern Daylight Time)","254296","red","green","","","","","[{""page_index"":0,""viewing_time"":7543}]","7543","","","","","","","","","","",""
"","","","","63ea5b93d1c6d38e1f57dcfa","bdp_lott","Sun Apr 09 2023 20:13:27 GMT-0400 (Eastern Daylight Time)","254296","red","green","fullscreenexit","2","9826","fullscreenexit","","","","","","","","","","","","",""
"fullscreen","2","10634","0.0-2.0","63ea5b93d1c6d38e1f57dcfa","bdp_lott","Sun Apr 09 2023 20:13:27 GMT-0400 (Eastern Daylight Time)","254296","red","green","","","","","","","true","","","","","","","","","",""
"image-keyboard-response","3","14670","0.0-3.0-0.0","63ea5b93d1c6d38e1f57dcfa","bdp_lott","Sun Apr 09 2023 20:13:27 GMT-0400 (Eastern Daylight Time)","254296","red","green","","","","fullscreenfail","","4035","","","32","","","","","","","",""
"instructions","4","40433","0.0-4.0","63ea5b93d1c6d38e1f57dcfa","bdp_lott","Sun Apr 09 2023 20:13:27 GMT-0400 (Eastern Daylight Time)","254296","red","green","","","","","[{""page_index"":0,""viewing_time"":25508}]","25508","","","","","","","","","","",""
"image-keyboard-response","5","41427","0.0-5.0-1.0","63ea5b93d1c6d38e1f57dcfa","bdp_lott","Sun Apr 09 2023 20:13:27 GMT-0400 (Eastern Daylight Time)","254296","red","green","","","","choice","","993","","img/red_ll/initchoose11.jpg","1","225","green","0.5","0.5","0.5","l","",""
"animation","6","42173","0.0-5.0-2.0","63ea5b93d1c6d38e1f57dcfa","bdp_lott","Sun Apr 09 2023 20:13:27 GMT-0400 (Eastern Daylight Time)","254296","red","green","","","","","","","","","","225","","","","","","[{""stimulus"":""img/green_ll/1.jpg"",""time"":65},{""stimulus"":""img/green_ll/2.jpg"",""time"":126},{""stimulus"":""img/green_ll/3.jpg"",""time"":188},{""stimulus"":""img/green_ll/4.jpg"",""time"":250},{""stimulus"":""img/green_ll/5.jpg"",""time"":312},{""stimulus"":""img/green_ll/6.jpg"",""time"":373},{""stimulus"":""img/green_ll/7.jpg"",""time"":436},{""stimulus"":""img/green_ll/8.jpg"",""time"":498},{""stimulus"":""img/green_ll/9.jpg"",""time"":559},{""stimulus"":""img/green_ll/10.jpg"",""time"":621},{""stimulus"":""img/green_ll/11.jpg"",""time"":683}]","[]"
"image-keyboard-response","7","43191","0.0-5.0-1.1","63ea5b93d1c6d38e1f57dcfa","bdp_lott","Sun Apr 09 2023 20:13:27 GMT-0400 (Eastern Daylight Time)","254296","red","green","","","","choice","","1018","","img/green_ll/choose11.jpg","2","224","red","0.5","0.5","0.5","w","",""
"animation","8","43926","0.0-5.0-2.1","63ea5b93d1c6d38e1f57dcfa","bdp_lott","Sun Apr 09 2023 20:13:27 GMT-0400 (Eastern Daylight Time)","254296","red","green","","","","","","","","","","224","","","","","","[{""stimulus"":""img/red_lw/1.jpg"",""time"":54},{""stimulus"":""img/red_lw/2.jpg"",""time"":117},{""stimulus"":""img/red_lw/3.jpg"",""time"":179},{""stimulus"":""img/red_lw/4.jpg"",""time"":241},{""stimulus"":""img/red_lw/5.jpg"",""time"":302},{""stimulus"":""img/red_lw/6.jpg"",""time"":365},{""stimulus"":""img/red_lw/7.jpg"",""time"":425},{""stimulus"":""img/red_lw/8.jpg"",""time"":488},{""stimulus"":""img/red_lw/9.jpg"",""time"":550},{""stimulus"":""img/red_lw/10.jpg"",""time"":613},{""stimulus"":""img/red_lw/11.jpg"",""time"":674}]","[]"
"image-keyboard-response","9","44562","0.0-5.0-1.2","63ea5b93d1c6d38e1f57dcfa","bdp_lott","Sun Apr 09 2023 20:13:27 GMT-0400 (Eastern Daylight Time)","254296","red","green","","","","choice","","636","","img/red_lw/choose11.jpg","2","223","red","0.5","0.5","0.5","w","",""
"animation","10","45303","0.0-5.0-2.2","63ea5b93d1c6d38e1f57dcfa","bdp_lott","Sun Apr 09 2023 20:13:27 GMT-0400 (Eastern Daylight Time)","254296","red","green","","","","","","","","","","223","","","","","","[{""stimulus"":""img/red_lw/1.jpg"",""time"":60},{""stimulus"":""img/red_lw/2.jpg"",""time"":122},{""stimulus"":""img/red_lw/3.jpg"",""time"":183},{""stimulus"":""img/red_lw/4.jpg"",""time"":244},{""stimulus"":""img/red_lw/5.jpg"",""time"":308},{""stimulus"":""img/red_lw/6.jpg"",""time"":369},{""stimulus"":""img/red_lw/7.jpg"",""time"":430},{""stimulus"":""img/red_lw/8.jpg"",""time"":493},{""stimulus"":""img/red_lw/9.jpg"",""time"":555},{""stimulus"":""img/red_lw/10.jpg"",""time"":617},{""stimulus"":""img/red_lw/11.jpg"",""time"":678}]","[]"
"image-keyboard-response","11","45772","0.0-5.0-1.3","63ea5b93d1c6d38e1f57dcfa","bdp_lott","Sun Apr 09 2023 20:13:27 GMT-0400 (Eastern Daylight Time)","254296","red","green","","","","choice","","467","","img/red_lw/choose11.jpg","2","222","red","0.5","0.5","0.5","w","",""
"animation","12","46510","0.0-5.0-2.3","63ea5b93d1c6d38e1f57dcfa","bdp_lott","Sun Apr 09 2023 20:13:27 GMT-0400 (Eastern Daylight Time)","254296","red","green","","","","","","","","","","222","","","","","","[{""stimulus"":""img/red_lw/1.jpg"",""time"":58},{""stimulus"":""img/red_lw/2.jpg"",""time"":119},{""stimulus"":""img/red_lw/3.jpg"",""time"":180},{""stimulus"":""img/red_lw/4.jpg"",""time"":243},{""stimulus"":""img/red_lw/5.jpg"",""time"":305},{""stimulus"":""img/red_lw/6.jpg"",""time"":367},{""stimulus"":""img/red_lw/7.jpg"",""time"":429},{""stimulus"":""img/red_lw/8.jpg"",""time"":491},{""stimulus"":""img/red_lw/9.jpg"",""time"":552},{""stimulus"":""img/red_lw/10.jpg"",""time"":614},{""stimulus"":""img/red_lw/11.jpg"",""time"":676}]","[]"
"image-keyboard-response","13","47004","0.0-5.0-1.4","63ea5b93d1c6d38e1f57dcfa","bdp_lott","Sun Apr 09 2023 20:13:27 GMT-0400 (Eastern Daylight Time)","254296","red","green","","","","choice","","493","","img/red_lw/choose11.jpg","2","221","red","0.5","0.5","0.5","w","",""
"animation","14","47730","0.0-5.0-2.4","63ea5b93d1c6d38e1f57dcfa","bdp_lott","Sun Apr 09 2023 20:13:27 GMT-0400 (Eastern Daylight Time)","254296","red","green","","","","","","","","","","221","","","","","","[{""stimulus"":""img/red_lw/1.jpg"",""time"":50},{""stimulus"":""img/red_lw/2.jpg"",""time"":112},{""stimulus"":""img/red_lw/3.jpg"",""time"":174},{""stimulus"":""img/red_lw/4.jpg"",""time"":237},{""stimulus"":""img/red_lw/5.jpg"",""time"":298},{""stimulus"":""img/red_lw/6.jpg"",""time"":358},{""stimulus"":""img/red_lw/7.jpg"",""time"":419},{""stimulus"":""img/red_lw/8.jpg"",""time"":482},{""stimulus"":""img/red_lw/9.jpg"",""time"":542},{""stimulus"":""img/red_lw/10.jpg"",""time"":605},{""stimulus"":""img/red_lw/11.jpg"",""time"":666}]","[]"
"image-keyboard-response","15","48144","0.0-5.0-1.5","63ea5b93d1c6d38e1f57dcfa","bdp_lott","Sun Apr 09 2023 20:13:27 GMT-0400 (Eastern Daylight Time)","254296","red","green","","","","choice","","413","","img/red_lw/choose11.jpg","2","220","red","0.5","0.5","0.5","w","",""
"animation","16","48878","0.0-5.0-2.5","63ea5b93d1c6d38e1f57dcfa","bdp_lott","Sun Apr 09 2023 20:13:27 GMT-0400 (Eastern Daylight Time)","254296","red","green","","","","","","","","","","220","","","","","","[{""stimulus"":""img/red_lw/1.jpg"",""time"":51},{""stimulus"":""img/red_lw/2.jpg"",""time"":112},{""stimulus"":""img/red_lw/3.jpg"",""time"":174},{""stimulus"":""img/red_lw/4.jpg"",""time"":237},{""stimulus"":""img/red_lw/5.jpg"",""time"":298},{""stimulus"":""img/red_lw/6.jpg"",""time"":361},{""stimulus"":""img/red_lw/7.jpg"",""time"":423},{""stimulus"":""img/red_lw/8.jpg"",""time"":485},{""stimulus"":""img/red_lw/9.jpg"",""time"":548},{""stimulus"":""img/red_lw/10.jpg"",""time"":610},{""stimulus"":""img/red_lw/11.jpg"",""time"":672}]","[]"
"image-keyboard-response","17","49284","0.0-5.0-1.6","63ea5b93d1c6d38e1f57dcfa","bdp_lott","Sun Apr 09 2023 20:13:27 GMT-0400 (Eastern Daylight Time)","254296","red","green","","","","choice","","406","","img/red_lw/choose11.jpg","2","219","red","0.5","0.5","0.5","w","",""
"animation","18","50025","0.0-5.0-2.6","63ea5b93d1c6d38e1f57dcfa","bdp_lott","Sun Apr 09 2023 20:13:27 GMT-0400 (Eastern Daylight Time)","254296","red","green","","","","","","","","","","219","","","","","","[{""stimulus"":""img/red_lw/1.jpg"",""time"":60},{""stimulus"":""img/red_lw/2.jpg"",""time"":122},{""stimulus"":""img/red_lw/3.jpg"",""time"":183},{""stimulus"":""img/red_lw/4.jpg"",""time"":246},{""stimulus"":""img/red_lw/5.jpg"",""time"":307},{""stimulus"":""img/red_lw/6.jpg"",""time"":370},{""stimulus"":""img/red_lw/7.jpg"",""time"":430},{""stimulus"":""img/red_lw/8.jpg"",""time"":493},{""stimulus"":""img/red_lw/9.jpg"",""time"":555},{""stimulus"":""img/red_lw/10.jpg"",""time"":617},{""stimulus"":""img/red_lw/11.jpg"",""time"":679}]","[]"
"image-keyboard-response","19","50446","0.0-5.0-1.7","63ea5b93d1c6d38e1f57dcfa","bdp_lott","Sun Apr 09 2023 20:13:27 GMT-0400 (Eastern Daylight Time)","254296","red","green","","","","choice","","421","","img/red_lw/choose11.jpg","2","218","red","0.5","0.5","0.5","w","",""
"animation","20","51190","0.0-5.0-2.7","63ea5b93d1c6d38e1f57dcfa","bdp_lott","Sun Apr 09 2023 20:13:27 GMT-0400 (Eastern Daylight Time)","254296","red","green","","","","","","","","","","218","","","","","","[{""stimulus"":""img/red_lw/1.jpg"",""time"":61},{""stimulus"":""img/red_lw/2.jpg"",""time"":123},{""stimulus"":""img/red_lw/3.jpg"",""time"":184},{""stimulus"":""img/red_lw/4.jpg"",""time"":247},{""stimulus"":""img/red_lw/5.jpg"",""time"":308},{""stimulus"":""img/red_lw/6.jpg"",""time"":370},{""stimulus"":""img/red_lw/7.jpg"",""time"":432},{""stimulus"":""img/red_lw/8.jpg"",""time"":494},{""stimulus"":""img/red_lw/9.jpg"",""time"":556},{""stimulus"":""img/red_lw/10.jpg"",""time"":620},{""stimulus"":""img/red_lw/11.jpg"",""time"":682}]","[]"
"image-keyboard-response","21","51517","0.0-5.0-1.8","63ea5b93d1c6d38e1f57dcfa","bdp_lott","Sun Apr 09 2023 20:13:27 GMT-0400 (Eastern Daylight Time)","254296","red","green","","","","choice","","327","","img/red_lw/choose11.jpg","2","217","red","0.5","0.5","0.5","l","",""
"animation","22","52257","0.0-5.0-2.8","63ea5b93d1c6d38e1f57dcfa","bdp_lott","Sun Apr 09 2023 20:13:27 GMT-0400 (Eastern Daylight Time)","254296","red","green","","","","","","","","","","217","","","","","","[{""stimulus"":""img/red_ll/1.jpg"",""time"":61},{""stimulus"":""img/red_ll/2.jpg"",""time"":122},{""stimulus"":""img/red_ll/3.jpg"",""time"":183},{""stimulus"":""img/red_ll/4.jpg"",""time"":244},{""stimulus"":""img/red_ll/5.jpg"",""time"":306},{""stimulus"":""img/red_ll/6.jpg"",""time"":367},{""stimulus"":""img/red_ll/7.jpg"",""time"":428},{""stimulus"":""img/red_ll/8.jpg"",""time"":490},{""stimulus"":""img/red_ll/9.jpg"",""time"":553},{""stimulus"":""img/red_ll/10.jpg"",""time"":616},{""stimulus"":""img/red_ll/11.jpg"",""time"":678}]","[]"
"image-keyboard-response","23","52888","0.0-5.0-1.9","63ea5b93d1c6d38e1f57dcfa","bdp_lott","Sun Apr 09 2023 20:13:27 GMT-0400 (Eastern Daylight Time)","254296","red","green","","","","choice","","631","","img/red_ll/choose11.jpg","1","216","green","0.5","0.5","0.5","w","",""
"animation","24","53633","0.0-5.0-2.9","63ea5b93d1c6d38e1f57dcfa","bdp_lott","Sun Apr 09 2023 20:13:27 GMT-0400 (Eastern Daylight Time)","254296","red","green","","","","","","","","","","216","","","","","","[{""stimulus"":""img/green_wl/1.jpg"",""time"":63},{""stimulus"":""img/green_wl/2.jpg"",""time"":125},{""stimulus"":""img/green_wl/3.jpg"",""time"":186},{""stimulus"":""img/green_wl/4.jpg"",""time"":248},{""stimulus"":""img/green_wl/5.jpg"",""time"":310},{""stimulus"":""img/green_wl/6.jpg"",""time"":372},{""stimulus"":""img/green_wl/7.jpg"",""time"":434},{""stimulus"":""img/green_wl/8.jpg"",""time"":497},{""stimulus"":""img/green_wl/9.jpg"",""time"":559},{""stimulus"":""img/green_wl/10.jpg"",""time"":622},{""stimulus"":""img/green_wl/11.jpg"",""time"":683}]","[]"
"image-keyboard-response","25","54259","0.0-5.0-1.10","63ea5b93d1c6d38e1f57dcfa","bdp_lott","Sun Apr 09 2023 20:13:27 GMT-0400 (Eastern Daylight Time)","254296","red","green","","","","choice","","625","","img/green_wl/choose11.jpg","1","215","green","0.5","0.5","0.5","l","",""
"animation","26","54998","0.0-5.0-2.10","63ea5b93d1c6d38e1f57dcfa","bdp_lott","Sun Apr 09 2023 20:13:27 GMT-0400 (Eastern Daylight Time)","254296","red","green","","","","","","","","","","215","","","","","","[{""stimulus"":""img/green_ll/1.jpg"",""time"":60},{""stimulus"":""img/green_ll/2.jpg"",""time"":122},{""stimulus"":""img/green_ll/3.jpg"",""time"":184},{""stimulus"":""img/green_ll/4.jpg"",""time"":247},{""stimulus"":""img/green_ll/5.jpg"",""time"":309},{""stimulus"":""img/green_ll/6.jpg"",""time"":370},{""stimulus"":""img/green_ll/7.jpg"",""time"":432},{""stimulus"":""img/green_ll/8.jpg"",""time"":492},{""stimulus"":""img/green_ll/9.jpg"",""time"":555},{""stimulus"":""img/green_ll/10.jpg"",""time"":617},{""stimulus"":""img/green_ll/11.jpg"",""time"":678}]","[]"
"image-keyboard-response","27","55400","0.0-5.0-1.11","63ea5b93d1c6d38e1f57dcfa","bdp_lott","Sun Apr 09 2023 20:13:27 GMT-0400 (Eastern Daylight Time)","254296","red","green","","","","choice","","402","","img/green_ll/choose11.jpg","2","214","red","0.5","0.5","0.5","l","",""
"animation","28","56142","0.0-5.0-2.11","63ea5b93d1c6d38e1f57dcfa","bdp_lott","Sun Apr 09 2023 20:13:27 GMT-0400 (Eastern Daylight Time)","254296","red","green","","","","","","","","","","214","","","","","","[{""stimulus"":""img/red_ll/1.jpg"",""time"":63},{""stimulus"":""img/red_ll/2.jpg"",""time"":125},{""stimulus"":""img/red_ll/3.jpg"",""time"":186},{""stimulus"":""img/red_ll/4.jpg"",""time"":246},{""stimulus"":""img/red_ll/5.jpg"",""time"":309},{""stimulus"":""img/red_ll/6.jpg"",""time"":371},{""stimulus"":""img/red_ll/7.jpg"",""time"":433},{""stimulus"":""img/red_ll/8.jpg"",""time"":495},{""stimulus"":""img/red_ll/9.jpg"",""time"":556},{""stimulus"":""img/red_ll/10.jpg"",""time"":620},{""stimulus"":""img/red_ll/11.jpg"",""time"":680}]","[]"
"image-keyboard-response","29","56631","0.0-5.0-1.12","63ea5b93d1c6d38e1f57dcfa","bdp_lott","Sun Apr 09 2023 20:13:27 GMT-0400 (Eastern Daylight Time)","254296","red","green","","","","choice","","489","","img/red_ll/choose11.jpg","2","213","red","0.5","0.5","0.5","l","",""
"animation","30","57367","0.0-5.0-2.12","63ea5b93d1c6d38e1f57dcfa","bdp_lott","Sun Apr 09 2023 20:13:27 GMT-0400 (Eastern Daylight Time)","254296","red","green","","","","","","","","","","213","","","","","","[{""stimulus"":""img/red_ll/1.jpg"",""time"":55},{""stimulus"":""img/red_ll/2.jpg"",""time"":117},{""stimulus"":""img/red_ll/3.jpg"",""time"":179},{""stimulus"":""img/red_ll/4.jpg"",""time"":241},{""stimulus"":""img/red_ll/5.jpg"",""time"":303},{""stimulus"":""img/red_ll/6.jpg"",""time"":365},{""stimulus"":""img/red_ll/7.jpg"",""time"":425},{""stimulus"":""img/red_ll/8.jpg"",""time"":488},{""stimulus"":""img/red_ll/9.jpg"",""time"":550},{""stimulus"":""img/red_ll/10.jpg"",""time"":612},{""stimulus"":""img/red_ll/11.jpg"",""time"":674}]","[]"
"image-keyboard-response","31","57747","0.0-5.0-1.13","63ea5b93d1c6d38e1f57dcfa","bdp_lott","Sun Apr 09 2023 20:13:27 GMT-0400 (Eastern Daylight Time)","254296","red","green","","","","choice","","380","","img/red_ll/choose11.jpg","1","212","green","0.5","0.5","0.5","w","",""
"animation","32","58484","0.0-5.0-2.13","63ea5b93d1c6d38e1f57dcfa","bdp_lott","Sun Apr 09 2023 20:13:27 GMT-0400 (Eastern Daylight Time)","254296","red","green","","","","","","","","","","212","","","","","","[{""stimulus"":""img/green_wl/1.jpg"",""time"":54},{""stimulus"":""img/green_wl/2.jpg"",""time"":115},{""stimulus"":""img/green_wl/3.jpg"",""time"":178},{""stimulus"":""img/green_wl/4.jpg"",""time"":239},{""stimulus"":""img/green_wl/5.jpg"",""time"":303},{""stimulus"":""img/green_wl/6.jpg"",""time"":364},{""stimulus"":""img/green_wl/7.jpg"",""time"":426},{""stimulus"":""img/green_wl/8.jpg"",""time"":488},{""stimulus"":""img/green_wl/9.jpg"",""time"":550},{""stimulus"":""img/green_wl/10.jpg"",""time"":612},{""stimulus"":""img/green_wl/11.jpg"",""time"":674}]","[]"
"image-keyboard-response","33","58886","0.0-5.0-1.14","63ea5b93d1c6d38e1f57dcfa","bdp_lott","Sun Apr 09 2023 20:13:27 GMT-0400 (Eastern Daylight Time)","254296","red","green","","","","choice","","402","","img/green_wl/choose11.jpg","1","211","green","0.5","0.5","0.5","l","",""
"animation","34","59632","0.0-5.0-2.14","63ea5b93d1c6d38e1f57dcfa","bdp_lott","Sun Apr 09 2023 20:13:27 GMT-0400 (Eastern Daylight Time)","254296","red","green","","","","","","","","","","211","","","","","","[{""stimulus"":""img/green_ll/1.jpg"",""time"":63},{""stimulus"":""img/green_ll/2.jpg"",""time"":125},{""stimulus"":""img/green_ll/3.jpg"",""time"":186},{""stimulus"":""img/green_ll/4.jpg"",""time"":248},{""stimulus"":""img/green_ll/5.jpg"",""time"":310},{""stimulus"":""img/green_ll/6.jpg"",""time"":370},{""stimulus"":""img/green_ll/7.jpg"",""time"":433},{""stimulus"":""img/green_ll/8.jpg"",""time"":496},{""stimulus"":""img/green_ll/9.jpg"",""time"":557},{""stimulus"":""img/green_ll/10.jpg"",""time"":618},{""stimulus"":""img/green_ll/11.jpg"",""time"":682}]","[]"
"image-keyboard-response","35","60211","0.0-5.0-1.15","63ea5b93d1c6d38e1f57dcfa","bdp_lott","Sun Apr 09 2023 20:13:27 GMT-0400 (Eastern Daylight Time)","254296","red","green","","","","choice","","579","","img/green_ll/choose11.jpg","1","210","green","0.5","0.5","0.5","l","",""
"animation","36","60945","0.0-5.0-2.15","63ea5b93d1c6d38e1f57dcfa","bdp_lott","Sun Apr 09 2023 20:13:27 GMT-0400 (Eastern Daylight Time)","254296","red","green","","","","","","","","","","210","","","","","","[{""stimulus"":""img/green_ll/1.jpg"",""time"":52},{""stimulus"":""img/green_ll/2.jpg"",""time"":113},{""stimulus"":""img/green_ll/3.jpg"",""time"":176},{""stimulus"":""img/green_ll/4.jpg"",""time"":237},{""stimulus"":""img/green_ll/5.jpg"",""time"":299},{""stimulus"":""img/green_ll/6.jpg"",""time"":362},{""stimulus"":""img/green_ll/7.jpg"",""time"":424},{""stimulus"":""img/green_ll/8.jpg"",""time"":487},{""stimulus"":""img/green_ll/9.jpg"",""time"":548},{""stimulus"":""img/green_ll/10.jpg"",""time"":609},{""stimulus"":""img/green_ll/11.jpg"",""time"":671}]","[]"
"image-keyboard-response","37","61374","0.0-5.0-1.16","63ea5b93d1c6d38e1f57dcfa","bdp_lott","Sun Apr 09 2023 20:13:27 GMT-0400 (Eastern Daylight Time)","254296","red","green","","","","choice","","429","","img/green_ll/choose11.jpg","1","209","green","0.5","0.5","0.5","w","",""
"animation","38","62106","0.0-5.0-2.16","63ea5b93d1c6d38e1f57dcfa","bdp_lott","Sun Apr 09 2023 20:13:27 GMT-0400 (Eastern Daylight Time)","254296","red","green","","","","","","","","","","209","","","","","","[{""stimulus"":""img/green_wl/1.jpg"",""time"":49},{""stimulus"":""img/green_wl/2.jpg"",""time"":113},{""stimulus"":""img/green_wl/3.jpg"",""time"":174},{""stimulus"":""img/green_wl/4.jpg"",""time"":237},{""stimulus"":""img/green_wl/5.jpg"",""time"":298},{""stimulus"":""img/green_wl/6.jpg"",""time"":360},{""stimulus"":""img/green_wl/7.jpg"",""time"":422},{""stimulus"":""img/green_wl/8.jpg"",""time"":483},{""stimulus"":""img/green_wl/9.jpg"",""time"":543},{""stimulus"":""img/green_wl/10.jpg"",""time"":606},{""stimulus"":""img/green_wl/11.jpg"",""time"":670}]","[]"
"image-keyboard-response","39","62399","0.0-5.0-1.17","63ea5b93d1c6d38e1f57dcfa","bdp_lott","Sun Apr 09 2023 20:13:27 GMT-0400 (Eastern Daylight Time)","254296","red","green","","","","choice","","293","","img/green_wl/choose11.jpg","2","208","red","0.5","0.5","0.5","w","",""
"animation","40","63141","0.0-5.0-2.17","63ea5b93d1c6d38e1f57dcfa","bdp_lott","Sun Apr 09 2023 20:13:27 GMT-0400 (Eastern Daylight Time)","254296","red","green","","","","","","","","","","208","","","","","","[{""stimulus"":""img/red_ww/1.jpg"",""time"":61},{""stimulus"":""img/red_ww/2.jpg"",""time"":122},{""stimulus"":""img/red_ww/3.jpg"",""time"":184},{""stimulus"":""img/red_ww/4.jpg"",""time"":247},{""stimulus"":""img/red_ww/5.jpg"",""time"":309},{""stimulus"":""img/red_ww/6.jpg"",""time"":371},{""stimulus"":""img/red_ww/7.jpg"",""time"":433},{""stimulus"":""img/red_ww/8.jpg"",""time"":494},{""stimulus"":""img/red_ww/9.jpg"",""time"":556},{""stimulus"":""img/red_ww/10.jpg"",""time"":616},{""stimulus"":""img/red_ww/11.jpg"",""time"":679}]","[]"
"image-keyboard-response","41","63515","0.0-5.0-1.18","63ea5b93d1c6d38e1f57dcfa","bdp_lott","Sun Apr 09 2023 20:13:27 GMT-0400 (Eastern Daylight Time)","254296","red","green","","","","choice","","374","","img/red_ww/choose11.jpg","2","207","red","0.5","0.5","0.5","l","",""
"animation","42","64256","0.0-5.0-2.18","63ea5b93d1c6d38e1f57dcfa","bdp_lott","Sun Apr 09 2023 20:13:27 GMT-0400 (Eastern Daylight Time)","254296","red","green","","","","","","","","","","207","","","","","","[{""stimulus"":""img/red_wl/1.jpg"",""time"":59},{""stimulus"":""img/red_wl/2.jpg"",""time"":121},{""stimulus"":""img/red_wl/3.jpg"",""time"":183},{""stimulus"":""img/red_wl/4.jpg"",""time"":244},{""stimulus"":""img/red_wl/5.jpg"",""time"":307},{""stimulus"":""img/red_wl/6.jpg"",""time"":367},{""stimulus"":""img/red_wl/7.jpg"",""time"":429},{""stimulus"":""img/red_wl/8.jpg"",""time"":492},{""stimulus"":""img/red_wl/9.jpg"",""time"":555},{""stimulus"":""img/red_wl/10.jpg"",""time"":616},{""stimulus"":""img/red_wl/11.jpg"",""time"":679}]","[]"
"image-keyboard-response","43","64631","0.0-5.0-1.19","63ea5b93d1c6d38e1f57dcfa","bdp_lott","Sun Apr 09 2023 20:13:27 GMT-0400 (Eastern Daylight Time)","254296","red","green","","","","choice","","375","","img/red_wl/choose11.jpg","2","206","red","0.5","0.5","0.5","w","",""
"animation","44","65374","0.0-5.0-2.19","63ea5b93d1c6d38e1f57dcfa","bdp_lott","Sun Apr 09 2023 20:13:27 GMT-0400 (Eastern Daylight Time)","254296","red","green","","","","","","","","","","206","","","","","","[{""stimulus"":""img/red_ww/1.jpg"",""time"":60},{""stimulus"":""img/red_ww/2.jpg"",""time"":122},{""stimulus"":""img/red_ww/3.jpg"",""time"":184},{""stimulus"":""img/red_ww/4.jpg"",""time"":246},{""stimulus"":""img/red_ww/5.jpg"",""time"":310},{""stimulus"":""img/red_ww/6.jpg"",""time"":372},{""stimulus"":""img/red_ww/7.jpg"",""time"":434},{""stimulus"":""img/red_ww/8.jpg"",""time"":496},{""stimulus"":""img/red_ww/9.jpg"",""time"":559},{""stimulus"":""img/red_ww/10.jpg"",""time"":619},{""stimulus"":""img/red_ww/11.jpg"",""time"":682}]","[]"
"image-keyboard-response","45","65817","0.0-5.0-1.20","63ea5b93d1c6d38e1f57dcfa","bdp_lott","Sun Apr 09 2023 20:13:27 GMT-0400 (Eastern Daylight Time)","254296","red","green","","","","choice","","443","","img/red_ww/choose11.jpg","2","205","red","0.5","0.5","0.5","w","",""
"animation","46","66553","0.0-5.0-2.20","63ea5b93d1c6d38e1f57dcfa","bdp_lott","Sun Apr 09 2023 20:13:27 GMT-0400 (Eastern Daylight Time)","254296","red","green","","","","","","","","","","205","","","","","","[{""stimulus"":""img/red_ww/1.jpg"",""time"":53},{""stimulus"":""img/red_ww/2.jpg"",""time"":114},{""stimulus"":""img/red_ww/3.jpg"",""time"":176},{""stimulus"":""img/red_ww/4.jpg"",""time"":239},{""stimulus"":""img/red_ww/5.jpg"",""time"":302},{""stimulus"":""img/red_ww/6.jpg"",""time"":363},{""stimulus"":""img/red_ww/7.jpg"",""time"":426},{""stimulus"":""img/red_ww/8.jpg"",""time"":488},{""stimulus"":""img/red_ww/9.jpg"",""time"":550},{""stimulus"":""img/red_ww/10.jpg"",""time"":611},{""stimulus"":""img/red_ww/11.jpg"",""time"":673}]","[]"
"image-keyboard-response","47","66957","0.0-5.0-1.21","63ea5b93d1c6d38e1f57dcfa","bdp_lott","Sun Apr 09 2023 20:13:27 GMT-0400 (Eastern Daylight Time)","254296","red","green","","","","choice","","404","","img/red_ww/choose11.jpg","2","204","red","0.5","0.5","0.5","l","",""
"animation","48","67700","0.0-5.0-2.21","63ea5b93d1c6d38e1f57dcfa","bdp_lott","Sun Apr 09 2023 20:13:27 GMT-0400 (Eastern Daylight Time)","254296","red","green","","","","","","","","","","204","","","","","","[{""stimulus"":""img/red_wl/1.jpg"",""time"":59},{""stimulus"":""img/red_wl/2.jpg"",""time"":120},{""stimulus"":""img/red_wl/3.jpg"",""time"":184},{""stimulus"":""img/red_wl/4.jpg"",""time"":245},{""stimulus"":""img/red_wl/5.jpg"",""time"":308},{""stimulus"":""img/red_wl/6.jpg"",""time"":370},{""stimulus"":""img/red_wl/7.jpg"",""time"":432},{""stimulus"":""img/red_wl/8.jpg"",""time"":495},{""stimulus"":""img/red_wl/9.jpg"",""time"":557},{""stimulus"":""img/red_wl/10.jpg"",""time"":617},{""stimulus"":""img/red_wl/11.jpg"",""time"":680}]","[]"
"image-keyboard-response","49","68051","0.0-5.0-1.22","63ea5b93d1c6d38e1f57dcfa","bdp_lott","Sun Apr 09 2023 20:13:27 GMT-0400 (Eastern Daylight Time)","254296","red","green","","","","choice","","351","","img/red_wl/choose11.jpg","2","203","red","0.5","0.5","0.5","w","",""
"animation","50","68798","0.0-5.0-2.22","63ea5b93d1c6d38e1f57dcfa","bdp_lott","Sun Apr 09 2023 20:13:27 GMT-0400 (Eastern Daylight Time)","254296","red","green","","","","","","","","","","203","","","","","","[{""stimulus"":""img/red_ww/1.jpg"",""time"":65},{""stimulus"":""img/red_ww/2.jpg"",""time"":126},{""stimulus"":""img/red_ww/3.jpg"",""time"":191},{""stimulus"":""img/red_ww/4.jpg"",""time"":252},{""stimulus"":""img/red_ww/5.jpg"",""time"":315},{""stimulus"":""img/red_ww/6.jpg"",""time"":375},{""stimulus"":""img/red_ww/7.jpg"",""time"":438},{""stimulus"":""img/red_ww/8.jpg"",""time"":500},{""stimulus"":""img/red_ww/9.jpg"",""time"":561},{""stimulus"":""img/red_ww/10.jpg"",""time"":623},{""stimulus"":""img/red_ww/11.jpg"",""time"":686}]","[]"
"image-keyboard-response","51","69122","0.0-5.0-1.23","63ea5b93d1c6d38e1f57dcfa","bdp_lott","Sun Apr 09 2023 20:13:27 GMT-0400 (Eastern Daylight Time)","254296","red","green","","","","choice","","324","","img/red_ww/choose11.jpg","2","202","red","0.5","0.5","0.5","w","",""
"animation","52","69866","0.0-5.0-2.23","63ea5b93d1c6d38e1f57dcfa","bdp_lott","Sun Apr 09 2023 20:13:27 GMT-0400 (Eastern Daylight Time)","254296","red","green","","","","","","","","","","202","","","","","","[{""stimulus"":""img/red_ww/1.jpg"",""time"":63},{""stimulus"":""img/red_ww/2.jpg"",""time"":125},{""stimulus"":""img/red_ww/3.jpg"",""time"":188},{""stimulus"":""img/red_ww/4.jpg"",""time"":249},{""stimulus"":""img/red_ww/5.jpg"",""time"":310},{""stimulus"":""img/red_ww/6.jpg"",""time"":372},{""stimulus"":""img/red_ww/7.jpg"",""time"":433},{""stimulus"":""img/red_ww/8.jpg"",""time"":496},{""stimulus"":""img/red_ww/9.jpg"",""time"":559},{""stimulus"":""img/red_ww/10.jpg"",""time"":620},{""stimulus"":""img/red_ww/11.jpg"",""time"":682}]","[]"
"image-keyboard-response","53","70192","0.0-5.0-1.24","63ea5b93d1c6d38e1f57dcfa","bdp_lott","Sun Apr 09 2023 20:13:27 GMT-0400 (Eastern Daylight Time)","254296","red","green","","","","choice","","326","","img/red_ww/choose11.jpg","2","201","red","0.5","0.5","0.5","l","",""
"animation","54","70935","0.0-5.0-2.24","63ea5b93d1c6d38e1f57dcfa","bdp_lott","Sun Apr 09 2023 20:13:27 GMT-0400 (Eastern Daylight Time)","254296","red","green","","","","","","","","","","201","","","","","","[{""stimulus"":""img/red_wl/1.jpg"",""time"":60},{""stimulus"":""img/red_wl/2.jpg"",""time"":121},{""stimulus"":""img/red_wl/3.jpg"",""time"":184},{""stimulus"":""img/red_wl/4.jpg"",""time"":246},{""stimulus"":""img/red_wl/5.jpg"",""time"":309},{""stimulus"":""img/red_wl/6.jpg"",""time"":372},{""stimulus"":""img/red_wl/7.jpg"",""time"":433},{""stimulus"":""img/red_wl/8.jpg"",""time"":496},{""stimulus"":""img/red_wl/9.jpg"",""time"":558},{""stimulus"":""img/red_wl/10.jpg"",""time"":621},{""stimulus"":""img/red_wl/11.jpg"",""time"":681}]","[]"
"image-keyboard-response","55","71262","0.0-5.0-1.25","63ea5b93d1c6d38e1f57dcfa","bdp_lott","Sun Apr 09 2023 20:13:27 GMT-0400 (Eastern Daylight Time)","254296","red","green","","","","choice","","326","","img/red_wl/choose11.jpg","2","200","red","0.5","0.5","0.5","l","",""
"animation","56","72005","0.0-5.0-2.25","63ea5b93d1c6d38e1f57dcfa","bdp_lott","Sun Apr 09 2023 20:13:27 GMT-0400 (Eastern Daylight Time)","254296","red","green","","","","","","","","","","200","","","","","","[{""stimulus"":""img/red_wl/1.jpg"",""time"":60},{""stimulus"":""img/red_wl/2.jpg"",""time"":122},{""stimulus"":""img/red_wl/3.jpg"",""time"":183},{""stimulus"":""img/red_wl/4.jpg"",""time"":247},{""stimulus"":""img/red_wl/5.jpg"",""time"":309},{""stimulus"":""img/red_wl/6.jpg"",""time"":371},{""stimulus"":""img/red_wl/7.jpg"",""time"":432},{""stimulus"":""img/red_wl/8.jpg"",""time"":494},{""stimulus"":""img/red_wl/9.jpg"",""time"":556},{""stimulus"":""img/red_wl/10.jpg"",""time"":618},{""stimulus"":""img/red_wl/11.jpg"",""time"":680}]","[]"
"image-keyboard-response","57","72310","0.0-5.0-1.26","63ea5b93d1c6d38e1f57dcfa","bdp_lott","Sun Apr 09 2023 20:13:27 GMT-0400 (Eastern Daylight Time)","254296","red","green","","","","choice","","304","","img/red_wl/choose11.jpg","2","199","red","0.5","0.5","0.5","l","",""
"animation","58","73047","0.0-5.0-2.26","63ea5b93d1c6d38e1f57dcfa","bdp_lott","Sun Apr 09 2023 20:13:27 GMT-0400 (Eastern Daylight Time)","254296","red","green","","","","","","","","","","199","","","","","","[{""stimulus"":""img/red_wl/1.jpg"",""time"":54},{""stimulus"":""img/red_wl/2.jpg"",""time"":115},{""stimulus"":""img/red_wl/3.jpg"",""time"":176},{""stimulus"":""img/red_wl/4.jpg"",""time"":238},{""stimulus"":""img/red_wl/5.jpg"",""time"":300},{""stimulus"":""img/red_wl/6.jpg"",""time"":362},{""stimulus"":""img/red_wl/7.jpg"",""time"":424},{""stimulus"":""img/red_wl/8.jpg"",""time"":488},{""stimulus"":""img/red_wl/9.jpg"",""time"":551},{""stimulus"":""img/red_wl/10.jpg"",""time"":613},{""stimulus"":""img/red_wl/11.jpg"",""time"":675}]","[]"
"image-keyboard-response","59","73335","0.0-5.0-1.27","63ea5b93d1c6d38e1f57dcfa","bdp_lott","Sun Apr 09 2023 20:13:27 GMT-0400 (Eastern Daylight Time)","254296","red","green","","","","choice","","288","","img/red_wl/choose11.jpg","2","198","red","0.5","0.5","0.5","l","",""
"animation","60","74066","0.0-5.0-2.27","63ea5b93d1c6d38e1f57dcfa","bdp_lott","Sun Apr 09 2023 20:13:27 GMT-0400 (Eastern Daylight Time)","254296","red","green","","","","","","","","","","198","","","","","","[{""stimulus"":""img/red_wl/1.jpg"",""time"":51},{""stimulus"":""img/red_wl/2.jpg"",""time"":114},{""stimulus"":""img/red_wl/3.jpg"",""time"":177},{""stimulus"":""img/red_wl/4.jpg"",""time"":238},{""stimulus"":""img/red_wl/5.jpg"",""time"":298},{""stimulus"":""img/red_wl/6.jpg"",""time"":361},{""stimulus"":""img/red_wl/7.jpg"",""time"":422},{""stimulus"":""img/red_wl/8.jpg"",""time"":484},{""stimulus"":""img/red_wl/9.jpg"",""time"":547},{""stimulus"":""img/red_wl/10.jpg"",""time"":608},{""stimulus"":""img/red_wl/11.jpg"",""time"":669}]","[]"
"image-keyboard-response","61","74405","0.0-5.0-1.28","63ea5b93d1c6d38e1f57dcfa","bdp_lott","Sun Apr 09 2023 20:13:27 GMT-0400 (Eastern Daylight Time)","254296","red","green","","","","choice","","339","","img/red_wl/choose11.jpg","2","197","red","0.5","0.5","0.5","w","",""
"animation","62","75139","0.0-5.0-2.28","63ea5b93d1c6d38e1f57dcfa","bdp_lott","Sun Apr 09 2023 20:13:27 GMT-0400 (Eastern Daylight Time)","254296","red","green","","","","","","","","","","197","","","","","","[{""stimulus"":""img/red_ww/1.jpg"",""time"":51},{""stimulus"":""img/red_ww/2.jpg"",""time"":112},{""stimulus"":""img/red_ww/3.jpg"",""time"":174},{""stimulus"":""img/red_ww/4.jpg"",""time"":237},{""stimulus"":""img/red_ww/5.jpg"",""time"":298},{""stimulus"":""img/red_ww/6.jpg"",""time"":360},{""stimulus"":""img/red_ww/7.jpg"",""time"":423},{""stimulus"":""img/red_ww/8.jpg"",""time"":485},{""stimulus"":""img/red_ww/9.jpg"",""time"":548},{""stimulus"":""img/red_ww/10.jpg"",""time"":610},{""stimulus"":""img/red_ww/11.jpg"",""time"":672}]","[]"
"image-keyboard-response","63","75547","0.0-5.0-1.29","63ea5b93d1c6d38e1f57dcfa","bdp_lott","Sun Apr 09 2023 20:13:27 GMT-0400 (Eastern Daylight Time)","254296","red","green","","","","choice","","408","","img/red_ww/choose11.jpg","2","196","red","0.5","0.5","0.5","w","",""
"animation","64","76286","0.0-5.0-2.29","63ea5b93d1c6d38e1f57dcfa","bdp_lott","Sun Apr 09 2023 20:13:27 GMT-0400 (Eastern Daylight Time)","254296","red","green","","","","","","","","","","196","","","","","","[{""stimulus"":""img/red_ww/1.jpg"",""time"":58},{""stimulus"":""img/red_ww/2.jpg"",""time"":120},{""stimulus"":""img/red_ww/3.jpg"",""time"":181},{""stimulus"":""img/red_ww/4.jpg"",""time"":244},{""stimulus"":""img/red_ww/5.jpg"",""time"":305},{""stimulus"":""img/red_ww/6.jpg"",""time"":367},{""stimulus"":""img/red_ww/7.jpg"",""time"":429},{""stimulus"":""img/red_ww/8.jpg"",""time"":490},{""stimulus"":""img/red_ww/9.jpg"",""time"":552},{""stimulus"":""img/red_ww/10.jpg"",""time"":615},{""stimulus"":""img/red_ww/11.jpg"",""time"":677}]","[]"
"image-keyboard-response","65","76640","0.0-5.0-1.30","63ea5b93d1c6d38e1f57dcfa","bdp_lott","Sun Apr 09 2023 20:13:27 GMT-0400 (Eastern Daylight Time)","254296","red","green","","","","choice","","354","","img/red_ww/choose11.jpg","2","195","red","0.5","0.5","0.5","w","",""
"animation","66","77382","0.0-5.0-2.30","63ea5b93d1c6d38e1f57dcfa","bdp_lott","Sun Apr 09 2023 20:13:27 GMT-0400 (Eastern Daylight Time)","254296","red","green","","","","","","","","","","195","","","","","","[{""stimulus"":""img/red_ww/1.jpg"",""time"":63},{""stimulus"":""img/red_ww/2.jpg"",""time"":124},{""stimulus"":""img/red_ww/3.jpg"",""time"":187},{""stimulus"":""img/red_ww/4.jpg"",""time"":249},{""stimulus"":""img/red_ww/5.jpg"",""time"":311},{""stimulus"":""img/red_ww/6.jpg"",""time"":373},{""stimulus"":""img/red_ww/7.jpg"",""time"":435},{""stimulus"":""img/red_ww/8.jpg"",""time"":496},{""stimulus"":""img/red_ww/9.jpg"",""time"":557},{""stimulus"":""img/red_ww/10.jpg"",""time"":620},{""stimulus"":""img/red_ww/11.jpg"",""time"":682}]","[]"
"image-keyboard-response","67","77665","0.0-5.0-1.31","63ea5b93d1c6d38e1f57dcfa","bdp_lott","Sun Apr 09 2023 20:13:27 GMT-0400 (Eastern Daylight Time)","254296","red","green","","","","choice","","282","","img/red_ww/choose11.jpg","2","194","red","0.5","0.5","0.5","l","",""
"animation","68","78403","0.0-5.0-2.31","63ea5b93d1c6d38e1f57dcfa","bdp_lott","Sun Apr 09 2023 20:13:27 GMT-0400 (Eastern Daylight Time)","254296","red","green","","","","","","","","","","194","","","","","","[{""stimulus"":""img/red_wl/1.jpg"",""time"":58},{""stimulus"":""img/red_wl/2.jpg"",""time"":120},{""stimulus"":""img/red_wl/3.jpg"",""time"":181},{""stimulus"":""img/red_wl/4.jpg"",""time"":243},{""stimulus"":""img/red_wl/5.jpg"",""time"":305},{""stimulus"":""img/red_wl/6.jpg"",""time"":366},{""stimulus"":""img/red_wl/7.jpg"",""time"":427},{""stimulus"":""img/red_wl/8.jpg"",""time"":490},{""stimulus"":""img/red_wl/9.jpg"",""time"":552},{""stimulus"":""img/red_wl/10.jpg"",""time"":614},{""stimulus"":""img/red_wl/11.jpg"",""time"":677}]","[]"
"image-keyboard-response","69","78759","0.0-5.0-1.32","63ea5b93d1c6d38e1f57dcfa","bdp_lott","Sun Apr 09 2023 20:13:27 GMT-0400 (Eastern Daylight Time)","254296","red","green","","","","choice","","355","","img/red_wl/choose11.jpg","2","193","red","0.5","0.5","0.5","l","",""
"animation","70","79503","0.0-5.0-2.32","63ea5b93d1c6d38e1f57dcfa","bdp_lott","Sun Apr 09 2023 20:13:27 GMT-0400 (Eastern Daylight Time)","254296","red","green","","","","","","","","","","193","","","","","","[{""stimulus"":""img/red_wl/1.jpg"",""time"":63},{""stimulus"":""img/red_wl/2.jpg"",""time"":124},{""stimulus"":""img/red_wl/3.jpg"",""time"":187},{""stimulus"":""img/red_wl/4.jpg"",""time"":247},{""stimulus"":""img/red_wl/5.jpg"",""time"":310},{""stimulus"":""img/red_wl/6.jpg"",""time"":373},{""stimulus"":""img/red_wl/7.jpg"",""time"":433},{""stimulus"":""img/red_wl/8.jpg"",""time"":495},{""stimulus"":""img/red_wl/9.jpg"",""time"":557},{""stimulus"":""img/red_wl/10.jpg"",""time"":619},{""stimulus"":""img/red_wl/11.jpg"",""time"":682}]","[]"
"image-keyboard-response","71","79783","0.0-5.0-1.33","63ea5b93d1c6d38e1f57dcfa","bdp_lott","Sun Apr 09 2023 20:13:27 GMT-0400 (Eastern Daylight Time)","254296","red","green","","","","choice","","279","","img/red_wl/choose11.jpg","2","192","red","0.5","0.5","0.5","l","",""
"animation","72","80524","0.0-5.0-2.33","63ea5b93d1c6d38e1f57dcfa","bdp_lott","Sun Apr 09 2023 20:13:27 GMT-0400 (Eastern Daylight Time)","254296","red","green","","","","","","","","","","192","","","","","","[{""stimulus"":""img/red_wl/1.jpg"",""time"":61},{""stimulus"":""img/red_wl/2.jpg"",""time"":123},{""stimulus"":""img/red_wl/3.jpg"",""time"":184},{""stimulus"":""img/red_wl/4.jpg"",""time"":246},{""stimulus"":""img/red_wl/5.jpg"",""time"":308},{""stimulus"":""img/red_wl/6.jpg"",""time"":371},{""stimulus"":""img/red_wl/7.jpg"",""time"":432},{""stimulus"":""img/red_wl/8.jpg"",""time"":495},{""stimulus"":""img/red_wl/9.jpg"",""time"":557},{""stimulus"":""img/red_wl/10.jpg"",""time"":618},{""stimulus"":""img/red_wl/11.jpg"",""time"":679}]","[]"
"image-keyboard-response","73","80831","0.0-5.0-1.34","63ea5b93d1c6d38e1f57dcfa","bdp_lott","Sun Apr 09 2023 20:13:27 GMT-0400 (Eastern Daylight Time)","254296","red","green","","","","choice","","306","","img/red_wl/choose11.jpg","2","191","red","0.5","0.5","0.5","l","",""
"animation","74","81566","0.0-5.0-2.34","63ea5b93d1c6d38e1f57dcfa","bdp_lott","Sun Apr 09 2023 20:13:27 GMT-0400 (Eastern Daylight Time)","254296","red","green","","","","","","","","","","191","","","","","","[{""stimulus"":""img/red_wl/1.jpg"",""time"":52},{""stimulus"":""img/red_wl/2.jpg"",""time"":115},{""stimulus"":""img/red_wl/3.jpg"",""time"":176},{""stimulus"":""img/red_wl/4.jpg"",""time"":238},{""stimulus"":""img/red_wl/5.jpg"",""time"":302},{""stimulus"":""img/red_wl/6.jpg"",""time"":364},{""stimulus"":""img/red_wl/7.jpg"",""time"":426},{""stimulus"":""img/red_wl/8.jpg"",""time"":489},{""stimulus"":""img/red_wl/9.jpg"",""time"":550},{""stimulus"":""img/red_wl/10.jpg"",""time"":612},{""stimulus"":""img/red_wl/11.jpg"",""time"":674}]","[]"
"image-keyboard-response","75","81925","0.0-5.0-1.35","63ea5b93d1c6d38e1f57dcfa","bdp_lott","Sun Apr 09 2023 20:13:27 GMT-0400 (Eastern Daylight Time)","254296","red","green","","","","choice","","358","","img/red_wl/choose11.jpg","2","190","red","0.5","0.5","0.5","w","",""
"animation","76","82663","0.0-5.0-2.35","63ea5b93d1c6d38e1f57dcfa","bdp_lott","Sun Apr 09 2023 20:13:27 GMT-0400 (Eastern Daylight Time)","254296","red","green","","","","","","","","","","190","","","","","","[{""stimulus"":""img/red_ww/1.jpg"",""time"":60},{""stimulus"":""img/red_ww/2.jpg"",""time"":121},{""stimulus"":""img/red_ww/3.jpg"",""time"":183},{""stimulus"":""img/red_ww/4.jpg"",""time"":244},{""stimulus"":""img/red_ww/5.jpg"",""time"":307},{""stimulus"":""img/red_ww/6.jpg"",""time"":368},{""stimulus"":""img/red_ww/7.jpg"",""time"":430},{""stimulus"":""img/red_ww/8.jpg"",""time"":491},{""stimulus"":""img/red_ww/9.jpg"",""time"":552},{""stimulus"":""img/red_ww/10.jpg"",""time"":615},{""stimulus"":""img/red_ww/11.jpg"",""time"":676}]","[]"
"image-keyboard-response","77","83181","0.0-5.0-1.36","63ea5b93d1c6d38e1f57dcfa","bdp_lott","Sun Apr 09 2023 20:13:27 GMT-0400 (Eastern Daylight Time)","254296","red","green","","","","choice","","518","","img/red_ww/choose11.jpg","2","189","red","0.5","0.5","0.5","l","",""
"animation","78","83915","0.0-5.0-2.36","63ea5b93d1c6d38e1f57dcfa","bdp_lott","Sun Apr 09 2023 20:13:27 GMT-0400 (Eastern Daylight Time)","254296","red","green","","","","","","","","","","189","","","","","","[{""stimulus"":""img/red_wl/1.jpg"",""time"":53},{""stimulus"":""img/red_wl/2.jpg"",""time"":116},{""stimulus"":""img/red_wl/3.jpg"",""time"":178},{""stimulus"":""img/red_wl/4.jpg"",""time"":240},{""stimulus"":""img/red_wl/5.jpg"",""time"":302},{""stimulus"":""img/red_wl/6.jpg"",""time"":363},{""stimulus"":""img/red_wl/7.jpg"",""time"":424},{""stimulus"":""img/red_wl/8.jpg"",""time"":486},{""stimulus"":""img/red_wl/9.jpg"",""time"":548},{""stimulus"":""img/red_wl/10.jpg"",""time"":611},{""stimulus"":""img/red_wl/11.jpg"",""time"":671}]","[]"
"image-keyboard-response","79","84274","0.0-5.0-1.37","63ea5b93d1c6d38e1f57dcfa","bdp_lott","Sun Apr 09 2023 20:13:27 GMT-0400 (Eastern Daylight Time)","254296","red","green","","","","choice","","359","","img/red_wl/choose11.jpg","2","188","red","0.5","0.5","0.5","w","",""
"animation","80","85011","0.0-5.0-2.37","63ea5b93d1c6d38e1f57dcfa","bdp_lott","Sun Apr 09 2023 20:13:27 GMT-0400 (Eastern Daylight Time)","254296","red","green","","","","","","","","","","188","","","","","","[{""stimulus"":""img/red_ww/1.jpg"",""time"":56},{""stimulus"":""img/red_ww/2.jpg"",""time"":118},{""stimulus"":""img/red_ww/3.jpg"",""time"":180},{""stimulus"":""img/red_ww/4.jpg"",""time"":242},{""stimulus"":""img/red_ww/5.jpg"",""time"":302},{""stimulus"":""img/red_ww/6.jpg"",""time"":365},{""stimulus"":""img/red_ww/7.jpg"",""time"":426},{""stimulus"":""img/red_ww/8.jpg"",""time"":489},{""stimulus"":""img/red_ww/9.jpg"",""time"":551},{""stimulus"":""img/red_ww/10.jpg"",""time"":613},{""stimulus"":""img/red_ww/11.jpg"",""time"":674}]","[]"
"image-keyboard-response","81","85368","0.0-5.0-1.38","63ea5b93d1c6d38e1f57dcfa","bdp_lott","Sun Apr 09 2023 20:13:27 GMT-0400 (Eastern Daylight Time)","254296","red","green","","","","choice","","357","","img/red_ww/choose11.jpg","2","187","red","0.5","0.5","0.5","l","",""
"animation","82","86110","0.0-5.0-2.38","63ea5b93d1c6d38e1f57dcfa","bdp_lott","Sun Apr 09 2023 20:13:27 GMT-0400 (Eastern Daylight Time)","254296","red","green","","","","","","","","","","187","","","","","","[{""stimulus"":""img/red_wl/1.jpg"",""time"":61},{""stimulus"":""img/red_wl/2.jpg"",""time"":124},{""stimulus"":""img/red_wl/3.jpg"",""time"":185},{""stimulus"":""img/red_wl/4.jpg"",""time"":247},{""stimulus"":""img/red_wl/5.jpg"",""time"":309},{""stimulus"":""img/red_wl/6.jpg"",""time"":369},{""stimulus"":""img/red_wl/7.jpg"",""time"":432},{""stimulus"":""img/red_wl/8.jpg"",""time"":495},{""stimulus"":""img/red_wl/9.jpg"",""time"":557},{""stimulus"":""img/red_wl/10.jpg"",""time"":618},{""stimulus"":""img/red_wl/11.jpg"",""time"":681}]","[]"
"image-keyboard-response","83","86440","0.0-5.0-1.39","63ea5b93d1c6d38e1f57dcfa","bdp_lott","Sun Apr 09 2023 20:13:27 GMT-0400 (Eastern Daylight Time)","254296","red","green","","","","choice","","329","","img/red_wl/choose11.jpg","2","186","red","0.5","0.5","0.5","w","",""
"animation","84","87179","0.0-5.0-2.39","63ea5b93d1c6d38e1f57dcfa","bdp_lott","Sun Apr 09 2023 20:13:27 GMT-0400 (Eastern Daylight Time)","254296","red","green","","","","","","","","","","186","","","","","","[{""stimulus"":""img/red_ww/1.jpg"",""time"":57},{""stimulus"":""img/red_ww/2.jpg"",""time"":118},{""stimulus"":""img/red_ww/3.jpg"",""time"":180},{""stimulus"":""img/red_ww/4.jpg"",""time"":243},{""stimulus"":""img/red_ww/5.jpg"",""time"":305},{""stimulus"":""img/red_ww/6.jpg"",""time"":367},{""stimulus"":""img/red_ww/7.jpg"",""time"":429},{""stimulus"":""img/red_ww/8.jpg"",""time"":491},{""stimulus"":""img/red_ww/9.jpg"",""time"":554},{""stimulus"":""img/red_ww/10.jpg"",""time"":615},{""stimulus"":""img/red_ww/11.jpg"",""time"":677}]","[]"
"image-keyboard-response","85","87487","0.0-5.0-1.40","63ea5b93d1c6d38e1f57dcfa","bdp_lott","Sun Apr 09 2023 20:13:27 GMT-0400 (Eastern Daylight Time)","254296","red","green","","","","choice","","308","","img/red_ww/choose11.jpg","2","185","red","0.5","0.5","0.5","l","",""
"animation","86","88231","0.0-5.0-2.40","63ea5b93d1c6d38e1f57dcfa","bdp_lott","Sun Apr 09 2023 20:13:27 GMT-0400 (Eastern Daylight Time)","254296","red","green","","","","","","","","","","185","","","","","","[{""stimulus"":""img/red_wl/1.jpg"",""time"":64},{""stimulus"":""img/red_wl/2.jpg"",""time"":125},{""stimulus"":""img/red_wl/3.jpg"",""time"":186},{""stimulus"":""img/red_wl/4.jpg"",""time"":249},{""stimulus"":""img/red_wl/5.jpg"",""time"":311},{""stimulus"":""img/red_wl/6.jpg"",""time"":373},{""stimulus"":""img/red_wl/7.jpg"",""time"":436},{""stimulus"":""img/red_wl/8.jpg"",""time"":497},{""stimulus"":""img/red_wl/9.jpg"",""time"":560},{""stimulus"":""img/red_wl/10.jpg"",""time"":621},{""stimulus"":""img/red_wl/11.jpg"",""time"":684}]","[]"
"image-keyboard-response","87","88581","0.0-5.0-1.41","63ea5b93d1c6d38e1f57dcfa","bdp_lott","Sun Apr 09 2023 20:13:27 GMT-0400 (Eastern Daylight Time)","254296","red","green","","","","choice","","350","","img/red_wl/choose11.jpg","2","184","red","0.5","0.5","0.5","l","",""
"animation","88","89316","0.0-5.0-2.41","63ea5b93d1c6d38e1f57dcfa","bdp_lott","Sun Apr 09 2023 20:13:27 GMT-0400 (Eastern Daylight Time)","254296","red","green","","","","","","","","","","184","","","","","","[{""stimulus"":""img/red_wl/1.jpg"",""time"":53},{""stimulus"":""img/red_wl/2.jpg"",""time"":114},{""stimulus"":""img/red_wl/3.jpg"",""time"":176},{""stimulus"":""img/red_wl/4.jpg"",""time"":237},{""stimulus"":""img/red_wl/5.jpg"",""time"":299},{""stimulus"":""img/red_wl/6.jpg"",""time"":362},{""stimulus"":""img/red_wl/7.jpg"",""time"":423},{""stimulus"":""img/red_wl/8.jpg"",""time"":485},{""stimulus"":""img/red_wl/9.jpg"",""time"":547},{""stimulus"":""img/red_wl/10.jpg"",""time"":611},{""stimulus"":""img/red_wl/11.jpg"",""time"":672}]","[]"
"image-keyboard-response","89","89628","0.0-5.0-1.42","63ea5b93d1c6d38e1f57dcfa","bdp_lott","Sun Apr 09 2023 20:13:27 GMT-0400 (Eastern Daylight Time)","254296","red","green","","","","choice","","312","","img/red_wl/choose11.jpg","2","183","red","0.5","0.5","0.5","l","",""
"animation","90","90369","0.0-5.0-2.42","63ea5b93d1c6d38e1f57dcfa","bdp_lott","Sun Apr 09 2023 20:13:27 GMT-0400 (Eastern Daylight Time)","254296","red","green","","","","","","","","","","183","","","","","","[{""stimulus"":""img/red_wl/1.jpg"",""time"":59},{""stimulus"":""img/red_wl/2.jpg"",""time"":121},{""stimulus"":""img/red_wl/3.jpg"",""time"":184},{""stimulus"":""img/red_wl/4.jpg"",""time"":245},{""stimulus"":""img/red_wl/5.jpg"",""time"":307},{""stimulus"":""img/red_wl/6.jpg"",""time"":368},{""stimulus"":""img/red_wl/7.jpg"",""time"":430},{""stimulus"":""img/red_wl/8.jpg"",""time"":493},{""stimulus"":""img/red_wl/9.jpg"",""time"":557},{""stimulus"":""img/red_wl/10.jpg"",""time"":617},{""stimulus"":""img/red_wl/11.jpg"",""time"":678}]","[]"
"image-keyboard-response","91","90699","0.0-5.0-1.43","63ea5b93d1c6d38e1f57dcfa","bdp_lott","Sun Apr 09 2023 20:13:27 GMT-0400 (Eastern Daylight Time)","254296","red","green","","","","choice","","330","","img/red_wl/choose11.jpg","2","182","red","0.5","0.5","0.5","w","",""
"animation","92","91437","0.0-5.0-2.43","63ea5b93d1c6d38e1f57dcfa","bdp_lott","Sun Apr 09 2023 20:13:27 GMT-0400 (Eastern Daylight Time)","254296","red","green","","","","","","","","","","182","","","","","","[{""stimulus"":""img/red_ww/1.jpg"",""time"":57},{""stimulus"":""img/red_ww/2.jpg"",""time"":122},{""stimulus"":""img/red_ww/3.jpg"",""time"":182},{""stimulus"":""img/red_ww/4.jpg"",""time"":244},{""stimulus"":""img/red_ww/5.jpg"",""time"":306},{""stimulus"":""img/red_ww/6.jpg"",""time"":369},{""stimulus"":""img/red_ww/7.jpg"",""time"":431},{""stimulus"":""img/red_ww/8.jpg"",""time"":493},{""stimulus"":""img/red_ww/9.jpg"",""time"":553},{""stimulus"":""img/red_ww/10.jpg"",""time"":614},{""stimulus"":""img/red_ww/11.jpg"",""time"":676}]","[]"
"image-keyboard-response","93","91886","0.0-5.0-1.44","63ea5b93d1c6d38e1f57dcfa","bdp_lott","Sun Apr 09 2023 20:13:27 GMT-0400 (Eastern Daylight Time)","254296","red","green","","","","choice","","449","","img/red_ww/choose11.jpg","2","181","red","0.5","0.5","0.5","w","",""
"animation","94","92632","0.0-5.0-2.44","63ea5b93d1c6d38e1f57dcfa","bdp_lott","Sun Apr 09 2023 20:13:27 GMT-0400 (Eastern Daylight Time)","254296","red","green","","","","","","","","","","181","","","","","","[{""stimulus"":""img/red_ww/1.jpg"",""time"":65},{""stimulus"":""img/red_ww/2.jpg"",""time"":125},{""stimulus"":""img/red_ww/3.jpg"",""time"":188},{""stimulus"":""img/red_ww/4.jpg"",""time"":250},{""stimulus"":""img/red_ww/5.jpg"",""time"":311},{""stimulus"":""img/red_ww/6.jpg"",""time"":373},{""stimulus"":""img/red_ww/7.jpg"",""time"":435},{""stimulus"":""img/red_ww/8.jpg"",""time"":499},{""stimulus"":""img/red_ww/9.jpg"",""time"":561},{""stimulus"":""img/red_ww/10.jpg"",""time"":622},{""stimulus"":""img/red_ww/11.jpg"",""time"":684}]","[]"
"image-keyboard-response","95","92978","0.0-5.0-1.45","63ea5b93d1c6d38e1f57dcfa","bdp_lott","Sun Apr 09 2023 20:13:27 GMT-0400 (Eastern Daylight Time)","254296","red","green","","","","choice","","346","","img/red_ww/choose11.jpg","2","180","red","0.5","0.5","0.5","l","",""
"animation","96","93717","0.0-5.0-2.45","63ea5b93d1c6d38e1f57dcfa","bdp_lott","Sun Apr 09 2023 20:13:27 GMT-0400 (Eastern Daylight Time)","254296","red","green","","","","","","","","","","180","","","","","","[{""stimulus"":""img/red_wl/1.jpg"",""time"":56},{""stimulus"":""img/red_wl/2.jpg"",""time"":119},{""stimulus"":""img/red_wl/3.jpg"",""time"":180},{""stimulus"":""img/red_wl/4.jpg"",""time"":242},{""stimulus"":""img/red_wl/5.jpg"",""time"":304},{""stimulus"":""img/red_wl/6.jpg"",""time"":367},{""stimulus"":""img/red_wl/7.jpg"",""time"":429},{""stimulus"":""img/red_wl/8.jpg"",""time"":491},{""stimulus"":""img/red_wl/9.jpg"",""time"":552},{""stimulus"":""img/red_wl/10.jpg"",""time"":614},{""stimulus"":""img/red_wl/11.jpg"",""time"":676}]","[]"
"image-keyboard-response","97","94026","0.0-5.0-1.46","63ea5b93d1c6d38e1f57dcfa","bdp_lott","Sun Apr 09 2023 20:13:27 GMT-0400 (Eastern Daylight Time)","254296","red","green","","","","choice","","308","","img/red_wl/choose11.jpg","2","179","red","0.5","0.5","0.5","w","",""
"animation","98","94772","0.0-5.0-2.46","63ea5b93d1c6d38e1f57dcfa","bdp_lott","Sun Apr 09 2023 20:13:27 GMT-0400 (Eastern Daylight Time)","254296","red","green","","","","","","","","","","179","","","","","","[{""stimulus"":""img/red_ww/1.jpg"",""time"":62},{""stimulus"":""img/red_ww/2.jpg"",""time"":124},{""stimulus"":""img/red_ww/3.jpg"",""time"":187},{""stimulus"":""img/red_ww/4.jpg"",""time"":248},{""stimulus"":""img/red_ww/5.jpg"",""time"":311},{""stimulus"":""img/red_ww/6.jpg"",""time"":372},{""stimulus"":""img/red_ww/7.jpg"",""time"":434},{""stimulus"":""img/red_ww/8.jpg"",""time"":496},{""stimulus"":""img/red_ww/9.jpg"",""time"":560},{""stimulus"":""img/red_ww/10.jpg"",""time"":624},{""stimulus"":""img/red_ww/11.jpg"",""time"":685}]","[]"
"image-keyboard-response","99","95074","0.0-5.0-1.47","63ea5b93d1c6d38e1f57dcfa","bdp_lott","Sun Apr 09 2023 20:13:27 GMT-0400 (Eastern Daylight Time)","254296","red","green","","","","choice","","302","","img/red_ww/choose11.jpg","2","178","red","0.5","0.5","0.5","l","",""
"animation","100","95811","0.0-5.0-2.47","63ea5b93d1c6d38e1f57dcfa","bdp_lott","Sun Apr 09 2023 20:13:27 GMT-0400 (Eastern Daylight Time)","254296","red","green","","","","","","","","","","178","","","","","","[{""stimulus"":""img/red_wl/1.jpg"",""time"":56},{""stimulus"":""img/red_wl/2.jpg"",""time"":119},{""stimulus"":""img/red_wl/3.jpg"",""time"":182},{""stimulus"":""img/red_wl/4.jpg"",""time"":243},{""stimulus"":""img/red_wl/5.jpg"",""time"":305},{""stimulus"":""img/red_wl/6.jpg"",""time"":366},{""stimulus"":""img/red_wl/7.jpg"",""time"":428},{""stimulus"":""img/red_wl/8.jpg"",""time"":491},{""stimulus"":""img/red_wl/9.jpg"",""time"":552},{""stimulus"":""img/red_wl/10.jpg"",""time"":615},{""stimulus"":""img/red_wl/11.jpg"",""time"":676}]","[]"
"image-keyboard-response","101","96144","0.0-5.0-1.48","63ea5b93d1c6d38e1f57dcfa","bdp_lott","Sun Apr 09 2023 20:13:27 GMT-0400 (Eastern Daylight Time)","254296","red","green","","","","choice","","333","","img/red_wl/choose11.jpg","2","177","red","0.5","0.5","0.5","l","",""
"animation","102","96885","0.0-5.0-2.48","63ea5b93d1c6d38e1f57dcfa","bdp_lott","Sun Apr 09 2023 20:13:27 GMT-0400 (Eastern Daylight Time)","254296","red","green","","","","","","","","","","177","","","","","","[{""stimulus"":""img/red_wl/1.jpg"",""time"":58},{""stimulus"":""img/red_wl/2.jpg"",""time"":121},{""stimulus"":""img/red_wl/3.jpg"",""time"":183},{""stimulus"":""img/red_wl/4.jpg"",""time"":245},{""stimulus"":""img/red_wl/5.jpg"",""time"":308},{""stimulus"":""img/red_wl/6.jpg"",""time"":372},{""stimulus"":""img/red_wl/7.jpg"",""time"":433},{""stimulus"":""img/red_wl/8.jpg"",""time"":495},{""stimulus"":""img/red_wl/9.jpg"",""time"":557},{""stimulus"":""img/red_wl/10.jpg"",""time"":618},{""stimulus"":""img/red_wl/11.jpg"",""time"":682}]","[]"
"image-keyboard-response","103","97192","0.0-5.0-1.49","63ea5b93d1c6d38e1f57dcfa","bdp_lott","Sun Apr 09 2023 20:13:27 GMT-0400 (Eastern Daylight Time)","254296","red","green","","","","choice","","305","","img/red_wl/choose11.jpg","2","176","red","0.5","0.5","0.5","w","",""
"animation","104","97923","0.0-5.0-2.49","63ea5b93d1c6d38e1f57dcfa","bdp_lott","Sun Apr 09 2023 20:13:27 GMT-0400 (Eastern Daylight Time)","254296","red","green","","","","","","","","","","176","","","","","","[{""stimulus"":""img/red_ww/1.jpg"",""time"":52},{""stimulus"":""img/red_ww/2.jpg"",""time"":114},{""stimulus"":""img/red_ww/3.jpg"",""time"":176},{""stimulus"":""img/red_ww/4.jpg"",""time"":237},{""stimulus"":""img/red_ww/5.jpg"",""time"":299},{""stimulus"":""img/red_ww/6.jpg"",""time"":361},{""stimulus"":""img/red_ww/7.jpg"",""time"":422},{""stimulus"":""img/red_ww/8.jpg"",""time"":483},{""stimulus"":""img/red_ww/9.jpg"",""time"":545},{""stimulus"":""img/red_ww/10.jpg"",""time"":608},{""stimulus"":""img/red_ww/11.jpg"",""time"":668}]","[]"
"image-keyboard-response","105","98192","0.0-5.0-1.50","63ea5b93d1c6d38e1f57dcfa","bdp_lott","Sun Apr 09 2023 20:13:27 GMT-0400 (Eastern Daylight Time)","254296","red","green","","","","choice","","269","","img/red_ww/choose11.jpg","2","175","red","0.5","0.5","0.5","l","",""
"animation","106","98928","0.0-5.0-2.50","63ea5b93d1c6d38e1f57dcfa","bdp_lott","Sun Apr 09 2023 20:13:27 GMT-0400 (Eastern Daylight Time)","254296","red","green","","","","","","","","","","175","","","","","","[{""stimulus"":""img/red_wl/1.jpg"",""time"":53},{""stimulus"":""img/red_wl/2.jpg"",""time"":116},{""stimulus"":""img/red_wl/3.jpg"",""time"":178},{""stimulus"":""img/red_wl/4.jpg"",""time"":240},{""stimulus"":""img/red_wl/5.jpg"",""time"":301},{""stimulus"":""img/red_wl/6.jpg"",""time"":363},{""stimulus"":""img/red_wl/7.jpg"",""time"":426},{""stimulus"":""img/red_wl/8.jpg"",""time"":488},{""stimulus"":""img/red_wl/9.jpg"",""time"":550},{""stimulus"":""img/red_wl/10.jpg"",""time"":612},{""stimulus"":""img/red_wl/11.jpg"",""time"":674}]","[]"
"image-keyboard-response","107","99240","0.0-5.0-1.51","63ea5b93d1c6d38e1f57dcfa","bdp_lott","Sun Apr 09 2023 20:13:27 GMT-0400 (Eastern Daylight Time)","254296","red","green","","","","choice","","312","","img/red_wl/choose11.jpg","2","174","red","0.5","0.5","0.5","l","",""
"animation","108","99981","0.0-5.0-2.51","63ea5b93d1c6d38e1f57dcfa","bdp_lott","Sun Apr 09 2023 20:13:27 GMT-0400 (Eastern Daylight Time)","254296","red","green","","","","","","","","","","174","","","","","","[{""stimulus"":""img/red_wl/1.jpg"",""time"":59},{""stimulus"":""img/red_wl/2.jpg"",""time"":121},{""stimulus"":""img/red_wl/3.jpg"",""time"":184},{""stimulus"":""img/red_wl/4.jpg"",""time"":244},{""stimulus"":""img/red_wl/5.jpg"",""time"":308},{""stimulus"":""img/red_wl/6.jpg"",""time"":371},{""stimulus"":""img/red_wl/7.jpg"",""time"":433},{""stimulus"":""img/red_wl/8.jpg"",""time"":495},{""stimulus"":""img/red_wl/9.jpg"",""time"":556},{""stimulus"":""img/red_wl/10.jpg"",""time"":617},{""stimulus"":""img/red_wl/11.jpg"",""time"":679}]","[]"
"image-keyboard-response","109","100218","0.0-5.0-1.52","63ea5b93d1c6d38e1f57dcfa","bdp_lott","Sun Apr 09 2023 20:13:27 GMT-0400 (Eastern Daylight Time)","254296","red","green","","","","choice","","237","","img/red_wl/choose11.jpg","2","173","red","0.5","0.5","0.5","w","",""
"animation","110","100956","0.0-5.0-2.52","63ea5b93d1c6d38e1f57dcfa","bdp_lott","Sun Apr 09 2023 20:13:27 GMT-0400 (Eastern Daylight Time)","254296","red","green","","","","","","","","","","173","","","","","","[{""stimulus"":""img/red_ww/1.jpg"",""time"":57},{""stimulus"":""img/red_ww/2.jpg"",""time"":119},{""stimulus"":""img/red_ww/3.jpg"",""time"":181},{""stimulus"":""img/red_ww/4.jpg"",""time"":243},{""stimulus"":""img/red_ww/5.jpg"",""time"":305},{""stimulus"":""img/red_ww/6.jpg"",""time"":366},{""stimulus"":""img/red_ww/7.jpg"",""time"":429},{""stimulus"":""img/red_ww/8.jpg"",""time"":492},{""stimulus"":""img/red_ww/9.jpg"",""time"":553},{""stimulus"":""img/red_ww/10.jpg"",""time"":614},{""stimulus"":""img/red_ww/11.jpg"",""time"":676}]","[]"
"image-keyboard-response","111","101059","0.0-5.0-1.53","63ea5b93d1c6d38e1f57dcfa","bdp_lott","Sun Apr 09 2023 20:13:27 GMT-0400 (Eastern Daylight Time)","254296","red","green","","","","choice","","103","","img/red_ww/choose11.jpg","2","172","red","0.5","0.5","0.5","l","",""
"animation","112","101795","0.0-5.0-2.53","63ea5b93d1c6d38e1f57dcfa","bdp_lott","Sun Apr 09 2023 20:13:27 GMT-0400 (Eastern Daylight Time)","254296","red","green","","","","","","","","","","172","","","","","","[{""stimulus"":""img/red_wl/1.jpg"",""time"":51},{""stimulus"":""img/red_wl/2.jpg"",""time"":114},{""stimulus"":""img/red_wl/3.jpg"",""time"":176},{""stimulus"":""img/red_wl/4.jpg"",""time"":238},{""stimulus"":""img/red_wl/5.jpg"",""time"":298},{""stimulus"":""img/red_wl/6.jpg"",""time"":361},{""stimulus"":""img/red_wl/7.jpg"",""time"":424},{""stimulus"":""img/red_wl/8.jpg"",""time"":487},{""stimulus"":""img/red_wl/9.jpg"",""time"":549},{""stimulus"":""img/red_wl/10.jpg"",""time"":611},{""stimulus"":""img/red_wl/11.jpg"",""time"":674}]","[]"
"image-keyboard-response","113","101875","0.0-5.0-1.54","63ea5b93d1c6d38e1f57dcfa","bdp_lott","Sun Apr 09 2023 20:13:27 GMT-0400 (Eastern Daylight Time)","254296","red","green","","","","choice","","80","","img/red_wl/choose11.jpg","2","171","red","0.5","0.5","0.5","l","",""
"animation","114","102615","0.0-5.0-2.54","63ea5b93d1c6d38e1f57dcfa","bdp_lott","Sun Apr 09 2023 20:13:27 GMT-0400 (Eastern Daylight Time)","254296","red","green","","","","","","","","","","171","","","","","","[{""stimulus"":""img/red_wl/1.jpg"",""time"":56},{""stimulus"":""img/red_wl/2.jpg"",""time"":119},{""stimulus"":""img/red_wl/3.jpg"",""time"":181},{""stimulus"":""img/red_wl/4.jpg"",""time"":243},{""stimulus"":""img/red_wl/5.jpg"",""time"":305},{""stimulus"":""img/red_wl/6.jpg"",""time"":368},{""stimulus"":""img/red_wl/7.jpg"",""time"":429},{""stimulus"":""img/red_wl/8.jpg"",""time"":492},{""stimulus"":""img/red_wl/9.jpg"",""time"":554},{""stimulus"":""img/red_wl/10.jpg"",""time"":615},{""stimulus"":""img/red_wl/11.jpg"",""time"":677}]","[]"
"image-keyboard-response","115","102715","0.0-5.0-1.55","63ea5b93d1c6d38e1f57dcfa","bdp_lott","Sun Apr 09 2023 20:13:27 GMT-0400 (Eastern Daylight Time)","254296","red","green","","","","choice","","100","","img/red_wl/choose11.jpg","2","170","red","0.5","0.5","0.5","w","",""
"animation","116","103454","0.0-5.0-2.55","63ea5b93d1c6d38e1f57dcfa","bdp_lott","Sun Apr 09 2023 20:13:27 GMT-0400 (Eastern Daylight Time)","254296","red","green","","","","","","","","","","170","","","","","","[{""stimulus"":""img/red_ww/1.jpg"",""time"":57},{""stimulus"":""img/red_ww/2.jpg"",""time"":119},{""stimulus"":""img/red_ww/3.jpg"",""time"":180},{""stimulus"":""img/red_ww/4.jpg"",""time"":241},{""stimulus"":""img/red_ww/5.jpg"",""time"":305},{""stimulus"":""img/red_ww/6.jpg"",""time"":366},{""stimulus"":""img/red_ww/7.jpg"",""time"":428},{""stimulus"":""img/red_ww/8.jpg"",""time"":489},{""stimulus"":""img/red_ww/9.jpg"",""time"":551},{""stimulus"":""img/red_ww/10.jpg"",""time"":614},{""stimulus"":""img/red_ww/11.jpg"",""time"":676}]","[]"
"image-keyboard-response","117","103578","0.0-5.0-1.56","63ea5b93d1c6d38e1f57dcfa","bdp_lott","Sun Apr 09 2023 20:13:27 GMT-0400 (Eastern Daylight Time)","254296","red","green","","","","choice","","124","","img/red_ww/choose11.jpg","2","169","red","0.5","0.5","0.5","l","",""
"animation","118","104326","0.0-5.0-2.56","63ea5b93d1c6d38e1f57dcfa","bdp_lott","Sun Apr 09 2023 20:13:27 GMT-0400 (Eastern Daylight Time)","254296","red","green","","","","","","","","","","169","","","","","","[{""stimulus"":""img/red_wl/1.jpg"",""time"":62},{""stimulus"":""img/red_wl/2.jpg"",""time"":123},{""stimulus"":""img/red_wl/3.jpg"",""time"":187},{""stimulus"":""img/red_wl/4.jpg"",""time"":250},{""stimulus"":""img/red_wl/5.jpg"",""time"":312},{""stimulus"":""img/red_wl/6.jpg"",""time"":376},{""stimulus"":""img/red_wl/7.jpg"",""time"":439},{""stimulus"":""img/red_wl/8.jpg"",""time"":501},{""stimulus"":""img/red_wl/9.jpg"",""time"":563},{""stimulus"":""img/red_wl/10.jpg"",""time"":625},{""stimulus"":""img/red_wl/11.jpg"",""time"":687}]","[]"
"image-keyboard-response","119","104510","0.0-5.0-1.57","63ea5b93d1c6d38e1f57dcfa","bdp_lott","Sun Apr 09 2023 20:13:27 GMT-0400 (Eastern Daylight Time)","254296","red","green","","","","choice","","183","","img/red_wl/choose11.jpg","2","168","red","0.5","0.5","0.5","l","",""
"animation","120","105259","0.0-5.0-2.57","63ea5b93d1c6d38e1f57dcfa","bdp_lott","Sun Apr 09 2023 20:13:27 GMT-0400 (Eastern Daylight Time)","254296","red","green","","","","","","","","","","168","","","","","","[{""stimulus"":""img/red_wl/1.jpg"",""time"":65},{""stimulus"":""img/red_wl/2.jpg"",""time"":127},{""stimulus"":""img/red_wl/3.jpg"",""time"":188},{""stimulus"":""img/red_wl/4.jpg"",""time"":252},{""stimulus"":""img/red_wl/5.jpg"",""time"":314},{""stimulus"":""img/red_wl/6.jpg"",""time"":376},{""stimulus"":""img/red_wl/7.jpg"",""time"":438},{""stimulus"":""img/red_wl/8.jpg"",""time"":500},{""stimulus"":""img/red_wl/9.jpg"",""time"":564},{""stimulus"":""img/red_wl/10.jpg"",""time"":624},{""stimulus"":""img/red_wl/11.jpg"",""time"":686}]","[]"
"image-keyboard-response","121","105420","0.0-5.0-1.58","63ea5b93d1c6d38e1f57dcfa","bdp_lott","Sun Apr 09 2023 20:13:27 GMT-0400 (Eastern Daylight Time)","254296","red","green","","","","choice","","161","","img/red_wl/choose11.jpg","2","167","red","0.5","0.5","0.5","l","",""
"animation","122","106158","0.0-5.0-2.58","63ea5b93d1c6d38e1f57dcfa","bdp_lott","Sun Apr 09 2023 20:13:27 GMT-0400 (Eastern Daylight Time)","254296","red","green","","","","","","","","","","167","","","","","","[{""stimulus"":""img/red_wl/1.jpg"",""time"":58},{""stimulus"":""img/red_wl/2.jpg"",""time"":120},{""stimulus"":""img/red_wl/3.jpg"",""time"":180},{""stimulus"":""img/red_wl/4.jpg"",""time"":242},{""stimulus"":""img/red_wl/5.jpg"",""time"":304},{""stimulus"":""img/red_wl/6.jpg"",""time"":366},{""stimulus"":""img/red_wl/7.jpg"",""time"":429},{""stimulus"":""img/red_wl/8.jpg"",""time"":489},{""stimulus"":""img/red_wl/9.jpg"",""time"":551},{""stimulus"":""img/red_wl/10.jpg"",""time"":614},{""stimulus"":""img/red_wl/11.jpg"",""time"":676}]","[]"
"image-keyboard-response","123","106306","0.0-5.0-1.59","63ea5b93d1c6d38e1f57dcfa","bdp_lott","Sun Apr 09 2023 20:13:27 GMT-0400 (Eastern Daylight Time)","254296","red","green","","","","choice","","148","","img/red_wl/choose11.jpg","2","166","red","0.5","0.5","0.5","l","",""
"animation","124","107041","0.0-5.0-2.59","63ea5b93d1c6d38e1f57dcfa","bdp_lott","Sun Apr 09 2023 20:13:27 GMT-0400 (Eastern Daylight Time)","254296","red","green","","","","","","","","","","166","","","","","","[{""stimulus"":""img/red_wl/1.jpg"",""time"":54},{""stimulus"":""img/red_wl/2.jpg"",""time"":115},{""stimulus"":""img/red_wl/3.jpg"",""time"":177},{""stimulus"":""img/red_wl/4.jpg"",""time"":239},{""stimulus"":""img/red_wl/5.jpg"",""time"":303},{""stimulus"":""img/red_wl/6.jpg"",""time"":365},{""stimulus"":""img/red_wl/7.jpg"",""time"":426},{""stimulus"":""img/red_wl/8.jpg"",""time"":487},{""stimulus"":""img/red_wl/9.jpg"",""time"":549},{""stimulus"":""img/red_wl/10.jpg"",""time"":611},{""stimulus"":""img/red_wl/11.jpg"",""time"":673}]","[]"
"image-keyboard-response","125","107214","0.0-5.0-1.60","63ea5b93d1c6d38e1f57dcfa","bdp_lott","Sun Apr 09 2023 20:13:27 GMT-0400 (Eastern Daylight Time)","254296","red","green","","","","choice","","173","","img/red_wl/choose11.jpg","2","165","red","0.5","0.5","0.5","l","",""
"animation","126","107958","0.0-5.0-2.60","63ea5b93d1c6d38e1f57dcfa","bdp_lott","Sun Apr 09 2023 20:13:27 GMT-0400 (Eastern Daylight Time)","254296","red","green","","","","","","","","","","165","","","","","","[{""stimulus"":""img/red_wl/1.jpg"",""time"":61},{""stimulus"":""img/red_wl/2.jpg"",""time"":123},{""stimulus"":""img/red_wl/3.jpg"",""time"":186},{""stimulus"":""img/red_wl/4.jpg"",""time"":247},{""stimulus"":""img/red_wl/5.jpg"",""time"":310},{""stimulus"":""img/red_wl/6.jpg"",""time"":372},{""stimulus"":""img/red_wl/7.jpg"",""time"":434},{""stimulus"":""img/red_wl/8.jpg"",""time"":496},{""stimulus"":""img/red_wl/9.jpg"",""time"":558},{""stimulus"":""img/red_wl/10.jpg"",""time"":620},{""stimulus"":""img/red_wl/11.jpg"",""time"":683}]","[]"
"image-keyboard-response","127","108101","0.0-5.0-1.61","63ea5b93d1c6d38e1f57dcfa","bdp_lott","Sun Apr 09 2023 20:13:27 GMT-0400 (Eastern Daylight Time)","254296","red","green","","","","choice","","143","","img/red_wl/choose11.jpg","2","164","red","0.5","0.5","0.5","l","",""
"animation","128","108843","0.0-5.0-2.61","63ea5b93d1c6d38e1f57dcfa","bdp_lott","Sun Apr 09 2023 20:13:27 GMT-0400 (Eastern Daylight Time)","254296","red","green","","","","","","","","","","164","","","","","","[{""stimulus"":""img/red_wl/1.jpg"",""time"":59},{""stimulus"":""img/red_wl/2.jpg"",""time"":121},{""stimulus"":""img/red_wl/3.jpg"",""time"":184},{""stimulus"":""img/red_wl/4.jpg"",""time"":246},{""stimulus"":""img/red_wl/5.jpg"",""time"":307},{""stimulus"":""img/red_wl/6.jpg"",""time"":369},{""stimulus"":""img/red_wl/7.jpg"",""time"":431},{""stimulus"":""img/red_wl/8.jpg"",""time"":493},{""stimulus"":""img/red_wl/9.jpg"",""time"":556},{""stimulus"":""img/red_wl/10.jpg"",""time"":618},{""stimulus"":""img/red_wl/11.jpg"",""time"":679}]","[]"
"image-keyboard-response","129","109055","0.0-5.0-1.62","63ea5b93d1c6d38e1f57dcfa","bdp_lott","Sun Apr 09 2023 20:13:27 GMT-0400 (Eastern Daylight Time)","254296","red","green","","","","choice","","212","","img/red_wl/choose11.jpg","1","163","green","0.5","0.5","0.5","l","",""
"animation","130","109786","0.0-5.0-2.62","63ea5b93d1c6d38e1f57dcfa","bdp_lott","Sun Apr 09 2023 20:13:27 GMT-0400 (Eastern Daylight Time)","254296","red","green","","","","","","","","","","163","","","","","","[{""stimulus"":""img/green_ll/1.jpg"",""time"":50},{""stimulus"":""img/green_ll/2.jpg"",""time"":113},{""stimulus"":""img/green_ll/3.jpg"",""time"":175},{""stimulus"":""img/green_ll/4.jpg"",""time"":237},{""stimulus"":""img/green_ll/5.jpg"",""time"":298},{""stimulus"":""img/green_ll/6.jpg"",""time"":361},{""stimulus"":""img/green_ll/7.jpg"",""time"":422},{""stimulus"":""img/green_ll/8.jpg"",""time"":484},{""stimulus"":""img/green_ll/9.jpg"",""time"":546},{""stimulus"":""img/green_ll/10.jpg"",""time"":608},{""stimulus"":""img/green_ll/11.jpg"",""time"":669}]","[]"
"image-keyboard-response","131","109918","0.0-5.0-1.63","63ea5b93d1c6d38e1f57dcfa","bdp_lott","Sun Apr 09 2023 20:13:27 GMT-0400 (Eastern Daylight Time)","254296","red","green","","","","choice","","132","","img/green_ll/choose11.jpg","1","162","green","0.5","0.5","0.5","w","",""
"animation","132","110652","0.0-5.0-2.63","63ea5b93d1c6d38e1f57dcfa","bdp_lott","Sun Apr 09 2023 20:13:27 GMT-0400 (Eastern Daylight Time)","254296","red","green","","","","","","","","","","162","","","","","","[{""stimulus"":""img/green_wl/1.jpg"",""time"":53},{""stimulus"":""img/green_wl/2.jpg"",""time"":115},{""stimulus"":""img/green_wl/3.jpg"",""time"":177},{""stimulus"":""img/green_wl/4.jpg"",""time"":238},{""stimulus"":""img/green_wl/5.jpg"",""time"":300},{""stimulus"":""img/green_wl/6.jpg"",""time"":362},{""stimulus"":""img/green_wl/7.jpg"",""time"":423},{""stimulus"":""img/green_wl/8.jpg"",""time"":487},{""stimulus"":""img/green_wl/9.jpg"",""time"":548},{""stimulus"":""img/green_wl/10.jpg"",""time"":610},{""stimulus"":""img/green_wl/11.jpg"",""time"":672}]","[]"
"image-keyboard-response","133","110804","0.0-5.0-1.64","63ea5b93d1c6d38e1f57dcfa","bdp_lott","Sun Apr 09 2023 20:13:27 GMT-0400 (Eastern Daylight Time)","254296","red","green","","","","choice","","152","","img/green_wl/choose11.jpg","1","161","green","0.5","0.5","0.5","w","",""
"animation","134","111545","0.0-5.0-2.64","63ea5b93d1c6d38e1f57dcfa","bdp_lott","Sun Apr 09 2023 20:13:27 GMT-0400 (Eastern Daylight Time)","254296","red","green","","","","","","","","","","161","","","","","","[{""stimulus"":""img/green_wl/1.jpg"",""time"":63},{""stimulus"":""img/green_wl/2.jpg"",""time"":125},{""stimulus"":""img/green_wl/3.jpg"",""time"":188},{""stimulus"":""img/green_wl/4.jpg"",""time"":249},{""stimulus"":""img/green_wl/5.jpg"",""time"":309},{""stimulus"":""img/green_wl/6.jpg"",""time"":372},{""stimulus"":""img/green_wl/7.jpg"",""time"":432},{""stimulus"":""img/green_wl/8.jpg"",""time"":496},{""stimulus"":""img/green_wl/9.jpg"",""time"":557},{""stimulus"":""img/green_wl/10.jpg"",""time"":619},{""stimulus"":""img/green_wl/11.jpg"",""time"":679}]","[]"
"image-keyboard-response","135","111644","0.0-5.0-1.65","63ea5b93d1c6d38e1f57dcfa","bdp_lott","Sun Apr 09 2023 20:13:27 GMT-0400 (Eastern Daylight Time)","254296","red","green","","","","choice","","99","","img/green_wl/choose11.jpg","1","160","green","0.5","0.5","0.5","w","",""
"animation","136","112380","0.0-5.0-2.65","63ea5b93d1c6d38e1f57dcfa","bdp_lott","Sun Apr 09 2023 20:13:27 GMT-0400 (Eastern Daylight Time)","254296","red","green","","","","","","","","","","160","","","","","","[{""stimulus"":""img/green_wl/1.jpg"",""time"":56},{""stimulus"":""img/green_wl/2.jpg"",""time"":119},{""stimulus"":""img/green_wl/3.jpg"",""time"":180},{""stimulus"":""img/green_wl/4.jpg"",""time"":241},{""stimulus"":""img/green_wl/5.jpg"",""time"":303},{""stimulus"":""img/green_wl/6.jpg"",""time"":364},{""stimulus"":""img/green_wl/7.jpg"",""time"":426},{""stimulus"":""img/green_wl/8.jpg"",""time"":487},{""stimulus"":""img/green_wl/9.jpg"",""time"":550},{""stimulus"":""img/green_wl/10.jpg"",""time"":612},{""stimulus"":""img/green_wl/11.jpg"",""time"":674}]","[]"
"image-keyboard-response","137","112599","0.0-5.0-1.66","63ea5b93d1c6d38e1f57dcfa","bdp_lott","Sun Apr 09 2023 20:13:27 GMT-0400 (Eastern Daylight Time)","254296","red","green","","","","choice","","219","","img/green_wl/choose11.jpg","1","159","green","0.5","0.5","0.5","w","",""
"animation","138","113337","0.0-5.0-2.66","63ea5b93d1c6d38e1f57dcfa","bdp_lott","Sun Apr 09 2023 20:13:27 GMT-0400 (Eastern Daylight Time)","254296","red","green","","","","","","","","","","159","","","","","","[{""stimulus"":""img/green_wl/1.jpg"",""time"":58},{""stimulus"":""img/green_wl/2.jpg"",""time"":118},{""stimulus"":""img/green_wl/3.jpg"",""time"":180},{""stimulus"":""img/green_wl/4.jpg"",""time"":241},{""stimulus"":""img/green_wl/5.jpg"",""time"":304},{""stimulus"":""img/green_wl/6.jpg"",""time"":366},{""stimulus"":""img/green_wl/7.jpg"",""time"":427},{""stimulus"":""img/green_wl/8.jpg"",""time"":489},{""stimulus"":""img/green_wl/9.jpg"",""time"":551},{""stimulus"":""img/green_wl/10.jpg"",""time"":613},{""stimulus"":""img/green_wl/11.jpg"",""time"":676}]","[]"
"image-keyboard-response","139","113484","0.0-5.0-1.67","63ea5b93d1c6d38e1f57dcfa","bdp_lott","Sun Apr 09 2023 20:13:27 GMT-0400 (Eastern Daylight Time)","254296","red","green","","","","choice","","147","","img/green_wl/choose11.jpg","1","158","green","0.5","0.5","0.5","l","",""
"animation","140","114223","0.0-5.0-2.67","63ea5b93d1c6d38e1f57dcfa","bdp_lott","Sun Apr 09 2023 20:13:27 GMT-0400 (Eastern Daylight Time)","254296","red","green","","","","","","","","","","158","","","","","","[{""stimulus"":""img/green_ll/1.jpg"",""time"":57},{""stimulus"":""img/green_ll/2.jpg"",""time"":117},{""stimulus"":""img/green_ll/3.jpg"",""time"":178},{""stimulus"":""img/green_ll/4.jpg"",""time"":241},{""stimulus"":""img/green_ll/5.jpg"",""time"":304},{""stimulus"":""img/green_ll/6.jpg"",""time"":366},{""stimulus"":""img/green_ll/7.jpg"",""time"":428},{""stimulus"":""img/green_ll/8.jpg"",""time"":490},{""stimulus"":""img/green_ll/9.jpg"",""time"":553},{""stimulus"":""img/green_ll/10.jpg"",""time"":615},{""stimulus"":""img/green_ll/11.jpg"",""time"":676}]","[]"
"image-keyboard-response","141","114347","0.0-5.0-1.68","63ea5b93d1c6d38e1f57dcfa","bdp_lott","Sun Apr 09 2023 20:13:27 GMT-0400 (Eastern Daylight Time)","254296","red","green","","","","choice","","124","","img/green_ll/choose11.jpg","1","157","green","0.5","0.5","0.5","w","",""
"animation","142","115089","0.0-5.0-2.68","63ea5b93d1c6d38e1f57dcfa","bdp_lott","Sun Apr 09 2023 20:13:27 GMT-0400 (Eastern Daylight Time)","254296","red","green","","","","","","","","","","157","","","","","","[{""stimulus"":""img/green_wl/1.jpg"",""time"":60},{""stimulus"":""img/green_wl/2.jpg"",""time"":122},{""stimulus"":""img/green_wl/3.jpg"",""time"":183},{""stimulus"":""img/green_wl/4.jpg"",""time"":246},{""stimulus"":""img/green_wl/5.jpg"",""time"":309},{""stimulus"":""img/green_wl/6.jpg"",""time"":371},{""stimulus"":""img/green_wl/7.jpg"",""time"":434},{""stimulus"":""img/green_wl/8.jpg"",""time"":494},{""stimulus"":""img/green_wl/9.jpg"",""time"":556},{""stimulus"":""img/green_wl/10.jpg"",""time"":618},{""stimulus"":""img/green_wl/11.jpg"",""time"":680}]","[]"
"image-keyboard-response","143","115210","0.0-5.0-1.69","63ea5b93d1c6d38e1f57dcfa","bdp_lott","Sun Apr 09 2023 20:13:27 GMT-0400 (Eastern Daylight Time)","254296","red","green","","","","choice","","121","","img/green_wl/choose11.jpg","1","156","green","0.5","0.5","0.5","w","",""
"animation","144","115956","0.0-5.0-2.69","63ea5b93d1c6d38e1f57dcfa","bdp_lott","Sun Apr 09 2023 20:13:27 GMT-0400 (Eastern Daylight Time)","254296","red","green","","","","","","","","","","156","","","","","","[{""stimulus"":""img/green_wl/1.jpg"",""time"":65},{""stimulus"":""img/green_wl/2.jpg"",""time"":127},{""stimulus"":""img/green_wl/3.jpg"",""time"":188},{""stimulus"":""img/green_wl/4.jpg"",""time"":249},{""stimulus"":""img/green_wl/5.jpg"",""time"":311},{""stimulus"":""img/green_wl/6.jpg"",""time"":373},{""stimulus"":""img/green_wl/7.jpg"",""time"":434},{""stimulus"":""img/green_wl/8.jpg"",""time"":497},{""stimulus"":""img/green_wl/9.jpg"",""time"":560},{""stimulus"":""img/green_wl/10.jpg"",""time"":621},{""stimulus"":""img/green_wl/11.jpg"",""time"":683}]","[]"
"image-keyboard-response","145","116073","0.0-5.0-1.70","63ea5b93d1c6d38e1f57dcfa","bdp_lott","Sun Apr 09 2023 20:13:27 GMT-0400 (Eastern Daylight Time)","254296","red","green","","","","choice","","117","","img/green_wl/choose11.jpg","1","155","green","0.5","0.5","0.5","l","",""
"animation","146","116807","0.0-5.0-2.70","63ea5b93d1c6d38e1f57dcfa","bdp_lott","Sun Apr 09 2023 20:13:27 GMT-0400 (Eastern Daylight Time)","254296","red","green","","","","","","","","","","155","","","","","","[{""stimulus"":""img/green_ll/1.jpg"",""time"":53},{""stimulus"":""img/green_ll/2.jpg"",""time"":116},{""stimulus"":""img/green_ll/3.jpg"",""time"":179},{""stimulus"":""img/green_ll/4.jpg"",""time"":240},{""stimulus"":""img/green_ll/5.jpg"",""time"":302},{""stimulus"":""img/green_ll/6.jpg"",""time"":365},{""stimulus"":""img/green_ll/7.jpg"",""time"":428},{""stimulus"":""img/green_ll/8.jpg"",""time"":488},{""stimulus"":""img/green_ll/9.jpg"",""time"":550},{""stimulus"":""img/green_ll/10.jpg"",""time"":611},{""stimulus"":""img/green_ll/11.jpg"",""time"":673}]","[]"
"image-keyboard-response","147","116913","0.0-5.0-1.71","63ea5b93d1c6d38e1f57dcfa","bdp_lott","Sun Apr 09 2023 20:13:27 GMT-0400 (Eastern Daylight Time)","254296","red","green","","","","choice","","105","","img/green_ll/choose11.jpg","1","154","green","0.5","0.5","0.5","l","",""
"animation","148","117660","0.0-5.0-2.71","63ea5b93d1c6d38e1f57dcfa","bdp_lott","Sun Apr 09 2023 20:13:27 GMT-0400 (Eastern Daylight Time)","254296","red","green","","","","","","","","","","154","","","","","","[{""stimulus"":""img/green_ll/1.jpg"",""time"":64},{""stimulus"":""img/green_ll/2.jpg"",""time"":128},{""stimulus"":""img/green_ll/3.jpg"",""time"":190},{""stimulus"":""img/green_ll/4.jpg"",""time"":252},{""stimulus"":""img/green_ll/5.jpg"",""time"":313},{""stimulus"":""img/green_ll/6.jpg"",""time"":375},{""stimulus"":""img/green_ll/7.jpg"",""time"":438},{""stimulus"":""img/green_ll/8.jpg"",""time"":499},{""stimulus"":""img/green_ll/9.jpg"",""time"":562},{""stimulus"":""img/green_ll/10.jpg"",""time"":625},{""stimulus"":""img/green_ll/11.jpg"",""time"":687}]","[]"
"image-keyboard-response","149","117775","0.0-5.0-1.72","63ea5b93d1c6d38e1f57dcfa","bdp_lott","Sun Apr 09 2023 20:13:27 GMT-0400 (Eastern Daylight Time)","254296","red","green","","","","choice","","115","","img/green_ll/choose11.jpg","1","153","green","0.5","0.5","0.5","l","",""
"animation","150","118514","0.0-5.0-2.72","63ea5b93d1c6d38e1f57dcfa","bdp_lott","Sun Apr 09 2023 20:13:27 GMT-0400 (Eastern Daylight Time)","254296","red","green","","","","","","","","","","153","","","","","","[{""stimulus"":""img/green_ll/1.jpg"",""time"":57},{""stimulus"":""img/green_ll/2.jpg"",""time"":119},{""stimulus"":""img/green_ll/3.jpg"",""time"":181},{""stimulus"":""img/green_ll/4.jpg"",""time"":242},{""stimulus"":""img/green_ll/5.jpg"",""time"":304},{""stimulus"":""img/green_ll/6.jpg"",""time"":366},{""stimulus"":""img/green_ll/7.jpg"",""time"":427},{""stimulus"":""img/green_ll/8.jpg"",""time"":490},{""stimulus"":""img/green_ll/9.jpg"",""time"":552},{""stimulus"":""img/green_ll/10.jpg"",""time"":614},{""stimulus"":""img/green_ll/11.jpg"",""time"":676}]","[]"
"image-keyboard-response","151","118638","0.0-5.0-1.73","63ea5b93d1c6d38e1f57dcfa","bdp_lott","Sun Apr 09 2023 20:13:27 GMT-0400 (Eastern Daylight Time)","254296","red","green","","","","choice","","124","","img/green_ll/choose11.jpg","1","152","green","0.5","0.5","0.5","w","",""
"animation","152","119382","0.0-5.0-2.73","63ea5b93d1c6d38e1f57dcfa","bdp_lott","Sun Apr 09 2023 20:13:27 GMT-0400 (Eastern Daylight Time)","254296","red","green","","","","","","","","","","152","","","","","","[{""stimulus"":""img/green_wl/1.jpg"",""time"":62},{""stimulus"":""img/green_wl/2.jpg"",""time"":124},{""stimulus"":""img/green_wl/3.jpg"",""time"":187},{""stimulus"":""img/green_wl/4.jpg"",""time"":249},{""stimulus"":""img/green_wl/5.jpg"",""time"":311},{""stimulus"":""img/green_wl/6.jpg"",""time"":373},{""stimulus"":""img/green_wl/7.jpg"",""time"":434},{""stimulus"":""img/green_wl/8.jpg"",""time"":497},{""stimulus"":""img/green_wl/9.jpg"",""time"":558},{""stimulus"":""img/green_wl/10.jpg"",""time"":620},{""stimulus"":""img/green_wl/11.jpg"",""time"":682}]","[]"
"image-keyboard-response","153","119501","0.0-5.0-1.74","63ea5b93d1c6d38e1f57dcfa","bdp_lott","Sun Apr 09 2023 20:13:27 GMT-0400 (Eastern Daylight Time)","254296","red","green","","","","choice","","118","","img/green_wl/choose11.jpg","1","151","green","0.5","0.5","0.5","w","",""
"animation","154","120233","0.0-5.0-2.74","63ea5b93d1c6d38e1f57dcfa","bdp_lott","Sun Apr 09 2023 20:13:27 GMT-0400 (Eastern Daylight Time)","254296","red","green","","","","","","","","","","151","","","","","","[{""stimulus"":""img/green_wl/1.jpg"",""time"":50},{""stimulus"":""img/green_wl/2.jpg"",""time"":112},{""stimulus"":""img/green_wl/3.jpg"",""time"":175},{""stimulus"":""img/green_wl/4.jpg"",""time"":237},{""stimulus"":""img/green_wl/5.jpg"",""time"":299},{""stimulus"":""img/green_wl/6.jpg"",""time"":361},{""stimulus"":""img/green_wl/7.jpg"",""time"":423},{""stimulus"":""img/green_wl/8.jpg"",""time"":484},{""stimulus"":""img/green_wl/9.jpg"",""time"":546},{""stimulus"":""img/green_wl/10.jpg"",""time"":607},{""stimulus"":""img/green_wl/11.jpg"",""time"":669}]","[]"
"image-keyboard-response","155","120409","0.0-5.0-1.75","63ea5b93d1c6d38e1f57dcfa","bdp_lott","Sun Apr 09 2023 20:13:27 GMT-0400 (Eastern Daylight Time)","254296","red","green","","","","choice","","176","","img/green_wl/choose11.jpg","1","150","green","0.5","0.5","0.5","l","",""
"animation","156","121148","0.0-5.0-2.75","63ea5b93d1c6d38e1f57dcfa","bdp_lott","Sun Apr 09 2023 20:13:27 GMT-0400 (Eastern Daylight Time)","254296","red","green","","","","","","","","","","150","","","","","","[{""stimulus"":""img/green_ll/1.jpg"",""time"":55},{""stimulus"":""img/green_ll/2.jpg"",""time"":117},{""stimulus"":""img/green_ll/3.jpg"",""time"":179},{""stimulus"":""img/green_ll/4.jpg"",""time"":243},{""stimulus"":""img/green_ll/5.jpg"",""time"":304},{""stimulus"":""img/green_ll/6.jpg"",""time"":366},{""stimulus"":""img/green_ll/7.jpg"",""time"":429},{""stimulus"":""img/green_ll/8.jpg"",""time"":491},{""stimulus"":""img/green_ll/9.jpg"",""time"":552},{""stimulus"":""img/green_ll/10.jpg"",""time"":614},{""stimulus"":""img/green_ll/11.jpg"",""time"":676}]","[]"
"image-keyboard-response","157","121317","0.0-5.0-1.76","63ea5b93d1c6d38e1f57dcfa","bdp_lott","Sun Apr 09 2023 20:13:27 GMT-0400 (Eastern Daylight Time)","254296","red","green","","","","choice","","168","","img/green_ll/choose11.jpg","1","149","green","0.5","0.1","0.1","l","",""
"animation","158","122063","0.0-5.0-2.76","63ea5b93d1c6d38e1f57dcfa","bdp_lott","Sun Apr 09 2023 20:13:27 GMT-0400 (Eastern Daylight Time)","254296","red","green","","","","","","","","","","149","","","","","","[{""stimulus"":""img/green_ll/1.jpg"",""time"":64},{""stimulus"":""img/green_ll/2.jpg"",""time"":126},{""stimulus"":""img/green_ll/3.jpg"",""time"":186},{""stimulus"":""img/green_ll/4.jpg"",""time"":249},{""stimulus"":""img/green_ll/5.jpg"",""time"":311},{""stimulus"":""img/green_ll/6.jpg"",""time"":373},{""stimulus"":""img/green_ll/7.jpg"",""time"":436},{""stimulus"":""img/green_ll/8.jpg"",""time"":498},{""stimulus"":""img/green_ll/9.jpg"",""time"":559},{""stimulus"":""img/green_ll/10.jpg"",""time"":622},{""stimulus"":""img/green_ll/11.jpg"",""time"":684}]","[]"
"image-keyboard-response","159","122157","0.0-5.0-1.77","63ea5b93d1c6d38e1f57dcfa","bdp_lott","Sun Apr 09 2023 20:13:27 GMT-0400 (Eastern Daylight Time)","254296","red","green","","","","choice","","94","","img/green_ll/choose11.jpg","1","148","green","0.5","0.1","0.1","l","",""
"animation","160","122896","0.0-5.0-2.77","63ea5b93d1c6d38e1f57dcfa","bdp_lott","Sun Apr 09 2023 20:13:27 GMT-0400 (Eastern Daylight Time)","254296","red","green","","","","","","","","","","148","","","","","","[{""stimulus"":""img/green_ll/1.jpg"",""time"":61},{""stimulus"":""img/green_ll/2.jpg"",""time"":123},{""stimulus"":""img/green_ll/3.jpg"",""time"":184},{""stimulus"":""img/green_ll/4.jpg"",""time"":246},{""stimulus"":""img/green_ll/5.jpg"",""time"":309},{""stimulus"":""img/green_ll/6.jpg"",""time"":372},{""stimulus"":""img/green_ll/7.jpg"",""time"":433},{""stimulus"":""img/green_ll/8.jpg"",""time"":494},{""stimulus"":""img/green_ll/9.jpg"",""time"":555},{""stimulus"":""img/green_ll/10.jpg"",""time"":616},{""stimulus"":""img/green_ll/11.jpg"",""time"":677}]","[]"
"image-keyboard-response","161","122927","0.0-5.0-1.78","63ea5b93d1c6d38e1f57dcfa","bdp_lott","Sun Apr 09 2023 20:13:27 GMT-0400 (Eastern Daylight Time)","254296","red","green","","","","choice","","31","","img/green_ll/choose11.jpg","1","147","green","0.5","0.1","0.1","l","",""
"animation","162","123673","0.0-5.0-2.78","63ea5b93d1c6d38e1f57dcfa","bdp_lott","Sun Apr 09 2023 20:13:27 GMT-0400 (Eastern Daylight Time)","254296","red","green","","","","","","","","","","147","","","","","","[{""stimulus"":""img/green_ll/1.jpg"",""time"":64},{""stimulus"":""img/green_ll/2.jpg"",""time"":125},{""stimulus"":""img/green_ll/3.jpg"",""time"":187},{""stimulus"":""img/green_ll/4.jpg"",""time"":250},{""stimulus"":""img/green_ll/5.jpg"",""time"":312},{""stimulus"":""img/green_ll/6.jpg"",""time"":375},{""stimulus"":""img/green_ll/7.jpg"",""time"":437},{""stimulus"":""img/green_ll/8.jpg"",""time"":498},{""stimulus"":""img/green_ll/9.jpg"",""time"":561},{""stimulus"":""img/green_ll/10.jpg"",""time"":623},{""stimulus"":""img/green_ll/11.jpg"",""time"":685}]","[]"
"image-keyboard-response","163","123790","0.0-5.0-1.79","63ea5b93d1c6d38e1f57dcfa","bdp_lott","Sun Apr 09 2023 20:13:27 GMT-0400 (Eastern Daylight Time)","254296","red","green","","","","choice","","117","","img/green_ll/choose11.jpg","1","146","green","0.5","0.1","0.1","l","",""
"animation","164","124526","0.0-5.0-2.79","63ea5b93d1c6d38e1f57dcfa","bdp_lott","Sun Apr 09 2023 20:13:27 GMT-0400 (Eastern Daylight Time)","254296","red","green","","","","","","","","","","146","","","","","","[{""stimulus"":""img/green_ll/1.jpg"",""time"":54},{""stimulus"":""img/green_ll/2.jpg"",""time"":115},{""stimulus"":""img/green_ll/3.jpg"",""time"":178},{""stimulus"":""img/green_ll/4.jpg"",""time"":240},{""stimulus"":""img/green_ll/5.jpg"",""time"":302},{""stimulus"":""img/green_ll/6.jpg"",""time"":363},{""stimulus"":""img/green_ll/7.jpg"",""time"":426},{""stimulus"":""img/green_ll/8.jpg"",""time"":488},{""stimulus"":""img/green_ll/9.jpg"",""time"":550},{""stimulus"":""img/green_ll/10.jpg"",""time"":612},{""stimulus"":""img/green_ll/11.jpg"",""time"":673}]","[]"
"image-keyboard-response","165","124631","0.0-5.0-1.80","63ea5b93d1c6d38e1f57dcfa","bdp_lott","Sun Apr 09 2023 20:13:27 GMT-0400 (Eastern Daylight Time)","254296","red","green","","","","choice","","105","","img/green_ll/choose11.jpg","1","145","green","0.5","0.1","0.1","w","",""
"animation","166","125377","0.0-5.0-2.80","63ea5b93d1c6d38e1f57dcfa","bdp_lott","Sun Apr 09 2023 20:13:27 GMT-0400 (Eastern Daylight Time)","254296","red","green","","","","","","","","","","145","","","","","","[{""stimulus"":""img/green_wl/1.jpg"",""time"":64},{""stimulus"":""img/green_wl/2.jpg"",""time"":127},{""stimulus"":""img/green_wl/3.jpg"",""time"":188},{""stimulus"":""img/green_wl/4.jpg"",""time"":249},{""stimulus"":""img/green_wl/5.jpg"",""time"":311},{""stimulus"":""img/green_wl/6.jpg"",""time"":374},{""stimulus"":""img/green_wl/7.jpg"",""time"":436},{""stimulus"":""img/green_wl/8.jpg"",""time"":498},{""stimulus"":""img/green_wl/9.jpg"",""time"":559},{""stimulus"":""img/green_wl/10.jpg"",""time"":622},{""stimulus"":""img/green_wl/11.jpg"",""time"":685}]","[]"
"image-keyboard-response","167","125471","0.0-5.0-1.81","63ea5b93d1c6d38e1f57dcfa","bdp_lott","Sun Apr 09 2023 20:13:27 GMT-0400 (Eastern Daylight Time)","254296","red","green","","","","choice","","94","","img/green_wl/choose11.jpg","1","144","green","0.5","0.1","0.1","l","",""
"animation","168","126213","0.0-5.0-2.81","63ea5b93d1c6d38e1f57dcfa","bdp_lott","Sun Apr 09 2023 20:13:27 GMT-0400 (Eastern Daylight Time)","254296","red","green","","","","","","","","","","144","","","","","","[{""stimulus"":""img/green_ll/1.jpg"",""time"":62},{""stimulus"":""img/green_ll/2.jpg"",""time"":124},{""stimulus"":""img/green_ll/3.jpg"",""time"":187},{""stimulus"":""img/green_ll/4.jpg"",""time"":248},{""stimulus"":""img/green_ll/5.jpg"",""time"":309},{""stimulus"":""img/green_ll/6.jpg"",""time"":371},{""stimulus"":""img/green_ll/7.jpg"",""time"":432},{""stimulus"":""img/green_ll/8.jpg"",""time"":495},{""stimulus"":""img/green_ll/9.jpg"",""time"":557},{""stimulus"":""img/green_ll/10.jpg"",""time"":619},{""stimulus"":""img/green_ll/11.jpg"",""time"":679}]","[]"
"image-keyboard-response","169","126310","0.0-5.0-1.82","63ea5b93d1c6d38e1f57dcfa","bdp_lott","Sun Apr 09 2023 20:13:27 GMT-0400 (Eastern Daylight Time)","254296","red","green","","","","choice","","97","","img/green_ll/choose11.jpg","1","143","green","0.5","0.1","0.1","l","",""
"animation","170","127051","0.0-5.0-2.82","63ea5b93d1c6d38e1f57dcfa","bdp_lott","Sun Apr 09 2023 20:13:27 GMT-0400 (Eastern Daylight Time)","254296","red","green","","","","","","","","","","143","","","","","","[{""stimulus"":""img/green_ll/1.jpg"",""time"":57},{""stimulus"":""img/green_ll/2.jpg"",""time"":121},{""stimulus"":""img/green_ll/3.jpg"",""time"":182},{""stimulus"":""img/green_ll/4.jpg"",""time"":244},{""stimulus"":""img/green_ll/5.jpg"",""time"":305},{""stimulus"":""img/green_ll/6.jpg"",""time"":368},{""stimulus"":""img/green_ll/7.jpg"",""time"":429},{""stimulus"":""img/green_ll/8.jpg"",""time"":492},{""stimulus"":""img/green_ll/9.jpg"",""time"":552},{""stimulus"":""img/green_ll/10.jpg"",""time"":615},{""stimulus"":""img/green_ll/11.jpg"",""time"":677}]","[]"
"image-keyboard-response","171","127127","0.0-5.0-1.83","63ea5b93d1c6d38e1f57dcfa","bdp_lott","Sun Apr 09 2023 20:13:27 GMT-0400 (Eastern Daylight Time)","254296","red","green","","","","choice","","76","","img/green_ll/choose11.jpg","1","142","green","0.5","0.1","0.1","l","",""
"animation","172","127871","0.0-5.0-2.83","63ea5b93d1c6d38e1f57dcfa","bdp_lott","Sun Apr 09 2023 20:13:27 GMT-0400 (Eastern Daylight Time)","254296","red","green","","","","","","","","","","142","","","","","","[{""stimulus"":""img/green_ll/1.jpg"",""time"":61},{""stimulus"":""img/green_ll/2.jpg"",""time"":123},{""stimulus"":""img/green_ll/3.jpg"",""time"":185},{""stimulus"":""img/green_ll/4.jpg"",""time"":247},{""stimulus"":""img/green_ll/5.jpg"",""time"":309},{""stimulus"":""img/green_ll/6.jpg"",""time"":371},{""stimulus"":""img/green_ll/7.jpg"",""time"":432},{""stimulus"":""img/green_ll/8.jpg"",""time"":495},{""stimulus"":""img/green_ll/9.jpg"",""time"":556},{""stimulus"":""img/green_ll/10.jpg"",""time"":618},{""stimulus"":""img/green_ll/11.jpg"",""time"":682}]","[]"
"image-keyboard-response","173","127875","0.0-5.0-1.84","63ea5b93d1c6d38e1f57dcfa","bdp_lott","Sun Apr 09 2023 20:13:27 GMT-0400 (Eastern Daylight Time)","254296","red","green","","","","choice","","3","","img/green_ll/choose11.jpg","1","141","green","0.5","0.1","0.1","l","",""
"animation","174","128618","0.0-5.0-2.84","63ea5b93d1c6d38e1f57dcfa","bdp_lott","Sun Apr 09 2023 20:13:27 GMT-0400 (Eastern Daylight Time)","254296","red","green","","","","","","","","","","141","","","","","","[{""stimulus"":""img/green_ll/1.jpg"",""time"":59},{""stimulus"":""img/green_ll/2.jpg"",""time"":120},{""stimulus"":""img/green_ll/3.jpg"",""time"":183},{""stimulus"":""img/green_ll/4.jpg"",""time"":245},{""stimulus"":""img/green_ll/5.jpg"",""time"":307},{""stimulus"":""img/green_ll/6.jpg"",""time"":369},{""stimulus"":""img/green_ll/7.jpg"",""time"":433},{""stimulus"":""img/green_ll/8.jpg"",""time"":494},{""stimulus"":""img/green_ll/9.jpg"",""time"":556},{""stimulus"":""img/green_ll/10.jpg"",""time"":619},{""stimulus"":""img/green_ll/11.jpg"",""time"":682}]","[]"
"image-keyboard-response","175","128622","0.0-5.0-1.85","63ea5b93d1c6d38e1f57dcfa","bdp_lott","Sun Apr 09 2023 20:13:27 GMT-0400 (Eastern Daylight Time)","254296","red","green","","","","choice","","3","","img/green_ll/choose11.jpg","1","140","green","0.5","0.1","0.1","l","",""
"animation","176","129363","0.0-5.0-2.85","63ea5b93d1c6d38e1f57dcfa","bdp_lott","Sun Apr 09 2023 20:13:27 GMT-0400 (Eastern Daylight Time)","254296","red","green","","","","","","","","","","140","","","","","","[{""stimulus"":""img/green_ll/1.jpg"",""time"":59},{""stimulus"":""img/green_ll/2.jpg"",""time"":121},{""stimulus"":""img/green_ll/3.jpg"",""time"":183},{""stimulus"":""img/green_ll/4.jpg"",""time"":246},{""stimulus"":""img/green_ll/5.jpg"",""time"":308},{""stimulus"":""img/green_ll/6.jpg"",""time"":370},{""stimulus"":""img/green_ll/7.jpg"",""time"":431},{""stimulus"":""img/green_ll/8.jpg"",""time"":494},{""stimulus"":""img/green_ll/9.jpg"",""time"":555},{""stimulus"":""img/green_ll/10.jpg"",""time"":617},{""stimulus"":""img/green_ll/11.jpg"",""time"":680}]","[]"
"image-keyboard-response","177","129415","0.0-5.0-1.86","63ea5b93d1c6d38e1f57dcfa","bdp_lott","Sun Apr 09 2023 20:13:27 GMT-0400 (Eastern Daylight Time)","254296","red","green","","","","choice","","51","","img/green_ll/choose11.jpg","1","139","green","0.5","0.1","0.1","l","",""
"animation","178","130154","0.0-5.0-2.86","63ea5b93d1c6d38e1f57dcfa","bdp_lott","Sun Apr 09 2023 20:13:27 GMT-0400 (Eastern Daylight Time)","254296","red","green","","","","","","","","","","139","","","","","","[{""stimulus"":""img/green_ll/1.jpg"",""time"":56},{""stimulus"":""img/green_ll/2.jpg"",""time"":119},{""stimulus"":""img/green_ll/3.jpg"",""time"":181},{""stimulus"":""img/green_ll/4.jpg"",""time"":243},{""stimulus"":""img/green_ll/5.jpg"",""time"":305},{""stimulus"":""img/green_ll/6.jpg"",""time"":367},{""stimulus"":""img/green_ll/7.jpg"",""time"":431},{""stimulus"":""img/green_ll/8.jpg"",""time"":492},{""stimulus"":""img/green_ll/9.jpg"",""time"":554},{""stimulus"":""img/green_ll/10.jpg"",""time"":616},{""stimulus"":""img/green_ll/11.jpg"",""time"":677}]","[]"
"image-keyboard-response","179","130232","0.0-5.0-1.87","63ea5b93d1c6d38e1f57dcfa","bdp_lott","Sun Apr 09 2023 20:13:27 GMT-0400 (Eastern Daylight Time)","254296","red","green","","","","choice","","78","","img/green_ll/choose11.jpg","1","138","green","0.5","0.1","0.1","l","",""
"animation","180","130975","0.0-5.0-2.87","63ea5b93d1c6d38e1f57dcfa","bdp_lott","Sun Apr 09 2023 20:13:27 GMT-0400 (Eastern Daylight Time)","254296","red","green","","","","","","","","","","138","","","","","","[{""stimulus"":""img/green_ll/1.jpg"",""time"":63},{""stimulus"":""img/green_ll/2.jpg"",""time"":123},{""stimulus"":""img/green_ll/3.jpg"",""time"":187},{""stimulus"":""img/green_ll/4.jpg"",""time"":249},{""stimulus"":""img/green_ll/5.jpg"",""time"":311},{""stimulus"":""img/green_ll/6.jpg"",""time"":374},{""stimulus"":""img/green_ll/7.jpg"",""time"":436},{""stimulus"":""img/green_ll/8.jpg"",""time"":497},{""stimulus"":""img/green_ll/9.jpg"",""time"":558},{""stimulus"":""img/green_ll/10.jpg"",""time"":619},{""stimulus"":""img/green_ll/11.jpg"",""time"":682}]","[]"
"image-keyboard-response","181","131187","0.0-5.0-1.88","63ea5b93d1c6d38e1f57dcfa","bdp_lott","Sun Apr 09 2023 20:13:27 GMT-0400 (Eastern Daylight Time)","254296","red","green","","","","choice","","212","","img/green_ll/choose11.jpg","1","137","green","0.5","0.1","0.1","l","",""
"animation","182","131921","0.0-5.0-2.88","63ea5b93d1c6d38e1f57dcfa","bdp_lott","Sun Apr 09 2023 20:13:27 GMT-0400 (Eastern Daylight Time)","254296","red","green","","","","","","","","","","137","","","","","","[{""stimulus"":""img/green_ll/1.jpg"",""time"":54},{""stimulus"":""img/green_ll/2.jpg"",""time"":117},{""stimulus"":""img/green_ll/3.jpg"",""time"":180},{""stimulus"":""img/green_ll/4.jpg"",""time"":242},{""stimulus"":""img/green_ll/5.jpg"",""time"":304},{""stimulus"":""img/green_ll/6.jpg"",""time"":365},{""stimulus"":""img/green_ll/7.jpg"",""time"":427},{""stimulus"":""img/green_ll/8.jpg"",""time"":488},{""stimulus"":""img/green_ll/9.jpg"",""time"":550},{""stimulus"":""img/green_ll/10.jpg"",""time"":612},{""stimulus"":""img/green_ll/11.jpg"",""time"":673}]","[]"
"image-keyboard-response","183","132051","0.0-5.0-1.89","63ea5b93d1c6d38e1f57dcfa","bdp_lott","Sun Apr 09 2023 20:13:27 GMT-0400 (Eastern Daylight Time)","254296","red","green","","","","choice","","130","","img/green_ll/choose11.jpg","2","136","red","0.5","0.1","0.5","l","",""
"animation","184","132785","0.0-5.0-2.89","63ea5b93d1c6d38e1f57dcfa","bdp_lott","Sun Apr 09 2023 20:13:27 GMT-0400 (Eastern Daylight Time)","254296","red","green","","","","","","","","","","136","","","","","","[{""stimulus"":""img/red_ll/1.jpg"",""time"":55},{""stimulus"":""img/red_ll/2.jpg"",""time"":117},{""stimulus"":""img/red_ll/3.jpg"",""time"":180},{""stimulus"":""img/red_ll/4.jpg"",""time"":241},{""stimulus"":""img/red_ll/5.jpg"",""time"":303},{""stimulus"":""img/red_ll/6.jpg"",""time"":365},{""stimulus"":""img/red_ll/7.jpg"",""time"":426},{""stimulus"":""img/red_ll/8.jpg"",""time"":486},{""stimulus"":""img/red_ll/9.jpg"",""time"":548},{""stimulus"":""img/red_ll/10.jpg"",""time"":610},{""stimulus"":""img/red_ll/11.jpg"",""time"":671}]","[]"
"image-keyboard-response","185","133052","0.0-5.0-1.90","63ea5b93d1c6d38e1f57dcfa","bdp_lott","Sun Apr 09 2023 20:13:27 GMT-0400 (Eastern Daylight Time)","254296","red","green","","","","choice","","267","","img/red_ll/choose11.jpg","2","135","red","0.5","0.1","0.5","l","",""
"animation","186","133798","0.0-5.0-2.90","63ea5b93d1c6d38e1f57dcfa","bdp_lott","Sun Apr 09 2023 20:13:27 GMT-0400 (Eastern Daylight Time)","254296","red","green","","","","","","","","","","135","","","","","","[{""stimulus"":""img/red_ll/1.jpg"",""time"":58},{""stimulus"":""img/red_ll/2.jpg"",""time"":121},{""stimulus"":""img/red_ll/3.jpg"",""time"":183},{""stimulus"":""img/red_ll/4.jpg"",""time"":246},{""stimulus"":""img/red_ll/5.jpg"",""time"":308},{""stimulus"":""img/red_ll/6.jpg"",""time"":371},{""stimulus"":""img/red_ll/7.jpg"",""time"":434},{""stimulus"":""img/red_ll/8.jpg"",""time"":496},{""stimulus"":""img/red_ll/9.jpg"",""time"":559},{""stimulus"":""img/red_ll/10.jpg"",""time"":622},{""stimulus"":""img/red_ll/11.jpg"",""time"":683}]","[]"
"image-keyboard-response","187","133893","0.0-5.0-1.91","63ea5b93d1c6d38e1f57dcfa","bdp_lott","Sun Apr 09 2023 20:13:27 GMT-0400 (Eastern Daylight Time)","254296","red","green","","","","choice","","95","","img/red_ll/choose11.jpg","2","134","red","0.5","0.1","0.5","l","",""
"animation","188","134632","0.0-5.0-2.91","63ea5b93d1c6d38e1f57dcfa","bdp_lott","Sun Apr 09 2023 20:13:27 GMT-0400 (Eastern Daylight Time)","254296","red","green","","","","","","","","","","134","","","","","","[{""stimulus"":""img/red_ll/1.jpg"",""time"":59},{""stimulus"":""img/red_ll/2.jpg"",""time"":120},{""stimulus"":""img/red_ll/3.jpg"",""time"":183},{""stimulus"":""img/red_ll/4.jpg"",""time"":243},{""stimulus"":""img/red_ll/5.jpg"",""time"":305},{""stimulus"":""img/red_ll/6.jpg"",""time"":368},{""stimulus"":""img/red_ll/7.jpg"",""time"":429},{""stimulus"":""img/red_ll/8.jpg"",""time"":491},{""stimulus"":""img/red_ll/9.jpg"",""time"":553},{""stimulus"":""img/red_ll/10.jpg"",""time"":614},{""stimulus"":""img/red_ll/11.jpg"",""time"":677}]","[]"
"image-keyboard-response","189","134801","0.0-5.0-1.92","63ea5b93d1c6d38e1f57dcfa","bdp_lott","Sun Apr 09 2023 20:13:27 GMT-0400 (Eastern Daylight Time)","254296","red","green","","","","choice","","169","","img/red_ll/choose11.jpg","2","133","red","0.5","0.1","0.5","l","",""
"animation","190","135546","0.0-5.0-2.92","63ea5b93d1c6d38e1f57dcfa","bdp_lott","Sun Apr 09 2023 20:13:27 GMT-0400 (Eastern Daylight Time)","254296","red","green","","","","","","","","","","133","","","","","","[{""stimulus"":""img/red_ll/1.jpg"",""time"":62},{""stimulus"":""img/red_ll/2.jpg"",""time"":125},{""stimulus"":""img/red_ll/3.jpg"",""time"":186},{""stimulus"":""img/red_ll/4.jpg"",""time"":248},{""stimulus"":""img/red_ll/5.jpg"",""time"":310},{""stimulus"":""img/red_ll/6.jpg"",""time"":371},{""stimulus"":""img/red_ll/7.jpg"",""time"":434},{""stimulus"":""img/red_ll/8.jpg"",""time"":496},{""stimulus"":""img/red_ll/9.jpg"",""time"":557},{""stimulus"":""img/red_ll/10.jpg"",""time"":619},{""stimulus"":""img/red_ll/11.jpg"",""time"":683}]","[]"
"image-keyboard-response","191","135687","0.0-5.0-1.93","63ea5b93d1c6d38e1f57dcfa","bdp_lott","Sun Apr 09 2023 20:13:27 GMT-0400 (Eastern Daylight Time)","254296","red","green","","","","choice","","141","","img/red_ll/choose11.jpg","2","132","red","0.5","0.1","0.5","w","",""
