"event","trial","time","trialtype","subject_id","task","startTime","totalTime","fairMachine","unfairMachine","trial_type","trial_index","time_elapsed","internal_node_id","view_history","rt","success","stimulus","key_press","roundsLeft","chosen","pFairMachWin","pUnfairMachWin","pTrialWin","outcome","animation_sequence","responses"
"focus","0","0","focusevent","60fd80b85dd6b22f66d16822","bdp_lott","Sun Mar 26 2023 08:08:27 GMT-0500 (Central Daylight Time)","323105","green","red","","","","","","","","","","","","","","","","",""
"","","","","60fd80b85dd6b22f66d16822","bdp_lott","Sun Mar 26 2023 08:08:27 GMT-0500 (Central Daylight Time)","323105","green","red","pavlovia","0","5","0.0-0.0","","","","","","","","","","","","",""
"","","","","60fd80b85dd6b22f66d16822","bdp_lott","Sun Mar 26 2023 08:08:27 GMT-0500 (Central Daylight Time)","323105","green","red","instructions","1","30529","0.0-1.0","[{""page_index"":0,""viewing_time"":30522}]","30523","","","","","","","","","","",""
"fullscreenexit","2","36226","fullscreenexit","60fd80b85dd6b22f66d16822","bdp_lott","Sun Mar 26 2023 08:08:27 GMT-0500 (Central Daylight Time)","323105","green","red","","","","","","","","","","","","","","","","",""
"","","","","60fd80b85dd6b22f66d16822","bdp_lott","Sun Mar 26 2023 08:08:27 GMT-0500 (Central Daylight Time)","323105","green","red","fullscreen","2","37213","0.0-2.0","","","true","","","","","","","","","",""
"","","","fullscreenfail","60fd80b85dd6b22f66d16822","bdp_lott","Sun Mar 26 2023 08:08:27 GMT-0500 (Central Daylight Time)","323105","green","red","image-keyboard-response","3","38391","0.0-3.0-0.0","","1175","","","32","","","","","","","",""
"","","","","60fd80b85dd6b22f66d16822","bdp_lott","Sun Mar 26 2023 08:08:27 GMT-0500 (Central Daylight Time)","323105","green","red","instructions","4","70788","0.0-4.0","[{""page_index"":0,""viewing_time"":32139}]","32139","","","","","","","","","","",""
"","","","choice","60fd80b85dd6b22f66d16822","bdp_lott","Sun Mar 26 2023 08:08:27 GMT-0500 (Central Daylight Time)","323105","green","red","image-keyboard-response","5","71952","0.0-5.0-1.0","","1160","","img/red_ll/initchoose11.jpg","1","225","green","0.5","0.5","0.5","l","",""
"","","","","60fd80b85dd6b22f66d16822","bdp_lott","Sun Mar 26 2023 08:08:27 GMT-0500 (Central Daylight Time)","323105","green","red","animation","6","72591","0.0-5.0-2.0","","","","","","225","","","","","","[{""stimulus"":""img/green_ll/1.jpg"",""time"":55},{""stimulus"":""img/green_ll/2.jpg"",""time"":107},{""stimulus"":""img/green_ll/3.jpg"",""time"":162},{""stimulus"":""img/green_ll/4.jpg"",""time"":212},{""stimulus"":""img/green_ll/5.jpg"",""time"":265},{""stimulus"":""img/green_ll/6.jpg"",""time"":319},{""stimulus"":""img/green_ll/7.jpg"",""time"":373},{""stimulus"":""img/green_ll/8.jpg"",""time"":423},{""stimulus"":""img/green_ll/9.jpg"",""time"":478},{""stimulus"":""img/green_ll/10.jpg"",""time"":534},{""stimulus"":""img/green_ll/11.jpg"",""time"":584}]","[]"
"","","","choice","60fd80b85dd6b22f66d16822","bdp_lott","Sun Mar 26 2023 08:08:27 GMT-0500 (Central Daylight Time)","323105","green","red","image-keyboard-response","7","73729","0.0-5.0-1.1","","1136","","img/green_ll/choose11.jpg","2","224","red","0.5","0.5","0.5","l","",""
"","","","","60fd80b85dd6b22f66d16822","bdp_lott","Sun Mar 26 2023 08:08:27 GMT-0500 (Central Daylight Time)","323105","green","red","animation","8","74359","0.0-5.0-2.1","","","","","","224","","","","","","[{""stimulus"":""img/red_ll/1.jpg"",""time"":53},{""stimulus"":""img/red_ll/2.jpg"",""time"":105},{""stimulus"":""img/red_ll/3.jpg"",""time"":157},{""stimulus"":""img/red_ll/4.jpg"",""time"":212},{""stimulus"":""img/red_ll/5.jpg"",""time"":263},{""stimulus"":""img/red_ll/6.jpg"",""time"":313},{""stimulus"":""img/red_ll/7.jpg"",""time"":363},{""stimulus"":""img/red_ll/8.jpg"",""time"":418},{""stimulus"":""img/red_ll/9.jpg"",""time"":474},{""stimulus"":""img/red_ll/10.jpg"",""time"":524},{""stimulus"":""img/red_ll/11.jpg"",""time"":579}]","[]"
"","","","choice","60fd80b85dd6b22f66d16822","bdp_lott","Sun Mar 26 2023 08:08:27 GMT-0500 (Central Daylight Time)","323105","green","red","image-keyboard-response","9","75467","0.0-5.0-1.2","","1107","","img/red_ll/choose11.jpg","1","223","green","0.5","0.5","0.5","w","",""
"","","","","60fd80b85dd6b22f66d16822","bdp_lott","Sun Mar 26 2023 08:08:27 GMT-0500 (Central Daylight Time)","323105","green","red","animation","10","76108","0.0-5.0-2.2","","","","","","223","","","","","","[{""stimulus"":""img/green_wl/1.jpg"",""time"":56},{""stimulus"":""img/green_wl/2.jpg"",""time"":108},{""stimulus"":""img/green_wl/3.jpg"",""time"":162},{""stimulus"":""img/green_wl/4.jpg"",""time"":217},{""stimulus"":""img/green_wl/5.jpg"",""time"":266},{""stimulus"":""img/green_wl/6.jpg"",""time"":322},{""stimulus"":""img/green_wl/7.jpg"",""time"":375},{""stimulus"":""img/green_wl/8.jpg"",""time"":430},{""stimulus"":""img/green_wl/9.jpg"",""time"":485},{""stimulus"":""img/green_wl/10.jpg"",""time"":536},{""stimulus"":""img/green_wl/11.jpg"",""time"":586}]","[]"
"","","","choice","60fd80b85dd6b22f66d16822","bdp_lott","Sun Mar 26 2023 08:08:27 GMT-0500 (Central Daylight Time)","323105","green","red","image-keyboard-response","11","77318","0.0-5.0-1.3","","1209","","img/green_wl/choose11.jpg","2","222","red","0.5","0.5","0.5","w","",""
"","","","","60fd80b85dd6b22f66d16822","bdp_lott","Sun Mar 26 2023 08:08:27 GMT-0500 (Central Daylight Time)","323105","green","red","animation","12","77960","0.0-5.0-2.3","","","","","","222","","","","","","[{""stimulus"":""img/red_ww/1.jpg"",""time"":55},{""stimulus"":""img/red_ww/2.jpg"",""time"":107},{""stimulus"":""img/red_ww/3.jpg"",""time"":157},{""stimulus"":""img/red_ww/4.jpg"",""time"":213},{""stimulus"":""img/red_ww/5.jpg"",""time"":267},{""stimulus"":""img/red_ww/6.jpg"",""time"":318},{""stimulus"":""img/red_ww/7.jpg"",""time"":373},{""stimulus"":""img/red_ww/8.jpg"",""time"":423},{""stimulus"":""img/red_ww/9.jpg"",""time"":477},{""stimulus"":""img/red_ww/10.jpg"",""time"":530},{""stimulus"":""img/red_ww/11.jpg"",""time"":586}]","[]"
"","","","choice","60fd80b85dd6b22f66d16822","bdp_lott","Sun Mar 26 2023 08:08:27 GMT-0500 (Central Daylight Time)","323105","green","red","image-keyboard-response","13","79109","0.0-5.0-1.4","","1149","","img/red_ww/choose11.jpg","1","221","green","0.5","0.5","0.5","l","",""
"","","","","60fd80b85dd6b22f66d16822","bdp_lott","Sun Mar 26 2023 08:08:27 GMT-0500 (Central Daylight Time)","323105","green","red","animation","14","79752","0.0-5.0-2.4","","","","","","221","","","","","","[{""stimulus"":""img/green_lw/1.jpg"",""time"":55},{""stimulus"":""img/green_lw/2.jpg"",""time"":107},{""stimulus"":""img/green_lw/3.jpg"",""time"":163},{""stimulus"":""img/green_lw/4.jpg"",""time"":216},{""stimulus"":""img/green_lw/5.jpg"",""time"":271},{""stimulus"":""img/green_lw/6.jpg"",""time"":327},{""stimulus"":""img/green_lw/7.jpg"",""time"":377},{""stimulus"":""img/green_lw/8.jpg"",""time"":433},{""stimulus"":""img/green_lw/9.jpg"",""time"":487},{""stimulus"":""img/green_lw/10.jpg"",""time"":540},{""stimulus"":""img/green_lw/11.jpg"",""time"":590}]","[]"
"","","","choice","60fd80b85dd6b22f66d16822","bdp_lott","Sun Mar 26 2023 08:08:27 GMT-0500 (Central Daylight Time)","323105","green","red","image-keyboard-response","15","80710","0.0-5.0-1.5","","958","","img/green_lw/choose11.jpg","2","220","red","0.5","0.5","0.5","l","",""
"","","","","60fd80b85dd6b22f66d16822","bdp_lott","Sun Mar 26 2023 08:08:27 GMT-0500 (Central Daylight Time)","323105","green","red","animation","16","81359","0.0-5.0-2.5","","","","","","220","","","","","","[{""stimulus"":""img/red_ll/1.jpg"",""time"":54},{""stimulus"":""img/red_ll/2.jpg"",""time"":107},{""stimulus"":""img/red_ll/3.jpg"",""time"":162},{""stimulus"":""img/red_ll/4.jpg"",""time"":216},{""stimulus"":""img/red_ll/5.jpg"",""time"":272},{""stimulus"":""img/red_ll/6.jpg"",""time"":326},{""stimulus"":""img/red_ll/7.jpg"",""time"":378},{""stimulus"":""img/red_ll/8.jpg"",""time"":433},{""stimulus"":""img/red_ll/9.jpg"",""time"":488},{""stimulus"":""img/red_ll/10.jpg"",""time"":543},{""stimulus"":""img/red_ll/11.jpg"",""time"":598}]","[]"
"","","","choice","60fd80b85dd6b22f66d16822","bdp_lott","Sun Mar 26 2023 08:08:27 GMT-0500 (Central Daylight Time)","323105","green","red","image-keyboard-response","17","82283","0.0-5.0-1.6","","923","","img/red_ll/choose11.jpg","1","219","green","0.5","0.5","0.5","l","",""
"","","","","60fd80b85dd6b22f66d16822","bdp_lott","Sun Mar 26 2023 08:08:27 GMT-0500 (Central Daylight Time)","323105","green","red","animation","18","82920","0.0-5.0-2.6","","","","","","219","","","","","","[{""stimulus"":""img/green_ll/1.jpg"",""time"":51},{""stimulus"":""img/green_ll/2.jpg"",""time"":107},{""stimulus"":""img/green_ll/3.jpg"",""time"":160},{""stimulus"":""img/green_ll/4.jpg"",""time"":213},{""stimulus"":""img/green_ll/5.jpg"",""time"":268},{""stimulus"":""img/green_ll/6.jpg"",""time"":323},{""stimulus"":""img/green_ll/7.jpg"",""time"":375},{""stimulus"":""img/green_ll/8.jpg"",""time"":426},{""stimulus"":""img/green_ll/9.jpg"",""time"":476},{""stimulus"":""img/green_ll/10.jpg"",""time"":531},{""stimulus"":""img/green_ll/11.jpg"",""time"":583}]","[]"
"","","","choice","60fd80b85dd6b22f66d16822","bdp_lott","Sun Mar 26 2023 08:08:27 GMT-0500 (Central Daylight Time)","323105","green","red","image-keyboard-response","19","83682","0.0-5.0-1.7","","761","","img/green_ll/choose11.jpg","2","218","red","0.5","0.5","0.5","l","",""
"","","","","60fd80b85dd6b22f66d16822","bdp_lott","Sun Mar 26 2023 08:08:27 GMT-0500 (Central Daylight Time)","323105","green","red","animation","20","84326","0.0-5.0-2.7","","","","","","218","","","","","","[{""stimulus"":""img/red_ll/1.jpg"",""time"":55},{""stimulus"":""img/red_ll/2.jpg"",""time"":109},{""stimulus"":""img/red_ll/3.jpg"",""time"":160},{""stimulus"":""img/red_ll/4.jpg"",""time"":215},{""stimulus"":""img/red_ll/5.jpg"",""time"":271},{""stimulus"":""img/red_ll/6.jpg"",""time"":324},{""stimulus"":""img/red_ll/7.jpg"",""time"":376},{""stimulus"":""img/red_ll/8.jpg"",""time"":432},{""stimulus"":""img/red_ll/9.jpg"",""time"":487},{""stimulus"":""img/red_ll/10.jpg"",""time"":542},{""stimulus"":""img/red_ll/11.jpg"",""time"":593}]","[]"
"","","","choice","60fd80b85dd6b22f66d16822","bdp_lott","Sun Mar 26 2023 08:08:27 GMT-0500 (Central Daylight Time)","323105","green","red","image-keyboard-response","21","85039","0.0-5.0-1.8","","712","","img/red_ll/choose11.jpg","1","217","green","0.5","0.5","0.5","w","",""
"","","","","60fd80b85dd6b22f66d16822","bdp_lott","Sun Mar 26 2023 08:08:27 GMT-0500 (Central Daylight Time)","323105","green","red","animation","22","85684","0.0-5.0-2.8","","","","","","217","","","","","","[{""stimulus"":""img/green_wl/1.jpg"",""time"":55},{""stimulus"":""img/green_wl/2.jpg"",""time"":111},{""stimulus"":""img/green_wl/3.jpg"",""time"":166},{""stimulus"":""img/green_wl/4.jpg"",""time"":221},{""stimulus"":""img/green_wl/5.jpg"",""time"":271},{""stimulus"":""img/green_wl/6.jpg"",""time"":326},{""stimulus"":""img/green_wl/7.jpg"",""time"":382},{""stimulus"":""img/green_wl/8.jpg"",""time"":436},{""stimulus"":""img/green_wl/9.jpg"",""time"":488},{""stimulus"":""img/green_wl/10.jpg"",""time"":543},{""stimulus"":""img/green_wl/11.jpg"",""time"":593}]","[]"
"","","","choice","60fd80b85dd6b22f66d16822","bdp_lott","Sun Mar 26 2023 08:08:27 GMT-0500 (Central Daylight Time)","323105","green","red","image-keyboard-response","23","86452","0.0-5.0-1.9","","767","","img/green_wl/choose11.jpg","2","216","red","0.5","0.5","0.5","w","",""
"","","","","60fd80b85dd6b22f66d16822","bdp_lott","Sun Mar 26 2023 08:08:27 GMT-0500 (Central Daylight Time)","323105","green","red","animation","24","87093","0.0-5.0-2.9","","","","","","216","","","","","","[{""stimulus"":""img/red_ww/1.jpg"",""time"":56},{""stimulus"":""img/red_ww/2.jpg"",""time"":107},{""stimulus"":""img/red_ww/3.jpg"",""time"":162},{""stimulus"":""img/red_ww/4.jpg"",""time"":217},{""stimulus"":""img/red_ww/5.jpg"",""time"":268},{""stimulus"":""img/red_ww/6.jpg"",""time"":322},{""stimulus"":""img/red_ww/7.jpg"",""time"":373},{""stimulus"":""img/red_ww/8.jpg"",""time"":424},{""stimulus"":""img/red_ww/9.jpg"",""time"":479},{""stimulus"":""img/red_ww/10.jpg"",""time"":534},{""stimulus"":""img/red_ww/11.jpg"",""time"":590}]","[]"
"","","","choice","60fd80b85dd6b22f66d16822","bdp_lott","Sun Mar 26 2023 08:08:27 GMT-0500 (Central Daylight Time)","323105","green","red","image-keyboard-response","25","87759","0.0-5.0-1.10","","666","","img/red_ww/choose11.jpg","1","215","green","0.5","0.5","0.5","w","",""
"","","","","60fd80b85dd6b22f66d16822","bdp_lott","Sun Mar 26 2023 08:08:27 GMT-0500 (Central Daylight Time)","323105","green","red","animation","26","88397","0.0-5.0-2.10","","","","","","215","","","","","","[{""stimulus"":""img/green_ww/1.jpg"",""time"":55},{""stimulus"":""img/green_ww/2.jpg"",""time"":106},{""stimulus"":""img/green_ww/3.jpg"",""time"":160},{""stimulus"":""img/green_ww/4.jpg"",""time"":214},{""stimulus"":""img/green_ww/5.jpg"",""time"":265},{""stimulus"":""img/green_ww/6.jpg"",""time"":316},{""stimulus"":""img/green_ww/7.jpg"",""time"":366},{""stimulus"":""img/green_ww/8.jpg"",""time"":419},{""stimulus"":""img/green_ww/9.jpg"",""time"":474},{""stimulus"":""img/green_ww/10.jpg"",""time"":530},{""stimulus"":""img/green_ww/11.jpg"",""time"":583}]","[]"
"","","","choice","60fd80b85dd6b22f66d16822","bdp_lott","Sun Mar 26 2023 08:08:27 GMT-0500 (Central Daylight Time)","323105","green","red","image-keyboard-response","27","88961","0.0-5.0-1.11","","564","","img/green_ww/choose11.jpg","2","214","red","0.5","0.5","0.5","l","",""
"","","","","60fd80b85dd6b22f66d16822","bdp_lott","Sun Mar 26 2023 08:08:27 GMT-0500 (Central Daylight Time)","323105","green","red","animation","28","89593","0.0-5.0-2.11","","","","","","214","","","","","","[{""stimulus"":""img/red_wl/1.jpg"",""time"":56},{""stimulus"":""img/red_wl/2.jpg"",""time"":108},{""stimulus"":""img/red_wl/3.jpg"",""time"":159},{""stimulus"":""img/red_wl/4.jpg"",""time"":214},{""stimulus"":""img/red_wl/5.jpg"",""time"":265},{""stimulus"":""img/red_wl/6.jpg"",""time"":314},{""stimulus"":""img/red_wl/7.jpg"",""time"":369},{""stimulus"":""img/red_wl/8.jpg"",""time"":421},{""stimulus"":""img/red_wl/9.jpg"",""time"":473},{""stimulus"":""img/red_wl/10.jpg"",""time"":523},{""stimulus"":""img/red_wl/11.jpg"",""time"":578}]","[]"
"","","","choice","60fd80b85dd6b22f66d16822","bdp_lott","Sun Mar 26 2023 08:08:27 GMT-0500 (Central Daylight Time)","323105","green","red","image-keyboard-response","29","90245","0.0-5.0-1.12","","651","","img/red_wl/choose11.jpg","1","213","green","0.5","0.5","0.5","w","",""
"","","","","60fd80b85dd6b22f66d16822","bdp_lott","Sun Mar 26 2023 08:08:27 GMT-0500 (Central Daylight Time)","323105","green","red","animation","30","90885","0.0-5.0-2.12","","","","","","213","","","","","","[{""stimulus"":""img/green_wl/1.jpg"",""time"":55},{""stimulus"":""img/green_wl/2.jpg"",""time"":110},{""stimulus"":""img/green_wl/3.jpg"",""time"":163},{""stimulus"":""img/green_wl/4.jpg"",""time"":212},{""stimulus"":""img/green_wl/5.jpg"",""time"":268},{""stimulus"":""img/green_wl/6.jpg"",""time"":320},{""stimulus"":""img/green_wl/7.jpg"",""time"":375},{""stimulus"":""img/green_wl/8.jpg"",""time"":430},{""stimulus"":""img/green_wl/9.jpg"",""time"":484},{""stimulus"":""img/green_wl/10.jpg"",""time"":537},{""stimulus"":""img/green_wl/11.jpg"",""time"":588}]","[]"
"","","","choice","60fd80b85dd6b22f66d16822","bdp_lott","Sun Mar 26 2023 08:08:27 GMT-0500 (Central Daylight Time)","323105","green","red","image-keyboard-response","31","91516","0.0-5.0-1.13","","630","","img/green_wl/choose11.jpg","1","212","green","0.5","0.5","0.5","w","",""
"","","","","60fd80b85dd6b22f66d16822","bdp_lott","Sun Mar 26 2023 08:08:27 GMT-0500 (Central Daylight Time)","323105","green","red","animation","32","92143","0.0-5.0-2.13","","","","","","212","","","","","","[{""stimulus"":""img/green_wl/1.jpg"",""time"":51},{""stimulus"":""img/green_wl/2.jpg"",""time"":106},{""stimulus"":""img/green_wl/3.jpg"",""time"":160},{""stimulus"":""img/green_wl/4.jpg"",""time"":211},{""stimulus"":""img/green_wl/5.jpg"",""time"":266},{""stimulus"":""img/green_wl/6.jpg"",""time"":321},{""stimulus"":""img/green_wl/7.jpg"",""time"":374},{""stimulus"":""img/green_wl/8.jpg"",""time"":426},{""stimulus"":""img/green_wl/9.jpg"",""time"":477},{""stimulus"":""img/green_wl/10.jpg"",""time"":527},{""stimulus"":""img/green_wl/11.jpg"",""time"":578}]","[]"
"","","","choice","60fd80b85dd6b22f66d16822","bdp_lott","Sun Mar 26 2023 08:08:27 GMT-0500 (Central Daylight Time)","323105","green","red","image-keyboard-response","33","92867","0.0-5.0-1.14","","723","","img/green_wl/choose11.jpg","1","211","green","0.5","0.5","0.5","w","",""
"","","","","60fd80b85dd6b22f66d16822","bdp_lott","Sun Mar 26 2023 08:08:27 GMT-0500 (Central Daylight Time)","323105","green","red","animation","34","93507","0.0-5.0-2.14","","","","","","211","","","","","","[{""stimulus"":""img/green_wl/1.jpg"",""time"":51},{""stimulus"":""img/green_wl/2.jpg"",""time"":106},{""stimulus"":""img/green_wl/3.jpg"",""time"":158},{""stimulus"":""img/green_wl/4.jpg"",""time"":210},{""stimulus"":""img/green_wl/5.jpg"",""time"":262},{""stimulus"":""img/green_wl/6.jpg"",""time"":317},{""stimulus"":""img/green_wl/7.jpg"",""time"":368},{""stimulus"":""img/green_wl/8.jpg"",""time"":424},{""stimulus"":""img/green_wl/9.jpg"",""time"":475},{""stimulus"":""img/green_wl/10.jpg"",""time"":529},{""stimulus"":""img/green_wl/11.jpg"",""time"":584}]","[]"
"","","","choice","60fd80b85dd6b22f66d16822","bdp_lott","Sun Mar 26 2023 08:08:27 GMT-0500 (Central Daylight Time)","323105","green","red","image-keyboard-response","35","94115","0.0-5.0-1.15","","606","","img/green_wl/choose11.jpg","1","210","green","0.5","0.5","0.5","w","",""
"","","","","60fd80b85dd6b22f66d16822","bdp_lott","Sun Mar 26 2023 08:08:27 GMT-0500 (Central Daylight Time)","323105","green","red","animation","36","94747","0.0-5.0-2.15","","","","","","210","","","","","","[{""stimulus"":""img/green_wl/1.jpg"",""time"":56},{""stimulus"":""img/green_wl/2.jpg"",""time"":109},{""stimulus"":""img/green_wl/3.jpg"",""time"":161},{""stimulus"":""img/green_wl/4.jpg"",""time"":211},{""stimulus"":""img/green_wl/5.jpg"",""time"":262},{""stimulus"":""img/green_wl/6.jpg"",""time"":313},{""stimulus"":""img/green_wl/7.jpg"",""time"":369},{""stimulus"":""img/green_wl/8.jpg"",""time"":424},{""stimulus"":""img/green_wl/9.jpg"",""time"":478},{""stimulus"":""img/green_wl/10.jpg"",""time"":528},{""stimulus"":""img/green_wl/11.jpg"",""time"":582}]","[]"
"","","","choice","60fd80b85dd6b22f66d16822","bdp_lott","Sun Mar 26 2023 08:08:27 GMT-0500 (Central Daylight Time)","323105","green","red","image-keyboard-response","37","95303","0.0-5.0-1.16","","555","","img/green_wl/choose11.jpg","1","209","green","0.5","0.5","0.5","w","",""
"","","","","60fd80b85dd6b22f66d16822","bdp_lott","Sun Mar 26 2023 08:08:27 GMT-0500 (Central Daylight Time)","323105","green","red","animation","38","95948","0.0-5.0-2.16","","","","","","209","","","","","","[{""stimulus"":""img/green_wl/1.jpg"",""time"":56},{""stimulus"":""img/green_wl/2.jpg"",""time"":105},{""stimulus"":""img/green_wl/3.jpg"",""time"":155},{""stimulus"":""img/green_wl/4.jpg"",""time"":211},{""stimulus"":""img/green_wl/5.jpg"",""time"":263},{""stimulus"":""img/green_wl/6.jpg"",""time"":318},{""stimulus"":""img/green_wl/7.jpg"",""time"":373},{""stimulus"":""img/green_wl/8.jpg"",""time"":427},{""stimulus"":""img/green_wl/9.jpg"",""time"":483},{""stimulus"":""img/green_wl/10.jpg"",""time"":538},{""stimulus"":""img/green_wl/11.jpg"",""time"":589}]","[]"
"","","","choice","60fd80b85dd6b22f66d16822","bdp_lott","Sun Mar 26 2023 08:08:27 GMT-0500 (Central Daylight Time)","323105","green","red","image-keyboard-response","39","96541","0.0-5.0-1.17","","593","","img/green_wl/choose11.jpg","2","208","red","0.5","0.5","0.5","l","",""
"","","","","60fd80b85dd6b22f66d16822","bdp_lott","Sun Mar 26 2023 08:08:27 GMT-0500 (Central Daylight Time)","323105","green","red","animation","40","97176","0.0-5.0-2.17","","","","","","208","","","","","","[{""stimulus"":""img/red_wl/1.jpg"",""time"":52},{""stimulus"":""img/red_wl/2.jpg"",""time"":107},{""stimulus"":""img/red_wl/3.jpg"",""time"":161},{""stimulus"":""img/red_wl/4.jpg"",""time"":214},{""stimulus"":""img/red_wl/5.jpg"",""time"":266},{""stimulus"":""img/red_wl/6.jpg"",""time"":318},{""stimulus"":""img/red_wl/7.jpg"",""time"":370},{""stimulus"":""img/red_wl/8.jpg"",""time"":425},{""stimulus"":""img/red_wl/9.jpg"",""time"":480},{""stimulus"":""img/red_wl/10.jpg"",""time"":534},{""stimulus"":""img/red_wl/11.jpg"",""time"":584}]","[]"
"","","","choice","60fd80b85dd6b22f66d16822","bdp_lott","Sun Mar 26 2023 08:08:27 GMT-0500 (Central Daylight Time)","323105","green","red","image-keyboard-response","41","97619","0.0-5.0-1.18","","443","","img/red_wl/choose11.jpg","1","207","green","0.5","0.5","0.5","l","",""
"","","","","60fd80b85dd6b22f66d16822","bdp_lott","Sun Mar 26 2023 08:08:27 GMT-0500 (Central Daylight Time)","323105","green","red","animation","42","98259","0.0-5.0-2.18","","","","","","207","","","","","","[{""stimulus"":""img/green_ll/1.jpg"",""time"":56},{""stimulus"":""img/green_ll/2.jpg"",""time"":106},{""stimulus"":""img/green_ll/3.jpg"",""time"":158},{""stimulus"":""img/green_ll/4.jpg"",""time"":213},{""stimulus"":""img/green_ll/5.jpg"",""time"":268},{""stimulus"":""img/green_ll/6.jpg"",""time"":322},{""stimulus"":""img/green_ll/7.jpg"",""time"":373},{""stimulus"":""img/green_ll/8.jpg"",""time"":428},{""stimulus"":""img/green_ll/9.jpg"",""time"":484},{""stimulus"":""img/green_ll/10.jpg"",""time"":538},{""stimulus"":""img/green_ll/11.jpg"",""time"":590}]","[]"
"","","","choice","60fd80b85dd6b22f66d16822","bdp_lott","Sun Mar 26 2023 08:08:27 GMT-0500 (Central Daylight Time)","323105","green","red","image-keyboard-response","43","99185","0.0-5.0-1.19","","925","","img/green_ll/choose11.jpg","2","206","red","0.5","0.5","0.5","w","",""
"","","","","60fd80b85dd6b22f66d16822","bdp_lott","Sun Mar 26 2023 08:08:27 GMT-0500 (Central Daylight Time)","323105","green","red","animation","44","99817","0.0-5.0-2.19","","","","","","206","","","","","","[{""stimulus"":""img/red_lw/1.jpg"",""time"":56},{""stimulus"":""img/red_lw/2.jpg"",""time"":108},{""stimulus"":""img/red_lw/3.jpg"",""time"":163},{""stimulus"":""img/red_lw/4.jpg"",""time"":219},{""stimulus"":""img/red_lw/5.jpg"",""time"":269},{""stimulus"":""img/red_lw/6.jpg"",""time"":324},{""stimulus"":""img/red_lw/7.jpg"",""time"":374},{""stimulus"":""img/red_lw/8.jpg"",""time"":424},{""stimulus"":""img/red_lw/9.jpg"",""time"":475},{""stimulus"":""img/red_lw/10.jpg"",""time"":525},{""stimulus"":""img/red_lw/11.jpg"",""time"":578}]","[]"
"","","","choice","60fd80b85dd6b22f66d16822","bdp_lott","Sun Mar 26 2023 08:08:27 GMT-0500 (Central Daylight Time)","323105","green","red","image-keyboard-response","45","100476","0.0-5.0-1.20","","659","","img/red_lw/choose11.jpg","2","205","red","0.5","0.5","0.5","w","",""
"","","","","60fd80b85dd6b22f66d16822","bdp_lott","Sun Mar 26 2023 08:08:27 GMT-0500 (Central Daylight Time)","323105","green","red","animation","46","101121","0.0-5.0-2.20","","","","","","205","","","","","","[{""stimulus"":""img/red_lw/1.jpg"",""time"":52},{""stimulus"":""img/red_lw/2.jpg"",""time"":106},{""stimulus"":""img/red_lw/3.jpg"",""time"":161},{""stimulus"":""img/red_lw/4.jpg"",""time"":216},{""stimulus"":""img/red_lw/5.jpg"",""time"":267},{""stimulus"":""img/red_lw/6.jpg"",""time"":319},{""stimulus"":""img/red_lw/7.jpg"",""time"":372},{""stimulus"":""img/red_lw/8.jpg"",""time"":428},{""stimulus"":""img/red_lw/9.jpg"",""time"":483},{""stimulus"":""img/red_lw/10.jpg"",""time"":535},{""stimulus"":""img/red_lw/11.jpg"",""time"":590}]","[]"
"","","","choice","60fd80b85dd6b22f66d16822","bdp_lott","Sun Mar 26 2023 08:08:27 GMT-0500 (Central Daylight Time)","323105","green","red","image-keyboard-response","47","101624","0.0-5.0-1.21","","502","","img/red_lw/choose11.jpg","2","204","red","0.5","0.5","0.5","w","",""
"","","","","60fd80b85dd6b22f66d16822","bdp_lott","Sun Mar 26 2023 08:08:27 GMT-0500 (Central Daylight Time)","323105","green","red","animation","48","102272","0.0-5.0-2.21","","","","","","204","","","","","","[{""stimulus"":""img/red_lw/1.jpg"",""time"":55},{""stimulus"":""img/red_lw/2.jpg"",""time"":110},{""stimulus"":""img/red_lw/3.jpg"",""time"":164},{""stimulus"":""img/red_lw/4.jpg"",""time"":219},{""stimulus"":""img/red_lw/5.jpg"",""time"":269},{""stimulus"":""img/red_lw/6.jpg"",""time"":325},{""stimulus"":""img/red_lw/7.jpg"",""time"":379},{""stimulus"":""img/red_lw/8.jpg"",""time"":435},{""stimulus"":""img/red_lw/9.jpg"",""time"":486},{""stimulus"":""img/red_lw/10.jpg"",""time"":541},{""stimulus"":""img/red_lw/11.jpg"",""time"":592}]","[]"
"","","","choice","60fd80b85dd6b22f66d16822","bdp_lott","Sun Mar 26 2023 08:08:27 GMT-0500 (Central Daylight Time)","323105","green","red","image-keyboard-response","49","102708","0.0-5.0-1.22","","435","","img/red_lw/choose11.jpg","2","203","red","0.5","0.5","0.5","l","",""
"","","","","60fd80b85dd6b22f66d16822","bdp_lott","Sun Mar 26 2023 08:08:27 GMT-0500 (Central Daylight Time)","323105","green","red","animation","50","103360","0.0-5.0-2.22","","","","","","203","","","","","","[{""stimulus"":""img/red_ll/1.jpg"",""time"":56},{""stimulus"":""img/red_ll/2.jpg"",""time"":108},{""stimulus"":""img/red_ll/3.jpg"",""time"":164},{""stimulus"":""img/red_ll/4.jpg"",""time"":217},{""stimulus"":""img/red_ll/5.jpg"",""time"":273},{""stimulus"":""img/red_ll/6.jpg"",""time"":327},{""stimulus"":""img/red_ll/7.jpg"",""time"":383},{""stimulus"":""img/red_ll/8.jpg"",""time"":438},{""stimulus"":""img/red_ll/9.jpg"",""time"":493},{""stimulus"":""img/red_ll/10.jpg"",""time"":549},{""stimulus"":""img/red_ll/11.jpg"",""time"":600}]","[]"
"","","","choice","60fd80b85dd6b22f66d16822","bdp_lott","Sun Mar 26 2023 08:08:27 GMT-0500 (Central Daylight Time)","323105","green","red","image-keyboard-response","51","103910","0.0-5.0-1.23","","550","","img/red_ll/choose11.jpg","1","202","green","0.5","0.5","0.5","w","",""
"","","","","60fd80b85dd6b22f66d16822","bdp_lott","Sun Mar 26 2023 08:08:27 GMT-0500 (Central Daylight Time)","323105","green","red","animation","52","104558","0.0-5.0-2.23","","","","","","202","","","","","","[{""stimulus"":""img/green_wl/1.jpg"",""time"":55},{""stimulus"":""img/green_wl/2.jpg"",""time"":109},{""stimulus"":""img/green_wl/3.jpg"",""time"":162},{""stimulus"":""img/green_wl/4.jpg"",""time"":216},{""stimulus"":""img/green_wl/5.jpg"",""time"":271},{""stimulus"":""img/green_wl/6.jpg"",""time"":326},{""stimulus"":""img/green_wl/7.jpg"",""time"":381},{""stimulus"":""img/green_wl/8.jpg"",""time"":432},{""stimulus"":""img/green_wl/9.jpg"",""time"":482},{""stimulus"":""img/green_wl/10.jpg"",""time"":536},{""stimulus"":""img/green_wl/11.jpg"",""time"":591}]","[]"
"","","","choice","60fd80b85dd6b22f66d16822","bdp_lott","Sun Mar 26 2023 08:08:27 GMT-0500 (Central Daylight Time)","323105","green","red","image-keyboard-response","53","105306","0.0-5.0-1.24","","748","","img/green_wl/choose11.jpg","1","201","green","0.5","0.5","0.5","w","",""
"","","","","60fd80b85dd6b22f66d16822","bdp_lott","Sun Mar 26 2023 08:08:27 GMT-0500 (Central Daylight Time)","323105","green","red","animation","54","105954","0.0-5.0-2.24","","","","","","201","","","","","","[{""stimulus"":""img/green_wl/1.jpg"",""time"":57},{""stimulus"":""img/green_wl/2.jpg"",""time"":111},{""stimulus"":""img/green_wl/3.jpg"",""time"":167},{""stimulus"":""img/green_wl/4.jpg"",""time"":220},{""stimulus"":""img/green_wl/5.jpg"",""time"":275},{""stimulus"":""img/green_wl/6.jpg"",""time"":331},{""stimulus"":""img/green_wl/7.jpg"",""time"":386},{""stimulus"":""img/green_wl/8.jpg"",""time"":437},{""stimulus"":""img/green_wl/9.jpg"",""time"":487},{""stimulus"":""img/green_wl/10.jpg"",""time"":537},{""stimulus"":""img/green_wl/11.jpg"",""time"":592}]","[]"
"","","","choice","60fd80b85dd6b22f66d16822","bdp_lott","Sun Mar 26 2023 08:08:27 GMT-0500 (Central Daylight Time)","323105","green","red","image-keyboard-response","55","106484","0.0-5.0-1.25","","530","","img/green_wl/choose11.jpg","1","200","green","0.5","0.5","0.5","w","",""
"","","","","60fd80b85dd6b22f66d16822","bdp_lott","Sun Mar 26 2023 08:08:27 GMT-0500 (Central Daylight Time)","323105","green","red","animation","56","107135","0.0-5.0-2.25","","","","","","200","","","","","","[{""stimulus"":""img/green_wl/1.jpg"",""time"":56},{""stimulus"":""img/green_wl/2.jpg"",""time"":109},{""stimulus"":""img/green_wl/3.jpg"",""time"":164},{""stimulus"":""img/green_wl/4.jpg"",""time"":219},{""stimulus"":""img/green_wl/5.jpg"",""time"":275},{""stimulus"":""img/green_wl/6.jpg"",""time"":326},{""stimulus"":""img/green_wl/7.jpg"",""time"":381},{""stimulus"":""img/green_wl/8.jpg"",""time"":435},{""stimulus"":""img/green_wl/9.jpg"",""time"":491},{""stimulus"":""img/green_wl/10.jpg"",""time"":542},{""stimulus"":""img/green_wl/11.jpg"",""time"":598}]","[]"
"","","","choice","60fd80b85dd6b22f66d16822","bdp_lott","Sun Mar 26 2023 08:08:27 GMT-0500 (Central Daylight Time)","323105","green","red","image-keyboard-response","57","107549","0.0-5.0-1.26","","413","","img/green_wl/choose11.jpg","1","199","green","0.5","0.5","0.5","l","",""
"","","","","60fd80b85dd6b22f66d16822","bdp_lott","Sun Mar 26 2023 08:08:27 GMT-0500 (Central Daylight Time)","323105","green","red","animation","58","108181","0.0-5.0-2.26","","","","","","199","","","","","","[{""stimulus"":""img/green_ll/1.jpg"",""time"":51},{""stimulus"":""img/green_ll/2.jpg"",""time"":102},{""stimulus"":""img/green_ll/3.jpg"",""time"":154},{""stimulus"":""img/green_ll/4.jpg"",""time"":209},{""stimulus"":""img/green_ll/5.jpg"",""time"":261},{""stimulus"":""img/green_ll/6.jpg"",""time"":316},{""stimulus"":""img/green_ll/7.jpg"",""time"":367},{""stimulus"":""img/green_ll/8.jpg"",""time"":421},{""stimulus"":""img/green_ll/9.jpg"",""time"":477},{""stimulus"":""img/green_ll/10.jpg"",""time"":527},{""stimulus"":""img/green_ll/11.jpg"",""time"":582}]","[]"
"","","","choice","60fd80b85dd6b22f66d16822","bdp_lott","Sun Mar 26 2023 08:08:27 GMT-0500 (Central Daylight Time)","323105","green","red","image-keyboard-response","59","108725","0.0-5.0-1.27","","543","","img/green_ll/choose11.jpg","2","198","red","0.5","0.5","0.5","w","",""
"","","","","60fd80b85dd6b22f66d16822","bdp_lott","Sun Mar 26 2023 08:08:27 GMT-0500 (Central Daylight Time)","323105","green","red","animation","60","109372","0.0-5.0-2.27","","","","","","198","","","","","","[{""stimulus"":""img/red_lw/1.jpg"",""time"":52},{""stimulus"":""img/red_lw/2.jpg"",""time"":104},{""stimulus"":""img/red_lw/3.jpg"",""time"":159},{""stimulus"":""img/red_lw/4.jpg"",""time"":214},{""stimulus"":""img/red_lw/5.jpg"",""time"":267},{""stimulus"":""img/red_lw/6.jpg"",""time"":322},{""stimulus"":""img/red_lw/7.jpg"",""time"":378},{""stimulus"":""img/red_lw/8.jpg"",""time"":432},{""stimulus"":""img/red_lw/9.jpg"",""time"":484},{""stimulus"":""img/red_lw/10.jpg"",""time"":539},{""stimulus"":""img/red_lw/11.jpg"",""time"":591}]","[]"
"","","","choice","60fd80b85dd6b22f66d16822","bdp_lott","Sun Mar 26 2023 08:08:27 GMT-0500 (Central Daylight Time)","323105","green","red","image-keyboard-response","61","109888","0.0-5.0-1.28","","515","","img/red_lw/choose11.jpg","2","197","red","0.5","0.5","0.5","l","",""
"","","","","60fd80b85dd6b22f66d16822","bdp_lott","Sun Mar 26 2023 08:08:27 GMT-0500 (Central Daylight Time)","323105","green","red","animation","62","110537","0.0-5.0-2.28","","","","","","197","","","","","","[{""stimulus"":""img/red_ll/1.jpg"",""time"":56},{""stimulus"":""img/red_ll/2.jpg"",""time"":111},{""stimulus"":""img/red_ll/3.jpg"",""time"":166},{""stimulus"":""img/red_ll/4.jpg"",""time"":221},{""stimulus"":""img/red_ll/5.jpg"",""time"":276},{""stimulus"":""img/red_ll/6.jpg"",""time"":331},{""stimulus"":""img/red_ll/7.jpg"",""time"":381},{""stimulus"":""img/red_ll/8.jpg"",""time"":431},{""stimulus"":""img/red_ll/9.jpg"",""time"":484},{""stimulus"":""img/red_ll/10.jpg"",""time"":538},{""stimulus"":""img/red_ll/11.jpg"",""time"":593}]","[]"
"","","","choice","60fd80b85dd6b22f66d16822","bdp_lott","Sun Mar 26 2023 08:08:27 GMT-0500 (Central Daylight Time)","323105","green","red","image-keyboard-response","63","111154","0.0-5.0-1.29","","617","","img/red_ll/choose11.jpg","1","196","green","0.5","0.5","0.5","l","",""
"","","","","60fd80b85dd6b22f66d16822","bdp_lott","Sun Mar 26 2023 08:08:27 GMT-0500 (Central Daylight Time)","323105","green","red","animation","64","111798","0.0-5.0-2.29","","","","","","196","","","","","","[{""stimulus"":""img/green_ll/1.jpg"",""time"":54},{""stimulus"":""img/green_ll/2.jpg"",""time"":106},{""stimulus"":""img/green_ll/3.jpg"",""time"":156},{""stimulus"":""img/green_ll/4.jpg"",""time"":211},{""stimulus"":""img/green_ll/5.jpg"",""time"":267},{""stimulus"":""img/green_ll/6.jpg"",""time"":321},{""stimulus"":""img/green_ll/7.jpg"",""time"":373},{""stimulus"":""img/green_ll/8.jpg"",""time"":426},{""stimulus"":""img/green_ll/9.jpg"",""time"":481},{""stimulus"":""img/green_ll/10.jpg"",""time"":537},{""stimulus"":""img/green_ll/11.jpg"",""time"":589}]","[]"
"","","","choice","60fd80b85dd6b22f66d16822","bdp_lott","Sun Mar 26 2023 08:08:27 GMT-0500 (Central Daylight Time)","323105","green","red","image-keyboard-response","65","112439","0.0-5.0-1.30","","639","","img/green_ll/choose11.jpg","2","195","red","0.5","0.5","0.5","w","",""
"","","","","60fd80b85dd6b22f66d16822","bdp_lott","Sun Mar 26 2023 08:08:27 GMT-0500 (Central Daylight Time)","323105","green","red","animation","66","113087","0.0-5.0-2.30","","","","","","195","","","","","","[{""stimulus"":""img/red_lw/1.jpg"",""time"":52},{""stimulus"":""img/red_lw/2.jpg"",""time"":104},{""stimulus"":""img/red_lw/3.jpg"",""time"":159},{""stimulus"":""img/red_lw/4.jpg"",""time"":215},{""stimulus"":""img/red_lw/5.jpg"",""time"":269},{""stimulus"":""img/red_lw/6.jpg"",""time"":325},{""stimulus"":""img/red_lw/7.jpg"",""time"":378},{""stimulus"":""img/red_lw/8.jpg"",""time"":433},{""stimulus"":""img/red_lw/9.jpg"",""time"":488},{""stimulus"":""img/red_lw/10.jpg"",""time"":537},{""stimulus"":""img/red_lw/11.jpg"",""time"":592}]","[]"
"","","","choice","60fd80b85dd6b22f66d16822","bdp_lott","Sun Mar 26 2023 08:08:27 GMT-0500 (Central Daylight Time)","323105","green","red","image-keyboard-response","67","113647","0.0-5.0-1.31","","560","","img/red_lw/choose11.jpg","2","194","red","0.5","0.5","0.5","w","",""
"","","","","60fd80b85dd6b22f66d16822","bdp_lott","Sun Mar 26 2023 08:08:27 GMT-0500 (Central Daylight Time)","323105","green","red","animation","68","114284","0.0-5.0-2.31","","","","","","194","","","","","","[{""stimulus"":""img/red_lw/1.jpg"",""time"":56},{""stimulus"":""img/red_lw/2.jpg"",""time"":106},{""stimulus"":""img/red_lw/3.jpg"",""time"":162},{""stimulus"":""img/red_lw/4.jpg"",""time"":213},{""stimulus"":""img/red_lw/5.jpg"",""time"":268},{""stimulus"":""img/red_lw/6.jpg"",""time"":323},{""stimulus"":""img/red_lw/7.jpg"",""time"":378},{""stimulus"":""img/red_lw/8.jpg"",""time"":429},{""stimulus"":""img/red_lw/9.jpg"",""time"":479},{""stimulus"":""img/red_lw/10.jpg"",""time"":530},{""stimulus"":""img/red_lw/11.jpg"",""time"":581}]","[]"
"","","","choice","60fd80b85dd6b22f66d16822","bdp_lott","Sun Mar 26 2023 08:08:27 GMT-0500 (Central Daylight Time)","323105","green","red","image-keyboard-response","69","114687","0.0-5.0-1.32","","403","","img/red_lw/choose11.jpg","2","193","red","0.5","0.5","0.5","w","",""
"","","","","60fd80b85dd6b22f66d16822","bdp_lott","Sun Mar 26 2023 08:08:27 GMT-0500 (Central Daylight Time)","323105","green","red","animation","70","115341","0.0-5.0-2.32","","","","","","193","","","","","","[{""stimulus"":""img/red_lw/1.jpg"",""time"":52},{""stimulus"":""img/red_lw/2.jpg"",""time"":106},{""stimulus"":""img/red_lw/3.jpg"",""time"":161},{""stimulus"":""img/red_lw/4.jpg"",""time"":217},{""stimulus"":""img/red_lw/5.jpg"",""time"":271},{""stimulus"":""img/red_lw/6.jpg"",""time"":323},{""stimulus"":""img/red_lw/7.jpg"",""time"":378},{""stimulus"":""img/red_lw/8.jpg"",""time"":433},{""stimulus"":""img/red_lw/9.jpg"",""time"":489},{""stimulus"":""img/red_lw/10.jpg"",""time"":543},{""stimulus"":""img/red_lw/11.jpg"",""time"":599}]","[]"
"","","","choice","60fd80b85dd6b22f66d16822","bdp_lott","Sun Mar 26 2023 08:08:27 GMT-0500 (Central Daylight Time)","323105","green","red","image-keyboard-response","71","115798","0.0-5.0-1.33","","457","","img/red_lw/choose11.jpg","2","192","red","0.5","0.5","0.5","w","",""
"","","","","60fd80b85dd6b22f66d16822","bdp_lott","Sun Mar 26 2023 08:08:27 GMT-0500 (Central Daylight Time)","323105","green","red","animation","72","116433","0.0-5.0-2.33","","","","","","192","","","","","","[{""stimulus"":""img/red_lw/1.jpg"",""time"":55},{""stimulus"":""img/red_lw/2.jpg"",""time"":111},{""stimulus"":""img/red_lw/3.jpg"",""time"":160},{""stimulus"":""img/red_lw/4.jpg"",""time"":212},{""stimulus"":""img/red_lw/5.jpg"",""time"":262},{""stimulus"":""img/red_lw/6.jpg"",""time"":317},{""stimulus"":""img/red_lw/7.jpg"",""time"":372},{""stimulus"":""img/red_lw/8.jpg"",""time"":424},{""stimulus"":""img/red_lw/9.jpg"",""time"":478},{""stimulus"":""img/red_lw/10.jpg"",""time"":529},{""stimulus"":""img/red_lw/11.jpg"",""time"":583}]","[]"
"","","","choice","60fd80b85dd6b22f66d16822","bdp_lott","Sun Mar 26 2023 08:08:27 GMT-0500 (Central Daylight Time)","323105","green","red","image-keyboard-response","73","116824","0.0-5.0-1.34","","389","","img/red_lw/choose11.jpg","2","191","red","0.5","0.5","0.5","l","",""
"","","","","60fd80b85dd6b22f66d16822","bdp_lott","Sun Mar 26 2023 08:08:27 GMT-0500 (Central Daylight Time)","323105","green","red","animation","74","117465","0.0-5.0-2.34","","","","","","191","","","","","","[{""stimulus"":""img/red_ll/1.jpg"",""time"":54},{""stimulus"":""img/red_ll/2.jpg"",""time"":109},{""stimulus"":""img/red_ll/3.jpg"",""time"":165},{""stimulus"":""img/red_ll/4.jpg"",""time"":219},{""stimulus"":""img/red_ll/5.jpg"",""time"":270},{""stimulus"":""img/red_ll/6.jpg"",""time"":324},{""stimulus"":""img/red_ll/7.jpg"",""time"":379},{""stimulus"":""img/red_ll/8.jpg"",""time"":434},{""stimulus"":""img/red_ll/9.jpg"",""time"":485},{""stimulus"":""img/red_ll/10.jpg"",""time"":536},{""stimulus"":""img/red_ll/11.jpg"",""time"":586}]","[]"
"","","","choice","60fd80b85dd6b22f66d16822","bdp_lott","Sun Mar 26 2023 08:08:27 GMT-0500 (Central Daylight Time)","323105","green","red","image-keyboard-response","75","117933","0.0-5.0-1.35","","466","","img/red_ll/choose11.jpg","1","190","green","0.5","0.5","0.5","l","",""
"","","","","60fd80b85dd6b22f66d16822","bdp_lott","Sun Mar 26 2023 08:08:27 GMT-0500 (Central Daylight Time)","323105","green","red","animation","76","118578","0.0-5.0-2.35","","","","","","190","","","","","","[{""stimulus"":""img/green_ll/1.jpg"",""time"":55},{""stimulus"":""img/green_ll/2.jpg"",""time"":109},{""stimulus"":""img/green_ll/3.jpg"",""time"":159},{""stimulus"":""img/green_ll/4.jpg"",""time"":210},{""stimulus"":""img/green_ll/5.jpg"",""time"":261},{""stimulus"":""img/green_ll/6.jpg"",""time"":316},{""stimulus"":""img/green_ll/7.jpg"",""time"":372},{""stimulus"":""img/green_ll/8.jpg"",""time"":426},{""stimulus"":""img/green_ll/9.jpg"",""time"":482},{""stimulus"":""img/green_ll/10.jpg"",""time"":537},{""stimulus"":""img/green_ll/11.jpg"",""time"":592}]","[]"
"","","","choice","60fd80b85dd6b22f66d16822","bdp_lott","Sun Mar 26 2023 08:08:27 GMT-0500 (Central Daylight Time)","323105","green","red","image-keyboard-response","77","119087","0.0-5.0-1.36","","509","","img/green_ll/choose11.jpg","1","189","green","0.5","0.5","0.5","l","",""
"","","","","60fd80b85dd6b22f66d16822","bdp_lott","Sun Mar 26 2023 08:08:27 GMT-0500 (Central Daylight Time)","323105","green","red","animation","78","119726","0.0-5.0-2.36","","","","","","189","","","","","","[{""stimulus"":""img/green_ll/1.jpg"",""time"":55},{""stimulus"":""img/green_ll/2.jpg"",""time"":111},{""stimulus"":""img/green_ll/3.jpg"",""time"":166},{""stimulus"":""img/green_ll/4.jpg"",""time"":221},{""stimulus"":""img/green_ll/5.jpg"",""time"":272},{""stimulus"":""img/green_ll/6.jpg"",""time"":322},{""stimulus"":""img/green_ll/7.jpg"",""time"":372},{""stimulus"":""img/green_ll/8.jpg"",""time"":428},{""stimulus"":""img/green_ll/9.jpg"",""time"":479},{""stimulus"":""img/green_ll/10.jpg"",""time"":535},{""stimulus"":""img/green_ll/11.jpg"",""time"":588}]","[]"
"","","","choice","60fd80b85dd6b22f66d16822","bdp_lott","Sun Mar 26 2023 08:08:27 GMT-0500 (Central Daylight Time)","323105","green","red","image-keyboard-response","79","120079","0.0-5.0-1.37","","352","","img/green_ll/choose11.jpg","2","188","red","0.5","0.5","0.5","w","",""
"","","","","60fd80b85dd6b22f66d16822","bdp_lott","Sun Mar 26 2023 08:08:27 GMT-0500 (Central Daylight Time)","323105","green","red","animation","80","120716","0.0-5.0-2.37","","","","","","188","","","","","","[{""stimulus"":""img/red_lw/1.jpg"",""time"":57},{""stimulus"":""img/red_lw/2.jpg"",""time"":111},{""stimulus"":""img/red_lw/3.jpg"",""time"":163},{""stimulus"":""img/red_lw/4.jpg"",""time"":214},{""stimulus"":""img/red_lw/5.jpg"",""time"":266},{""stimulus"":""img/red_lw/6.jpg"",""time"":317},{""stimulus"":""img/red_lw/7.jpg"",""time"":368},{""stimulus"":""img/red_lw/8.jpg"",""time"":424},{""stimulus"":""img/red_lw/9.jpg"",""time"":474},{""stimulus"":""img/red_lw/10.jpg"",""time"":530},{""stimulus"":""img/red_lw/11.jpg"",""time"":584}]","[]"
"","","","choice","60fd80b85dd6b22f66d16822","bdp_lott","Sun Mar 26 2023 08:08:27 GMT-0500 (Central Daylight Time)","323105","green","red","image-keyboard-response","81","121276","0.0-5.0-1.38","","560","","img/red_lw/choose11.jpg","2","187","red","0.5","0.5","0.5","w","",""
"","","","","60fd80b85dd6b22f66d16822","bdp_lott","Sun Mar 26 2023 08:08:27 GMT-0500 (Central Daylight Time)","323105","green","red","animation","82","121908","0.0-5.0-2.38","","","","","","187","","","","","","[{""stimulus"":""img/red_lw/1.jpg"",""time"":51},{""stimulus"":""img/red_lw/2.jpg"",""time"":107},{""stimulus"":""img/red_lw/3.jpg"",""time"":160},{""stimulus"":""img/red_lw/4.jpg"",""time"":216},{""stimulus"":""img/red_lw/5.jpg"",""time"":266},{""stimulus"":""img/red_lw/6.jpg"",""time"":316},{""stimulus"":""img/red_lw/7.jpg"",""time"":366},{""stimulus"":""img/red_lw/8.jpg"",""time"":419},{""stimulus"":""img/red_lw/9.jpg"",""time"":471},{""stimulus"":""img/red_lw/10.jpg"",""time"":523},{""stimulus"":""img/red_lw/11.jpg"",""time"":577}]","[]"
"","","","choice","60fd80b85dd6b22f66d16822","bdp_lott","Sun Mar 26 2023 08:08:27 GMT-0500 (Central Daylight Time)","323105","green","red","image-keyboard-response","83","122362","0.0-5.0-1.39","","452","","img/red_lw/choose11.jpg","2","186","red","0.5","0.5","0.5","w","",""
"","","","","60fd80b85dd6b22f66d16822","bdp_lott","Sun Mar 26 2023 08:08:27 GMT-0500 (Central Daylight Time)","323105","green","red","animation","84","123007","0.0-5.0-2.39","","","","","","186","","","","","","[{""stimulus"":""img/red_lw/1.jpg"",""time"":55},{""stimulus"":""img/red_lw/2.jpg"",""time"":111},{""stimulus"":""img/red_lw/3.jpg"",""time"":164},{""stimulus"":""img/red_lw/4.jpg"",""time"":215},{""stimulus"":""img/red_lw/5.jpg"",""time"":269},{""stimulus"":""img/red_lw/6.jpg"",""time"":325},{""stimulus"":""img/red_lw/7.jpg"",""time"":380},{""stimulus"":""img/red_lw/8.jpg"",""time"":435},{""stimulus"":""img/red_lw/9.jpg"",""time"":486},{""stimulus"":""img/red_lw/10.jpg"",""time"":542},{""stimulus"":""img/red_lw/11.jpg"",""time"":595}]","[]"
"","","","choice","60fd80b85dd6b22f66d16822","bdp_lott","Sun Mar 26 2023 08:08:27 GMT-0500 (Central Daylight Time)","323105","green","red","image-keyboard-response","85","123521","0.0-5.0-1.40","","513","","img/red_lw/choose11.jpg","2","185","red","0.5","0.5","0.5","l","",""
"","","","","60fd80b85dd6b22f66d16822","bdp_lott","Sun Mar 26 2023 08:08:27 GMT-0500 (Central Daylight Time)","323105","green","red","animation","86","124162","0.0-5.0-2.40","","","","","","185","","","","","","[{""stimulus"":""img/red_ll/1.jpg"",""time"":55},{""stimulus"":""img/red_ll/2.jpg"",""time"":106},{""stimulus"":""img/red_ll/3.jpg"",""time"":160},{""stimulus"":""img/red_ll/4.jpg"",""time"":211},{""stimulus"":""img/red_ll/5.jpg"",""time"":265},{""stimulus"":""img/red_ll/6.jpg"",""time"":320},{""stimulus"":""img/red_ll/7.jpg"",""time"":371},{""stimulus"":""img/red_ll/8.jpg"",""time"":424},{""stimulus"":""img/red_ll/9.jpg"",""time"":479},{""stimulus"":""img/red_ll/10.jpg"",""time"":534},{""stimulus"":""img/red_ll/11.jpg"",""time"":588}]","[]"
"","","","choice","60fd80b85dd6b22f66d16822","bdp_lott","Sun Mar 26 2023 08:08:27 GMT-0500 (Central Daylight Time)","323105","green","red","image-keyboard-response","87","124641","0.0-5.0-1.41","","478","","img/red_ll/choose11.jpg","1","184","green","0.5","0.5","0.5","l","",""
"","","","","60fd80b85dd6b22f66d16822","bdp_lott","Sun Mar 26 2023 08:08:27 GMT-0500 (Central Daylight Time)","323105","green","red","animation","88","125276","0.0-5.0-2.41","","","","","","184","","","","","","[{""stimulus"":""img/green_ll/1.jpg"",""time"":50},{""stimulus"":""img/green_ll/2.jpg"",""time"":101},{""stimulus"":""img/green_ll/3.jpg"",""time"":156},{""stimulus"":""img/green_ll/4.jpg"",""time"":208},{""stimulus"":""img/green_ll/5.jpg"",""time"":264},{""stimulus"":""img/green_ll/6.jpg"",""time"":317},{""stimulus"":""img/green_ll/7.jpg"",""time"":368},{""stimulus"":""img/green_ll/8.jpg"",""time"":423},{""stimulus"":""img/green_ll/9.jpg"",""time"":477},{""stimulus"":""img/green_ll/10.jpg"",""time"":531},{""stimulus"":""img/green_ll/11.jpg"",""time"":585}]","[]"
"","","","choice","60fd80b85dd6b22f66d16822","bdp_lott","Sun Mar 26 2023 08:08:27 GMT-0500 (Central Daylight Time)","323105","green","red","image-keyboard-response","89","125809","0.0-5.0-1.42","","533","","img/green_ll/choose11.jpg","2","183","red","0.5","0.5","0.5","l","",""
"","","","","60fd80b85dd6b22f66d16822","bdp_lott","Sun Mar 26 2023 08:08:27 GMT-0500 (Central Daylight Time)","323105","green","red","animation","90","126460","0.0-5.0-2.42","","","","","","183","","","","","","[{""stimulus"":""img/red_ll/1.jpg"",""time"":56},{""stimulus"":""img/red_ll/2.jpg"",""time"":111},{""stimulus"":""img/red_ll/3.jpg"",""time"":166},{""stimulus"":""img/red_ll/4.jpg"",""time"":217},{""stimulus"":""img/red_ll/5.jpg"",""time"":269},{""stimulus"":""img/red_ll/6.jpg"",""time"":324},{""stimulus"":""img/red_ll/7.jpg"",""time"":379},{""stimulus"":""img/red_ll/8.jpg"",""time"":433},{""stimulus"":""img/red_ll/9.jpg"",""time"":488},{""stimulus"":""img/red_ll/10.jpg"",""time"":544},{""stimulus"":""img/red_ll/11.jpg"",""time"":597}]","[]"
"","","","choice","60fd80b85dd6b22f66d16822","bdp_lott","Sun Mar 26 2023 08:08:27 GMT-0500 (Central Daylight Time)","323105","green","red","image-keyboard-response","91","126893","0.0-5.0-1.43","","433","","img/red_ll/choose11.jpg","1","182","green","0.5","0.5","0.5","l","",""
"","","","","60fd80b85dd6b22f66d16822","bdp_lott","Sun Mar 26 2023 08:08:27 GMT-0500 (Central Daylight Time)","323105","green","red","animation","92","127536","0.0-5.0-2.43","","","","","","182","","","","","","[{""stimulus"":""img/green_ll/1.jpg"",""time"":55},{""stimulus"":""img/green_ll/2.jpg"",""time"":106},{""stimulus"":""img/green_ll/3.jpg"",""time"":161},{""stimulus"":""img/green_ll/4.jpg"",""time"":215},{""stimulus"":""img/green_ll/5.jpg"",""time"":266},{""stimulus"":""img/green_ll/6.jpg"",""time"":320},{""stimulus"":""img/green_ll/7.jpg"",""time"":374},{""stimulus"":""img/green_ll/8.jpg"",""time"":429},{""stimulus"":""img/green_ll/9.jpg"",""time"":483},{""stimulus"":""img/green_ll/10.jpg"",""time"":533},{""stimulus"":""img/green_ll/11.jpg"",""time"":587}]","[]"
"","","","choice","60fd80b85dd6b22f66d16822","bdp_lott","Sun Mar 26 2023 08:08:27 GMT-0500 (Central Daylight Time)","323105","green","red","image-keyboard-response","93","128030","0.0-5.0-1.44","","492","","img/green_ll/choose11.jpg","2","181","red","0.5","0.5","0.5","w","",""
"","","","","60fd80b85dd6b22f66d16822","bdp_lott","Sun Mar 26 2023 08:08:27 GMT-0500 (Central Daylight Time)","323105","green","red","animation","94","128676","0.0-5.0-2.44","","","","","","181","","","","","","[{""stimulus"":""img/red_lw/1.jpg"",""time"":56},{""stimulus"":""img/red_lw/2.jpg"",""time"":111},{""stimulus"":""img/red_lw/3.jpg"",""time"":162},{""stimulus"":""img/red_lw/4.jpg"",""time"":213},{""stimulus"":""img/red_lw/5.jpg"",""time"":268},{""stimulus"":""img/red_lw/6.jpg"",""time"":323},{""stimulus"":""img/red_lw/7.jpg"",""time"":379},{""stimulus"":""img/red_lw/8.jpg"",""time"":430},{""stimulus"":""img/red_lw/9.jpg"",""time"":485},{""stimulus"":""img/red_lw/10.jpg"",""time"":537},{""stimulus"":""img/red_lw/11.jpg"",""time"":592}]","[]"
"","","","choice","60fd80b85dd6b22f66d16822","bdp_lott","Sun Mar 26 2023 08:08:27 GMT-0500 (Central Daylight Time)","323105","green","red","image-keyboard-response","95","129247","0.0-5.0-1.45","","569","","img/red_lw/choose11.jpg","2","180","red","0.5","0.5","0.5","w","",""
"","","","","60fd80b85dd6b22f66d16822","bdp_lott","Sun Mar 26 2023 08:08:27 GMT-0500 (Central Daylight Time)","323105","green","red","animation","96","129888","0.0-5.0-2.45","","","","","","180","","","","","","[{""stimulus"":""img/red_lw/1.jpg"",""time"":56},{""stimulus"":""img/red_lw/2.jpg"",""time"":108},{""stimulus"":""img/red_lw/3.jpg"",""time"":162},{""stimulus"":""img/red_lw/4.jpg"",""time"":217},{""stimulus"":""img/red_lw/5.jpg"",""time"":272},{""stimulus"":""img/red_lw/6.jpg"",""time"":328},{""stimulus"":""img/red_lw/7.jpg"",""time"":378},{""stimulus"":""img/red_lw/8.jpg"",""time"":428},{""stimulus"":""img/red_lw/9.jpg"",""time"":479},{""stimulus"":""img/red_lw/10.jpg"",""time"":531},{""stimulus"":""img/red_lw/11.jpg"",""time"":586}]","[]"
"","","","choice","60fd80b85dd6b22f66d16822","bdp_lott","Sun Mar 26 2023 08:08:27 GMT-0500 (Central Daylight Time)","323105","green","red","image-keyboard-response","97","130220","0.0-5.0-1.46","","331","","img/red_lw/choose11.jpg","2","179","red","0.5","0.5","0.5","w","",""
"","","","","60fd80b85dd6b22f66d16822","bdp_lott","Sun Mar 26 2023 08:08:27 GMT-0500 (Central Daylight Time)","323105","green","red","animation","98","130868","0.0-5.0-2.46","","","","","","179","","","","","","[{""stimulus"":""img/red_lw/1.jpg"",""time"":56},{""stimulus"":""img/red_lw/2.jpg"",""time"":112},{""stimulus"":""img/red_lw/3.jpg"",""time"":162},{""stimulus"":""img/red_lw/4.jpg"",""time"":216},{""stimulus"":""img/red_lw/5.jpg"",""time"":271},{""stimulus"":""img/red_lw/6.jpg"",""time"":322},{""stimulus"":""img/red_lw/7.jpg"",""time"":378},{""stimulus"":""img/red_lw/8.jpg"",""time"":432},{""stimulus"":""img/red_lw/9.jpg"",""time"":487},{""stimulus"":""img/red_lw/10.jpg"",""time"":539},{""stimulus"":""img/red_lw/11.jpg"",""time"":592}]","[]"
"","","","choice","60fd80b85dd6b22f66d16822","bdp_lott","Sun Mar 26 2023 08:08:27 GMT-0500 (Central Daylight Time)","323105","green","red","image-keyboard-response","99","131340","0.0-5.0-1.47","","471","","img/red_lw/choose11.jpg","2","178","red","0.5","0.5","0.5","l","",""
"","","","","60fd80b85dd6b22f66d16822","bdp_lott","Sun Mar 26 2023 08:08:27 GMT-0500 (Central Daylight Time)","323105","green","red","animation","100","131993","0.0-5.0-2.47","","","","","","178","","","","","","[{""stimulus"":""img/red_ll/1.jpg"",""time"":55},{""stimulus"":""img/red_ll/2.jpg"",""time"":110},{""stimulus"":""img/red_ll/3.jpg"",""time"":165},{""stimulus"":""img/red_ll/4.jpg"",""time"":218},{""stimulus"":""img/red_ll/5.jpg"",""time"":274},{""stimulus"":""img/red_ll/6.jpg"",""time"":329},{""stimulus"":""img/red_ll/7.jpg"",""time"":379},{""stimulus"":""img/red_ll/8.jpg"",""time"":432},{""stimulus"":""img/red_ll/9.jpg"",""time"":487},{""stimulus"":""img/red_ll/10.jpg"",""time"":542},{""stimulus"":""img/red_ll/11.jpg"",""time"":598}]","[]"
"","","","choice","60fd80b85dd6b22f66d16822","bdp_lott","Sun Mar 26 2023 08:08:27 GMT-0500 (Central Daylight Time)","323105","green","red","image-keyboard-response","101","132354","0.0-5.0-1.48","","360","","img/red_ll/choose11.jpg","1","177","green","0.5","0.5","0.5","l","",""
"","","","","60fd80b85dd6b22f66d16822","bdp_lott","Sun Mar 26 2023 08:08:27 GMT-0500 (Central Daylight Time)","323105","green","red","animation","102","133002","0.0-5.0-2.48","","","","","","177","","","","","","[{""stimulus"":""img/green_ll/1.jpg"",""time"":56},{""stimulus"":""img/green_ll/2.jpg"",""time"":111},{""stimulus"":""img/green_ll/3.jpg"",""time"":166},{""stimulus"":""img/green_ll/4.jpg"",""time"":221},{""stimulus"":""img/green_ll/5.jpg"",""time"":272},{""stimulus"":""img/green_ll/6.jpg"",""time"":328},{""stimulus"":""img/green_ll/7.jpg"",""time"":381},{""stimulus"":""img/green_ll/8.jpg"",""time"":435},{""stimulus"":""img/green_ll/9.jpg"",""time"":489},{""stimulus"":""img/green_ll/10.jpg"",""time"":544},{""stimulus"":""img/green_ll/11.jpg"",""time"":595}]","[]"
"","","","choice","60fd80b85dd6b22f66d16822","bdp_lott","Sun Mar 26 2023 08:08:27 GMT-0500 (Central Daylight Time)","323105","green","red","image-keyboard-response","103","133477","0.0-5.0-1.49","","475","","img/green_ll/choose11.jpg","2","176","red","0.5","0.5","0.5","w","",""
"","","","","60fd80b85dd6b22f66d16822","bdp_lott","Sun Mar 26 2023 08:08:27 GMT-0500 (Central Daylight Time)","323105","green","red","animation","104","134120","0.0-5.0-2.49","","","","","","176","","","","","","[{""stimulus"":""img/red_lw/1.jpg"",""time"":56},{""stimulus"":""img/red_lw/2.jpg"",""time"":109},{""stimulus"":""img/red_lw/3.jpg"",""time"":161},{""stimulus"":""img/red_lw/4.jpg"",""time"":215},{""stimulus"":""img/red_lw/5.jpg"",""time"":270},{""stimulus"":""img/red_lw/6.jpg"",""time"":325},{""stimulus"":""img/red_lw/7.jpg"",""time"":381},{""stimulus"":""img/red_lw/8.jpg"",""time"":433},{""stimulus"":""img/red_lw/9.jpg"",""time"":487},{""stimulus"":""img/red_lw/10.jpg"",""time"":538},{""stimulus"":""img/red_lw/11.jpg"",""time"":589}]","[]"
"","","","choice","60fd80b85dd6b22f66d16822","bdp_lott","Sun Mar 26 2023 08:08:27 GMT-0500 (Central Daylight Time)","323105","green","red","image-keyboard-response","105","134547","0.0-5.0-1.50","","427","","img/red_lw/choose11.jpg","2","175","red","0.5","0.5","0.5","l","",""
"","","","","60fd80b85dd6b22f66d16822","bdp_lott","Sun Mar 26 2023 08:08:27 GMT-0500 (Central Daylight Time)","323105","green","red","animation","106","135184","0.0-5.0-2.50","","","","","","175","","","","","","[{""stimulus"":""img/red_ll/1.jpg"",""time"":52},{""stimulus"":""img/red_ll/2.jpg"",""time"":107},{""stimulus"":""img/red_ll/3.jpg"",""time"":158},{""stimulus"":""img/red_ll/4.jpg"",""time"":212},{""stimulus"":""img/red_ll/5.jpg"",""time"":268},{""stimulus"":""img/red_ll/6.jpg"",""time"":323},{""stimulus"":""img/red_ll/7.jpg"",""time"":378},{""stimulus"":""img/red_ll/8.jpg"",""time"":429},{""stimulus"":""img/red_ll/9.jpg"",""time"":479},{""stimulus"":""img/red_ll/10.jpg"",""time"":530},{""stimulus"":""img/red_ll/11.jpg"",""time"":582}]","[]"
"","","","choice","60fd80b85dd6b22f66d16822","bdp_lott","Sun Mar 26 2023 08:08:27 GMT-0500 (Central Daylight Time)","323105","green","red","image-keyboard-response","107","135562","0.0-5.0-1.51","","377","","img/red_ll/choose11.jpg","2","174","red","0.5","0.5","0.5","w","",""
"","","","","60fd80b85dd6b22f66d16822","bdp_lott","Sun Mar 26 2023 08:08:27 GMT-0500 (Central Daylight Time)","323105","green","red","animation","108","136198","0.0-5.0-2.51","","","","","","174","","","","","","[{""stimulus"":""img/red_lw/1.jpg"",""time"":52},{""stimulus"":""img/red_lw/2.jpg"",""time"":102},{""stimulus"":""img/red_lw/3.jpg"",""time"":158},{""stimulus"":""img/red_lw/4.jpg"",""time"":209},{""stimulus"":""img/red_lw/5.jpg"",""time"":260},{""stimulus"":""img/red_lw/6.jpg"",""time"":315},{""stimulus"":""img/red_lw/7.jpg"",""time"":364},{""stimulus"":""img/red_lw/8.jpg"",""time"":420},{""stimulus"":""img/red_lw/9.jpg"",""time"":476},{""stimulus"":""img/red_lw/10.jpg"",""time"":530},{""stimulus"":""img/red_lw/11.jpg"",""time"":582}]","[]"
"","","","choice","60fd80b85dd6b22f66d16822","bdp_lott","Sun Mar 26 2023 08:08:27 GMT-0500 (Central Daylight Time)","323105","green","red","image-keyboard-response","109","136473","0.0-5.0-1.52","","274","","img/red_lw/choose11.jpg","1","173","green","0.5","0.5","0.5","w","",""
"","","","","60fd80b85dd6b22f66d16822","bdp_lott","Sun Mar 26 2023 08:08:27 GMT-0500 (Central Daylight Time)","323105","green","red","animation","110","137122","0.0-5.0-2.52","","","","","","173","","","","","","[{""stimulus"":""img/green_ww/1.jpg"",""time"":52},{""stimulus"":""img/green_ww/2.jpg"",""time"":105},{""stimulus"":""img/green_ww/3.jpg"",""time"":161},{""stimulus"":""img/green_ww/4.jpg"",""time"":215},{""stimulus"":""img/green_ww/5.jpg"",""time"":270},{""stimulus"":""img/green_ww/6.jpg"",""time"":325},{""stimulus"":""img/green_ww/7.jpg"",""time"":380},{""stimulus"":""img/green_ww/8.jpg"",""time"":434},{""stimulus"":""img/green_ww/9.jpg"",""time"":487},{""stimulus"":""img/green_ww/10.jpg"",""time"":542},{""stimulus"":""img/green_ww/11.jpg"",""time"":594}]","[]"
"","","","choice","60fd80b85dd6b22f66d16822","bdp_lott","Sun Mar 26 2023 08:08:27 GMT-0500 (Central Daylight Time)","323105","green","red","image-keyboard-response","111","137313","0.0-5.0-1.53","","190","","img/green_ww/choose11.jpg","2","172","red","0.5","0.5","0.5","w","",""
"","","","","60fd80b85dd6b22f66d16822","bdp_lott","Sun Mar 26 2023 08:08:27 GMT-0500 (Central Daylight Time)","323105","green","red","animation","112","137957","0.0-5.0-2.53","","","","","","172","","","","","","[{""stimulus"":""img/red_ww/1.jpg"",""time"":57},{""stimulus"":""img/red_ww/2.jpg"",""time"":112},{""stimulus"":""img/red_ww/3.jpg"",""time"":164},{""stimulus"":""img/red_ww/4.jpg"",""time"":219},{""stimulus"":""img/red_ww/5.jpg"",""time"":274},{""stimulus"":""img/red_ww/6.jpg"",""time"":330},{""stimulus"":""img/red_ww/7.jpg"",""time"":379},{""stimulus"":""img/red_ww/8.jpg"",""time"":431},{""stimulus"":""img/red_ww/9.jpg"",""time"":481},{""stimulus"":""img/red_ww/10.jpg"",""time"":535},{""stimulus"":""img/red_ww/11.jpg"",""time"":590}]","[]"
"","","","choice","60fd80b85dd6b22f66d16822","bdp_lott","Sun Mar 26 2023 08:08:27 GMT-0500 (Central Daylight Time)","323105","green","red","image-keyboard-response","113","138316","0.0-5.0-1.54","","358","","img/red_ww/choose11.jpg","1","171","green","0.5","0.5","0.5","w","",""
"","","","","60fd80b85dd6b22f66d16822","bdp_lott","Sun Mar 26 2023 08:08:27 GMT-0500 (Central Daylight Time)","323105","green","red","animation","114","138949","0.0-5.0-2.54","","","","","","171","","","","","","[{""stimulus"":""img/green_ww/1.jpg"",""time"":53},{""stimulus"":""img/green_ww/2.jpg"",""time"":108},{""stimulus"":""img/green_ww/3.jpg"",""time"":160},{""stimulus"":""img/green_ww/4.jpg"",""time"":209},{""stimulus"":""img/green_ww/5.jpg"",""time"":260},{""stimulus"":""img/green_ww/6.jpg"",""time"":311},{""stimulus"":""img/green_ww/7.jpg"",""time"":366},{""stimulus"":""img/green_ww/8.jpg"",""time"":419},{""stimulus"":""img/green_ww/9.jpg"",""time"":474},{""stimulus"":""img/green_ww/10.jpg"",""time"":526},{""stimulus"":""img/green_ww/11.jpg"",""time"":576}]","[]"
"","","","choice","60fd80b85dd6b22f66d16822","bdp_lott","Sun Mar 26 2023 08:08:27 GMT-0500 (Central Daylight Time)","323105","green","red","image-keyboard-response","115","139285","0.0-5.0-1.55","","336","","img/green_ww/choose11.jpg","2","170","red","0.5","0.5","0.5","l","",""
"","","","","60fd80b85dd6b22f66d16822","bdp_lott","Sun Mar 26 2023 08:08:27 GMT-0500 (Central Daylight Time)","323105","green","red","animation","116","139926","0.0-5.0-2.55","","","","","","170","","","","","","[{""stimulus"":""img/red_wl/1.jpg"",""time"":53},{""stimulus"":""img/red_wl/2.jpg"",""time"":108},{""stimulus"":""img/red_wl/3.jpg"",""time"":163},{""stimulus"":""img/red_wl/4.jpg"",""time"":213},{""stimulus"":""img/red_wl/5.jpg"",""time"":269},{""stimulus"":""img/red_wl/6.jpg"",""time"":324},{""stimulus"":""img/red_wl/7.jpg"",""time"":375},{""stimulus"":""img/red_wl/8.jpg"",""time"":425},{""stimulus"":""img/red_wl/9.jpg"",""time"":481},{""stimulus"":""img/red_wl/10.jpg"",""time"":532},{""stimulus"":""img/red_wl/11.jpg"",""time"":587}]","[]"
"","","","choice","60fd80b85dd6b22f66d16822","bdp_lott","Sun Mar 26 2023 08:08:27 GMT-0500 (Central Daylight Time)","323105","green","red","image-keyboard-response","117","140387","0.0-5.0-1.56","","461","","img/red_wl/choose11.jpg","1","169","green","0.5","0.5","0.5","l","",""
"","","","","60fd80b85dd6b22f66d16822","bdp_lott","Sun Mar 26 2023 08:08:27 GMT-0500 (Central Daylight Time)","323105","green","red","animation","118","141026","0.0-5.0-2.56","","","","","","169","","","","","","[{""stimulus"":""img/green_ll/1.jpg"",""time"":55},{""stimulus"":""img/green_ll/2.jpg"",""time"":105},{""stimulus"":""img/green_ll/3.jpg"",""time"":160},{""stimulus"":""img/green_ll/4.jpg"",""time"":215},{""stimulus"":""img/green_ll/5.jpg"",""time"":270},{""stimulus"":""img/green_ll/6.jpg"",""time"":322},{""stimulus"":""img/green_ll/7.jpg"",""time"":377},{""stimulus"":""img/green_ll/8.jpg"",""time"":429},{""stimulus"":""img/green_ll/9.jpg"",""time"":481},{""stimulus"":""img/green_ll/10.jpg"",""time"":536},{""stimulus"":""img/green_ll/11.jpg"",""time"":586}]","[]"
"","","","choice","60fd80b85dd6b22f66d16822","bdp_lott","Sun Mar 26 2023 08:08:27 GMT-0500 (Central Daylight Time)","323105","green","red","image-keyboard-response","119","141279","0.0-5.0-1.57","","252","","img/green_ll/choose11.jpg","1","168","green","0.5","0.5","0.5","w","",""
"","","","","60fd80b85dd6b22f66d16822","bdp_lott","Sun Mar 26 2023 08:08:27 GMT-0500 (Central Daylight Time)","323105","green","red","animation","120","141923","0.0-5.0-2.57","","","","","","168","","","","","","[{""stimulus"":""img/green_wl/1.jpg"",""time"":51},{""stimulus"":""img/green_wl/2.jpg"",""time"":104},{""stimulus"":""img/green_wl/3.jpg"",""time"":159},{""stimulus"":""img/green_wl/4.jpg"",""time"":213},{""stimulus"":""img/green_wl/5.jpg"",""time"":265},{""stimulus"":""img/green_wl/6.jpg"",""time"":320},{""stimulus"":""img/green_wl/7.jpg"",""time"":371},{""stimulus"":""img/green_wl/8.jpg"",""time"":426},{""stimulus"":""img/green_wl/9.jpg"",""time"":480},{""stimulus"":""img/green_wl/10.jpg"",""time"":535},{""stimulus"":""img/green_wl/11.jpg"",""time"":590}]","[]"
"","","","choice","60fd80b85dd6b22f66d16822","bdp_lott","Sun Mar 26 2023 08:08:27 GMT-0500 (Central Daylight Time)","323105","green","red","image-keyboard-response","121","142138","0.0-5.0-1.58","","214","","img/green_wl/choose11.jpg","2","167","red","0.5","0.5","0.5","w","",""
"","","","","60fd80b85dd6b22f66d16822","bdp_lott","Sun Mar 26 2023 08:08:27 GMT-0500 (Central Daylight Time)","323105","green","red","animation","122","142785","0.0-5.0-2.58","","","","","","167","","","","","","[{""stimulus"":""img/red_ww/1.jpg"",""time"":54},{""stimulus"":""img/red_ww/2.jpg"",""time"":105},{""stimulus"":""img/red_ww/3.jpg"",""time"":159},{""stimulus"":""img/red_ww/4.jpg"",""time"":214},{""stimulus"":""img/red_ww/5.jpg"",""time"":270},{""stimulus"":""img/red_ww/6.jpg"",""time"":322},{""stimulus"":""img/red_ww/7.jpg"",""time"":377},{""stimulus"":""img/red_ww/8.jpg"",""time"":429},{""stimulus"":""img/red_ww/9.jpg"",""time"":485},{""stimulus"":""img/red_ww/10.jpg"",""time"":538},{""stimulus"":""img/red_ww/11.jpg"",""time"":592}]","[]"
"","","","choice","60fd80b85dd6b22f66d16822","bdp_lott","Sun Mar 26 2023 08:08:27 GMT-0500 (Central Daylight Time)","323105","green","red","image-keyboard-response","123","143086","0.0-5.0-1.59","","301","","img/red_ww/choose11.jpg","1","166","green","0.5","0.5","0.5","l","",""
"","","","","60fd80b85dd6b22f66d16822","bdp_lott","Sun Mar 26 2023 08:08:27 GMT-0500 (Central Daylight Time)","323105","green","red","animation","124","143732","0.0-5.0-2.59","","","","","","166","","","","","","[{""stimulus"":""img/green_lw/1.jpg"",""time"":52},{""stimulus"":""img/green_lw/2.jpg"",""time"":105},{""stimulus"":""img/green_lw/3.jpg"",""time"":157},{""stimulus"":""img/green_lw/4.jpg"",""time"":212},{""stimulus"":""img/green_lw/5.jpg"",""time"":267},{""stimulus"":""img/green_lw/6.jpg"",""time"":323},{""stimulus"":""img/green_lw/7.jpg"",""time"":373},{""stimulus"":""img/green_lw/8.jpg"",""time"":429},{""stimulus"":""img/green_lw/9.jpg"",""time"":480},{""stimulus"":""img/green_lw/10.jpg"",""time"":535},{""stimulus"":""img/green_lw/11.jpg"",""time"":589}]","[]"
"","","","choice","60fd80b85dd6b22f66d16822","bdp_lott","Sun Mar 26 2023 08:08:27 GMT-0500 (Central Daylight Time)","323105","green","red","image-keyboard-response","125","144048","0.0-5.0-1.60","","316","","img/green_lw/choose11.jpg","2","165","red","0.5","0.5","0.5","l","",""
"","","","","60fd80b85dd6b22f66d16822","bdp_lott","Sun Mar 26 2023 08:08:27 GMT-0500 (Central Daylight Time)","323105","green","red","animation","126","144698","0.0-5.0-2.60","","","","","","165","","","","","","[{""stimulus"":""img/red_ll/1.jpg"",""time"":51},{""stimulus"":""img/red_ll/2.jpg"",""time"":107},{""stimulus"":""img/red_ll/3.jpg"",""time"":160},{""stimulus"":""img/red_ll/4.jpg"",""time"":215},{""stimulus"":""img/red_ll/5.jpg"",""time"":267},{""stimulus"":""img/red_ll/6.jpg"",""time"":318},{""stimulus"":""img/red_ll/7.jpg"",""time"":374},{""stimulus"":""img/red_ll/8.jpg"",""time"":427},{""stimulus"":""img/red_ll/9.jpg"",""time"":482},{""stimulus"":""img/red_ll/10.jpg"",""time"":537},{""stimulus"":""img/red_ll/11.jpg"",""time"":592}]","[]"
"","","","choice","60fd80b85dd6b22f66d16822","bdp_lott","Sun Mar 26 2023 08:08:27 GMT-0500 (Central Daylight Time)","323105","green","red","image-keyboard-response","127","145178","0.0-5.0-1.61","","480","","img/red_ll/choose11.jpg","2","164","red","0.5","0.5","0.5","w","",""
"","","","","60fd80b85dd6b22f66d16822","bdp_lott","Sun Mar 26 2023 08:08:27 GMT-0500 (Central Daylight Time)","323105","green","red","animation","128","145827","0.0-5.0-2.61","","","","","","164","","","","","","[{""stimulus"":""img/red_lw/1.jpg"",""time"":52},{""stimulus"":""img/red_lw/2.jpg"",""time"":106},{""stimulus"":""img/red_lw/3.jpg"",""time"":160},{""stimulus"":""img/red_lw/4.jpg"",""time"":214},{""stimulus"":""img/red_lw/5.jpg"",""time"":270},{""stimulus"":""img/red_lw/6.jpg"",""time"":325},{""stimulus"":""img/red_lw/7.jpg"",""time"":380},{""stimulus"":""img/red_lw/8.jpg"",""time"":432},{""stimulus"":""img/red_lw/9.jpg"",""time"":487},{""stimulus"":""img/red_lw/10.jpg"",""time"":542},{""stimulus"":""img/red_lw/11.jpg"",""time"":596}]","[]"
"","","","choice","60fd80b85dd6b22f66d16822","bdp_lott","Sun Mar 26 2023 08:08:27 GMT-0500 (Central Daylight Time)","323105","green","red","image-keyboard-response","129","146112","0.0-5.0-1.62","","285","","img/red_lw/choose11.jpg","1","163","green","0.5","0.5","0.5","l","",""
"","","","","60fd80b85dd6b22f66d16822","bdp_lott","Sun Mar 26 2023 08:08:27 GMT-0500 (Central Daylight Time)","323105","green","red","animation","130","146756","0.0-5.0-2.62","","","","","","163","","","","","","[{""stimulus"":""img/green_lw/1.jpg"",""time"":51},{""stimulus"":""img/green_lw/2.jpg"",""time"":105},{""stimulus"":""img/green_lw/3.jpg"",""time"":158},{""stimulus"":""img/green_lw/4.jpg"",""time"":212},{""stimulus"":""img/green_lw/5.jpg"",""time"":264},{""stimulus"":""img/green_lw/6.jpg"",""time"":319},{""stimulus"":""img/green_lw/7.jpg"",""time"":374},{""stimulus"":""img/green_lw/8.jpg"",""time"":429},{""stimulus"":""img/green_lw/9.jpg"",""time"":481},{""stimulus"":""img/green_lw/10.jpg"",""time"":533},{""stimulus"":""img/green_lw/11.jpg"",""time"":589}]","[]"
"","","","choice","60fd80b85dd6b22f66d16822","bdp_lott","Sun Mar 26 2023 08:08:27 GMT-0500 (Central Daylight Time)","323105","green","red","image-keyboard-response","131","147077","0.0-5.0-1.63","","319","","img/green_lw/choose11.jpg","2","162","red","0.5","0.5","0.5","l","",""
"","","","","60fd80b85dd6b22f66d16822","bdp_lott","Sun Mar 26 2023 08:08:27 GMT-0500 (Central Daylight Time)","323105","green","red","animation","132","147719","0.0-5.0-2.63","","","","","","162","","","","","","[{""stimulus"":""img/red_ll/1.jpg"",""time"":51},{""stimulus"":""img/red_ll/2.jpg"",""time"":106},{""stimulus"":""img/red_ll/3.jpg"",""time"":159},{""stimulus"":""img/red_ll/4.jpg"",""time"":214},{""stimulus"":""img/red_ll/5.jpg"",""time"":264},{""stimulus"":""img/red_ll/6.jpg"",""time"":316},{""stimulus"":""img/red_ll/7.jpg"",""time"":371},{""stimulus"":""img/red_ll/8.jpg"",""time"":426},{""stimulus"":""img/red_ll/9.jpg"",""time"":481},{""stimulus"":""img/red_ll/10.jpg"",""time"":533},{""stimulus"":""img/red_ll/11.jpg"",""time"":587}]","[]"
"","","","choice","60fd80b85dd6b22f66d16822","bdp_lott","Sun Mar 26 2023 08:08:27 GMT-0500 (Central Daylight Time)","323105","green","red","image-keyboard-response","133","148198","0.0-5.0-1.64","","479","","img/red_ll/choose11.jpg","1","161","green","0.5","0.5","0.5","l","",""
"","","","","60fd80b85dd6b22f66d16822","bdp_lott","Sun Mar 26 2023 08:08:27 GMT-0500 (Central Daylight Time)","323105","green","red","animation","134","148827","0.0-5.0-2.64","","","","","","161","","","","","","[{""stimulus"":""img/green_ll/1.jpg"",""time"":53},{""stimulus"":""img/green_ll/2.jpg"",""time"":104},{""stimulus"":""img/green_ll/3.jpg"",""time"":155},{""stimulus"":""img/green_ll/4.jpg"",""time"":206},{""stimulus"":""img/green_ll/5.jpg"",""time"":262},{""stimulus"":""img/green_ll/6.jpg"",""time"":313},{""stimulus"":""img/green_ll/7.jpg"",""time"":366},{""stimulus"":""img/green_ll/8.jpg"",""time"":417},{""stimulus"":""img/green_ll/9.jpg"",""time"":471},{""stimulus"":""img/green_ll/10.jpg"",""time"":526},{""stimulus"":""img/green_ll/11.jpg"",""time"":579}]","[]"
"","","","choice","60fd80b85dd6b22f66d16822","bdp_lott","Sun Mar 26 2023 08:08:27 GMT-0500 (Central Daylight Time)","323105","green","red","image-keyboard-response","135","149245","0.0-5.0-1.65","","418","","img/green_ll/choose11.jpg","2","160","red","0.5","0.5","0.5","l","",""
"","","","","60fd80b85dd6b22f66d16822","bdp_lott","Sun Mar 26 2023 08:08:27 GMT-0500 (Central Daylight Time)","323105","green","red","animation","136","149891","0.0-5.0-2.65","","","","","","160","","","","","","[{""stimulus"":""img/red_ll/1.jpg"",""time"":56},{""stimulus"":""img/red_ll/2.jpg"",""time"":112},{""stimulus"":""img/red_ll/3.jpg"",""time"":165},{""stimulus"":""img/red_ll/4.jpg"",""time"":220},{""stimulus"":""img/red_ll/5.jpg"",""time"":276},{""stimulus"":""img/red_ll/6.jpg"",""time"":331},{""stimulus"":""img/red_ll/7.jpg"",""time"":381},{""stimulus"":""img/red_ll/8.jpg"",""time"":431},{""stimulus"":""img/red_ll/9.jpg"",""time"":483},{""stimulus"":""img/red_ll/10.jpg"",""time"":537},{""stimulus"":""img/red_ll/11.jpg"",""time"":590}]","[]"
"","","","choice","60fd80b85dd6b22f66d16822","bdp_lott","Sun Mar 26 2023 08:08:27 GMT-0500 (Central Daylight Time)","323105","green","red","image-keyboard-response","137","150191","0.0-5.0-1.66","","300","","img/red_ll/choose11.jpg","1","159","green","0.5","0.5","0.5","l","",""
"","","","","60fd80b85dd6b22f66d16822","bdp_lott","Sun Mar 26 2023 08:08:27 GMT-0500 (Central Daylight Time)","323105","green","red","animation","138","150832","0.0-5.0-2.66","","","","","","159","","","","","","[{""stimulus"":""img/green_ll/1.jpg"",""time"":54},{""stimulus"":""img/green_ll/2.jpg"",""time"":108},{""stimulus"":""img/green_ll/3.jpg"",""time"":158},{""stimulus"":""img/green_ll/4.jpg"",""time"":213},{""stimulus"":""img/green_ll/5.jpg"",""time"":268},{""stimulus"":""img/green_ll/6.jpg"",""time"":321},{""stimulus"":""img/green_ll/7.jpg"",""time"":375},{""stimulus"":""img/green_ll/8.jpg"",""time"":427},{""stimulus"":""img/green_ll/9.jpg"",""time"":482},{""stimulus"":""img/green_ll/10.jpg"",""time"":533},{""stimulus"":""img/green_ll/11.jpg"",""time"":585}]","[]"
"","","","choice","60fd80b85dd6b22f66d16822","bdp_lott","Sun Mar 26 2023 08:08:27 GMT-0500 (Central Daylight Time)","323105","green","red","image-keyboard-response","139","151259","0.0-5.0-1.67","","427","","img/green_ll/choose11.jpg","2","158","red","0.5","0.5","0.5","w","",""
"","","","","60fd80b85dd6b22f66d16822","bdp_lott","Sun Mar 26 2023 08:08:27 GMT-0500 (Central Daylight Time)","323105","green","red","animation","140","151901","0.0-5.0-2.67","","","","","","158","","","","","","[{""stimulus"":""img/red_lw/1.jpg"",""time"":52},{""stimulus"":""img/red_lw/2.jpg"",""time"":107},{""stimulus"":""img/red_lw/3.jpg"",""time"":161},{""stimulus"":""img/red_lw/4.jpg"",""time"":213},{""stimulus"":""img/red_lw/5.jpg"",""time"":267},{""stimulus"":""img/red_lw/6.jpg"",""time"":322},{""stimulus"":""img/red_lw/7.jpg"",""time"":372},{""stimulus"":""img/red_lw/8.jpg"",""time"":424},{""stimulus"":""img/red_lw/9.jpg"",""time"":479},{""stimulus"":""img/red_lw/10.jpg"",""time"":534},{""stimulus"":""img/red_lw/11.jpg"",""time"":585}]","[]"
"","","","choice","60fd80b85dd6b22f66d16822","bdp_lott","Sun Mar 26 2023 08:08:27 GMT-0500 (Central Daylight Time)","323105","green","red","image-keyboard-response","141","152178","0.0-5.0-1.68","","276","","img/red_lw/choose11.jpg","1","157","green","0.5","0.5","0.5","l","",""
"","","","","60fd80b85dd6b22f66d16822","bdp_lott","Sun Mar 26 2023 08:08:27 GMT-0500 (Central Daylight Time)","323105","green","red","animation","142","152826","0.0-5.0-2.68","","","","","","157","","","","","","[{""stimulus"":""img/green_lw/1.jpg"",""time"":50},{""stimulus"":""img/green_lw/2.jpg"",""time"":106},{""stimulus"":""img/green_lw/3.jpg"",""time"":160},{""stimulus"":""img/green_lw/4.jpg"",""time"":215},{""stimulus"":""img/green_lw/5.jpg"",""time"":269},{""stimulus"":""img/green_lw/6.jpg"",""time"":325},{""stimulus"":""img/green_lw/7.jpg"",""time"":380},{""stimulus"":""img/green_lw/8.jpg"",""time"":431},{""stimulus"":""img/green_lw/9.jpg"",""time"":484},{""stimulus"":""img/green_lw/10.jpg"",""time"":540},{""stimulus"":""img/green_lw/11.jpg"",""time"":594}]","[]"
"","","","choice","60fd80b85dd6b22f66d16822","bdp_lott","Sun Mar 26 2023 08:08:27 GMT-0500 (Central Daylight Time)","323105","green","red","image-keyboard-response","143","153115","0.0-5.0-1.69","","288","","img/green_lw/choose11.jpg","2","156","red","0.5","0.5","0.5","l","",""
"","","","","60fd80b85dd6b22f66d16822","bdp_lott","Sun Mar 26 2023 08:08:27 GMT-0500 (Central Daylight Time)","323105","green","red","animation","144","153755","0.0-5.0-2.69","","","","","","156","","","","","","[{""stimulus"":""img/red_ll/1.jpg"",""time"":55},{""stimulus"":""img/red_ll/2.jpg"",""time"":111},{""stimulus"":""img/red_ll/3.jpg"",""time"":162},{""stimulus"":""img/red_ll/4.jpg"",""time"":216},{""stimulus"":""img/red_ll/5.jpg"",""time"":272},{""stimulus"":""img/red_ll/6.jpg"",""time"":327},{""stimulus"":""img/red_ll/7.jpg"",""time"":378},{""stimulus"":""img/red_ll/8.jpg"",""time"":434},{""stimulus"":""img/red_ll/9.jpg"",""time"":486},{""stimulus"":""img/red_ll/10.jpg"",""time"":539},{""stimulus"":""img/red_ll/11.jpg"",""time"":589}]","[]"
"","","","choice","60fd80b85dd6b22f66d16822","bdp_lott","Sun Mar 26 2023 08:08:27 GMT-0500 (Central Daylight Time)","323105","green","red","image-keyboard-response","145","154312","0.0-5.0-1.70","","557","","img/red_ll/choose11.jpg","1","155","green","0.5","0.5","0.5","l","",""
"","","","","60fd80b85dd6b22f66d16822","bdp_lott","Sun Mar 26 2023 08:08:27 GMT-0500 (Central Daylight Time)","323105","green","red","animation","146","154952","0.0-5.0-2.70","","","","","","155","","","","","","[{""stimulus"":""img/green_ll/1.jpg"",""time"":52},{""stimulus"":""img/green_ll/2.jpg"",""time"":108},{""stimulus"":""img/green_ll/3.jpg"",""time"":163},{""stimulus"":""img/green_ll/4.jpg"",""time"":215},{""stimulus"":""img/green_ll/5.jpg"",""time"":264},{""stimulus"":""img/green_ll/6.jpg"",""time"":315},{""stimulus"":""img/green_ll/7.jpg"",""time"":370},{""stimulus"":""img/green_ll/8.jpg"",""time"":426},{""stimulus"":""img/green_ll/9.jpg"",""time"":480},{""stimulus"":""img/green_ll/10.jpg"",""time"":532},{""stimulus"":""img/green_ll/11.jpg"",""time"":587}]","[]"
"","","","choice","60fd80b85dd6b22f66d16822","bdp_lott","Sun Mar 26 2023 08:08:27 GMT-0500 (Central Daylight Time)","323105","green","red","image-keyboard-response","147","155361","0.0-5.0-1.71","","407","","img/green_ll/choose11.jpg","2","154","red","0.5","0.5","0.5","w","",""
"","","","","60fd80b85dd6b22f66d16822","bdp_lott","Sun Mar 26 2023 08:08:27 GMT-0500 (Central Daylight Time)","323105","green","red","animation","148","156009","0.0-5.0-2.71","","","","","","154","","","","","","[{""stimulus"":""img/red_lw/1.jpg"",""time"":56},{""stimulus"":""img/red_lw/2.jpg"",""time"":106},{""stimulus"":""img/red_lw/3.jpg"",""time"":162},{""stimulus"":""img/red_lw/4.jpg"",""time"":215},{""stimulus"":""img/red_lw/5.jpg"",""time"":271},{""stimulus"":""img/red_lw/6.jpg"",""time"":326},{""stimulus"":""img/red_lw/7.jpg"",""time"":376},{""stimulus"":""img/red_lw/8.jpg"",""time"":432},{""stimulus"":""img/red_lw/9.jpg"",""time"":482},{""stimulus"":""img/red_lw/10.jpg"",""time"":538},{""stimulus"":""img/red_lw/11.jpg"",""time"":592}]","[]"
"","","","choice","60fd80b85dd6b22f66d16822","bdp_lott","Sun Mar 26 2023 08:08:27 GMT-0500 (Central Daylight Time)","323105","green","red","image-keyboard-response","149","156398","0.0-5.0-1.72","","389","","img/red_lw/choose11.jpg","2","153","red","0.5","0.5","0.5","l","",""
"","","","","60fd80b85dd6b22f66d16822","bdp_lott","Sun Mar 26 2023 08:08:27 GMT-0500 (Central Daylight Time)","323105","green","red","animation","150","157048","0.0-5.0-2.72","","","","","","153","","","","","","[{""stimulus"":""img/red_ll/1.jpg"",""time"":56},{""stimulus"":""img/red_ll/2.jpg"",""time"":110},{""stimulus"":""img/red_ll/3.jpg"",""time"":162},{""stimulus"":""img/red_ll/4.jpg"",""time"":217},{""stimulus"":""img/red_ll/5.jpg"",""time"":272},{""stimulus"":""img/red_ll/6.jpg"",""time"":327},{""stimulus"":""img/red_ll/7.jpg"",""time"":379},{""stimulus"":""img/red_ll/8.jpg"",""time"":430},{""stimulus"":""img/red_ll/9.jpg"",""time"":486},{""stimulus"":""img/red_ll/10.jpg"",""time"":541},{""stimulus"":""img/red_ll/11.jpg"",""time"":596}]","[]"
"","","","choice","60fd80b85dd6b22f66d16822","bdp_lott","Sun Mar 26 2023 08:08:27 GMT-0500 (Central Daylight Time)","323105","green","red","image-keyboard-response","151","157440","0.0-5.0-1.73","","390","","img/red_ll/choose11.jpg","1","152","green","0.5","0.5","0.5","l","",""
"","","","","60fd80b85dd6b22f66d16822","bdp_lott","Sun Mar 26 2023 08:08:27 GMT-0500 (Central Daylight Time)","323105","green","red","animation","152","158094","0.0-5.0-2.73","","","","","","152","","","","","","[{""stimulus"":""img/green_ll/1.jpg"",""time"":56},{""stimulus"":""img/green_ll/2.jpg"",""time"":112},{""stimulus"":""img/green_ll/3.jpg"",""time"":166},{""stimulus"":""img/green_ll/4.jpg"",""time"":220},{""stimulus"":""img/green_ll/5.jpg"",""time"":275},{""stimulus"":""img/green_ll/6.jpg"",""time"":329},{""stimulus"":""img/green_ll/7.jpg"",""time"":383},{""stimulus"":""img/green_ll/8.jpg"",""time"":436},{""stimulus"":""img/green_ll/9.jpg"",""time"":492},{""stimulus"":""img/green_ll/10.jpg"",""time"":547},{""stimulus"":""img/green_ll/11.jpg"",""time"":603}]","[]"
"","","","choice","60fd80b85dd6b22f66d16822","bdp_lott","Sun Mar 26 2023 08:08:27 GMT-0500 (Central Daylight Time)","323105","green","red","image-keyboard-response","153","158632","0.0-5.0-1.74","","537","","img/green_ll/choose11.jpg","2","151","red","0.5","0.5","0.5","l","",""
"","","","","60fd80b85dd6b22f66d16822","bdp_lott","Sun Mar 26 2023 08:08:27 GMT-0500 (Central Daylight Time)","323105","green","red","animation","154","159277","0.0-5.0-2.74","","","","","","151","","","","","","[{""stimulus"":""img/red_ll/1.jpg"",""time"":55},{""stimulus"":""img/red_ll/2.jpg"",""time"":110},{""stimulus"":""img/red_ll/3.jpg"",""time"":160},{""stimulus"":""img/red_ll/4.jpg"",""time"":214},{""stimulus"":""img/red_ll/5.jpg"",""time"":269},{""stimulus"":""img/red_ll/6.jpg"",""time"":324},{""stimulus"":""img/red_ll/7.jpg"",""time"":377},{""stimulus"":""img/red_ll/8.jpg"",""time"":433},{""stimulus"":""img/red_ll/9.jpg"",""time"":483},{""stimulus"":""img/red_ll/10.jpg"",""time"":539},{""stimulus"":""img/red_ll/11.jpg"",""time"":592}]","[]"
"","","","choice","60fd80b85dd6b22f66d16822","bdp_lott","Sun Mar 26 2023 08:08:27 GMT-0500 (Central Daylight Time)","323105","green","red","image-keyboard-response","155","159695","0.0-5.0-1.75","","418","","img/red_ll/choose11.jpg","1","150","green","0.5","0.5","0.5","w","",""
"","","","","60fd80b85dd6b22f66d16822","bdp_lott","Sun Mar 26 2023 08:08:27 GMT-0500 (Central Daylight Time)","323105","green","red","animation","156","160343","0.0-5.0-2.75","","","","","","150","","","","","","[{""stimulus"":""img/green_wl/1.jpg"",""time"":56},{""stimulus"":""img/green_wl/2.jpg"",""time"":109},{""stimulus"":""img/green_wl/3.jpg"",""time"":164},{""stimulus"":""img/green_wl/4.jpg"",""time"":219},{""stimulus"":""img/green_wl/5.jpg"",""time"":274},{""stimulus"":""img/green_wl/6.jpg"",""time"":330},{""stimulus"":""img/green_wl/7.jpg"",""time"":385},{""stimulus"":""img/green_wl/8.jpg"",""time"":440},{""stimulus"":""img/green_wl/9.jpg"",""time"":495},{""stimulus"":""img/green_wl/10.jpg"",""time"":546},{""stimulus"":""img/green_wl/11.jpg"",""time"":597}]","[]"
"","","","choice","60fd80b85dd6b22f66d16822","bdp_lott","Sun Mar 26 2023 08:08:27 GMT-0500 (Central Daylight Time)","323105","green","red","image-keyboard-response","157","160993","0.0-5.0-1.76","","649","","img/green_wl/choose11.jpg","2","149","red","0.5","0.1","0.1","l","",""
"","","","","60fd80b85dd6b22f66d16822","bdp_lott","Sun Mar 26 2023 08:08:27 GMT-0500 (Central Daylight Time)","323105","green","red","animation","158","161628","0.0-5.0-2.76","","","","","","149","","","","","","[{""stimulus"":""img/red_wl/1.jpg"",""time"":51},{""stimulus"":""img/red_wl/2.jpg"",""time"":106},{""stimulus"":""img/red_wl/3.jpg"",""time"":161},{""stimulus"":""img/red_wl/4.jpg"",""time"":213},{""stimulus"":""img/red_wl/5.jpg"",""time"":266},{""stimulus"":""img/red_wl/6.jpg"",""time"":320},{""stimulus"":""img/red_wl/7.jpg"",""time"":375},{""stimulus"":""img/red_wl/8.jpg"",""time"":431},{""stimulus"":""img/red_wl/9.jpg"",""time"":483},{""stimulus"":""img/red_wl/10.jpg"",""time"":533},{""stimulus"":""img/red_wl/11.jpg"",""time"":583}]","[]"
"","","","choice","60fd80b85dd6b22f66d16822","bdp_lott","Sun Mar 26 2023 08:08:27 GMT-0500 (Central Daylight Time)","323105","green","red","image-keyboard-response","159","161951","0.0-5.0-1.77","","322","","img/red_wl/choose11.jpg","1","148","green","0.5","0.1","0.5","w","",""
"","","","","60fd80b85dd6b22f66d16822","bdp_lott","Sun Mar 26 2023 08:08:27 GMT-0500 (Central Daylight Time)","323105","green","red","animation","160","162588","0.0-5.0-2.77","","","","","","148","","","","","","[{""stimulus"":""img/green_wl/1.jpg"",""time"":52},{""stimulus"":""img/green_wl/2.jpg"",""time"":107},{""stimulus"":""img/green_wl/3.jpg"",""time"":159},{""stimulus"":""img/green_wl/4.jpg"",""time"":214},{""stimulus"":""img/green_wl/5.jpg"",""time"":270},{""stimulus"":""img/green_wl/6.jpg"",""time"":324},{""stimulus"":""img/green_wl/7.jpg"",""time"":376},{""stimulus"":""img/green_wl/8.jpg"",""time"":426},{""stimulus"":""img/green_wl/9.jpg"",""time"":476},{""stimulus"":""img/green_wl/10.jpg"",""time"":532},{""stimulus"":""img/green_wl/11.jpg"",""time"":582}]","[]"
"","","","choice","60fd80b85dd6b22f66d16822","bdp_lott","Sun Mar 26 2023 08:08:27 GMT-0500 (Central Daylight Time)","323105","green","red","image-keyboard-response","161","163053","0.0-5.0-1.78","","463","","img/green_wl/choose11.jpg","1","147","green","0.5","0.1","0.5","l","",""
"","","","","60fd80b85dd6b22f66d16822","bdp_lott","Sun Mar 26 2023 08:08:27 GMT-0500 (Central Daylight Time)","323105","green","red","animation","162","163692","0.0-5.0-2.78","","","","","","147","","","","","","[{""stimulus"":""img/green_ll/1.jpg"",""time"":54},{""stimulus"":""img/green_ll/2.jpg"",""time"":106},{""stimulus"":""img/green_ll/3.jpg"",""time"":157},{""stimulus"":""img/green_ll/4.jpg"",""time"":212},{""stimulus"":""img/green_ll/5.jpg"",""time"":264},{""stimulus"":""img/green_ll/6.jpg"",""time"":320},{""stimulus"":""img/green_ll/7.jpg"",""time"":373},{""stimulus"":""img/green_ll/8.jpg"",""time"":427},{""stimulus"":""img/green_ll/9.jpg"",""time"":477},{""stimulus"":""img/green_ll/10.jpg"",""time"":532},{""stimulus"":""img/green_ll/11.jpg"",""time"":587}]","[]"
"","","","choice","60fd80b85dd6b22f66d16822","bdp_lott","Sun Mar 26 2023 08:08:27 GMT-0500 (Central Daylight Time)","323105","green","red","image-keyboard-response","163","164173","0.0-5.0-1.79","","480","","img/green_ll/choose11.jpg","2","146","red","0.5","0.1","0.1","l","",""
"","","","","60fd80b85dd6b22f66d16822","bdp_lott","Sun Mar 26 2023 08:08:27 GMT-0500 (Central Daylight Time)","323105","green","red","animation","164","164817","0.0-5.0-2.79","","","","","","146","","","","","","[{""stimulus"":""img/red_ll/1.jpg"",""time"":51},{""stimulus"":""img/red_ll/2.jpg"",""time"":101},{""stimulus"":""img/red_ll/3.jpg"",""time"":157},{""stimulus"":""img/red_ll/4.jpg"",""time"":209},{""stimulus"":""img/red_ll/5.jpg"",""time"":265},{""stimulus"":""img/red_ll/6.jpg"",""time"":317},{""stimulus"":""img/red_ll/7.jpg"",""time"":371},{""stimulus"":""img/red_ll/8.jpg"",""time"":426},{""stimulus"":""img/red_ll/9.jpg"",""time"":481},{""stimulus"":""img/red_ll/10.jpg"",""time"":535},{""stimulus"":""img/red_ll/11.jpg"",""time"":590}]","[]"
"","","","choice","60fd80b85dd6b22f66d16822","bdp_lott","Sun Mar 26 2023 08:08:27 GMT-0500 (Central Daylight Time)","323105","green","red","image-keyboard-response","165","165339","0.0-5.0-1.80","","522","","img/red_ll/choose11.jpg","1","145","green","0.5","0.1","0.5","l","",""
"","","","","60fd80b85dd6b22f66d16822","bdp_lott","Sun Mar 26 2023 08:08:27 GMT-0500 (Central Daylight Time)","323105","green","red","animation","166","165977","0.0-5.0-2.80","","","","","","145","","","","","","[{""stimulus"":""img/green_ll/1.jpg"",""time"":51},{""stimulus"":""img/green_ll/2.jpg"",""time"":105},{""stimulus"":""img/green_ll/3.jpg"",""time"":158},{""stimulus"":""img/green_ll/4.jpg"",""time"":213},{""stimulus"":""img/green_ll/5.jpg"",""time"":266},{""stimulus"":""img/green_ll/6.jpg"",""time"":321},{""stimulus"":""img/green_ll/7.jpg"",""time"":377},{""stimulus"":""img/green_ll/8.jpg"",""time"":431},{""stimulus"":""img/green_ll/9.jpg"",""time"":484},{""stimulus"":""img/green_ll/10.jpg"",""time"":538},{""stimulus"":""img/green_ll/11.jpg"",""time"":587}]","[]"
"","","","choice","60fd80b85dd6b22f66d16822","bdp_lott","Sun Mar 26 2023 08:08:27 GMT-0500 (Central Daylight Time)","323105","green","red","image-keyboard-response","167","166510","0.0-5.0-1.81","","533","","img/green_ll/choose11.jpg","2","144","red","0.5","0.1","0.1","l","",""
"","","","","60fd80b85dd6b22f66d16822","bdp_lott","Sun Mar 26 2023 08:08:27 GMT-0500 (Central Daylight Time)","323105","green","red","animation","168","167155","0.0-5.0-2.81","","","","","","144","","","","","","[{""stimulus"":""img/red_ll/1.jpg"",""time"":56},{""stimulus"":""img/red_ll/2.jpg"",""time"":111},{""stimulus"":""img/red_ll/3.jpg"",""time"":166},{""stimulus"":""img/red_ll/4.jpg"",""time"":216},{""stimulus"":""img/red_ll/5.jpg"",""time"":271},{""stimulus"":""img/red_ll/6.jpg"",""time"":323},{""stimulus"":""img/red_ll/7.jpg"",""time"":378},{""stimulus"":""img/red_ll/8.jpg"",""time"":431},{""stimulus"":""img/red_ll/9.jpg"",""time"":482},{""stimulus"":""img/red_ll/10.jpg"",""time"":538},{""stimulus"":""img/red_ll/11.jpg"",""time"":592}]","[]"
"","","","choice","60fd80b85dd6b22f66d16822","bdp_lott","Sun Mar 26 2023 08:08:27 GMT-0500 (Central Daylight Time)","323105","green","red","image-keyboard-response","169","167511","0.0-5.0-1.82","","355","","img/red_ll/choose11.jpg","1","143","green","0.5","0.1","0.5","l","",""
"","","","","60fd80b85dd6b22f66d16822","bdp_lott","Sun Mar 26 2023 08:08:27 GMT-0500 (Central Daylight Time)","323105","green","red","animation","170","168160","0.0-5.0-2.82","","","","","","143","","","","","","[{""stimulus"":""img/green_ll/1.jpg"",""time"":55},{""stimulus"":""img/green_ll/2.jpg"",""time"":111},{""stimulus"":""img/green_ll/3.jpg"",""time"":165},{""stimulus"":""img/green_ll/4.jpg"",""time"":220},{""stimulus"":""img/green_ll/5.jpg"",""time"":273},{""stimulus"":""img/green_ll/6.jpg"",""time"":327},{""stimulus"":""img/green_ll/7.jpg"",""time"":382},{""stimulus"":""img/green_ll/8.jpg"",""time"":436},{""stimulus"":""img/green_ll/9.jpg"",""time"":487},{""stimulus"":""img/green_ll/10.jpg"",""time"":542},{""stimulus"":""img/green_ll/11.jpg"",""time"":597}]","[]"
"","","","choice","60fd80b85dd6b22f66d16822","bdp_lott","Sun Mar 26 2023 08:08:27 GMT-0500 (Central Daylight Time)","323105","green","red","image-keyboard-response","171","168677","0.0-5.0-1.83","","516","","img/green_ll/choose11.jpg","2","142","red","0.5","0.1","0.1","w","",""
"","","","","60fd80b85dd6b22f66d16822","bdp_lott","Sun Mar 26 2023 08:08:27 GMT-0500 (Central Daylight Time)","323105","green","red","animation","172","169317","0.0-5.0-2.83","","","","","","142","","","","","","[{""stimulus"":""img/red_lw/1.jpg"",""time"":56},{""stimulus"":""img/red_lw/2.jpg"",""time"":106},{""stimulus"":""img/red_lw/3.jpg"",""time"":156},{""stimulus"":""img/red_lw/4.jpg"",""time"":211},{""stimulus"":""img/red_lw/5.jpg"",""time"":265},{""stimulus"":""img/red_lw/6.jpg"",""time"":316},{""stimulus"":""img/red_lw/7.jpg"",""time"":372},{""stimulus"":""img/red_lw/8.jpg"",""time"":427},{""stimulus"":""img/red_lw/9.jpg"",""time"":482},{""stimulus"":""img/red_lw/10.jpg"",""time"":533},{""stimulus"":""img/red_lw/11.jpg"",""time"":589}]","[]"
"","","","choice","60fd80b85dd6b22f66d16822","bdp_lott","Sun Mar 26 2023 08:08:27 GMT-0500 (Central Daylight Time)","323105","green","red","image-keyboard-response","173","169836","0.0-5.0-1.84","","518","","img/red_lw/choose11.jpg","2","141","red","0.5","0.1","0.1","l","",""
"","","","","60fd80b85dd6b22f66d16822","bdp_lott","Sun Mar 26 2023 08:08:27 GMT-0500 (Central Daylight Time)","323105","green","red","animation","174","170482","0.0-5.0-2.84","","","","","","141","","","","","","[{""stimulus"":""img/red_ll/1.jpg"",""time"":56},{""stimulus"":""img/red_ll/2.jpg"",""time"":110},{""stimulus"":""img/red_ll/3.jpg"",""time"":165},{""stimulus"":""img/red_ll/4.jpg"",""time"":220},{""stimulus"":""img/red_ll/5.jpg"",""time"":273},{""stimulus"":""img/red_ll/6.jpg"",""time"":328},{""stimulus"":""img/red_ll/7.jpg"",""time"":380},{""stimulus"":""img/red_ll/8.jpg"",""time"":435},{""stimulus"":""img/red_ll/9.jpg"",""time"":490},{""stimulus"":""img/red_ll/10.jpg"",""time"":539},{""stimulus"":""img/red_ll/11.jpg"",""time"":595}]","[]"
"","","","choice","60fd80b85dd6b22f66d16822","bdp_lott","Sun Mar 26 2023 08:08:27 GMT-0500 (Central Daylight Time)","323105","green","red","image-keyboard-response","175","171403","0.0-5.0-1.85","","921","","img/red_ll/choose11.jpg","1","140","green","0.5","0.1","0.5","l","",""
"","","","","60fd80b85dd6b22f66d16822","bdp_lott","Sun Mar 26 2023 08:08:27 GMT-0500 (Central Daylight Time)","323105","green","red","animation","176","172043","0.0-5.0-2.85","","","","","","140","","","","","","[{""stimulus"":""img/green_ll/1.jpg"",""time"":52},{""stimulus"":""img/green_ll/2.jpg"",""time"":104},{""stimulus"":""img/green_ll/3.jpg"",""time"":157},{""stimulus"":""img/green_ll/4.jpg"",""time"":212},{""stimulus"":""img/green_ll/5.jpg"",""time"":266},{""stimulus"":""img/green_ll/6.jpg"",""time"":320},{""stimulus"":""img/green_ll/7.jpg"",""time"":374},{""stimulus"":""img/green_ll/8.jpg"",""time"":424},{""stimulus"":""img/green_ll/9.jpg"",""time"":479},{""stimulus"":""img/green_ll/10.jpg"",""time"":534},{""stimulus"":""img/green_ll/11.jpg"",""time"":590}]","[]"
"","","","choice","60fd80b85dd6b22f66d16822","bdp_lott","Sun Mar 26 2023 08:08:27 GMT-0500 (Central Daylight Time)","323105","green","red","image-keyboard-response","177","172671","0.0-5.0-1.86","","628","","img/green_ll/choose11.jpg","1","139","green","0.5","0.1","0.5","w","",""
"","","","","60fd80b85dd6b22f66d16822","bdp_lott","Sun Mar 26 2023 08:08:27 GMT-0500 (Central Daylight Time)","323105","green","red","animation","178","173317","0.0-5.0-2.86","","","","","","139","","","","","","[{""stimulus"":""img/green_wl/1.jpg"",""time"":55},{""stimulus"":""img/green_wl/2.jpg"",""time"":111},{""stimulus"":""img/green_wl/3.jpg"",""time"":166},{""stimulus"":""img/green_wl/4.jpg"",""time"":221},{""stimulus"":""img/green_wl/5.jpg"",""time"":271},{""stimulus"":""img/green_wl/6.jpg"",""time"":323},{""stimulus"":""img/green_wl/7.jpg"",""time"":377},{""stimulus"":""img/green_wl/8.jpg"",""time"":433},{""stimulus"":""img/green_wl/9.jpg"",""time"":487},{""stimulus"":""img/green_wl/10.jpg"",""time"":539},{""stimulus"":""img/green_wl/11.jpg"",""time"":594}]","[]"
"","","","choice","60fd80b85dd6b22f66d16822","bdp_lott","Sun Mar 26 2023 08:08:27 GMT-0500 (Central Daylight Time)","323105","green","red","image-keyboard-response","179","173629","0.0-5.0-1.87","","311","","img/green_wl/choose11.jpg","2","138","red","0.5","0.1","0.1","l","",""
"","","","","60fd80b85dd6b22f66d16822","bdp_lott","Sun Mar 26 2023 08:08:27 GMT-0500 (Central Daylight Time)","323105","green","red","animation","180","174266","0.0-5.0-2.87","","","","","","138","","","","","","[{""stimulus"":""img/red_wl/1.jpg"",""time"":56},{""stimulus"":""img/red_wl/2.jpg"",""time"":110},{""stimulus"":""img/red_wl/3.jpg"",""time"":163},{""stimulus"":""img/red_wl/4.jpg"",""time"":213},{""stimulus"":""img/red_wl/5.jpg"",""time"":269},{""stimulus"":""img/red_wl/6.jpg"",""time"":325},{""stimulus"":""img/red_wl/7.jpg"",""time"":375},{""stimulus"":""img/red_wl/8.jpg"",""time"":427},{""stimulus"":""img/red_wl/9.jpg"",""time"":480},{""stimulus"":""img/red_wl/10.jpg"",""time"":531},{""stimulus"":""img/red_wl/11.jpg"",""time"":586}]","[]"
"","","","choice","60fd80b85dd6b22f66d16822","bdp_lott","Sun Mar 26 2023 08:08:27 GMT-0500 (Central Daylight Time)","323105","green","red","image-keyboard-response","181","174372","0.0-5.0-1.88","","106","","img/red_wl/choose11.jpg","1","137","green","0.5","0.1","0.5","l","",""
"","","","","60fd80b85dd6b22f66d16822","bdp_lott","Sun Mar 26 2023 08:08:27 GMT-0500 (Central Daylight Time)","323105","green","red","animation","182","175010","0.0-5.0-2.88","","","","","","137","","","","","","[{""stimulus"":""img/green_ll/1.jpg"",""time"":54},{""stimulus"":""img/green_ll/2.jpg"",""time"":104},{""stimulus"":""img/green_ll/3.jpg"",""time"":159},{""stimulus"":""img/green_ll/4.jpg"",""time"":211},{""stimulus"":""img/green_ll/5.jpg"",""time"":264},{""stimulus"":""img/green_ll/6.jpg"",""time"":314},{""stimulus"":""img/green_ll/7.jpg"",""time"":369},{""stimulus"":""img/green_ll/8.jpg"",""time"":421},{""stimulus"":""img/green_ll/9.jpg"",""time"":471},{""stimulus"":""img/green_ll/10.jpg"",""time"":527},{""stimulus"":""img/green_ll/11.jpg"",""time"":582}]","[]"
"","","","choice","60fd80b85dd6b22f66d16822","bdp_lott","Sun Mar 26 2023 08:08:27 GMT-0500 (Central Daylight Time)","323105","green","red","image-keyboard-response","183","175489","0.0-5.0-1.89","","478","","img/green_ll/choose11.jpg","2","136","red","0.5","0.1","0.1","l","",""
"","","","","60fd80b85dd6b22f66d16822","bdp_lott","Sun Mar 26 2023 08:08:27 GMT-0500 (Central Daylight Time)","323105","green","red","animation","184","176134","0.0-5.0-2.89","","","","","","136","","","","","","[{""stimulus"":""img/red_ll/1.jpg"",""time"":56},{""stimulus"":""img/red_ll/2.jpg"",""time"":111},{""stimulus"":""img/red_ll/3.jpg"",""time"":167},{""stimulus"":""img/red_ll/4.jpg"",""time"":221},{""stimulus"":""img/red_ll/5.jpg"",""time"":277},{""stimulus"":""img/red_ll/6.jpg"",""time"":328},{""stimulus"":""img/red_ll/7.jpg"",""time"":381},{""stimulus"":""img/red_ll/8.jpg"",""time"":436},{""stimulus"":""img/red_ll/9.jpg"",""time"":487},{""stimulus"":""img/red_ll/10.jpg"",""time"":538},{""stimulus"":""img/red_ll/11.jpg"",""time"":593}]","[]"
"","","","choice","60fd80b85dd6b22f66d16822","bdp_lott","Sun Mar 26 2023 08:08:27 GMT-0500 (Central Daylight Time)","323105","green","red","image-keyboard-response","185","176461","0.0-5.0-1.90","","327","","img/red_ll/choose11.jpg","2","135","red","0.5","0.1","0.1","l","",""
"","","","","60fd80b85dd6b22f66d16822","bdp_lott","Sun Mar 26 2023 08:08:27 GMT-0500 (Central Daylight Time)","323105","green","red","animation","186","177103","0.0-5.0-2.90","","","","","","135","","","","","","[{""stimulus"":""img/red_ll/1.jpg"",""time"":54},{""stimulus"":""img/red_ll/2.jpg"",""time"":106},{""stimulus"":""img/red_ll/3.jpg"",""time"":162},{""stimulus"":""img/red_ll/4.jpg"",""time"":216},{""stimulus"":""img/red_ll/5.jpg"",""time"":269},{""stimulus"":""img/red_ll/6.jpg"",""time"":319},{""stimulus"":""img/red_ll/7.jpg"",""time"":371},{""stimulus"":""img/red_ll/8.jpg"",""time"":426},{""stimulus"":""img/red_ll/9.jpg"",""time"":481},{""stimulus"":""img/red_ll/10.jpg"",""time"":533},{""stimulus"":""img/red_ll/11.jpg"",""time"":587}]","[]"
"","","","choice","60fd80b85dd6b22f66d16822","bdp_lott","Sun Mar 26 2023 08:08:27 GMT-0500 (Central Daylight Time)","323105","green","red","image-keyboard-response","187","177243","0.0-5.0-1.91","","138","","img/red_ll/choose11.jpg","1","134","green","0.5","0.1","0.5","w","",""
"","","","","60fd80b85dd6b22f66d16822","bdp_lott","Sun Mar 26 2023 08:08:27 GMT-0500 (Central Daylight Time)","323105","green","red","animation","188","177893","0.0-5.0-2.91","","","","","","134","","","","","","[{""stimulus"":""img/green_wl/1.jpg"",""time"":56},{""stimulus"":""img/green_wl/2.jpg"",""time"":108},{""stimulus"":""img/green_wl/3.jpg"",""time"":163},{""stimulus"":""img/green_wl/4.jpg"",""time"":216},{""stimulus"":""img/green_wl/5.jpg"",""time"":271},{""stimulus"":""img/green_wl/6.jpg"",""time"":324},{""stimulus"":""img/green_wl/7.jpg"",""time"":379},{""stimulus"":""img/green_wl/8.jpg"",""time"":433},{""stimulus"":""img/green_wl/9.jpg"",""time"":483},{""stimulus"":""img/green_wl/10.jpg"",""time"":538},{""stimulus"":""img/green_wl/11.jpg"",""time"":593}]","[]"
"","","","choice","60fd80b85dd6b22f66d16822","bdp_lott","Sun Mar 26 2023 08:08:27 GMT-0500 (Central Daylight Time)","323105","green","red","image-keyboard-response","189","178336","0.0-5.0-1.92","","443","","img/green_wl/choose11.jpg","1","133","green","0.5","0.1","0.5","w","",""
"","","","","60fd80b85dd6b22f66d16822","bdp_lott","Sun Mar 26 2023 08:08:27 GMT-0500 (Central Daylight Time)","323105","green","red","animation","190","178972","0.0-5.0-2.92","","","","","","133","","","","","","[{""stimulus"":""img/green_wl/1.jpg"",""time"":55},{""stimulus"":""img/green_wl/2.jpg"",""time"":106},{""stimulus"":""img/green_wl/3.jpg"",""time"":156},{""stimulus"":""img/green_wl/4.jpg"",""time"":210},{""stimulus"":""img/green_wl/5.jpg"",""time"":265},{""stimulus"":""img/green_wl/6.jpg"",""time"":321},{""stimulus"":""img/green_wl/7.jpg"",""time"":373},{""stimulus"":""img/green_wl/8.jpg"",""time"":423},{""stimulus"":""img/green_wl/9.jpg"",""time"":477},{""stimulus"":""img/green_wl/10.jpg"",""time"":528},{""stimulus"":""img/green_wl/11.jpg"",""time"":580}]","[]"
"","","","choice","60fd80b85dd6b22f66d16822","bdp_lott","Sun Mar 26 2023 08:08:27 GMT-0500 (Central Daylight Time)","323105","green","red","image-keyboard-response","191","179400","0.0-5.0-1.93","","428","","img/green_wl/choose11.jpg","1","132","green","0.5","0.1","0.5","l","",""
