"trial_type","trial_index","time_elapsed","internal_node_id","subject_id","task","startTime","totalTime","fairMachine","unfairMachine","view_history","rt","event","trial","time","trialtype","numBlurs","success","stimulus","key_press","roundsLeft","chosen","pFairMachWin","pUnfairMachWin","pTrialWin","outcome","animation_sequence","responses"
"pavlovia","0","3","0.0-0.0","63d7edbef6596097994e730e","bdp_lott","Sun Mar 26 2023 12:05:38 GMT-0400 (Eastern Daylight Time)","239627","green","red","","","","","","","","","","","","","","","","","",""
"instructions","1","929","0.0-1.0","63d7edbef6596097994e730e","bdp_lott","Sun Mar 26 2023 12:05:38 GMT-0400 (Eastern Daylight Time)","239627","green","red","[{""page_index"":0,""viewing_time"":926}]","926","","","","","","","","","","","","","","","",""
"","","","","63d7edbef6596097994e730e","bdp_lott","Sun Mar 26 2023 12:05:38 GMT-0400 (Eastern Daylight Time)","239627","green","red","","","blur","2","2434","blurevent","1","","","","","","","","","","",""
"","","","","63d7edbef6596097994e730e","bdp_lott","Sun Mar 26 2023 12:05:38 GMT-0400 (Eastern Daylight Time)","239627","green","red","","","focus","2","5531","focusevent","","","","","","","","","","","",""
"","","","","63d7edbef6596097994e730e","bdp_lott","Sun Mar 26 2023 12:05:38 GMT-0400 (Eastern Daylight Time)","239627","green","red","","","fullscreenenter","2","7765","fullscreenenter","","","","","","","","","","","",""
"fullscreen","2","8755","0.0-2.0","63d7edbef6596097994e730e","bdp_lott","Sun Mar 26 2023 12:05:38 GMT-0400 (Eastern Daylight Time)","239627","green","red","","","","","","","","true","","","","","","","","","",""
"instructions","3","23860","0.0-4.0","63d7edbef6596097994e730e","bdp_lott","Sun Mar 26 2023 12:05:38 GMT-0400 (Eastern Daylight Time)","239627","green","red","[{""page_index"":0,""viewing_time"":15103}]","15103","","","","","","","","","","","","","","","",""
"image-keyboard-response","4","38165","0.0-5.0-0.0-0.0","63d7edbef6596097994e730e","bdp_lott","Sun Mar 26 2023 12:05:38 GMT-0400 (Eastern Daylight Time)","239627","green","red","","14302","","","","blurwarn","1","","","49","","","","","","","",""
"image-keyboard-response","5","39522","0.0-5.0-1.0","63d7edbef6596097994e730e","bdp_lott","Sun Mar 26 2023 12:05:38 GMT-0400 (Eastern Daylight Time)","239627","green","red","","1095","","","","choice","","","img/red_ll/initchoose11.jpg","1","225","green","0.5","0.5","0.5","l","",""
"animation","6","40129","0.0-5.0-2.0","63d7edbef6596097994e730e","bdp_lott","Sun Mar 26 2023 12:05:38 GMT-0400 (Eastern Daylight Time)","239627","green","red","","","","","","","","","","","225","","","","","","[{""stimulus"":""img/green_ll/1.jpg"",""time"":55},{""stimulus"":""img/green_ll/2.jpg"",""time"":103},{""stimulus"":""img/green_ll/3.jpg"",""time"":156},{""stimulus"":""img/green_ll/4.jpg"",""time"":204},{""stimulus"":""img/green_ll/5.jpg"",""time"":252},{""stimulus"":""img/green_ll/6.jpg"",""time"":300},{""stimulus"":""img/green_ll/7.jpg"",""time"":359},{""stimulus"":""img/green_ll/8.jpg"",""time"":407},{""stimulus"":""img/green_ll/9.jpg"",""time"":454},{""stimulus"":""img/green_ll/10.jpg"",""time"":503},{""stimulus"":""img/green_ll/11.jpg"",""time"":556}]","[]"
"image-keyboard-response","7","41343","0.0-5.0-1.1","63d7edbef6596097994e730e","bdp_lott","Sun Mar 26 2023 12:05:38 GMT-0400 (Eastern Daylight Time)","239627","green","red","","1214","","","","choice","","","img/green_ll/choose11.jpg","2","224","red","0.5","0.5","0.5","l","",""
"animation","8","41951","0.0-5.0-2.1","63d7edbef6596097994e730e","bdp_lott","Sun Mar 26 2023 12:05:38 GMT-0400 (Eastern Daylight Time)","239627","green","red","","","","","","","","","","","224","","","","","","[{""stimulus"":""img/red_ll/1.jpg"",""time"":58},{""stimulus"":""img/red_ll/2.jpg"",""time"":106},{""stimulus"":""img/red_ll/3.jpg"",""time"":154},{""stimulus"":""img/red_ll/4.jpg"",""time"":202},{""stimulus"":""img/red_ll/5.jpg"",""time"":255},{""stimulus"":""img/red_ll/6.jpg"",""time"":303},{""stimulus"":""img/red_ll/7.jpg"",""time"":351},{""stimulus"":""img/red_ll/8.jpg"",""time"":410},{""stimulus"":""img/red_ll/9.jpg"",""time"":458},{""stimulus"":""img/red_ll/10.jpg"",""time"":506},{""stimulus"":""img/red_ll/11.jpg"",""time"":554}]","[]"
"image-keyboard-response","9","43008","0.0-5.0-1.2","63d7edbef6596097994e730e","bdp_lott","Sun Mar 26 2023 12:05:38 GMT-0400 (Eastern Daylight Time)","239627","green","red","","1056","","","","choice","","","img/red_ll/choose11.jpg","1","223","green","0.5","0.5","0.5","w","",""
"animation","10","43615","0.0-5.0-2.2","63d7edbef6596097994e730e","bdp_lott","Sun Mar 26 2023 12:05:38 GMT-0400 (Eastern Daylight Time)","239627","green","red","","","","","","","","","","","223","","","","","","[{""stimulus"":""img/green_wl/1.jpg"",""time"":58},{""stimulus"":""img/green_wl/2.jpg"",""time"":106},{""stimulus"":""img/green_wl/3.jpg"",""time"":154},{""stimulus"":""img/green_wl/4.jpg"",""time"":207},{""stimulus"":""img/green_wl/5.jpg"",""time"":255},{""stimulus"":""img/green_wl/6.jpg"",""time"":303},{""stimulus"":""img/green_wl/7.jpg"",""time"":352},{""stimulus"":""img/green_wl/8.jpg"",""time"":410},{""stimulus"":""img/green_wl/9.jpg"",""time"":458},{""stimulus"":""img/green_wl/10.jpg"",""time"":506},{""stimulus"":""img/green_wl/11.jpg"",""time"":554}]","[]"
"image-keyboard-response","11","44474","0.0-5.0-1.3","63d7edbef6596097994e730e","bdp_lott","Sun Mar 26 2023 12:05:38 GMT-0400 (Eastern Daylight Time)","239627","green","red","","858","","","","choice","","","img/green_wl/choose11.jpg","2","222","red","0.5","0.5","0.5","l","",""
"animation","12","45082","0.0-5.0-2.3","63d7edbef6596097994e730e","bdp_lott","Sun Mar 26 2023 12:05:38 GMT-0400 (Eastern Daylight Time)","239627","green","red","","","","","","","","","","","222","","","","","","[{""stimulus"":""img/red_wl/1.jpg"",""time"":53},{""stimulus"":""img/red_wl/2.jpg"",""time"":101},{""stimulus"":""img/red_wl/3.jpg"",""time"":159},{""stimulus"":""img/red_wl/4.jpg"",""time"":207},{""stimulus"":""img/red_wl/5.jpg"",""time"":255},{""stimulus"":""img/red_wl/6.jpg"",""time"":303},{""stimulus"":""img/red_wl/7.jpg"",""time"":356},{""stimulus"":""img/red_wl/8.jpg"",""time"":404},{""stimulus"":""img/red_wl/9.jpg"",""time"":452},{""stimulus"":""img/red_wl/10.jpg"",""time"":502},{""stimulus"":""img/red_wl/11.jpg"",""time"":559}]","[]"
"image-keyboard-response","13","45596","0.0-5.0-1.4","63d7edbef6596097994e730e","bdp_lott","Sun Mar 26 2023 12:05:38 GMT-0400 (Eastern Daylight Time)","239627","green","red","","513","","","","choice","","","img/red_wl/choose11.jpg","1","221","green","0.5","0.5","0.5","w","",""
"animation","14","46201","0.0-5.0-2.4","63d7edbef6596097994e730e","bdp_lott","Sun Mar 26 2023 12:05:38 GMT-0400 (Eastern Daylight Time)","239627","green","red","","","","","","","","","","","221","","","","","","[{""stimulus"":""img/green_wl/1.jpg"",""time"":52},{""stimulus"":""img/green_wl/2.jpg"",""time"":110},{""stimulus"":""img/green_wl/3.jpg"",""time"":158},{""stimulus"":""img/green_wl/4.jpg"",""time"":206},{""stimulus"":""img/green_wl/5.jpg"",""time"":254},{""stimulus"":""img/green_wl/6.jpg"",""time"":307},{""stimulus"":""img/green_wl/7.jpg"",""time"":355},{""stimulus"":""img/green_wl/8.jpg"",""time"":408},{""stimulus"":""img/green_wl/9.jpg"",""time"":456},{""stimulus"":""img/green_wl/10.jpg"",""time"":510},{""stimulus"":""img/green_wl/11.jpg"",""time"":558}]","[]"
"image-keyboard-response","15","46870","0.0-5.0-1.5","63d7edbef6596097994e730e","bdp_lott","Sun Mar 26 2023 12:05:38 GMT-0400 (Eastern Daylight Time)","239627","green","red","","668","","","","choice","","","img/green_wl/choose11.jpg","2","220","red","0.5","0.5","0.5","w","",""
"animation","16","47476","0.0-5.0-2.5","63d7edbef6596097994e730e","bdp_lott","Sun Mar 26 2023 12:05:38 GMT-0400 (Eastern Daylight Time)","239627","green","red","","","","","","","","","","","220","","","","","","[{""stimulus"":""img/red_ww/1.jpg"",""time"":58},{""stimulus"":""img/red_ww/2.jpg"",""time"":105},{""stimulus"":""img/red_ww/3.jpg"",""time"":153},{""stimulus"":""img/red_ww/4.jpg"",""time"":201},{""stimulus"":""img/red_ww/5.jpg"",""time"":260},{""stimulus"":""img/red_ww/6.jpg"",""time"":306},{""stimulus"":""img/red_ww/7.jpg"",""time"":356},{""stimulus"":""img/red_ww/8.jpg"",""time"":404},{""stimulus"":""img/red_ww/9.jpg"",""time"":461},{""stimulus"":""img/red_ww/10.jpg"",""time"":505},{""stimulus"":""img/red_ww/11.jpg"",""time"":554}]","[]"
"image-keyboard-response","17","48126","0.0-5.0-1.6","63d7edbef6596097994e730e","bdp_lott","Sun Mar 26 2023 12:05:38 GMT-0400 (Eastern Daylight Time)","239627","green","red","","649","","","","choice","","","img/red_ww/choose11.jpg","2","219","red","0.5","0.5","0.5","w","",""
"animation","18","48730","0.0-5.0-2.6","63d7edbef6596097994e730e","bdp_lott","Sun Mar 26 2023 12:05:38 GMT-0400 (Eastern Daylight Time)","239627","green","red","","","","","","","","","","","219","","","","","","[{""stimulus"":""img/red_ww/1.jpg"",""time"":60},{""stimulus"":""img/red_ww/2.jpg"",""time"":108},{""stimulus"":""img/red_ww/3.jpg"",""time"":156},{""stimulus"":""img/red_ww/4.jpg"",""time"":204},{""stimulus"":""img/red_ww/5.jpg"",""time"":262},{""stimulus"":""img/red_ww/6.jpg"",""time"":305},{""stimulus"":""img/red_ww/7.jpg"",""time"":353},{""stimulus"":""img/red_ww/8.jpg"",""time"":401},{""stimulus"":""img/red_ww/9.jpg"",""time"":460},{""stimulus"":""img/red_ww/10.jpg"",""time"":508},{""stimulus"":""img/red_ww/11.jpg"",""time"":556}]","[]"
"image-keyboard-response","19","49458","0.0-5.0-1.7","63d7edbef6596097994e730e","bdp_lott","Sun Mar 26 2023 12:05:38 GMT-0400 (Eastern Daylight Time)","239627","green","red","","727","","","","choice","","","img/red_ww/choose11.jpg","1","218","green","0.5","0.5","0.5","w","",""
"animation","20","50068","0.0-5.0-2.7","63d7edbef6596097994e730e","bdp_lott","Sun Mar 26 2023 12:05:38 GMT-0400 (Eastern Daylight Time)","239627","green","red","","","","","","","","","","","218","","","","","","[{""stimulus"":""img/green_ww/1.jpg"",""time"":54},{""stimulus"":""img/green_ww/2.jpg"",""time"":102},{""stimulus"":""img/green_ww/3.jpg"",""time"":156},{""stimulus"":""img/green_ww/4.jpg"",""time"":204},{""stimulus"":""img/green_ww/5.jpg"",""time"":252},{""stimulus"":""img/green_ww/6.jpg"",""time"":300},{""stimulus"":""img/green_ww/7.jpg"",""time"":359},{""stimulus"":""img/green_ww/8.jpg"",""time"":407},{""stimulus"":""img/green_ww/9.jpg"",""time"":455},{""stimulus"":""img/green_ww/10.jpg"",""time"":503},{""stimulus"":""img/green_ww/11.jpg"",""time"":556}]","[]"
"image-keyboard-response","21","50680","0.0-5.0-1.8","63d7edbef6596097994e730e","bdp_lott","Sun Mar 26 2023 12:05:38 GMT-0400 (Eastern Daylight Time)","239627","green","red","","611","","","","choice","","","img/green_ww/choose11.jpg","1","217","green","0.5","0.5","0.5","l","",""
"animation","22","51289","0.0-5.0-2.8","63d7edbef6596097994e730e","bdp_lott","Sun Mar 26 2023 12:05:38 GMT-0400 (Eastern Daylight Time)","239627","green","red","","","","","","","","","","","217","","","","","","[{""stimulus"":""img/green_lw/1.jpg"",""time"":55},{""stimulus"":""img/green_lw/2.jpg"",""time"":105},{""stimulus"":""img/green_lw/3.jpg"",""time"":161},{""stimulus"":""img/green_lw/4.jpg"",""time"":209},{""stimulus"":""img/green_lw/5.jpg"",""time"":257},{""stimulus"":""img/green_lw/6.jpg"",""time"":304},{""stimulus"":""img/green_lw/7.jpg"",""time"":358},{""stimulus"":""img/green_lw/8.jpg"",""time"":406},{""stimulus"":""img/green_lw/9.jpg"",""time"":454},{""stimulus"":""img/green_lw/10.jpg"",""time"":502},{""stimulus"":""img/green_lw/11.jpg"",""time"":561}]","[]"
"image-keyboard-response","23","51789","0.0-5.0-1.9","63d7edbef6596097994e730e","bdp_lott","Sun Mar 26 2023 12:05:38 GMT-0400 (Eastern Daylight Time)","239627","green","red","","499","","","","choice","","","img/green_lw/choose11.jpg","2","216","red","0.5","0.5","0.5","w","",""
"animation","24","52394","0.0-5.0-2.9","63d7edbef6596097994e730e","bdp_lott","Sun Mar 26 2023 12:05:38 GMT-0400 (Eastern Daylight Time)","239627","green","red","","","","","","","","","","","216","","","","","","[{""stimulus"":""img/red_lw/1.jpg"",""time"":60},{""stimulus"":""img/red_lw/2.jpg"",""time"":108},{""stimulus"":""img/red_lw/3.jpg"",""time"":156},{""stimulus"":""img/red_lw/4.jpg"",""time"":204},{""stimulus"":""img/red_lw/5.jpg"",""time"":257},{""stimulus"":""img/red_lw/6.jpg"",""time"":305},{""stimulus"":""img/red_lw/7.jpg"",""time"":355},{""stimulus"":""img/red_lw/8.jpg"",""time"":401},{""stimulus"":""img/red_lw/9.jpg"",""time"":460},{""stimulus"":""img/red_lw/10.jpg"",""time"":508},{""stimulus"":""img/red_lw/11.jpg"",""time"":556}]","[]"
"image-keyboard-response","25","52931","0.0-5.0-1.10","63d7edbef6596097994e730e","bdp_lott","Sun Mar 26 2023 12:05:38 GMT-0400 (Eastern Daylight Time)","239627","green","red","","536","","","","choice","","","img/red_lw/choose11.jpg","2","215","red","0.5","0.5","0.5","w","",""
"animation","26","53535","0.0-5.0-2.10","63d7edbef6596097994e730e","bdp_lott","Sun Mar 26 2023 12:05:38 GMT-0400 (Eastern Daylight Time)","239627","green","red","","","","","","","","","","","215","","","","","","[{""stimulus"":""img/red_lw/1.jpg"",""time"":55},{""stimulus"":""img/red_lw/2.jpg"",""time"":102},{""stimulus"":""img/red_lw/3.jpg"",""time"":161},{""stimulus"":""img/red_lw/4.jpg"",""time"":205},{""stimulus"":""img/red_lw/5.jpg"",""time"":257},{""stimulus"":""img/red_lw/6.jpg"",""time"":313},{""stimulus"":""img/red_lw/7.jpg"",""time"":359},{""stimulus"":""img/red_lw/8.jpg"",""time"":407},{""stimulus"":""img/red_lw/9.jpg"",""time"":455},{""stimulus"":""img/red_lw/10.jpg"",""time"":503},{""stimulus"":""img/red_lw/11.jpg"",""time"":559}]","[]"
"image-keyboard-response","27","54017","0.0-5.0-1.11","63d7edbef6596097994e730e","bdp_lott","Sun Mar 26 2023 12:05:38 GMT-0400 (Eastern Daylight Time)","239627","green","red","","481","","","","choice","","","img/red_lw/choose11.jpg","2","214","red","0.5","0.5","0.5","l","",""
"animation","28","54623","0.0-5.0-2.11","63d7edbef6596097994e730e","bdp_lott","Sun Mar 26 2023 12:05:38 GMT-0400 (Eastern Daylight Time)","239627","green","red","","","","","","","","","","","214","","","","","","[{""stimulus"":""img/red_ll/1.jpg"",""time"":57},{""stimulus"":""img/red_ll/2.jpg"",""time"":105},{""stimulus"":""img/red_ll/3.jpg"",""time"":159},{""stimulus"":""img/red_ll/4.jpg"",""time"":207},{""stimulus"":""img/red_ll/5.jpg"",""time"":256},{""stimulus"":""img/red_ll/6.jpg"",""time"":302},{""stimulus"":""img/red_ll/7.jpg"",""time"":361},{""stimulus"":""img/red_ll/8.jpg"",""time"":409},{""stimulus"":""img/red_ll/9.jpg"",""time"":458},{""stimulus"":""img/red_ll/10.jpg"",""time"":505},{""stimulus"":""img/red_ll/11.jpg"",""time"":558}]","[]"
"image-keyboard-response","29","55088","0.0-5.0-1.12","63d7edbef6596097994e730e","bdp_lott","Sun Mar 26 2023 12:05:38 GMT-0400 (Eastern Daylight Time)","239627","green","red","","464","","","","choice","","","img/red_ll/choose11.jpg","1","213","green","0.5","0.5","0.5","l","",""
"animation","30","55695","0.0-5.0-2.12","63d7edbef6596097994e730e","bdp_lott","Sun Mar 26 2023 12:05:38 GMT-0400 (Eastern Daylight Time)","239627","green","red","","","","","","","","","","","213","","","","","","[{""stimulus"":""img/green_ll/1.jpg"",""time"":57},{""stimulus"":""img/green_ll/2.jpg"",""time"":105},{""stimulus"":""img/green_ll/3.jpg"",""time"":158},{""stimulus"":""img/green_ll/4.jpg"",""time"":206},{""stimulus"":""img/green_ll/5.jpg"",""time"":259},{""stimulus"":""img/green_ll/6.jpg"",""time"":304},{""stimulus"":""img/green_ll/7.jpg"",""time"":361},{""stimulus"":""img/green_ll/8.jpg"",""time"":409},{""stimulus"":""img/green_ll/9.jpg"",""time"":457},{""stimulus"":""img/green_ll/10.jpg"",""time"":505},{""stimulus"":""img/green_ll/11.jpg"",""time"":558}]","[]"
"image-keyboard-response","31","56013","0.0-5.0-1.13","63d7edbef6596097994e730e","bdp_lott","Sun Mar 26 2023 12:05:38 GMT-0400 (Eastern Daylight Time)","239627","green","red","","316","","","","choice","","","img/green_ll/choose11.jpg","1","212","green","0.5","0.5","0.5","w","",""
"animation","32","56618","0.0-5.0-2.13","63d7edbef6596097994e730e","bdp_lott","Sun Mar 26 2023 12:05:38 GMT-0400 (Eastern Daylight Time)","239627","green","red","","","","","","","","","","","212","","","","","","[{""stimulus"":""img/green_wl/1.jpg"",""time"":61},{""stimulus"":""img/green_wl/2.jpg"",""time"":109},{""stimulus"":""img/green_wl/3.jpg"",""time"":157},{""stimulus"":""img/green_wl/4.jpg"",""time"":205},{""stimulus"":""img/green_wl/5.jpg"",""time"":262},{""stimulus"":""img/green_wl/6.jpg"",""time"":306},{""stimulus"":""img/green_wl/7.jpg"",""time"":358},{""stimulus"":""img/green_wl/8.jpg"",""time"":402},{""stimulus"":""img/green_wl/9.jpg"",""time"":461},{""stimulus"":""img/green_wl/10.jpg"",""time"":509},{""stimulus"":""img/green_wl/11.jpg"",""time"":557}]","[]"
"image-keyboard-response","33","56877","0.0-5.0-1.14","63d7edbef6596097994e730e","bdp_lott","Sun Mar 26 2023 12:05:38 GMT-0400 (Eastern Daylight Time)","239627","green","red","","258","","","","choice","","","img/green_wl/choose11.jpg","1","211","green","0.5","0.5","0.5","l","",""
"animation","34","57482","0.0-5.0-2.14","63d7edbef6596097994e730e","bdp_lott","Sun Mar 26 2023 12:05:38 GMT-0400 (Eastern Daylight Time)","239627","green","red","","","","","","","","","","","211","","","","","","[{""stimulus"":""img/green_ll/1.jpg"",""time"":60},{""stimulus"":""img/green_ll/2.jpg"",""time"":108},{""stimulus"":""img/green_ll/3.jpg"",""time"":156},{""stimulus"":""img/green_ll/4.jpg"",""time"":204},{""stimulus"":""img/green_ll/5.jpg"",""time"":257},{""stimulus"":""img/green_ll/6.jpg"",""time"":305},{""stimulus"":""img/green_ll/7.jpg"",""time"":353},{""stimulus"":""img/green_ll/8.jpg"",""time"":406},{""stimulus"":""img/green_ll/9.jpg"",""time"":460},{""stimulus"":""img/green_ll/10.jpg"",""time"":508},{""stimulus"":""img/green_ll/11.jpg"",""time"":556}]","[]"
"image-keyboard-response","35","57874","0.0-5.0-1.15","63d7edbef6596097994e730e","bdp_lott","Sun Mar 26 2023 12:05:38 GMT-0400 (Eastern Daylight Time)","239627","green","red","","391","","","","choice","","","img/green_ll/choose11.jpg","1","210","green","0.5","0.5","0.5","w","",""
"animation","36","58479","0.0-5.0-2.15","63d7edbef6596097994e730e","bdp_lott","Sun Mar 26 2023 12:05:38 GMT-0400 (Eastern Daylight Time)","239627","green","red","","","","","","","","","","","210","","","","","","[{""stimulus"":""img/green_wl/1.jpg"",""time"":55},{""stimulus"":""img/green_wl/2.jpg"",""time"":103},{""stimulus"":""img/green_wl/3.jpg"",""time"":151},{""stimulus"":""img/green_wl/4.jpg"",""time"":204},{""stimulus"":""img/green_wl/5.jpg"",""time"":253},{""stimulus"":""img/green_wl/6.jpg"",""time"":311},{""stimulus"":""img/green_wl/7.jpg"",""time"":357},{""stimulus"":""img/green_wl/8.jpg"",""time"":406},{""stimulus"":""img/green_wl/9.jpg"",""time"":455},{""stimulus"":""img/green_wl/10.jpg"",""time"":503},{""stimulus"":""img/green_wl/11.jpg"",""time"":556}]","[]"
"image-keyboard-response","37","58846","0.0-5.0-1.16","63d7edbef6596097994e730e","bdp_lott","Sun Mar 26 2023 12:05:38 GMT-0400 (Eastern Daylight Time)","239627","green","red","","366","","","","choice","","","img/green_wl/choose11.jpg","2","209","red","0.5","0.5","0.5","w","",""
"animation","38","59450","0.0-5.0-2.16","63d7edbef6596097994e730e","bdp_lott","Sun Mar 26 2023 12:05:38 GMT-0400 (Eastern Daylight Time)","239627","green","red","","","","","","","","","","","209","","","","","","[{""stimulus"":""img/red_ww/1.jpg"",""time"":60},{""stimulus"":""img/red_ww/2.jpg"",""time"":108},{""stimulus"":""img/red_ww/3.jpg"",""time"":155},{""stimulus"":""img/red_ww/4.jpg"",""time"":204},{""stimulus"":""img/red_ww/5.jpg"",""time"":258},{""stimulus"":""img/red_ww/6.jpg"",""time"":308},{""stimulus"":""img/red_ww/7.jpg"",""time"":353},{""stimulus"":""img/red_ww/8.jpg"",""time"":401},{""stimulus"":""img/red_ww/9.jpg"",""time"":460},{""stimulus"":""img/red_ww/10.jpg"",""time"":508},{""stimulus"":""img/red_ww/11.jpg"",""time"":556}]","[]"
"image-keyboard-response","39","59838","0.0-5.0-1.17","63d7edbef6596097994e730e","bdp_lott","Sun Mar 26 2023 12:05:38 GMT-0400 (Eastern Daylight Time)","239627","green","red","","387","","","","choice","","","img/red_ww/choose11.jpg","2","208","red","0.5","0.5","0.5","l","",""
"animation","40","60441","0.0-5.0-2.17","63d7edbef6596097994e730e","bdp_lott","Sun Mar 26 2023 12:05:38 GMT-0400 (Eastern Daylight Time)","239627","green","red","","","","","","","","","","","208","","","","","","[{""stimulus"":""img/red_wl/1.jpg"",""time"":59},{""stimulus"":""img/red_wl/2.jpg"",""time"":107},{""stimulus"":""img/red_wl/3.jpg"",""time"":155},{""stimulus"":""img/red_wl/4.jpg"",""time"":203},{""stimulus"":""img/red_wl/5.jpg"",""time"":256},{""stimulus"":""img/red_wl/6.jpg"",""time"":304},{""stimulus"":""img/red_wl/7.jpg"",""time"":352},{""stimulus"":""img/red_wl/8.jpg"",""time"":401},{""stimulus"":""img/red_wl/9.jpg"",""time"":459},{""stimulus"":""img/red_wl/10.jpg"",""time"":507},{""stimulus"":""img/red_wl/11.jpg"",""time"":554}]","[]"
"image-keyboard-response","41","60852","0.0-5.0-1.18","63d7edbef6596097994e730e","bdp_lott","Sun Mar 26 2023 12:05:38 GMT-0400 (Eastern Daylight Time)","239627","green","red","","410","","","","choice","","","img/red_wl/choose11.jpg","2","207","red","0.5","0.5","0.5","w","",""
"animation","42","61455","0.0-5.0-2.18","63d7edbef6596097994e730e","bdp_lott","Sun Mar 26 2023 12:05:38 GMT-0400 (Eastern Daylight Time)","239627","green","red","","","","","","","","","","","207","","","","","","[{""stimulus"":""img/red_ww/1.jpg"",""time"":53},{""stimulus"":""img/red_ww/2.jpg"",""time"":107},{""stimulus"":""img/red_ww/3.jpg"",""time"":154},{""stimulus"":""img/red_ww/4.jpg"",""time"":202},{""stimulus"":""img/red_ww/5.jpg"",""time"":251},{""stimulus"":""img/red_ww/6.jpg"",""time"":309},{""stimulus"":""img/red_ww/7.jpg"",""time"":357},{""stimulus"":""img/red_ww/8.jpg"",""time"":405},{""stimulus"":""img/red_ww/9.jpg"",""time"":453},{""stimulus"":""img/red_ww/10.jpg"",""time"":506},{""stimulus"":""img/red_ww/11.jpg"",""time"":554}]","[]"
"image-keyboard-response","43","61888","0.0-5.0-1.19","63d7edbef6596097994e730e","bdp_lott","Sun Mar 26 2023 12:05:38 GMT-0400 (Eastern Daylight Time)","239627","green","red","","432","","","","choice","","","img/red_ww/choose11.jpg","2","206","red","0.5","0.5","0.5","l","",""
"animation","44","62495","0.0-5.0-2.19","63d7edbef6596097994e730e","bdp_lott","Sun Mar 26 2023 12:05:38 GMT-0400 (Eastern Daylight Time)","239627","green","red","","","","","","","","","","","206","","","","","","[{""stimulus"":""img/red_wl/1.jpg"",""time"":57},{""stimulus"":""img/red_wl/2.jpg"",""time"":105},{""stimulus"":""img/red_wl/3.jpg"",""time"":153},{""stimulus"":""img/red_wl/4.jpg"",""time"":207},{""stimulus"":""img/red_wl/5.jpg"",""time"":255},{""stimulus"":""img/red_wl/6.jpg"",""time"":302},{""stimulus"":""img/red_wl/7.jpg"",""time"":350},{""stimulus"":""img/red_wl/8.jpg"",""time"":409},{""stimulus"":""img/red_wl/9.jpg"",""time"":457},{""stimulus"":""img/red_wl/10.jpg"",""time"":504},{""stimulus"":""img/red_wl/11.jpg"",""time"":553}]","[]"
"image-keyboard-response","45","62888","0.0-5.0-1.20","63d7edbef6596097994e730e","bdp_lott","Sun Mar 26 2023 12:05:38 GMT-0400 (Eastern Daylight Time)","239627","green","red","","392","","","","choice","","","img/red_wl/choose11.jpg","2","205","red","0.5","0.5","0.5","l","",""
"animation","46","63498","0.0-5.0-2.20","63d7edbef6596097994e730e","bdp_lott","Sun Mar 26 2023 12:05:38 GMT-0400 (Eastern Daylight Time)","239627","green","red","","","","","","","","","","","205","","","","","","[{""stimulus"":""img/red_wl/1.jpg"",""time"":55},{""stimulus"":""img/red_wl/2.jpg"",""time"":104},{""stimulus"":""img/red_wl/3.jpg"",""time"":150},{""stimulus"":""img/red_wl/4.jpg"",""time"":209},{""stimulus"":""img/red_wl/5.jpg"",""time"":257},{""stimulus"":""img/red_wl/6.jpg"",""time"":305},{""stimulus"":""img/red_wl/7.jpg"",""time"":353},{""stimulus"":""img/red_wl/8.jpg"",""time"":406},{""stimulus"":""img/red_wl/9.jpg"",""time"":454},{""stimulus"":""img/red_wl/10.jpg"",""time"":502},{""stimulus"":""img/red_wl/11.jpg"",""time"":550}]","[]"
"image-keyboard-response","47","63884","0.0-5.0-1.21","63d7edbef6596097994e730e","bdp_lott","Sun Mar 26 2023 12:05:38 GMT-0400 (Eastern Daylight Time)","239627","green","red","","386","","","","choice","","","img/red_wl/choose11.jpg","2","204","red","0.5","0.5","0.5","w","",""
"animation","48","64490","0.0-5.0-2.21","63d7edbef6596097994e730e","bdp_lott","Sun Mar 26 2023 12:05:38 GMT-0400 (Eastern Daylight Time)","239627","green","red","","","","","","","","","","","204","","","","","","[{""stimulus"":""img/red_ww/1.jpg"",""time"":51},{""stimulus"":""img/red_ww/2.jpg"",""time"":109},{""stimulus"":""img/red_ww/3.jpg"",""time"":157},{""stimulus"":""img/red_ww/4.jpg"",""time"":205},{""stimulus"":""img/red_ww/5.jpg"",""time"":253},{""stimulus"":""img/red_ww/6.jpg"",""time"":307},{""stimulus"":""img/red_ww/7.jpg"",""time"":355},{""stimulus"":""img/red_ww/8.jpg"",""time"":403},{""stimulus"":""img/red_ww/9.jpg"",""time"":451},{""stimulus"":""img/red_ww/10.jpg"",""time"":509},{""stimulus"":""img/red_ww/11.jpg"",""time"":557}]","[]"
"image-keyboard-response","49","64738","0.0-5.0-1.22","63d7edbef6596097994e730e","bdp_lott","Sun Mar 26 2023 12:05:38 GMT-0400 (Eastern Daylight Time)","239627","green","red","","247","","","","choice","","","img/red_ww/choose11.jpg","1","203","green","0.5","0.5","0.5","w","",""
"animation","50","65343","0.0-5.0-2.22","63d7edbef6596097994e730e","bdp_lott","Sun Mar 26 2023 12:05:38 GMT-0400 (Eastern Daylight Time)","239627","green","red","","","","","","","","","","","203","","","","","","[{""stimulus"":""img/green_ww/1.jpg"",""time"":56},{""stimulus"":""img/green_ww/2.jpg"",""time"":104},{""stimulus"":""img/green_ww/3.jpg"",""time"":158},{""stimulus"":""img/green_ww/4.jpg"",""time"":206},{""stimulus"":""img/green_ww/5.jpg"",""time"":254},{""stimulus"":""img/green_ww/6.jpg"",""time"":301},{""stimulus"":""img/green_ww/7.jpg"",""time"":360},{""stimulus"":""img/green_ww/8.jpg"",""time"":408},{""stimulus"":""img/green_ww/9.jpg"",""time"":456},{""stimulus"":""img/green_ww/10.jpg"",""time"":504},{""stimulus"":""img/green_ww/11.jpg"",""time"":557}]","[]"
"image-keyboard-response","51","65698","0.0-5.0-1.23","63d7edbef6596097994e730e","bdp_lott","Sun Mar 26 2023 12:05:38 GMT-0400 (Eastern Daylight Time)","239627","green","red","","354","","","","choice","","","img/green_ww/choose11.jpg","1","202","green","0.5","0.5","0.5","l","",""
"animation","52","66303","0.0-5.0-2.23","63d7edbef6596097994e730e","bdp_lott","Sun Mar 26 2023 12:05:38 GMT-0400 (Eastern Daylight Time)","239627","green","red","","","","","","","","","","","202","","","","","","[{""stimulus"":""img/green_lw/1.jpg"",""time"":56},{""stimulus"":""img/green_lw/2.jpg"",""time"":103},{""stimulus"":""img/green_lw/3.jpg"",""time"":157},{""stimulus"":""img/green_lw/4.jpg"",""time"":205},{""stimulus"":""img/green_lw/5.jpg"",""time"":253},{""stimulus"":""img/green_lw/6.jpg"",""time"":302},{""stimulus"":""img/green_lw/7.jpg"",""time"":360},{""stimulus"":""img/green_lw/8.jpg"",""time"":408},{""stimulus"":""img/green_lw/9.jpg"",""time"":456},{""stimulus"":""img/green_lw/10.jpg"",""time"":504},{""stimulus"":""img/green_lw/11.jpg"",""time"":552}]","[]"
"image-keyboard-response","53","66634","0.0-5.0-1.24","63d7edbef6596097994e730e","bdp_lott","Sun Mar 26 2023 12:05:38 GMT-0400 (Eastern Daylight Time)","239627","green","red","","330","","","","choice","","","img/green_lw/choose11.jpg","1","201","green","0.5","0.5","0.5","l","",""
"animation","54","67242","0.0-5.0-2.24","63d7edbef6596097994e730e","bdp_lott","Sun Mar 26 2023 12:05:38 GMT-0400 (Eastern Daylight Time)","239627","green","red","","","","","","","","","","","201","","","","","","[{""stimulus"":""img/green_lw/1.jpg"",""time"":53},{""stimulus"":""img/green_lw/2.jpg"",""time"":103},{""stimulus"":""img/green_lw/3.jpg"",""time"":160},{""stimulus"":""img/green_lw/4.jpg"",""time"":208},{""stimulus"":""img/green_lw/5.jpg"",""time"":256},{""stimulus"":""img/green_lw/6.jpg"",""time"":304},{""stimulus"":""img/green_lw/7.jpg"",""time"":357},{""stimulus"":""img/green_lw/8.jpg"",""time"":406},{""stimulus"":""img/green_lw/9.jpg"",""time"":454},{""stimulus"":""img/green_lw/10.jpg"",""time"":501},{""stimulus"":""img/green_lw/11.jpg"",""time"":560}]","[]"
"image-keyboard-response","55","67487","0.0-5.0-1.25","63d7edbef6596097994e730e","bdp_lott","Sun Mar 26 2023 12:05:38 GMT-0400 (Eastern Daylight Time)","239627","green","red","","244","","","","choice","","","img/green_lw/choose11.jpg","1","200","green","0.5","0.5","0.5","w","",""
"animation","56","68095","0.0-5.0-2.25","63d7edbef6596097994e730e","bdp_lott","Sun Mar 26 2023 12:05:38 GMT-0400 (Eastern Daylight Time)","239627","green","red","","","","","","","","","","","200","","","","","","[{""stimulus"":""img/green_ww/1.jpg"",""time"":58},{""stimulus"":""img/green_ww/2.jpg"",""time"":106},{""stimulus"":""img/green_ww/3.jpg"",""time"":154},{""stimulus"":""img/green_ww/4.jpg"",""time"":208},{""stimulus"":""img/green_ww/5.jpg"",""time"":256},{""stimulus"":""img/green_ww/6.jpg"",""time"":303},{""stimulus"":""img/green_ww/7.jpg"",""time"":351},{""stimulus"":""img/green_ww/8.jpg"",""time"":410},{""stimulus"":""img/green_ww/9.jpg"",""time"":458},{""stimulus"":""img/green_ww/10.jpg"",""time"":506},{""stimulus"":""img/green_ww/11.jpg"",""time"":554}]","[]"
"image-keyboard-response","57","68452","0.0-5.0-1.26","63d7edbef6596097994e730e","bdp_lott","Sun Mar 26 2023 12:05:38 GMT-0400 (Eastern Daylight Time)","239627","green","red","","355","","","","choice","","","img/green_ww/choose11.jpg","1","199","green","0.5","0.5","0.5","w","",""
"animation","58","69055","0.0-5.0-2.26","63d7edbef6596097994e730e","bdp_lott","Sun Mar 26 2023 12:05:38 GMT-0400 (Eastern Daylight Time)","239627","green","red","","","","","","","","","","","199","","","","","","[{""stimulus"":""img/green_ww/1.jpg"",""time"":54},{""stimulus"":""img/green_ww/2.jpg"",""time"":109},{""stimulus"":""img/green_ww/3.jpg"",""time"":155},{""stimulus"":""img/green_ww/4.jpg"",""time"":203},{""stimulus"":""img/green_ww/5.jpg"",""time"":251},{""stimulus"":""img/green_ww/6.jpg"",""time"":310},{""stimulus"":""img/green_ww/7.jpg"",""time"":358},{""stimulus"":""img/green_ww/8.jpg"",""time"":406},{""stimulus"":""img/green_ww/9.jpg"",""time"":454},{""stimulus"":""img/green_ww/10.jpg"",""time"":508},{""stimulus"":""img/green_ww/11.jpg"",""time"":560}]","[]"
"image-keyboard-response","59","69477","0.0-5.0-1.27","63d7edbef6596097994e730e","bdp_lott","Sun Mar 26 2023 12:05:38 GMT-0400 (Eastern Daylight Time)","239627","green","red","","421","","","","choice","","","img/green_ww/choose11.jpg","1","198","green","0.5","0.5","0.5","l","",""
"animation","60","70079","0.0-5.0-2.27","63d7edbef6596097994e730e","bdp_lott","Sun Mar 26 2023 12:05:38 GMT-0400 (Eastern Daylight Time)","239627","green","red","","","","","","","","","","","198","","","","","","[{""stimulus"":""img/green_lw/1.jpg"",""time"":59},{""stimulus"":""img/green_lw/2.jpg"",""time"":112},{""stimulus"":""img/green_lw/3.jpg"",""time"":155},{""stimulus"":""img/green_lw/4.jpg"",""time"":203},{""stimulus"":""img/green_lw/5.jpg"",""time"":261},{""stimulus"":""img/green_lw/6.jpg"",""time"":309},{""stimulus"":""img/green_lw/7.jpg"",""time"":357},{""stimulus"":""img/green_lw/8.jpg"",""time"":405},{""stimulus"":""img/green_lw/9.jpg"",""time"":459},{""stimulus"":""img/green_lw/10.jpg"",""time"":507},{""stimulus"":""img/green_lw/11.jpg"",""time"":555}]","[]"
"image-keyboard-response","61","70476","0.0-5.0-1.28","63d7edbef6596097994e730e","bdp_lott","Sun Mar 26 2023 12:05:38 GMT-0400 (Eastern Daylight Time)","239627","green","red","","396","","","","choice","","","img/green_lw/choose11.jpg","1","197","green","0.5","0.5","0.5","l","",""
"animation","62","71082","0.0-5.0-2.28","63d7edbef6596097994e730e","bdp_lott","Sun Mar 26 2023 12:05:38 GMT-0400 (Eastern Daylight Time)","239627","green","red","","","","","","","","","","","197","","","","","","[{""stimulus"":""img/green_lw/1.jpg"",""time"":51},{""stimulus"":""img/green_lw/2.jpg"",""time"":109},{""stimulus"":""img/green_lw/3.jpg"",""time"":157},{""stimulus"":""img/green_lw/4.jpg"",""time"":205},{""stimulus"":""img/green_lw/5.jpg"",""time"":253},{""stimulus"":""img/green_lw/6.jpg"",""time"":306},{""stimulus"":""img/green_lw/7.jpg"",""time"":354},{""stimulus"":""img/green_lw/8.jpg"",""time"":407},{""stimulus"":""img/green_lw/9.jpg"",""time"":451},{""stimulus"":""img/green_lw/10.jpg"",""time"":509},{""stimulus"":""img/green_lw/11.jpg"",""time"":557}]","[]"
"image-keyboard-response","63","71516","0.0-5.0-1.29","63d7edbef6596097994e730e","bdp_lott","Sun Mar 26 2023 12:05:38 GMT-0400 (Eastern Daylight Time)","239627","green","red","","432","","","","choice","","","img/green_lw/choose11.jpg","1","196","green","0.5","0.5","0.5","w","",""
"animation","64","72122","0.0-5.0-2.29","63d7edbef6596097994e730e","bdp_lott","Sun Mar 26 2023 12:05:38 GMT-0400 (Eastern Daylight Time)","239627","green","red","","","","","","","","","","","196","","","","","","[{""stimulus"":""img/green_ww/1.jpg"",""time"":52},{""stimulus"":""img/green_ww/2.jpg"",""time"":110},{""stimulus"":""img/green_ww/3.jpg"",""time"":152},{""stimulus"":""img/green_ww/4.jpg"",""time"":206},{""stimulus"":""img/green_ww/5.jpg"",""time"":254},{""stimulus"":""img/green_ww/6.jpg"",""time"":308},{""stimulus"":""img/green_ww/7.jpg"",""time"":356},{""stimulus"":""img/green_ww/8.jpg"",""time"":404},{""stimulus"":""img/green_ww/9.jpg"",""time"":451},{""stimulus"":""img/green_ww/10.jpg"",""time"":510},{""stimulus"":""img/green_ww/11.jpg"",""time"":558}]","[]"
"image-keyboard-response","65","72413","0.0-5.0-1.30","63d7edbef6596097994e730e","bdp_lott","Sun Mar 26 2023 12:05:38 GMT-0400 (Eastern Daylight Time)","239627","green","red","","289","","","","choice","","","img/green_ww/choose11.jpg","2","195","red","0.5","0.5","0.5","l","",""
"animation","66","73017","0.0-5.0-2.30","63d7edbef6596097994e730e","bdp_lott","Sun Mar 26 2023 12:05:38 GMT-0400 (Eastern Daylight Time)","239627","green","red","","","","","","","","","","","195","","","","","","[{""stimulus"":""img/red_wl/1.jpg"",""time"":61},{""stimulus"":""img/red_wl/2.jpg"",""time"":108},{""stimulus"":""img/red_wl/3.jpg"",""time"":157},{""stimulus"":""img/red_wl/4.jpg"",""time"":205},{""stimulus"":""img/red_wl/5.jpg"",""time"":258},{""stimulus"":""img/red_wl/6.jpg"",""time"":307},{""stimulus"":""img/red_wl/7.jpg"",""time"":355},{""stimulus"":""img/red_wl/8.jpg"",""time"":403},{""stimulus"":""img/red_wl/9.jpg"",""time"":461},{""stimulus"":""img/red_wl/10.jpg"",""time"":509},{""stimulus"":""img/red_wl/11.jpg"",""time"":557}]","[]"
"image-keyboard-response","67","73363","0.0-5.0-1.31","63d7edbef6596097994e730e","bdp_lott","Sun Mar 26 2023 12:05:38 GMT-0400 (Eastern Daylight Time)","239627","green","red","","345","","","","choice","","","img/red_wl/choose11.jpg","2","194","red","0.5","0.5","0.5","w","",""
"animation","68","73970","0.0-5.0-2.31","63d7edbef6596097994e730e","bdp_lott","Sun Mar 26 2023 12:05:38 GMT-0400 (Eastern Daylight Time)","239627","green","red","","","","","","","","","","","194","","","","","","[{""stimulus"":""img/red_ww/1.jpg"",""time"":55},{""stimulus"":""img/red_ww/2.jpg"",""time"":102},{""stimulus"":""img/red_ww/3.jpg"",""time"":157},{""stimulus"":""img/red_ww/4.jpg"",""time"":205},{""stimulus"":""img/red_ww/5.jpg"",""time"":256},{""stimulus"":""img/red_ww/6.jpg"",""time"":311},{""stimulus"":""img/red_ww/7.jpg"",""time"":359},{""stimulus"":""img/red_ww/8.jpg"",""time"":407},{""stimulus"":""img/red_ww/9.jpg"",""time"":455},{""stimulus"":""img/red_ww/10.jpg"",""time"":503},{""stimulus"":""img/red_ww/11.jpg"",""time"":561}]","[]"
"image-keyboard-response","69","74354","0.0-5.0-1.32","63d7edbef6596097994e730e","bdp_lott","Sun Mar 26 2023 12:05:38 GMT-0400 (Eastern Daylight Time)","239627","green","red","","383","","","","choice","","","img/red_ww/choose11.jpg","2","193","red","0.5","0.5","0.5","w","",""
"animation","70","74959","0.0-5.0-2.32","63d7edbef6596097994e730e","bdp_lott","Sun Mar 26 2023 12:05:38 GMT-0400 (Eastern Daylight Time)","239627","green","red","","","","","","","","","","","193","","","","","","[{""stimulus"":""img/red_ww/1.jpg"",""time"":56},{""stimulus"":""img/red_ww/2.jpg"",""time"":104},{""stimulus"":""img/red_ww/3.jpg"",""time"":158},{""stimulus"":""img/red_ww/4.jpg"",""time"":206},{""stimulus"":""img/red_ww/5.jpg"",""time"":258},{""stimulus"":""img/red_ww/6.jpg"",""time"":303},{""stimulus"":""img/red_ww/7.jpg"",""time"":360},{""stimulus"":""img/red_ww/8.jpg"",""time"":408},{""stimulus"":""img/red_ww/9.jpg"",""time"":456},{""stimulus"":""img/red_ww/10.jpg"",""time"":504},{""stimulus"":""img/red_ww/11.jpg"",""time"":557}]","[]"
"image-keyboard-response","71","75249","0.0-5.0-1.33","63d7edbef6596097994e730e","bdp_lott","Sun Mar 26 2023 12:05:38 GMT-0400 (Eastern Daylight Time)","239627","green","red","","289","","","","choice","","","img/red_ww/choose11.jpg","2","192","red","0.5","0.5","0.5","w","",""
"animation","72","75855","0.0-5.0-2.33","63d7edbef6596097994e730e","bdp_lott","Sun Mar 26 2023 12:05:38 GMT-0400 (Eastern Daylight Time)","239627","green","red","","","","","","","","","","","192","","","","","","[{""stimulus"":""img/red_ww/1.jpg"",""time"":57},{""stimulus"":""img/red_ww/2.jpg"",""time"":105},{""stimulus"":""img/red_ww/3.jpg"",""time"":163},{""stimulus"":""img/red_ww/4.jpg"",""time"":211},{""stimulus"":""img/red_ww/5.jpg"",""time"":255},{""stimulus"":""img/red_ww/6.jpg"",""time"":303},{""stimulus"":""img/red_ww/7.jpg"",""time"":361},{""stimulus"":""img/red_ww/8.jpg"",""time"":409},{""stimulus"":""img/red_ww/9.jpg"",""time"":457},{""stimulus"":""img/red_ww/10.jpg"",""time"":505},{""stimulus"":""img/red_ww/11.jpg"",""time"":559}]","[]"
"image-keyboard-response","73","76093","0.0-5.0-1.34","63d7edbef6596097994e730e","bdp_lott","Sun Mar 26 2023 12:05:38 GMT-0400 (Eastern Daylight Time)","239627","green","red","","237","","","","choice","","","img/red_ww/choose11.jpg","2","191","red","0.5","0.5","0.5","l","",""
"animation","74","76698","0.0-5.0-2.34","63d7edbef6596097994e730e","bdp_lott","Sun Mar 26 2023 12:05:38 GMT-0400 (Eastern Daylight Time)","239627","green","red","","","","","","","","","","","191","","","","","","[{""stimulus"":""img/red_wl/1.jpg"",""time"":61},{""stimulus"":""img/red_wl/2.jpg"",""time"":109},{""stimulus"":""img/red_wl/3.jpg"",""time"":156},{""stimulus"":""img/red_wl/4.jpg"",""time"":204},{""stimulus"":""img/red_wl/5.jpg"",""time"":259},{""stimulus"":""img/red_wl/6.jpg"",""time"":307},{""stimulus"":""img/red_wl/7.jpg"",""time"":355},{""stimulus"":""img/red_wl/8.jpg"",""time"":403},{""stimulus"":""img/red_wl/9.jpg"",""time"":460},{""stimulus"":""img/red_wl/10.jpg"",""time"":509},{""stimulus"":""img/red_wl/11.jpg"",""time"":557}]","[]"
"image-keyboard-response","75","77098","0.0-5.0-1.35","63d7edbef6596097994e730e","bdp_lott","Sun Mar 26 2023 12:05:38 GMT-0400 (Eastern Daylight Time)","239627","green","red","","399","","","","choice","","","img/red_wl/choose11.jpg","2","190","red","0.5","0.5","0.5","l","",""
"animation","76","77706","0.0-5.0-2.35","63d7edbef6596097994e730e","bdp_lott","Sun Mar 26 2023 12:05:38 GMT-0400 (Eastern Daylight Time)","239627","green","red","","","","","","","","","","","190","","","","","","[{""stimulus"":""img/red_wl/1.jpg"",""time"":54},{""stimulus"":""img/red_wl/2.jpg"",""time"":102},{""stimulus"":""img/red_wl/3.jpg"",""time"":156},{""stimulus"":""img/red_wl/4.jpg"",""time"":208},{""stimulus"":""img/red_wl/5.jpg"",""time"":256},{""stimulus"":""img/red_wl/6.jpg"",""time"":304},{""stimulus"":""img/red_wl/7.jpg"",""time"":358},{""stimulus"":""img/red_wl/8.jpg"",""time"":406},{""stimulus"":""img/red_wl/9.jpg"",""time"":453},{""stimulus"":""img/red_wl/10.jpg"",""time"":501},{""stimulus"":""img/red_wl/11.jpg"",""time"":560}]","[]"
"image-keyboard-response","77","78096","0.0-5.0-1.36","63d7edbef6596097994e730e","bdp_lott","Sun Mar 26 2023 12:05:38 GMT-0400 (Eastern Daylight Time)","239627","green","red","","388","","","","choice","","","img/red_wl/choose11.jpg","1","189","green","0.5","0.5","0.5","w","",""
"animation","78","78703","0.0-5.0-2.36","63d7edbef6596097994e730e","bdp_lott","Sun Mar 26 2023 12:05:38 GMT-0400 (Eastern Daylight Time)","239627","green","red","","","","","","","","","","","189","","","","","","[{""stimulus"":""img/green_wl/1.jpg"",""time"":57},{""stimulus"":""img/green_wl/2.jpg"",""time"":106},{""stimulus"":""img/green_wl/3.jpg"",""time"":154},{""stimulus"":""img/green_wl/4.jpg"",""time"":208},{""stimulus"":""img/green_wl/5.jpg"",""time"":256},{""stimulus"":""img/green_wl/6.jpg"",""time"":304},{""stimulus"":""img/green_wl/7.jpg"",""time"":352},{""stimulus"":""img/green_wl/8.jpg"",""time"":410},{""stimulus"":""img/green_wl/9.jpg"",""time"":458},{""stimulus"":""img/green_wl/10.jpg"",""time"":506},{""stimulus"":""img/green_wl/11.jpg"",""time"":553}]","[]"
"image-keyboard-response","79","79027","0.0-5.0-1.37","63d7edbef6596097994e730e","bdp_lott","Sun Mar 26 2023 12:05:38 GMT-0400 (Eastern Daylight Time)","239627","green","red","","323","","","","choice","","","img/green_wl/choose11.jpg","1","188","green","0.5","0.5","0.5","l","",""
"animation","80","79631","0.0-5.0-2.37","63d7edbef6596097994e730e","bdp_lott","Sun Mar 26 2023 12:05:38 GMT-0400 (Eastern Daylight Time)","239627","green","red","","","","","","","","","","","188","","","","","","[{""stimulus"":""img/green_ll/1.jpg"",""time"":54},{""stimulus"":""img/green_ll/2.jpg"",""time"":108},{""stimulus"":""img/green_ll/3.jpg"",""time"":156},{""stimulus"":""img/green_ll/4.jpg"",""time"":204},{""stimulus"":""img/green_ll/5.jpg"",""time"":256},{""stimulus"":""img/green_ll/6.jpg"",""time"":310},{""stimulus"":""img/green_ll/7.jpg"",""time"":358},{""stimulus"":""img/green_ll/8.jpg"",""time"":406},{""stimulus"":""img/green_ll/9.jpg"",""time"":454},{""stimulus"":""img/green_ll/10.jpg"",""time"":508},{""stimulus"":""img/green_ll/11.jpg"",""time"":556}]","[]"
"image-keyboard-response","81","79933","0.0-5.0-1.38","63d7edbef6596097994e730e","bdp_lott","Sun Mar 26 2023 12:05:38 GMT-0400 (Eastern Daylight Time)","239627","green","red","","301","","","","choice","","","img/green_ll/choose11.jpg","1","187","green","0.5","0.5","0.5","l","",""
"animation","82","80538","0.0-5.0-2.38","63d7edbef6596097994e730e","bdp_lott","Sun Mar 26 2023 12:05:38 GMT-0400 (Eastern Daylight Time)","239627","green","red","","","","","","","","","","","187","","","","","","[{""stimulus"":""img/green_ll/1.jpg"",""time"":60},{""stimulus"":""img/green_ll/2.jpg"",""time"":108},{""stimulus"":""img/green_ll/3.jpg"",""time"":156},{""stimulus"":""img/green_ll/4.jpg"",""time"":204},{""stimulus"":""img/green_ll/5.jpg"",""time"":262},{""stimulus"":""img/green_ll/6.jpg"",""time"":306},{""stimulus"":""img/green_ll/7.jpg"",""time"":354},{""stimulus"":""img/green_ll/8.jpg"",""time"":407},{""stimulus"":""img/green_ll/9.jpg"",""time"":460},{""stimulus"":""img/green_ll/10.jpg"",""time"":508},{""stimulus"":""img/green_ll/11.jpg"",""time"":556}]","[]"
"image-keyboard-response","83","80776","0.0-5.0-1.39","63d7edbef6596097994e730e","bdp_lott","Sun Mar 26 2023 12:05:38 GMT-0400 (Eastern Daylight Time)","239627","green","red","","237","","","","choice","","","img/green_ll/choose11.jpg","1","186","green","0.5","0.5","0.5","w","",""
"animation","84","81386","0.0-5.0-2.39","63d7edbef6596097994e730e","bdp_lott","Sun Mar 26 2023 12:05:38 GMT-0400 (Eastern Daylight Time)","239627","green","red","","","","","","","","","","","186","","","","","","[{""stimulus"":""img/green_wl/1.jpg"",""time"":56},{""stimulus"":""img/green_wl/2.jpg"",""time"":104},{""stimulus"":""img/green_wl/3.jpg"",""time"":152},{""stimulus"":""img/green_wl/4.jpg"",""time"":210},{""stimulus"":""img/green_wl/5.jpg"",""time"":258},{""stimulus"":""img/green_wl/6.jpg"",""time"":306},{""stimulus"":""img/green_wl/7.jpg"",""time"":354},{""stimulus"":""img/green_wl/8.jpg"",""time"":408},{""stimulus"":""img/green_wl/9.jpg"",""time"":456},{""stimulus"":""img/green_wl/10.jpg"",""time"":508},{""stimulus"":""img/green_wl/11.jpg"",""time"":556}]","[]"
"image-keyboard-response","85","81669","0.0-5.0-1.40","63d7edbef6596097994e730e","bdp_lott","Sun Mar 26 2023 12:05:38 GMT-0400 (Eastern Daylight Time)","239627","green","red","","281","","","","choice","","","img/green_wl/choose11.jpg","1","185","green","0.5","0.5","0.5","w","",""
"animation","86","82271","0.0-5.0-2.40","63d7edbef6596097994e730e","bdp_lott","Sun Mar 26 2023 12:05:38 GMT-0400 (Eastern Daylight Time)","239627","green","red","","","","","","","","","","","185","","","","","","[{""stimulus"":""img/green_wl/1.jpg"",""time"":61},{""stimulus"":""img/green_wl/2.jpg"",""time"":107},{""stimulus"":""img/green_wl/3.jpg"",""time"":151},{""stimulus"":""img/green_wl/4.jpg"",""time"":203},{""stimulus"":""img/green_wl/5.jpg"",""time"":261},{""stimulus"":""img/green_wl/6.jpg"",""time"":309},{""stimulus"":""img/green_wl/7.jpg"",""time"":357},{""stimulus"":""img/green_wl/8.jpg"",""time"":405},{""stimulus"":""img/green_wl/9.jpg"",""time"":459},{""stimulus"":""img/green_wl/10.jpg"",""time"":507},{""stimulus"":""img/green_wl/11.jpg"",""time"":555}]","[]"
"image-keyboard-response","87","82562","0.0-5.0-1.41","63d7edbef6596097994e730e","bdp_lott","Sun Mar 26 2023 12:05:38 GMT-0400 (Eastern Daylight Time)","239627","green","red","","290","","","","choice","","","img/green_wl/choose11.jpg","1","184","green","0.5","0.5","0.5","l","",""
"animation","88","83172","0.0-5.0-2.41","63d7edbef6596097994e730e","bdp_lott","Sun Mar 26 2023 12:05:38 GMT-0400 (Eastern Daylight Time)","239627","green","red","","","","","","","","","","","184","","","","","","[{""stimulus"":""img/green_ll/1.jpg"",""time"":55},{""stimulus"":""img/green_ll/2.jpg"",""time"":103},{""stimulus"":""img/green_ll/3.jpg"",""time"":157},{""stimulus"":""img/green_ll/4.jpg"",""time"":205},{""stimulus"":""img/green_ll/5.jpg"",""time"":253},{""stimulus"":""img/green_ll/6.jpg"",""time"":301},{""stimulus"":""img/green_ll/7.jpg"",""time"":359},{""stimulus"":""img/green_ll/8.jpg"",""time"":407},{""stimulus"":""img/green_ll/9.jpg"",""time"":455},{""stimulus"":""img/green_ll/10.jpg"",""time"":503},{""stimulus"":""img/green_ll/11.jpg"",""time"":557}]","[]"
"image-keyboard-response","89","83478","0.0-5.0-1.42","63d7edbef6596097994e730e","bdp_lott","Sun Mar 26 2023 12:05:38 GMT-0400 (Eastern Daylight Time)","239627","green","red","","305","","","","choice","","","img/green_ll/choose11.jpg","1","183","green","0.5","0.5","0.5","l","",""
"animation","90","84079","0.0-5.0-2.42","63d7edbef6596097994e730e","bdp_lott","Sun Mar 26 2023 12:05:38 GMT-0400 (Eastern Daylight Time)","239627","green","red","","","","","","","","","","","183","","","","","","[{""stimulus"":""img/green_ll/1.jpg"",""time"":57},{""stimulus"":""img/green_ll/2.jpg"",""time"":105},{""stimulus"":""img/green_ll/3.jpg"",""time"":153},{""stimulus"":""img/green_ll/4.jpg"",""time"":201},{""stimulus"":""img/green_ll/5.jpg"",""time"":259},{""stimulus"":""img/green_ll/6.jpg"",""time"":307},{""stimulus"":""img/green_ll/7.jpg"",""time"":354},{""stimulus"":""img/green_ll/8.jpg"",""time"":403},{""stimulus"":""img/green_ll/9.jpg"",""time"":461},{""stimulus"":""img/green_ll/10.jpg"",""time"":504},{""stimulus"":""img/green_ll/11.jpg"",""time"":553}]","[]"
"image-keyboard-response","91","84361","0.0-5.0-1.43","63d7edbef6596097994e730e","bdp_lott","Sun Mar 26 2023 12:05:38 GMT-0400 (Eastern Daylight Time)","239627","green","red","","281","","","","choice","","","img/green_ll/choose11.jpg","1","182","green","0.5","0.5","0.5","w","",""
"animation","92","84970","0.0-5.0-2.43","63d7edbef6596097994e730e","bdp_lott","Sun Mar 26 2023 12:05:38 GMT-0400 (Eastern Daylight Time)","239627","green","red","","","","","","","","","","","182","","","","","","[{""stimulus"":""img/green_wl/1.jpg"",""time"":55},{""stimulus"":""img/green_wl/2.jpg"",""time"":103},{""stimulus"":""img/green_wl/3.jpg"",""time"":161},{""stimulus"":""img/green_wl/4.jpg"",""time"":209},{""stimulus"":""img/green_wl/5.jpg"",""time"":257},{""stimulus"":""img/green_wl/6.jpg"",""time"":305},{""stimulus"":""img/green_wl/7.jpg"",""time"":359},{""stimulus"":""img/green_wl/8.jpg"",""time"":407},{""stimulus"":""img/green_wl/9.jpg"",""time"":455},{""stimulus"":""img/green_wl/10.jpg"",""time"":503},{""stimulus"":""img/green_wl/11.jpg"",""time"":561}]","[]"
"image-keyboard-response","93","85313","0.0-5.0-1.44","63d7edbef6596097994e730e","bdp_lott","Sun Mar 26 2023 12:05:38 GMT-0400 (Eastern Daylight Time)","239627","green","red","","342","","","","choice","","","img/green_wl/choose11.jpg","2","181","red","0.5","0.5","0.5","w","",""
"animation","94","85919","0.0-5.0-2.44","63d7edbef6596097994e730e","bdp_lott","Sun Mar 26 2023 12:05:38 GMT-0400 (Eastern Daylight Time)","239627","green","red","","","","","","","","","","","181","","","","","","[{""stimulus"":""img/red_ww/1.jpg"",""time"":57},{""stimulus"":""img/red_ww/2.jpg"",""time"":105},{""stimulus"":""img/red_ww/3.jpg"",""time"":159},{""stimulus"":""img/red_ww/4.jpg"",""time"":207},{""stimulus"":""img/red_ww/5.jpg"",""time"":259},{""stimulus"":""img/red_ww/6.jpg"",""time"":303},{""stimulus"":""img/red_ww/7.jpg"",""time"":361},{""stimulus"":""img/red_ww/8.jpg"",""time"":409},{""stimulus"":""img/red_ww/9.jpg"",""time"":457},{""stimulus"":""img/red_ww/10.jpg"",""time"":505},{""stimulus"":""img/red_ww/11.jpg"",""time"":559}]","[]"
"image-keyboard-response","95","86079","0.0-5.0-1.45","63d7edbef6596097994e730e","bdp_lott","Sun Mar 26 2023 12:05:38 GMT-0400 (Eastern Daylight Time)","239627","green","red","","159","","","","choice","","","img/red_ww/choose11.jpg","2","180","red","0.5","0.5","0.5","l","",""
"animation","96","86687","0.0-5.0-2.45","63d7edbef6596097994e730e","bdp_lott","Sun Mar 26 2023 12:05:38 GMT-0400 (Eastern Daylight Time)","239627","green","red","","","","","","","","","","","180","","","","","","[{""stimulus"":""img/red_wl/1.jpg"",""time"":58},{""stimulus"":""img/red_wl/2.jpg"",""time"":106},{""stimulus"":""img/red_wl/3.jpg"",""time"":154},{""stimulus"":""img/red_wl/4.jpg"",""time"":208},{""stimulus"":""img/red_wl/5.jpg"",""time"":256},{""stimulus"":""img/red_wl/6.jpg"",""time"":305},{""stimulus"":""img/red_wl/7.jpg"",""time"":357},{""stimulus"":""img/red_wl/8.jpg"",""time"":410},{""stimulus"":""img/red_wl/9.jpg"",""time"":458},{""stimulus"":""img/red_wl/10.jpg"",""time"":506},{""stimulus"":""img/red_wl/11.jpg"",""time"":554}]","[]"
"image-keyboard-response","97","86997","0.0-5.0-1.46","63d7edbef6596097994e730e","bdp_lott","Sun Mar 26 2023 12:05:38 GMT-0400 (Eastern Daylight Time)","239627","green","red","","309","","","","choice","","","img/red_wl/choose11.jpg","2","179","red","0.5","0.5","0.5","l","",""
"animation","98","87599","0.0-5.0-2.46","63d7edbef6596097994e730e","bdp_lott","Sun Mar 26 2023 12:05:38 GMT-0400 (Eastern Daylight Time)","239627","green","red","","","","","","","","","","","179","","","","","","[{""stimulus"":""img/red_wl/1.jpg"",""time"":58},{""stimulus"":""img/red_wl/2.jpg"",""time"":106},{""stimulus"":""img/red_wl/3.jpg"",""time"":151},{""stimulus"":""img/red_wl/4.jpg"",""time"":202},{""stimulus"":""img/red_wl/5.jpg"",""time"":260},{""stimulus"":""img/red_wl/6.jpg"",""time"":308},{""stimulus"":""img/red_wl/7.jpg"",""time"":356},{""stimulus"":""img/red_wl/8.jpg"",""time"":404},{""stimulus"":""img/red_wl/9.jpg"",""time"":458},{""stimulus"":""img/red_wl/10.jpg"",""time"":506},{""stimulus"":""img/red_wl/11.jpg"",""time"":554}]","[]"
"image-keyboard-response","99","87913","0.0-5.0-1.47","63d7edbef6596097994e730e","bdp_lott","Sun Mar 26 2023 12:05:38 GMT-0400 (Eastern Daylight Time)","239627","green","red","","313","","","","choice","","","img/red_wl/choose11.jpg","2","178","red","0.5","0.5","0.5","l","",""
"animation","100","88522","0.0-5.0-2.47","63d7edbef6596097994e730e","bdp_lott","Sun Mar 26 2023 12:05:38 GMT-0400 (Eastern Daylight Time)","239627","green","red","","","","","","","","","","","178","","","","","","[{""stimulus"":""img/red_wl/1.jpg"",""time"":55},{""stimulus"":""img/red_wl/2.jpg"",""time"":103},{""stimulus"":""img/red_wl/3.jpg"",""time"":161},{""stimulus"":""img/red_wl/4.jpg"",""time"":209},{""stimulus"":""img/red_wl/5.jpg"",""time"":257},{""stimulus"":""img/red_wl/6.jpg"",""time"":305},{""stimulus"":""img/red_wl/7.jpg"",""time"":359},{""stimulus"":""img/red_wl/8.jpg"",""time"":401},{""stimulus"":""img/red_wl/9.jpg"",""time"":454},{""stimulus"":""img/red_wl/10.jpg"",""time"":503},{""stimulus"":""img/red_wl/11.jpg"",""time"":561}]","[]"
"image-keyboard-response","101","88659","0.0-5.0-1.48","63d7edbef6596097994e730e","bdp_lott","Sun Mar 26 2023 12:05:38 GMT-0400 (Eastern Daylight Time)","239627","green","red","","136","","","","choice","","","img/red_wl/choose11.jpg","2","177","red","0.5","0.5","0.5","w","",""
"animation","102","89263","0.0-5.0-2.48","63d7edbef6596097994e730e","bdp_lott","Sun Mar 26 2023 12:05:38 GMT-0400 (Eastern Daylight Time)","239627","green","red","","","","","","","","","","","177","","","","","","[{""stimulus"":""img/red_ww/1.jpg"",""time"":55},{""stimulus"":""img/red_ww/2.jpg"",""time"":102},{""stimulus"":""img/red_ww/3.jpg"",""time"":157},{""stimulus"":""img/red_ww/4.jpg"",""time"":204},{""stimulus"":""img/red_ww/5.jpg"",""time"":253},{""stimulus"":""img/red_ww/6.jpg"",""time"":311},{""stimulus"":""img/red_ww/7.jpg"",""time"":359},{""stimulus"":""img/red_ww/8.jpg"",""time"":407},{""stimulus"":""img/red_ww/9.jpg"",""time"":455},{""stimulus"":""img/red_ww/10.jpg"",""time"":503},{""stimulus"":""img/red_ww/11.jpg"",""time"":557}]","[]"
"image-keyboard-response","103","89474","0.0-5.0-1.49","63d7edbef6596097994e730e","bdp_lott","Sun Mar 26 2023 12:05:38 GMT-0400 (Eastern Daylight Time)","239627","green","red","","210","","","","choice","","","img/red_ww/choose11.jpg","2","176","red","0.5","0.5","0.5","l","",""
"animation","104","90079","0.0-5.0-2.49","63d7edbef6596097994e730e","bdp_lott","Sun Mar 26 2023 12:05:38 GMT-0400 (Eastern Daylight Time)","239627","green","red","","","","","","","","","","","176","","","","","","[{""stimulus"":""img/red_wl/1.jpg"",""time"":55},{""stimulus"":""img/red_wl/2.jpg"",""time"":104},{""stimulus"":""img/red_wl/3.jpg"",""time"":158},{""stimulus"":""img/red_wl/4.jpg"",""time"":206},{""stimulus"":""img/red_wl/5.jpg"",""time"":254},{""stimulus"":""img/red_wl/6.jpg"",""time"":302},{""stimulus"":""img/red_wl/7.jpg"",""time"":360},{""stimulus"":""img/red_wl/8.jpg"",""time"":408},{""stimulus"":""img/red_wl/9.jpg"",""time"":456},{""stimulus"":""img/red_wl/10.jpg"",""time"":504},{""stimulus"":""img/red_wl/11.jpg"",""time"":558}]","[]"
"image-keyboard-response","105","90392","0.0-5.0-1.50","63d7edbef6596097994e730e","bdp_lott","Sun Mar 26 2023 12:05:38 GMT-0400 (Eastern Daylight Time)","239627","green","red","","312","","","","choice","","","img/red_wl/choose11.jpg","2","175","red","0.5","0.5","0.5","w","",""
"animation","106","91002","0.0-5.0-2.50","63d7edbef6596097994e730e","bdp_lott","Sun Mar 26 2023 12:05:38 GMT-0400 (Eastern Daylight Time)","239627","green","red","","","","","","","","","","","175","","","","","","[{""stimulus"":""img/red_ww/1.jpg"",""time"":56},{""stimulus"":""img/red_ww/2.jpg"",""time"":109},{""stimulus"":""img/red_ww/3.jpg"",""time"":152},{""stimulus"":""img/red_ww/4.jpg"",""time"":210},{""stimulus"":""img/red_ww/5.jpg"",""time"":258},{""stimulus"":""img/red_ww/6.jpg"",""time"":306},{""stimulus"":""img/red_ww/7.jpg"",""time"":354},{""stimulus"":""img/red_ww/8.jpg"",""time"":412},{""stimulus"":""img/red_ww/9.jpg"",""time"":461},{""stimulus"":""img/red_ww/10.jpg"",""time"":503},{""stimulus"":""img/red_ww/11.jpg"",""time"":552}]","[]"
"image-keyboard-response","107","91230","0.0-5.0-1.51","63d7edbef6596097994e730e","bdp_lott","Sun Mar 26 2023 12:05:38 GMT-0400 (Eastern Daylight Time)","239627","green","red","","227","","","","choice","","","img/red_ww/choose11.jpg","2","174","red","0.5","0.5","0.5","l","",""
"animation","108","91834","0.0-5.0-2.51","63d7edbef6596097994e730e","bdp_lott","Sun Mar 26 2023 12:05:38 GMT-0400 (Eastern Daylight Time)","239627","green","red","","","","","","","","","","","174","","","","","","[{""stimulus"":""img/red_wl/1.jpg"",""time"":59},{""stimulus"":""img/red_wl/2.jpg"",""time"":107},{""stimulus"":""img/red_wl/3.jpg"",""time"":155},{""stimulus"":""img/red_wl/4.jpg"",""time"":203},{""stimulus"":""img/red_wl/5.jpg"",""time"":259},{""stimulus"":""img/red_wl/6.jpg"",""time"":305},{""stimulus"":""img/red_wl/7.jpg"",""time"":356},{""stimulus"":""img/red_wl/8.jpg"",""time"":401},{""stimulus"":""img/red_wl/9.jpg"",""time"":459},{""stimulus"":""img/red_wl/10.jpg"",""time"":507},{""stimulus"":""img/red_wl/11.jpg"",""time"":555}]","[]"
"image-keyboard-response","109","92147","0.0-5.0-1.52","63d7edbef6596097994e730e","bdp_lott","Sun Mar 26 2023 12:05:38 GMT-0400 (Eastern Daylight Time)","239627","green","red","","312","","","","choice","","","img/red_wl/choose11.jpg","2","173","red","0.5","0.5","0.5","w","",""
"animation","110","92751","0.0-5.0-2.52","63d7edbef6596097994e730e","bdp_lott","Sun Mar 26 2023 12:05:38 GMT-0400 (Eastern Daylight Time)","239627","green","red","","","","","","","","","","","173","","","","","","[{""stimulus"":""img/red_ww/1.jpg"",""time"":55},{""stimulus"":""img/red_ww/2.jpg"",""time"":102},{""stimulus"":""img/red_ww/3.jpg"",""time"":157},{""stimulus"":""img/red_ww/4.jpg"",""time"":205},{""stimulus"":""img/red_ww/5.jpg"",""time"":253},{""stimulus"":""img/red_ww/6.jpg"",""time"":311},{""stimulus"":""img/red_ww/7.jpg"",""time"":359},{""stimulus"":""img/red_ww/8.jpg"",""time"":407},{""stimulus"":""img/red_ww/9.jpg"",""time"":455},{""stimulus"":""img/red_ww/10.jpg"",""time"":503},{""stimulus"":""img/red_ww/11.jpg"",""time"":557}]","[]"
"image-keyboard-response","111","92985","0.0-5.0-1.53","63d7edbef6596097994e730e","bdp_lott","Sun Mar 26 2023 12:05:38 GMT-0400 (Eastern Daylight Time)","239627","green","red","","233","","","","choice","","","img/red_ww/choose11.jpg","1","172","green","0.5","0.5","0.5","l","",""
"animation","112","93593","0.0-5.0-2.53","63d7edbef6596097994e730e","bdp_lott","Sun Mar 26 2023 12:05:38 GMT-0400 (Eastern Daylight Time)","239627","green","red","","","","","","","","","","","172","","","","","","[{""stimulus"":""img/green_lw/1.jpg"",""time"":55},{""stimulus"":""img/green_lw/2.jpg"",""time"":103},{""stimulus"":""img/green_lw/3.jpg"",""time"":161},{""stimulus"":""img/green_lw/4.jpg"",""time"":208},{""stimulus"":""img/green_lw/5.jpg"",""time"":257},{""stimulus"":""img/green_lw/6.jpg"",""time"":305},{""stimulus"":""img/green_lw/7.jpg"",""time"":364},{""stimulus"":""img/green_lw/8.jpg"",""time"":407},{""stimulus"":""img/green_lw/9.jpg"",""time"":455},{""stimulus"":""img/green_lw/10.jpg"",""time"":505},{""stimulus"":""img/green_lw/11.jpg"",""time"":561}]","[]"
"image-keyboard-response","113","93795","0.0-5.0-1.54","63d7edbef6596097994e730e","bdp_lott","Sun Mar 26 2023 12:05:38 GMT-0400 (Eastern Daylight Time)","239627","green","red","","201","","","","choice","","","img/green_lw/choose11.jpg","1","171","green","0.5","0.5","0.5","w","",""
"animation","114","94403","0.0-5.0-2.54","63d7edbef6596097994e730e","bdp_lott","Sun Mar 26 2023 12:05:38 GMT-0400 (Eastern Daylight Time)","239627","green","red","","","","","","","","","","","171","","","","","","[{""stimulus"":""img/green_ww/1.jpg"",""time"":55},{""stimulus"":""img/green_ww/2.jpg"",""time"":103},{""stimulus"":""img/green_ww/3.jpg"",""time"":157},{""stimulus"":""img/green_ww/4.jpg"",""time"":205},{""stimulus"":""img/green_ww/5.jpg"",""time"":253},{""stimulus"":""img/green_ww/6.jpg"",""time"":311},{""stimulus"":""img/green_ww/7.jpg"",""time"":359},{""stimulus"":""img/green_ww/8.jpg"",""time"":407},{""stimulus"":""img/green_ww/9.jpg"",""time"":455},{""stimulus"":""img/green_ww/10.jpg"",""time"":503},{""stimulus"":""img/green_ww/11.jpg"",""time"":557}]","[]"
"image-keyboard-response","115","94620","0.0-5.0-1.55","63d7edbef6596097994e730e","bdp_lott","Sun Mar 26 2023 12:05:38 GMT-0400 (Eastern Daylight Time)","239627","green","red","","216","","","","choice","","","img/green_ww/choose11.jpg","1","170","green","0.5","0.5","0.5","l","",""
"animation","116","95226","0.0-5.0-2.55","63d7edbef6596097994e730e","bdp_lott","Sun Mar 26 2023 12:05:38 GMT-0400 (Eastern Daylight Time)","239627","green","red","","","","","","","","","","","170","","","","","","[{""stimulus"":""img/green_lw/1.jpg"",""time"":57},{""stimulus"":""img/green_lw/2.jpg"",""time"":112},{""stimulus"":""img/green_lw/3.jpg"",""time"":158},{""stimulus"":""img/green_lw/4.jpg"",""time"":206},{""stimulus"":""img/green_lw/5.jpg"",""time"":254},{""stimulus"":""img/green_lw/6.jpg"",""time"":308},{""stimulus"":""img/green_lw/7.jpg"",""time"":356},{""stimulus"":""img/green_lw/8.jpg"",""time"":404},{""stimulus"":""img/green_lw/9.jpg"",""time"":452},{""stimulus"":""img/green_lw/10.jpg"",""time"":510},{""stimulus"":""img/green_lw/11.jpg"",""time"":558}]","[]"
"image-keyboard-response","117","95362","0.0-5.0-1.56","63d7edbef6596097994e730e","bdp_lott","Sun Mar 26 2023 12:05:38 GMT-0400 (Eastern Daylight Time)","239627","green","red","","135","","","","choice","","","img/green_lw/choose11.jpg","1","169","green","0.5","0.5","0.5","l","",""
"animation","118","95972","0.0-5.0-2.56","63d7edbef6596097994e730e","bdp_lott","Sun Mar 26 2023 12:05:38 GMT-0400 (Eastern Daylight Time)","239627","green","red","","","","","","","","","","","169","","","","","","[{""stimulus"":""img/green_lw/1.jpg"",""time"":56},{""stimulus"":""img/green_lw/2.jpg"",""time"":103},{""stimulus"":""img/green_lw/3.jpg"",""time"":158},{""stimulus"":""img/green_lw/4.jpg"",""time"":206},{""stimulus"":""img/green_lw/5.jpg"",""time"":254},{""stimulus"":""img/green_lw/6.jpg"",""time"":302},{""stimulus"":""img/green_lw/7.jpg"",""time"":360},{""stimulus"":""img/green_lw/8.jpg"",""time"":408},{""stimulus"":""img/green_lw/9.jpg"",""time"":455},{""stimulus"":""img/green_lw/10.jpg"",""time"":504},{""stimulus"":""img/green_lw/11.jpg"",""time"":558}]","[]"
"image-keyboard-response","119","96222","0.0-5.0-1.57","63d7edbef6596097994e730e","bdp_lott","Sun Mar 26 2023 12:05:38 GMT-0400 (Eastern Daylight Time)","239627","green","red","","250","","","","choice","","","img/green_lw/choose11.jpg","1","168","green","0.5","0.5","0.5","w","",""
"animation","120","96825","0.0-5.0-2.57","63d7edbef6596097994e730e","bdp_lott","Sun Mar 26 2023 12:05:38 GMT-0400 (Eastern Daylight Time)","239627","green","red","","","","","","","","","","","168","","","","","","[{""stimulus"":""img/green_ww/1.jpg"",""time"":60},{""stimulus"":""img/green_ww/2.jpg"",""time"":109},{""stimulus"":""img/green_ww/3.jpg"",""time"":156},{""stimulus"":""img/green_ww/4.jpg"",""time"":204},{""stimulus"":""img/green_ww/5.jpg"",""time"":258},{""stimulus"":""img/green_ww/6.jpg"",""time"":307},{""stimulus"":""img/green_ww/7.jpg"",""time"":356},{""stimulus"":""img/green_ww/8.jpg"",""time"":402},{""stimulus"":""img/green_ww/9.jpg"",""time"":460},{""stimulus"":""img/green_ww/10.jpg"",""time"":508},{""stimulus"":""img/green_ww/11.jpg"",""time"":556}]","[]"
"image-keyboard-response","121","97014","0.0-5.0-1.58","63d7edbef6596097994e730e","bdp_lott","Sun Mar 26 2023 12:05:38 GMT-0400 (Eastern Daylight Time)","239627","green","red","","188","","","","choice","","","img/green_ww/choose11.jpg","1","167","green","0.5","0.5","0.5","l","",""
"animation","122","97620","0.0-5.0-2.58","63d7edbef6596097994e730e","bdp_lott","Sun Mar 26 2023 12:05:38 GMT-0400 (Eastern Daylight Time)","239627","green","red","","","","","","","","","","","167","","","","","","[{""stimulus"":""img/green_lw/1.jpg"",""time"":58},{""stimulus"":""img/green_lw/2.jpg"",""time"":106},{""stimulus"":""img/green_lw/3.jpg"",""time"":158},{""stimulus"":""img/green_lw/4.jpg"",""time"":203},{""stimulus"":""img/green_lw/5.jpg"",""time"":260},{""stimulus"":""img/green_lw/6.jpg"",""time"":308},{""stimulus"":""img/green_lw/7.jpg"",""time"":356},{""stimulus"":""img/green_lw/8.jpg"",""time"":404},{""stimulus"":""img/green_lw/9.jpg"",""time"":458},{""stimulus"":""img/green_lw/10.jpg"",""time"":506},{""stimulus"":""img/green_lw/11.jpg"",""time"":558}]","[]"
"image-keyboard-response","123","97801","0.0-5.0-1.59","63d7edbef6596097994e730e","bdp_lott","Sun Mar 26 2023 12:05:38 GMT-0400 (Eastern Daylight Time)","239627","green","red","","179","","","","choice","","","img/green_lw/choose11.jpg","1","166","green","0.5","0.5","0.5","w","",""
"animation","124","98410","0.0-5.0-2.59","63d7edbef6596097994e730e","bdp_lott","Sun Mar 26 2023 12:05:38 GMT-0400 (Eastern Daylight Time)","239627","green","red","","","","","","","","","","","166","","","","","","[{""stimulus"":""img/green_ww/1.jpg"",""time"":55},{""stimulus"":""img/green_ww/2.jpg"",""time"":103},{""stimulus"":""img/green_ww/3.jpg"",""time"":151},{""stimulus"":""img/green_ww/4.jpg"",""time"":204},{""stimulus"":""img/green_ww/5.jpg"",""time"":257},{""stimulus"":""img/green_ww/6.jpg"",""time"":305},{""stimulus"":""img/green_ww/7.jpg"",""time"":353},{""stimulus"":""img/green_ww/8.jpg"",""time"":407},{""stimulus"":""img/green_ww/9.jpg"",""time"":455},{""stimulus"":""img/green_ww/10.jpg"",""time"":503},{""stimulus"":""img/green_ww/11.jpg"",""time"":551}]","[]"
"image-keyboard-response","125","98535","0.0-5.0-1.60","63d7edbef6596097994e730e","bdp_lott","Sun Mar 26 2023 12:05:38 GMT-0400 (Eastern Daylight Time)","239627","green","red","","124","","","","choice","","","img/green_ww/choose11.jpg","1","165","green","0.5","0.5","0.5","w","",""
"animation","126","99146","0.0-5.0-2.60","63d7edbef6596097994e730e","bdp_lott","Sun Mar 26 2023 12:05:38 GMT-0400 (Eastern Daylight Time)","239627","green","red","","","","","","","","","","","165","","","","","","[{""stimulus"":""img/green_ww/1.jpg"",""time"":57},{""stimulus"":""img/green_ww/2.jpg"",""time"":105},{""stimulus"":""img/green_ww/3.jpg"",""time"":152},{""stimulus"":""img/green_ww/4.jpg"",""time"":211},{""stimulus"":""img/green_ww/5.jpg"",""time"":259},{""stimulus"":""img/green_ww/6.jpg"",""time"":302},{""stimulus"":""img/green_ww/7.jpg"",""time"":355},{""stimulus"":""img/green_ww/8.jpg"",""time"":413},{""stimulus"":""img/green_ww/9.jpg"",""time"":457},{""stimulus"":""img/green_ww/10.jpg"",""time"":505},{""stimulus"":""img/green_ww/11.jpg"",""time"":553}]","[]"
"image-keyboard-response","127","99432","0.0-5.0-1.61","63d7edbef6596097994e730e","bdp_lott","Sun Mar 26 2023 12:05:38 GMT-0400 (Eastern Daylight Time)","239627","green","red","","285","","","","choice","","","img/green_ww/choose11.jpg","1","164","green","0.5","0.5","0.5","w","",""
"animation","128","100042","0.0-5.0-2.61","63d7edbef6596097994e730e","bdp_lott","Sun Mar 26 2023 12:05:38 GMT-0400 (Eastern Daylight Time)","239627","green","red","","","","","","","","","","","164","","","","","","[{""stimulus"":""img/green_ww/1.jpg"",""time"":58},{""stimulus"":""img/green_ww/2.jpg"",""time"":104},{""stimulus"":""img/green_ww/3.jpg"",""time"":152},{""stimulus"":""img/green_ww/4.jpg"",""time"":210},{""stimulus"":""img/green_ww/5.jpg"",""time"":258},{""stimulus"":""img/green_ww/6.jpg"",""time"":306},{""stimulus"":""img/green_ww/7.jpg"",""time"":354},{""stimulus"":""img/green_ww/8.jpg"",""time"":408},{""stimulus"":""img/green_ww/9.jpg"",""time"":460},{""stimulus"":""img/green_ww/10.jpg"",""time"":504},{""stimulus"":""img/green_ww/11.jpg"",""time"":552}]","[]"
"image-keyboard-response","129","100233","0.0-5.0-1.62","63d7edbef6596097994e730e","bdp_lott","Sun Mar 26 2023 12:05:38 GMT-0400 (Eastern Daylight Time)","239627","green","red","","190","","","","choice","","","img/green_ww/choose11.jpg","1","163","green","0.5","0.5","0.5","w","",""
"animation","130","100842","0.0-5.0-2.62","63d7edbef6596097994e730e","bdp_lott","Sun Mar 26 2023 12:05:38 GMT-0400 (Eastern Daylight Time)","239627","green","red","","","","","","","","","","","163","","","","","","[{""stimulus"":""img/green_ww/1.jpg"",""time"":54},{""stimulus"":""img/green_ww/2.jpg"",""time"":102},{""stimulus"":""img/green_ww/3.jpg"",""time"":160},{""stimulus"":""img/green_ww/4.jpg"",""time"":205},{""stimulus"":""img/green_ww/5.jpg"",""time"":256},{""stimulus"":""img/green_ww/6.jpg"",""time"":304},{""stimulus"":""img/green_ww/7.jpg"",""time"":358},{""stimulus"":""img/green_ww/8.jpg"",""time"":406},{""stimulus"":""img/green_ww/9.jpg"",""time"":459},{""stimulus"":""img/green_ww/10.jpg"",""time"":502},{""stimulus"":""img/green_ww/11.jpg"",""time"":560}]","[]"
"image-keyboard-response","131","101131","0.0-5.0-1.63","63d7edbef6596097994e730e","bdp_lott","Sun Mar 26 2023 12:05:38 GMT-0400 (Eastern Daylight Time)","239627","green","red","","288","","","","choice","","","img/green_ww/choose11.jpg","1","162","green","0.5","0.5","0.5","w","",""
"animation","132","101738","0.0-5.0-2.63","63d7edbef6596097994e730e","bdp_lott","Sun Mar 26 2023 12:05:38 GMT-0400 (Eastern Daylight Time)","239627","green","red","","","","","","","","","","","162","","","","","","[{""stimulus"":""img/green_ww/1.jpg"",""time"":53},{""stimulus"":""img/green_ww/2.jpg"",""time"":101},{""stimulus"":""img/green_ww/3.jpg"",""time"":159},{""stimulus"":""img/green_ww/4.jpg"",""time"":207},{""stimulus"":""img/green_ww/5.jpg"",""time"":254},{""stimulus"":""img/green_ww/6.jpg"",""time"":309},{""stimulus"":""img/green_ww/7.jpg"",""time"":359},{""stimulus"":""img/green_ww/8.jpg"",""time"":410},{""stimulus"":""img/green_ww/9.jpg"",""time"":453},{""stimulus"":""img/green_ww/10.jpg"",""time"":501},{""stimulus"":""img/green_ww/11.jpg"",""time"":559}]","[]"
"image-keyboard-response","133","102006","0.0-5.0-1.64","63d7edbef6596097994e730e","bdp_lott","Sun Mar 26 2023 12:05:38 GMT-0400 (Eastern Daylight Time)","239627","green","red","","267","","","","choice","","","img/green_ww/choose11.jpg","1","161","green","0.5","0.5","0.5","w","",""
"animation","134","102608","0.0-5.0-2.64","63d7edbef6596097994e730e","bdp_lott","Sun Mar 26 2023 12:05:38 GMT-0400 (Eastern Daylight Time)","239627","green","red","","","","","","","","","","","161","","","","","","[{""stimulus"":""img/green_ww/1.jpg"",""time"":58},{""stimulus"":""img/green_ww/2.jpg"",""time"":106},{""stimulus"":""img/green_ww/3.jpg"",""time"":154},{""stimulus"":""img/green_ww/4.jpg"",""time"":202},{""stimulus"":""img/green_ww/5.jpg"",""time"":260},{""stimulus"":""img/green_ww/6.jpg"",""time"":308},{""stimulus"":""img/green_ww/7.jpg"",""time"":356},{""stimulus"":""img/green_ww/8.jpg"",""time"":404},{""stimulus"":""img/green_ww/9.jpg"",""time"":458},{""stimulus"":""img/green_ww/10.jpg"",""time"":510},{""stimulus"":""img/green_ww/11.jpg"",""time"":554}]","[]"
"image-keyboard-response","135","102834","0.0-5.0-1.65","63d7edbef6596097994e730e","bdp_lott","Sun Mar 26 2023 12:05:38 GMT-0400 (Eastern Daylight Time)","239627","green","red","","225","","","","choice","","","img/green_ww/choose11.jpg","1","160","green","0.5","0.5","0.5","w","",""
"animation","136","103439","0.0-5.0-2.65","63d7edbef6596097994e730e","bdp_lott","Sun Mar 26 2023 12:05:38 GMT-0400 (Eastern Daylight Time)","239627","green","red","","","","","","","","","","","160","","","","","","[{""stimulus"":""img/green_ww/1.jpg"",""time"":55},{""stimulus"":""img/green_ww/2.jpg"",""time"":102},{""stimulus"":""img/green_ww/3.jpg"",""time"":157},{""stimulus"":""img/green_ww/4.jpg"",""time"":205},{""stimulus"":""img/green_ww/5.jpg"",""time"":253},{""stimulus"":""img/green_ww/6.jpg"",""time"":304},{""stimulus"":""img/green_ww/7.jpg"",""time"":359},{""stimulus"":""img/green_ww/8.jpg"",""time"":407},{""stimulus"":""img/green_ww/9.jpg"",""time"":455},{""stimulus"":""img/green_ww/10.jpg"",""time"":503},{""stimulus"":""img/green_ww/11.jpg"",""time"":557}]","[]"
"image-keyboard-response","137","103620","0.0-5.0-1.66","63d7edbef6596097994e730e","bdp_lott","Sun Mar 26 2023 12:05:38 GMT-0400 (Eastern Daylight Time)","239627","green","red","","180","","","","choice","","","img/green_ww/choose11.jpg","1","159","green","0.5","0.5","0.5","w","",""
"animation","138","104223","0.0-5.0-2.66","63d7edbef6596097994e730e","bdp_lott","Sun Mar 26 2023 12:05:38 GMT-0400 (Eastern Daylight Time)","239627","green","red","","","","","","","","","","","159","","","","","","[{""stimulus"":""img/green_ww/1.jpg"",""time"":53},{""stimulus"":""img/green_ww/2.jpg"",""time"":107},{""stimulus"":""img/green_ww/3.jpg"",""time"":155},{""stimulus"":""img/green_ww/4.jpg"",""time"":203},{""stimulus"":""img/green_ww/5.jpg"",""time"":251},{""stimulus"":""img/green_ww/6.jpg"",""time"":309},{""stimulus"":""img/green_ww/7.jpg"",""time"":357},{""stimulus"":""img/green_ww/8.jpg"",""time"":405},{""stimulus"":""img/green_ww/9.jpg"",""time"":453},{""stimulus"":""img/green_ww/10.jpg"",""time"":507},{""stimulus"":""img/green_ww/11.jpg"",""time"":555}]","[]"
"image-keyboard-response","139","104466","0.0-5.0-1.67","63d7edbef6596097994e730e","bdp_lott","Sun Mar 26 2023 12:05:38 GMT-0400 (Eastern Daylight Time)","239627","green","red","","242","","","","choice","","","img/green_ww/choose11.jpg","1","158","green","0.5","0.5","0.5","l","",""
"animation","140","105071","0.0-5.0-2.67","63d7edbef6596097994e730e","bdp_lott","Sun Mar 26 2023 12:05:38 GMT-0400 (Eastern Daylight Time)","239627","green","red","","","","","","","","","","","158","","","","","","[{""stimulus"":""img/green_lw/1.jpg"",""time"":55},{""stimulus"":""img/green_lw/2.jpg"",""time"":102},{""stimulus"":""img/green_lw/3.jpg"",""time"":157},{""stimulus"":""img/green_lw/4.jpg"",""time"":205},{""stimulus"":""img/green_lw/5.jpg"",""time"":253},{""stimulus"":""img/green_lw/6.jpg"",""time"":301},{""stimulus"":""img/green_lw/7.jpg"",""time"":359},{""stimulus"":""img/green_lw/8.jpg"",""time"":407},{""stimulus"":""img/green_lw/9.jpg"",""time"":455},{""stimulus"":""img/green_lw/10.jpg"",""time"":503},{""stimulus"":""img/green_lw/11.jpg"",""time"":557}]","[]"
"image-keyboard-response","141","105301","0.0-5.0-1.68","63d7edbef6596097994e730e","bdp_lott","Sun Mar 26 2023 12:05:38 GMT-0400 (Eastern Daylight Time)","239627","green","red","","229","","","","choice","","","img/green_lw/choose11.jpg","1","157","green","0.5","0.5","0.5","w","",""
"animation","142","105903","0.0-5.0-2.68","63d7edbef6596097994e730e","bdp_lott","Sun Mar 26 2023 12:05:38 GMT-0400 (Eastern Daylight Time)","239627","green","red","","","","","","","","","","","157","","","","","","[{""stimulus"":""img/green_ww/1.jpg"",""time"":58},{""stimulus"":""img/green_ww/2.jpg"",""time"":106},{""stimulus"":""img/green_ww/3.jpg"",""time"":156},{""stimulus"":""img/green_ww/4.jpg"",""time"":207},{""stimulus"":""img/green_ww/5.jpg"",""time"":259},{""stimulus"":""img/green_ww/6.jpg"",""time"":308},{""stimulus"":""img/green_ww/7.jpg"",""time"":356},{""stimulus"":""img/green_ww/8.jpg"",""time"":404},{""stimulus"":""img/green_ww/9.jpg"",""time"":458},{""stimulus"":""img/green_ww/10.jpg"",""time"":505},{""stimulus"":""img/green_ww/11.jpg"",""time"":553}]","[]"
"image-keyboard-response","143","106157","0.0-5.0-1.69","63d7edbef6596097994e730e","bdp_lott","Sun Mar 26 2023 12:05:38 GMT-0400 (Eastern Daylight Time)","239627","green","red","","252","","","","choice","","","img/green_ww/choose11.jpg","1","156","green","0.5","0.5","0.5","w","",""
"animation","144","106762","0.0-5.0-2.69","63d7edbef6596097994e730e","bdp_lott","Sun Mar 26 2023 12:05:38 GMT-0400 (Eastern Daylight Time)","239627","green","red","","","","","","","","","","","156","","","","","","[{""stimulus"":""img/green_ww/1.jpg"",""time"":51},{""stimulus"":""img/green_ww/2.jpg"",""time"":109},{""stimulus"":""img/green_ww/3.jpg"",""time"":157},{""stimulus"":""img/green_ww/4.jpg"",""time"":206},{""stimulus"":""img/green_ww/5.jpg"",""time"":253},{""stimulus"":""img/green_ww/6.jpg"",""time"":308},{""stimulus"":""img/green_ww/7.jpg"",""time"":355},{""stimulus"":""img/green_ww/8.jpg"",""time"":403},{""stimulus"":""img/green_ww/9.jpg"",""time"":451},{""stimulus"":""img/green_ww/10.jpg"",""time"":509},{""stimulus"":""img/green_ww/11.jpg"",""time"":557}]","[]"
"image-keyboard-response","145","106970","0.0-5.0-1.70","63d7edbef6596097994e730e","bdp_lott","Sun Mar 26 2023 12:05:38 GMT-0400 (Eastern Daylight Time)","239627","green","red","","207","","","","choice","","","img/green_ww/choose11.jpg","1","155","green","0.5","0.5","0.5","w","",""
"animation","146","107578","0.0-5.0-2.70","63d7edbef6596097994e730e","bdp_lott","Sun Mar 26 2023 12:05:38 GMT-0400 (Eastern Daylight Time)","239627","green","red","","","","","","","","","","","155","","","","","","[{""stimulus"":""img/green_ww/1.jpg"",""time"":54},{""stimulus"":""img/green_ww/2.jpg"",""time"":102},{""stimulus"":""img/green_ww/3.jpg"",""time"":160},{""stimulus"":""img/green_ww/4.jpg"",""time"":208},{""stimulus"":""img/green_ww/5.jpg"",""time"":256},{""stimulus"":""img/green_ww/6.jpg"",""time"":304},{""stimulus"":""img/green_ww/7.jpg"",""time"":359},{""stimulus"":""img/green_ww/8.jpg"",""time"":406},{""stimulus"":""img/green_ww/9.jpg"",""time"":458},{""stimulus"":""img/green_ww/10.jpg"",""time"":507},{""stimulus"":""img/green_ww/11.jpg"",""time"":560}]","[]"
"image-keyboard-response","147","107775","0.0-5.0-1.71","63d7edbef6596097994e730e","bdp_lott","Sun Mar 26 2023 12:05:38 GMT-0400 (Eastern Daylight Time)","239627","green","red","","196","","","","choice","","","img/green_ww/choose11.jpg","1","154","green","0.5","0.5","0.5","w","",""
"animation","148","108383","0.0-5.0-2.71","63d7edbef6596097994e730e","bdp_lott","Sun Mar 26 2023 12:05:38 GMT-0400 (Eastern Daylight Time)","239627","green","red","","","","","","","","","","","154","","","","","","[{""stimulus"":""img/green_ww/1.jpg"",""time"":59},{""stimulus"":""img/green_ww/2.jpg"",""time"":106},{""stimulus"":""img/green_ww/3.jpg"",""time"":154},{""stimulus"":""img/green_ww/4.jpg"",""time"":208},{""stimulus"":""img/green_ww/5.jpg"",""time"":256},{""stimulus"":""img/green_ww/6.jpg"",""time"":304},{""stimulus"":""img/green_ww/7.jpg"",""time"":352},{""stimulus"":""img/green_ww/8.jpg"",""time"":410},{""stimulus"":""img/green_ww/9.jpg"",""time"":458},{""stimulus"":""img/green_ww/10.jpg"",""time"":506},{""stimulus"":""img/green_ww/11.jpg"",""time"":554}]","[]"
"image-keyboard-response","149","108670","0.0-5.0-1.72","63d7edbef6596097994e730e","bdp_lott","Sun Mar 26 2023 12:05:38 GMT-0400 (Eastern Daylight Time)","239627","green","red","","286","","","","choice","","","img/green_ww/choose11.jpg","1","153","green","0.5","0.5","0.5","l","",""
"animation","150","109274","0.0-5.0-2.72","63d7edbef6596097994e730e","bdp_lott","Sun Mar 26 2023 12:05:38 GMT-0400 (Eastern Daylight Time)","239627","green","red","","","","","","","","","","","153","","","","","","[{""stimulus"":""img/green_lw/1.jpg"",""time"":60},{""stimulus"":""img/green_lw/2.jpg"",""time"":108},{""stimulus"":""img/green_lw/3.jpg"",""time"":156},{""stimulus"":""img/green_lw/4.jpg"",""time"":203},{""stimulus"":""img/green_lw/5.jpg"",""time"":254},{""stimulus"":""img/green_lw/6.jpg"",""time"":306},{""stimulus"":""img/green_lw/7.jpg"",""time"":354},{""stimulus"":""img/green_lw/8.jpg"",""time"":402},{""stimulus"":""img/green_lw/9.jpg"",""time"":460},{""stimulus"":""img/green_lw/10.jpg"",""time"":508},{""stimulus"":""img/green_lw/11.jpg"",""time"":556}]","[]"
"image-keyboard-response","151","109400","0.0-5.0-1.73","63d7edbef6596097994e730e","bdp_lott","Sun Mar 26 2023 12:05:38 GMT-0400 (Eastern Daylight Time)","239627","green","red","","124","","","","choice","","","img/green_lw/choose11.jpg","1","152","green","0.5","0.5","0.5","w","",""
"animation","152","110010","0.0-5.0-2.73","63d7edbef6596097994e730e","bdp_lott","Sun Mar 26 2023 12:05:38 GMT-0400 (Eastern Daylight Time)","239627","green","red","","","","","","","","","","","152","","","","","","[{""stimulus"":""img/green_ww/1.jpg"",""time"":56},{""stimulus"":""img/green_ww/2.jpg"",""time"":104},{""stimulus"":""img/green_ww/3.jpg"",""time"":153},{""stimulus"":""img/green_ww/4.jpg"",""time"":210},{""stimulus"":""img/green_ww/5.jpg"",""time"":258},{""stimulus"":""img/green_ww/6.jpg"",""time"":306},{""stimulus"":""img/green_ww/7.jpg"",""time"":354},{""stimulus"":""img/green_ww/8.jpg"",""time"":408},{""stimulus"":""img/green_ww/9.jpg"",""time"":461},{""stimulus"":""img/green_ww/10.jpg"",""time"":504},{""stimulus"":""img/green_ww/11.jpg"",""time"":555}]","[]"
"image-keyboard-response","153","110180","0.0-5.0-1.74","63d7edbef6596097994e730e","bdp_lott","Sun Mar 26 2023 12:05:38 GMT-0400 (Eastern Daylight Time)","239627","green","red","","169","","","","choice","","","img/green_ww/choose11.jpg","1","151","green","0.5","0.5","0.5","w","",""
"animation","154","110783","0.0-5.0-2.74","63d7edbef6596097994e730e","bdp_lott","Sun Mar 26 2023 12:05:38 GMT-0400 (Eastern Daylight Time)","239627","green","red","","","","","","","","","","","151","","","","","","[{""stimulus"":""img/green_ww/1.jpg"",""time"":55},{""stimulus"":""img/green_ww/2.jpg"",""time"":108},{""stimulus"":""img/green_ww/3.jpg"",""time"":156},{""stimulus"":""img/green_ww/4.jpg"",""time"":204},{""stimulus"":""img/green_ww/5.jpg"",""time"":252},{""stimulus"":""img/green_ww/6.jpg"",""time"":310},{""stimulus"":""img/green_ww/7.jpg"",""time"":358},{""stimulus"":""img/green_ww/8.jpg"",""time"":406},{""stimulus"":""img/green_ww/9.jpg"",""time"":454},{""stimulus"":""img/green_ww/10.jpg"",""time"":508},{""stimulus"":""img/green_ww/11.jpg"",""time"":556}]","[]"
"image-keyboard-response","155","110888","0.0-5.0-1.75","63d7edbef6596097994e730e","bdp_lott","Sun Mar 26 2023 12:05:38 GMT-0400 (Eastern Daylight Time)","239627","green","red","","104","","","","choice","","","img/green_ww/choose11.jpg","1","150","green","0.5","0.5","0.5","l","",""
"animation","156","111498","0.0-5.0-2.75","63d7edbef6596097994e730e","bdp_lott","Sun Mar 26 2023 12:05:38 GMT-0400 (Eastern Daylight Time)","239627","green","red","","","","","","","","","","","150","","","","","","[{""stimulus"":""img/green_lw/1.jpg"",""time"":55},{""stimulus"":""img/green_lw/2.jpg"",""time"":103},{""stimulus"":""img/green_lw/3.jpg"",""time"":156},{""stimulus"":""img/green_lw/4.jpg"",""time"":209},{""stimulus"":""img/green_lw/5.jpg"",""time"":257},{""stimulus"":""img/green_lw/6.jpg"",""time"":304},{""stimulus"":""img/green_lw/7.jpg"",""time"":353},{""stimulus"":""img/green_lw/8.jpg"",""time"":407},{""stimulus"":""img/green_lw/9.jpg"",""time"":455},{""stimulus"":""img/green_lw/10.jpg"",""time"":503},{""stimulus"":""img/green_lw/11.jpg"",""time"":554}]","[]"
"image-keyboard-response","157","111772","0.0-5.0-1.76","63d7edbef6596097994e730e","bdp_lott","Sun Mar 26 2023 12:05:38 GMT-0400 (Eastern Daylight Time)","239627","green","red","","273","","","","choice","","","img/green_lw/choose11.jpg","1","149","green","0.5","0.1","0.5","l","",""
"animation","158","112378","0.0-5.0-2.76","63d7edbef6596097994e730e","bdp_lott","Sun Mar 26 2023 12:05:38 GMT-0400 (Eastern Daylight Time)","239627","green","red","","","","","","","","","","","149","","","","","","[{""stimulus"":""img/green_lw/1.jpg"",""time"":51},{""stimulus"":""img/green_lw/2.jpg"",""time"":109},{""stimulus"":""img/green_lw/3.jpg"",""time"":157},{""stimulus"":""img/green_lw/4.jpg"",""time"":205},{""stimulus"":""img/green_lw/5.jpg"",""time"":253},{""stimulus"":""img/green_lw/6.jpg"",""time"":311},{""stimulus"":""img/green_lw/7.jpg"",""time"":360},{""stimulus"":""img/green_lw/8.jpg"",""time"":403},{""stimulus"":""img/green_lw/9.jpg"",""time"":456},{""stimulus"":""img/green_lw/10.jpg"",""time"":509},{""stimulus"":""img/green_lw/11.jpg"",""time"":557}]","[]"
"image-keyboard-response","159","112496","0.0-5.0-1.77","63d7edbef6596097994e730e","bdp_lott","Sun Mar 26 2023 12:05:38 GMT-0400 (Eastern Daylight Time)","239627","green","red","","117","","","","choice","","","img/green_lw/choose11.jpg","1","148","green","0.5","0.1","0.5","l","",""
"animation","160","113103","0.0-5.0-2.77","63d7edbef6596097994e730e","bdp_lott","Sun Mar 26 2023 12:05:38 GMT-0400 (Eastern Daylight Time)","239627","green","red","","","","","","","","","","","148","","","","","","[{""stimulus"":""img/green_lw/1.jpg"",""time"":58},{""stimulus"":""img/green_lw/2.jpg"",""time"":106},{""stimulus"":""img/green_lw/3.jpg"",""time"":154},{""stimulus"":""img/green_lw/4.jpg"",""time"":208},{""stimulus"":""img/green_lw/5.jpg"",""time"":256},{""stimulus"":""img/green_lw/6.jpg"",""time"":304},{""stimulus"":""img/green_lw/7.jpg"",""time"":352},{""stimulus"":""img/green_lw/8.jpg"",""time"":410},{""stimulus"":""img/green_lw/9.jpg"",""time"":458},{""stimulus"":""img/green_lw/10.jpg"",""time"":506},{""stimulus"":""img/green_lw/11.jpg"",""time"":554}]","[]"
"image-keyboard-response","161","113332","0.0-5.0-1.78","63d7edbef6596097994e730e","bdp_lott","Sun Mar 26 2023 12:05:38 GMT-0400 (Eastern Daylight Time)","239627","green","red","","228","","","","choice","","","img/green_lw/choose11.jpg","2","147","red","0.5","0.1","0.1","l","",""
"animation","162","113935","0.0-5.0-2.78","63d7edbef6596097994e730e","bdp_lott","Sun Mar 26 2023 12:05:38 GMT-0400 (Eastern Daylight Time)","239627","green","red","","","","","","","","","","","147","","","","","","[{""stimulus"":""img/red_ll/1.jpg"",""time"":54},{""stimulus"":""img/red_ll/2.jpg"",""time"":112},{""stimulus"":""img/red_ll/3.jpg"",""time"":158},{""stimulus"":""img/red_ll/4.jpg"",""time"":204},{""stimulus"":""img/red_ll/5.jpg"",""time"":252},{""stimulus"":""img/red_ll/6.jpg"",""time"":310},{""stimulus"":""img/red_ll/7.jpg"",""time"":358},{""stimulus"":""img/red_ll/8.jpg"",""time"":405},{""stimulus"":""img/red_ll/9.jpg"",""time"":454},{""stimulus"":""img/red_ll/10.jpg"",""time"":508},{""stimulus"":""img/red_ll/11.jpg"",""time"":558}]","[]"
"image-keyboard-response","163","114248","0.0-5.0-1.79","63d7edbef6596097994e730e","bdp_lott","Sun Mar 26 2023 12:05:38 GMT-0400 (Eastern Daylight Time)","239627","green","red","","312","","","","choice","","","img/red_ll/choose11.jpg","2","146","red","0.5","0.1","0.1","l","",""
"animation","164","114858","0.0-5.0-2.79","63d7edbef6596097994e730e","bdp_lott","Sun Mar 26 2023 12:05:38 GMT-0400 (Eastern Daylight Time)","239627","green","red","","","","","","","","","","","146","","","","","","[{""stimulus"":""img/red_ll/1.jpg"",""time"":56},{""stimulus"":""img/red_ll/2.jpg"",""time"":104},{""stimulus"":""img/red_ll/3.jpg"",""time"":152},{""stimulus"":""img/red_ll/4.jpg"",""time"":204},{""stimulus"":""img/red_ll/5.jpg"",""time"":258},{""stimulus"":""img/red_ll/6.jpg"",""time"":306},{""stimulus"":""img/red_ll/7.jpg"",""time"":354},{""stimulus"":""img/red_ll/8.jpg"",""time"":408},{""stimulus"":""img/red_ll/9.jpg"",""time"":456},{""stimulus"":""img/red_ll/10.jpg"",""time"":504},{""stimulus"":""img/red_ll/11.jpg"",""time"":553}]","[]"
"image-keyboard-response","165","115143","0.0-5.0-1.80","63d7edbef6596097994e730e","bdp_lott","Sun Mar 26 2023 12:05:38 GMT-0400 (Eastern Daylight Time)","239627","green","red","","284","","","","choice","","","img/red_ll/choose11.jpg","2","145","red","0.5","0.1","0.1","w","",""
"animation","166","115754","0.0-5.0-2.80","63d7edbef6596097994e730e","bdp_lott","Sun Mar 26 2023 12:05:38 GMT-0400 (Eastern Daylight Time)","239627","green","red","","","","","","","","","","","145","","","","","","[{""stimulus"":""img/red_lw/1.jpg"",""time"":56},{""stimulus"":""img/red_lw/2.jpg"",""time"":109},{""stimulus"":""img/red_lw/3.jpg"",""time"":152},{""stimulus"":""img/red_lw/4.jpg"",""time"":210},{""stimulus"":""img/red_lw/5.jpg"",""time"":258},{""stimulus"":""img/red_lw/6.jpg"",""time"":306},{""stimulus"":""img/red_lw/7.jpg"",""time"":354},{""stimulus"":""img/red_lw/8.jpg"",""time"":408},{""stimulus"":""img/red_lw/9.jpg"",""time"":456},{""stimulus"":""img/red_lw/10.jpg"",""time"":508},{""stimulus"":""img/red_lw/11.jpg"",""time"":552}]","[]"
"image-keyboard-response","167","115898","0.0-5.0-1.81","63d7edbef6596097994e730e","bdp_lott","Sun Mar 26 2023 12:05:38 GMT-0400 (Eastern Daylight Time)","239627","green","red","","143","","","","choice","","","img/red_lw/choose11.jpg","2","144","red","0.5","0.1","0.1","l","",""
"animation","168","116506","0.0-5.0-2.81","63d7edbef6596097994e730e","bdp_lott","Sun Mar 26 2023 12:05:38 GMT-0400 (Eastern Daylight Time)","239627","green","red","","","","","","","","","","","144","","","","","","[{""stimulus"":""img/red_ll/1.jpg"",""time"":54},{""stimulus"":""img/red_ll/2.jpg"",""time"":102},{""stimulus"":""img/red_ll/3.jpg"",""time"":160},{""stimulus"":""img/red_ll/4.jpg"",""time"":208},{""stimulus"":""img/red_ll/5.jpg"",""time"":256},{""stimulus"":""img/red_ll/6.jpg"",""time"":304},{""stimulus"":""img/red_ll/7.jpg"",""time"":351},{""stimulus"":""img/red_ll/8.jpg"",""time"":406},{""stimulus"":""img/red_ll/9.jpg"",""time"":454},{""stimulus"":""img/red_ll/10.jpg"",""time"":501},{""stimulus"":""img/red_ll/11.jpg"",""time"":560}]","[]"
"image-keyboard-response","169","116776","0.0-5.0-1.82","63d7edbef6596097994e730e","bdp_lott","Sun Mar 26 2023 12:05:38 GMT-0400 (Eastern Daylight Time)","239627","green","red","","269","","","","choice","","","img/red_ll/choose11.jpg","2","143","red","0.5","0.1","0.1","w","",""
"animation","170","117386","0.0-5.0-2.82","63d7edbef6596097994e730e","bdp_lott","Sun Mar 26 2023 12:05:38 GMT-0400 (Eastern Daylight Time)","239627","green","red","","","","","","","","","","","143","","","","","","[{""stimulus"":""img/red_lw/1.jpg"",""time"":56},{""stimulus"":""img/red_lw/2.jpg"",""time"":105},{""stimulus"":""img/red_lw/3.jpg"",""time"":152},{""stimulus"":""img/red_lw/4.jpg"",""time"":208},{""stimulus"":""img/red_lw/5.jpg"",""time"":258},{""stimulus"":""img/red_lw/6.jpg"",""time"":306},{""stimulus"":""img/red_lw/7.jpg"",""time"":354},{""stimulus"":""img/red_lw/8.jpg"",""time"":408},{""stimulus"":""img/red_lw/9.jpg"",""time"":456},{""stimulus"":""img/red_lw/10.jpg"",""time"":509},{""stimulus"":""img/red_lw/11.jpg"",""time"":552}]","[]"
"image-keyboard-response","171","117658","0.0-5.0-1.83","63d7edbef6596097994e730e","bdp_lott","Sun Mar 26 2023 12:05:38 GMT-0400 (Eastern Daylight Time)","239627","green","red","","271","","","","choice","","","img/red_lw/choose11.jpg","2","142","red","0.5","0.1","0.1","l","",""
"animation","172","118266","0.0-5.0-2.83","63d7edbef6596097994e730e","bdp_lott","Sun Mar 26 2023 12:05:38 GMT-0400 (Eastern Daylight Time)","239627","green","red","","","","","","","","","","","142","","","","","","[{""stimulus"":""img/red_ll/1.jpg"",""time"":53},{""stimulus"":""img/red_ll/2.jpg"",""time"":103},{""stimulus"":""img/red_ll/3.jpg"",""time"":159},{""stimulus"":""img/red_ll/4.jpg"",""time"":207},{""stimulus"":""img/red_ll/5.jpg"",""time"":255},{""stimulus"":""img/red_ll/6.jpg"",""time"":303},{""stimulus"":""img/red_ll/7.jpg"",""time"":359},{""stimulus"":""img/red_ll/8.jpg"",""time"":409},{""stimulus"":""img/red_ll/9.jpg"",""time"":456},{""stimulus"":""img/red_ll/10.jpg"",""time"":501},{""stimulus"":""img/red_ll/11.jpg"",""time"":559}]","[]"
"image-keyboard-response","173","118438","0.0-5.0-1.84","63d7edbef6596097994e730e","bdp_lott","Sun Mar 26 2023 12:05:38 GMT-0400 (Eastern Daylight Time)","239627","green","red","","171","","","","choice","","","img/red_ll/choose11.jpg","2","141","red","0.5","0.1","0.1","l","",""
"animation","174","119040","0.0-5.0-2.84","63d7edbef6596097994e730e","bdp_lott","Sun Mar 26 2023 12:05:38 GMT-0400 (Eastern Daylight Time)","239627","green","red","","","","","","","","","","","141","","","","","","[{""stimulus"":""img/red_ll/1.jpg"",""time"":58},{""stimulus"":""img/red_ll/2.jpg"",""time"":106},{""stimulus"":""img/red_ll/3.jpg"",""time"":154},{""stimulus"":""img/red_ll/4.jpg"",""time"":202},{""stimulus"":""img/red_ll/5.jpg"",""time"":260},{""stimulus"":""img/red_ll/6.jpg"",""time"":308},{""stimulus"":""img/red_ll/7.jpg"",""time"":356},{""stimulus"":""img/red_ll/8.jpg"",""time"":404},{""stimulus"":""img/red_ll/9.jpg"",""time"":458},{""stimulus"":""img/red_ll/10.jpg"",""time"":506},{""stimulus"":""img/red_ll/11.jpg"",""time"":554}]","[]"
"image-keyboard-response","175","119242","0.0-5.0-1.85","63d7edbef6596097994e730e","bdp_lott","Sun Mar 26 2023 12:05:38 GMT-0400 (Eastern Daylight Time)","239627","green","red","","202","","","","choice","","","img/red_ll/choose11.jpg","2","140","red","0.5","0.1","0.1","w","",""
"animation","176","119850","0.0-5.0-2.85","63d7edbef6596097994e730e","bdp_lott","Sun Mar 26 2023 12:05:38 GMT-0400 (Eastern Daylight Time)","239627","green","red","","","","","","","","","","","140","","","","","","[{""stimulus"":""img/red_lw/1.jpg"",""time"":53},{""stimulus"":""img/red_lw/2.jpg"",""time"":101},{""stimulus"":""img/red_lw/3.jpg"",""time"":159},{""stimulus"":""img/red_lw/4.jpg"",""time"":207},{""stimulus"":""img/red_lw/5.jpg"",""time"":255},{""stimulus"":""img/red_lw/6.jpg"",""time"":303},{""stimulus"":""img/red_lw/7.jpg"",""time"":356},{""stimulus"":""img/red_lw/8.jpg"",""time"":405},{""stimulus"":""img/red_lw/9.jpg"",""time"":457},{""stimulus"":""img/red_lw/10.jpg"",""time"":501},{""stimulus"":""img/red_lw/11.jpg"",""time"":559}]","[]"
"image-keyboard-response","177","120023","0.0-5.0-1.86","63d7edbef6596097994e730e","bdp_lott","Sun Mar 26 2023 12:05:38 GMT-0400 (Eastern Daylight Time)","239627","green","red","","172","","","","choice","","","img/red_lw/choose11.jpg","2","139","red","0.5","0.1","0.1","l","",""
"animation","178","120634","0.0-5.0-2.86","63d7edbef6596097994e730e","bdp_lott","Sun Mar 26 2023 12:05:38 GMT-0400 (Eastern Daylight Time)","239627","green","red","","","","","","","","","","","139","","","","","","[{""stimulus"":""img/red_ll/1.jpg"",""time"":57},{""stimulus"":""img/red_ll/2.jpg"",""time"":109},{""stimulus"":""img/red_ll/3.jpg"",""time"":157},{""stimulus"":""img/red_ll/4.jpg"",""time"":208},{""stimulus"":""img/red_ll/5.jpg"",""time"":259},{""stimulus"":""img/red_ll/6.jpg"",""time"":307},{""stimulus"":""img/red_ll/7.jpg"",""time"":355},{""stimulus"":""img/red_ll/8.jpg"",""time"":413},{""stimulus"":""img/red_ll/9.jpg"",""time"":461},{""stimulus"":""img/red_ll/10.jpg"",""time"":505},{""stimulus"":""img/red_ll/11.jpg"",""time"":553}]","[]"
"image-keyboard-response","179","120781","0.0-5.0-1.87","63d7edbef6596097994e730e","bdp_lott","Sun Mar 26 2023 12:05:38 GMT-0400 (Eastern Daylight Time)","239627","green","red","","146","","","","choice","","","img/red_ll/choose11.jpg","2","138","red","0.5","0.1","0.1","l","",""
"animation","180","121386","0.0-5.0-2.87","63d7edbef6596097994e730e","bdp_lott","Sun Mar 26 2023 12:05:38 GMT-0400 (Eastern Daylight Time)","239627","green","red","","","","","","","","","","","138","","","","","","[{""stimulus"":""img/red_ll/1.jpg"",""time"":60},{""stimulus"":""img/red_ll/2.jpg"",""time"":107},{""stimulus"":""img/red_ll/3.jpg"",""time"":156},{""stimulus"":""img/red_ll/4.jpg"",""time"":202},{""stimulus"":""img/red_ll/5.jpg"",""time"":263},{""stimulus"":""img/red_ll/6.jpg"",""time"":306},{""stimulus"":""img/red_ll/7.jpg"",""time"":354},{""stimulus"":""img/red_ll/8.jpg"",""time"":402},{""stimulus"":""img/red_ll/9.jpg"",""time"":460},{""stimulus"":""img/red_ll/10.jpg"",""time"":508},{""stimulus"":""img/red_ll/11.jpg"",""time"":556}]","[]"
"image-keyboard-response","181","121519","0.0-5.0-1.88","63d7edbef6596097994e730e","bdp_lott","Sun Mar 26 2023 12:05:38 GMT-0400 (Eastern Daylight Time)","239627","green","red","","132","","","","choice","","","img/red_ll/choose11.jpg","1","137","green","0.5","0.1","0.5","w","",""
"animation","182","122127","0.0-5.0-2.88","63d7edbef6596097994e730e","bdp_lott","Sun Mar 26 2023 12:05:38 GMT-0400 (Eastern Daylight Time)","239627","green","red","","","","","","","","","","","137","","","","","","[{""stimulus"":""img/green_wl/1.jpg"",""time"":59},{""stimulus"":""img/green_wl/2.jpg"",""time"":107},{""stimulus"":""img/green_wl/3.jpg"",""time"":155},{""stimulus"":""img/green_wl/4.jpg"",""time"":204},{""stimulus"":""img/green_wl/5.jpg"",""time"":260},{""stimulus"":""img/green_wl/6.jpg"",""time"":305},{""stimulus"":""img/green_wl/7.jpg"",""time"":353},{""stimulus"":""img/green_wl/8.jpg"",""time"":411},{""stimulus"":""img/green_wl/9.jpg"",""time"":459},{""stimulus"":""img/green_wl/10.jpg"",""time"":508},{""stimulus"":""img/green_wl/11.jpg"",""time"":555}]","[]"
"image-keyboard-response","183","122393","0.0-5.0-1.89","63d7edbef6596097994e730e","bdp_lott","Sun Mar 26 2023 12:05:38 GMT-0400 (Eastern Daylight Time)","239627","green","red","","265","","","","choice","","","img/green_wl/choose11.jpg","1","136","green","0.5","0.1","0.5","w","",""
"animation","184","123001","0.0-5.0-2.89","63d7edbef6596097994e730e","bdp_lott","Sun Mar 26 2023 12:05:38 GMT-0400 (Eastern Daylight Time)","239627","green","red","","","","","","","","","","","136","","","","","","[{""stimulus"":""img/green_wl/1.jpg"",""time"":55},{""stimulus"":""img/green_wl/2.jpg"",""time"":108},{""stimulus"":""img/green_wl/3.jpg"",""time"":161},{""stimulus"":""img/green_wl/4.jpg"",""time"":209},{""stimulus"":""img/green_wl/5.jpg"",""time"":257},{""stimulus"":""img/green_wl/6.jpg"",""time"":305},{""stimulus"":""img/green_wl/7.jpg"",""time"":359},{""stimulus"":""img/green_wl/8.jpg"",""time"":407},{""stimulus"":""img/green_wl/9.jpg"",""time"":456},{""stimulus"":""img/green_wl/10.jpg"",""time"":504},{""stimulus"":""img/green_wl/11.jpg"",""time"":560}]","[]"
"image-keyboard-response","185","123279","0.0-5.0-1.90","63d7edbef6596097994e730e","bdp_lott","Sun Mar 26 2023 12:05:38 GMT-0400 (Eastern Daylight Time)","239627","green","red","","277","","","","choice","","","img/green_wl/choose11.jpg","1","135","green","0.5","0.1","0.5","w","",""
"animation","186","123881","0.0-5.0-2.90","63d7edbef6596097994e730e","bdp_lott","Sun Mar 26 2023 12:05:38 GMT-0400 (Eastern Daylight Time)","239627","green","red","","","","","","","","","","","135","","","","","","[{""stimulus"":""img/green_wl/1.jpg"",""time"":58},{""stimulus"":""img/green_wl/2.jpg"",""time"":106},{""stimulus"":""img/green_wl/3.jpg"",""time"":154},{""stimulus"":""img/green_wl/4.jpg"",""time"":202},{""stimulus"":""img/green_wl/5.jpg"",""time"":259},{""stimulus"":""img/green_wl/6.jpg"",""time"":304},{""stimulus"":""img/green_wl/7.jpg"",""time"":353},{""stimulus"":""img/green_wl/8.jpg"",""time"":403},{""stimulus"":""img/green_wl/9.jpg"",""time"":459},{""stimulus"":""img/green_wl/10.jpg"",""time"":507},{""stimulus"":""img/green_wl/11.jpg"",""time"":555}]","[]"
"image-keyboard-response","187","124196","0.0-5.0-1.91","63d7edbef6596097994e730e","bdp_lott","Sun Mar 26 2023 12:05:38 GMT-0400 (Eastern Daylight Time)","239627","green","red","","314","","","","choice","","","img/green_wl/choose11.jpg","1","134","green","0.5","0.1","0.5","w","",""
"animation","188","124800","0.0-5.0-2.91","63d7edbef6596097994e730e","bdp_lott","Sun Mar 26 2023 12:05:38 GMT-0400 (Eastern Daylight Time)","239627","green","red","","","","","","","","","","","134","","","","","","[{""stimulus"":""img/green_wl/1.jpg"",""time"":54},{""stimulus"":""img/green_wl/2.jpg"",""time"":108},{""stimulus"":""img/green_wl/3.jpg"",""time"":157},{""stimulus"":""img/green_wl/4.jpg"",""time"":208},{""stimulus"":""img/green_wl/5.jpg"",""time"":253},{""stimulus"":""img/green_wl/6.jpg"",""time"":310},{""stimulus"":""img/green_wl/7.jpg"",""time"":358},{""stimulus"":""img/green_wl/8.jpg"",""time"":406},{""stimulus"":""img/green_wl/9.jpg"",""time"":454},{""stimulus"":""img/green_wl/10.jpg"",""time"":508},{""stimulus"":""img/green_wl/11.jpg"",""time"":556}]","[]"
"image-keyboard-response","189","125073","0.0-5.0-1.92","63d7edbef6596097994e730e","bdp_lott","Sun Mar 26 2023 12:05:38 GMT-0400 (Eastern Daylight Time)","239627","green","red","","272","","","","choice","","","img/green_wl/choose11.jpg","1","133","green","0.5","0.1","0.5","l","",""
