"event","trial","time","trialtype","numBlurs","subject_id","task","startTime","totalTime","fairMachine","unfairMachine","trial_type","trial_index","time_elapsed","internal_node_id","view_history","rt","success","stimulus","key_press","roundsLeft","chosen","pFairMachWin","pUnfairMachWin","pTrialWin","outcome","animation_sequence","responses"
"blur","0","0","blurevent","1","5dd03c5486c8861300974102","bdp_lott","Sun Mar 26 2023 07:27:47 GMT-0400 (Eastern Daylight Time)","305281","green","red","","","","","","","","","","","","","","","","",""
"","","","","","5dd03c5486c8861300974102","bdp_lott","Sun Mar 26 2023 07:27:47 GMT-0400 (Eastern Daylight Time)","305281","green","red","pavlovia","0","2","0.0-0.0","","","","","","","","","","","","",""
"focus","1","59947","focusevent","","5dd03c5486c8861300974102","bdp_lott","Sun Mar 26 2023 07:27:47 GMT-0400 (Eastern Daylight Time)","305281","green","red","","","","","","","","","","","","","","","","",""
"","","","","","5dd03c5486c8861300974102","bdp_lott","Sun Mar 26 2023 07:27:47 GMT-0400 (Eastern Daylight Time)","305281","green","red","instructions","1","60273","0.0-1.0","[{""page_index"":0,""viewing_time"":60271}]","60271","","","","","","","","","","",""
"fullscreenenter","2","63859","fullscreenenter","","5dd03c5486c8861300974102","bdp_lott","Sun Mar 26 2023 07:27:47 GMT-0400 (Eastern Daylight Time)","305281","green","red","","","","","","","","","","","","","","","","",""
"","","","","","5dd03c5486c8861300974102","bdp_lott","Sun Mar 26 2023 07:27:47 GMT-0400 (Eastern Daylight Time)","305281","green","red","fullscreen","2","64850","0.0-2.0","","","true","","","","","","","","","",""
"","","","","","5dd03c5486c8861300974102","bdp_lott","Sun Mar 26 2023 07:27:47 GMT-0400 (Eastern Daylight Time)","305281","green","red","instructions","3","91288","0.0-4.0","[{""page_index"":0,""viewing_time"":26437}]","26437","","","","","","","","","","",""
"","","","blurwarn","1","5dd03c5486c8861300974102","bdp_lott","Sun Mar 26 2023 07:27:47 GMT-0400 (Eastern Daylight Time)","305281","green","red","image-keyboard-response","4","103786","0.0-5.0-0.0-0.0","","12496","","","49","","","","","","","",""
"","","","choice","","5dd03c5486c8861300974102","bdp_lott","Sun Mar 26 2023 07:27:47 GMT-0400 (Eastern Daylight Time)","305281","green","red","image-keyboard-response","5","105783","0.0-5.0-1.0","","1734","","img/red_ll/initchoose11.jpg","1","225","green","0.5","0.5","0.5","w","",""
"","","","","","5dd03c5486c8861300974102","bdp_lott","Sun Mar 26 2023 07:27:47 GMT-0400 (Eastern Daylight Time)","305281","green","red","animation","6","106396","0.0-5.0-2.0","","","","","","225","","","","","","[{""stimulus"":""img/green_wl/1.jpg"",""time"":51},{""stimulus"":""img/green_wl/2.jpg"",""time"":102},{""stimulus"":""img/green_wl/3.jpg"",""time"":151},{""stimulus"":""img/green_wl/4.jpg"",""time"":201},{""stimulus"":""img/green_wl/5.jpg"",""time"":251},{""stimulus"":""img/green_wl/6.jpg"",""time"":301},{""stimulus"":""img/green_wl/7.jpg"",""time"":351},{""stimulus"":""img/green_wl/8.jpg"",""time"":401},{""stimulus"":""img/green_wl/9.jpg"",""time"":451},{""stimulus"":""img/green_wl/10.jpg"",""time"":505},{""stimulus"":""img/green_wl/11.jpg"",""time"":551}]","[]"
"","","","choice","","5dd03c5486c8861300974102","bdp_lott","Sun Mar 26 2023 07:27:47 GMT-0400 (Eastern Daylight Time)","305281","green","red","image-keyboard-response","7","108433","0.0-5.0-1.1","","2036","","img/green_wl/choose11.jpg","1","224","green","0.5","0.5","0.5","l","",""
"","","","","","5dd03c5486c8861300974102","bdp_lott","Sun Mar 26 2023 07:27:47 GMT-0400 (Eastern Daylight Time)","305281","green","red","animation","8","109034","0.0-5.0-2.1","","","","","","224","","","","","","[{""stimulus"":""img/green_ll/1.jpg"",""time"":51},{""stimulus"":""img/green_ll/2.jpg"",""time"":112},{""stimulus"":""img/green_ll/3.jpg"",""time"":151},{""stimulus"":""img/green_ll/4.jpg"",""time"":205},{""stimulus"":""img/green_ll/5.jpg"",""time"":251},{""stimulus"":""img/green_ll/6.jpg"",""time"":301},{""stimulus"":""img/green_ll/7.jpg"",""time"":350},{""stimulus"":""img/green_ll/8.jpg"",""time"":401},{""stimulus"":""img/green_ll/9.jpg"",""time"":451},{""stimulus"":""img/green_ll/10.jpg"",""time"":501},{""stimulus"":""img/green_ll/11.jpg"",""time"":551}]","[]"
"","","","choice","","5dd03c5486c8861300974102","bdp_lott","Sun Mar 26 2023 07:27:47 GMT-0400 (Eastern Daylight Time)","305281","green","red","image-keyboard-response","9","110222","0.0-5.0-1.2","","1188","","img/green_ll/choose11.jpg","2","223","red","0.5","0.5","0.5","w","",""
"","","","","","5dd03c5486c8861300974102","bdp_lott","Sun Mar 26 2023 07:27:47 GMT-0400 (Eastern Daylight Time)","305281","green","red","animation","10","110823","0.0-5.0-2.2","","","","","","223","","","","","","[{""stimulus"":""img/red_lw/1.jpg"",""time"":51},{""stimulus"":""img/red_lw/2.jpg"",""time"":101},{""stimulus"":""img/red_lw/3.jpg"",""time"":151},{""stimulus"":""img/red_lw/4.jpg"",""time"":201},{""stimulus"":""img/red_lw/5.jpg"",""time"":251},{""stimulus"":""img/red_lw/6.jpg"",""time"":301},{""stimulus"":""img/red_lw/7.jpg"",""time"":351},{""stimulus"":""img/red_lw/8.jpg"",""time"":401},{""stimulus"":""img/red_lw/9.jpg"",""time"":451},{""stimulus"":""img/red_lw/10.jpg"",""time"":501},{""stimulus"":""img/red_lw/11.jpg"",""time"":551}]","[]"
"","","","choice","","5dd03c5486c8861300974102","bdp_lott","Sun Mar 26 2023 07:27:47 GMT-0400 (Eastern Daylight Time)","305281","green","red","image-keyboard-response","11","111979","0.0-5.0-1.3","","1154","","img/red_lw/choose11.jpg","2","222","red","0.5","0.5","0.5","w","",""
"","","","","","5dd03c5486c8861300974102","bdp_lott","Sun Mar 26 2023 07:27:47 GMT-0400 (Eastern Daylight Time)","305281","green","red","animation","12","112579","0.0-5.0-2.3","","","","","","222","","","","","","[{""stimulus"":""img/red_lw/1.jpg"",""time"":50},{""stimulus"":""img/red_lw/2.jpg"",""time"":100},{""stimulus"":""img/red_lw/3.jpg"",""time"":151},{""stimulus"":""img/red_lw/4.jpg"",""time"":201},{""stimulus"":""img/red_lw/5.jpg"",""time"":251},{""stimulus"":""img/red_lw/6.jpg"",""time"":301},{""stimulus"":""img/red_lw/7.jpg"",""time"":351},{""stimulus"":""img/red_lw/8.jpg"",""time"":401},{""stimulus"":""img/red_lw/9.jpg"",""time"":451},{""stimulus"":""img/red_lw/10.jpg"",""time"":500},{""stimulus"":""img/red_lw/11.jpg"",""time"":551}]","[]"
"","","","choice","","5dd03c5486c8861300974102","bdp_lott","Sun Mar 26 2023 07:27:47 GMT-0400 (Eastern Daylight Time)","305281","green","red","image-keyboard-response","13","113106","0.0-5.0-1.4","","526","","img/red_lw/choose11.jpg","2","221","red","0.5","0.5","0.5","l","",""
"","","","","","5dd03c5486c8861300974102","bdp_lott","Sun Mar 26 2023 07:27:47 GMT-0400 (Eastern Daylight Time)","305281","green","red","animation","14","113716","0.0-5.0-2.4","","","","","","221","","","","","","[{""stimulus"":""img/red_ll/1.jpg"",""time"":52},{""stimulus"":""img/red_ll/2.jpg"",""time"":100},{""stimulus"":""img/red_ll/3.jpg"",""time"":161},{""stimulus"":""img/red_ll/4.jpg"",""time"":200},{""stimulus"":""img/red_ll/5.jpg"",""time"":250},{""stimulus"":""img/red_ll/6.jpg"",""time"":300},{""stimulus"":""img/red_ll/7.jpg"",""time"":351},{""stimulus"":""img/red_ll/8.jpg"",""time"":400},{""stimulus"":""img/red_ll/9.jpg"",""time"":451},{""stimulus"":""img/red_ll/10.jpg"",""time"":500},{""stimulus"":""img/red_ll/11.jpg"",""time"":550}]","[]"
"","","","choice","","5dd03c5486c8861300974102","bdp_lott","Sun Mar 26 2023 07:27:47 GMT-0400 (Eastern Daylight Time)","305281","green","red","image-keyboard-response","15","114135","0.0-5.0-1.5","","419","","img/red_ll/choose11.jpg","1","220","green","0.5","0.5","0.5","l","",""
"","","","","","5dd03c5486c8861300974102","bdp_lott","Sun Mar 26 2023 07:27:47 GMT-0400 (Eastern Daylight Time)","305281","green","red","animation","16","114736","0.0-5.0-2.5","","","","","","220","","","","","","[{""stimulus"":""img/green_ll/1.jpg"",""time"":51},{""stimulus"":""img/green_ll/2.jpg"",""time"":106},{""stimulus"":""img/green_ll/3.jpg"",""time"":151},{""stimulus"":""img/green_ll/4.jpg"",""time"":200},{""stimulus"":""img/green_ll/5.jpg"",""time"":250},{""stimulus"":""img/green_ll/6.jpg"",""time"":301},{""stimulus"":""img/green_ll/7.jpg"",""time"":351},{""stimulus"":""img/green_ll/8.jpg"",""time"":401},{""stimulus"":""img/green_ll/9.jpg"",""time"":451},{""stimulus"":""img/green_ll/10.jpg"",""time"":501},{""stimulus"":""img/green_ll/11.jpg"",""time"":551}]","[]"
"","","","choice","","5dd03c5486c8861300974102","bdp_lott","Sun Mar 26 2023 07:27:47 GMT-0400 (Eastern Daylight Time)","305281","green","red","image-keyboard-response","17","115262","0.0-5.0-1.6","","526","","img/green_ll/choose11.jpg","2","219","red","0.5","0.5","0.5","l","",""
"","","","","","5dd03c5486c8861300974102","bdp_lott","Sun Mar 26 2023 07:27:47 GMT-0400 (Eastern Daylight Time)","305281","green","red","animation","18","115863","0.0-5.0-2.6","","","","","","219","","","","","","[{""stimulus"":""img/red_ll/1.jpg"",""time"":51},{""stimulus"":""img/red_ll/2.jpg"",""time"":101},{""stimulus"":""img/red_ll/3.jpg"",""time"":151},{""stimulus"":""img/red_ll/4.jpg"",""time"":201},{""stimulus"":""img/red_ll/5.jpg"",""time"":251},{""stimulus"":""img/red_ll/6.jpg"",""time"":301},{""stimulus"":""img/red_ll/7.jpg"",""time"":351},{""stimulus"":""img/red_ll/8.jpg"",""time"":401},{""stimulus"":""img/red_ll/9.jpg"",""time"":451},{""stimulus"":""img/red_ll/10.jpg"",""time"":510},{""stimulus"":""img/red_ll/11.jpg"",""time"":557}]","[]"
"","","","choice","","5dd03c5486c8861300974102","bdp_lott","Sun Mar 26 2023 07:27:47 GMT-0400 (Eastern Daylight Time)","305281","green","red","image-keyboard-response","19","116634","0.0-5.0-1.7","","771","","img/red_ll/choose11.jpg","1","218","green","0.5","0.5","0.5","l","",""
"","","","","","5dd03c5486c8861300974102","bdp_lott","Sun Mar 26 2023 07:27:47 GMT-0400 (Eastern Daylight Time)","305281","green","red","animation","20","117242","0.0-5.0-2.7","","","","","","218","","","","","","[{""stimulus"":""img/green_ll/1.jpg"",""time"":51},{""stimulus"":""img/green_ll/2.jpg"",""time"":101},{""stimulus"":""img/green_ll/3.jpg"",""time"":151},{""stimulus"":""img/green_ll/4.jpg"",""time"":201},{""stimulus"":""img/green_ll/5.jpg"",""time"":251},{""stimulus"":""img/green_ll/6.jpg"",""time"":301},{""stimulus"":""img/green_ll/7.jpg"",""time"":351},{""stimulus"":""img/green_ll/8.jpg"",""time"":401},{""stimulus"":""img/green_ll/9.jpg"",""time"":451},{""stimulus"":""img/green_ll/10.jpg"",""time"":515},{""stimulus"":""img/green_ll/11.jpg"",""time"":551}]","[]"
"","","","choice","","5dd03c5486c8861300974102","bdp_lott","Sun Mar 26 2023 07:27:47 GMT-0400 (Eastern Daylight Time)","305281","green","red","image-keyboard-response","21","119883","0.0-5.0-1.8","","2640","","img/green_ll/choose11.jpg","2","217","red","0.5","0.5","0.5","l","",""
"","","","","","5dd03c5486c8861300974102","bdp_lott","Sun Mar 26 2023 07:27:47 GMT-0400 (Eastern Daylight Time)","305281","green","red","animation","22","120483","0.0-5.0-2.8","","","","","","217","","","","","","[{""stimulus"":""img/red_ll/1.jpg"",""time"":50},{""stimulus"":""img/red_ll/2.jpg"",""time"":100},{""stimulus"":""img/red_ll/3.jpg"",""time"":151},{""stimulus"":""img/red_ll/4.jpg"",""time"":201},{""stimulus"":""img/red_ll/5.jpg"",""time"":251},{""stimulus"":""img/red_ll/6.jpg"",""time"":300},{""stimulus"":""img/red_ll/7.jpg"",""time"":351},{""stimulus"":""img/red_ll/8.jpg"",""time"":401},{""stimulus"":""img/red_ll/9.jpg"",""time"":451},{""stimulus"":""img/red_ll/10.jpg"",""time"":508},{""stimulus"":""img/red_ll/11.jpg"",""time"":550}]","[]"
"","","","choice","","5dd03c5486c8861300974102","bdp_lott","Sun Mar 26 2023 07:27:47 GMT-0400 (Eastern Daylight Time)","305281","green","red","image-keyboard-response","23","121785","0.0-5.0-1.9","","1301","","img/red_ll/choose11.jpg","1","216","green","0.5","0.5","0.5","w","",""
"","","","","","5dd03c5486c8861300974102","bdp_lott","Sun Mar 26 2023 07:27:47 GMT-0400 (Eastern Daylight Time)","305281","green","red","animation","24","122386","0.0-5.0-2.9","","","","","","216","","","","","","[{""stimulus"":""img/green_wl/1.jpg"",""time"":60},{""stimulus"":""img/green_wl/2.jpg"",""time"":101},{""stimulus"":""img/green_wl/3.jpg"",""time"":153},{""stimulus"":""img/green_wl/4.jpg"",""time"":201},{""stimulus"":""img/green_wl/5.jpg"",""time"":261},{""stimulus"":""img/green_wl/6.jpg"",""time"":301},{""stimulus"":""img/green_wl/7.jpg"",""time"":351},{""stimulus"":""img/green_wl/8.jpg"",""time"":401},{""stimulus"":""img/green_wl/9.jpg"",""time"":451},{""stimulus"":""img/green_wl/10.jpg"",""time"":501},{""stimulus"":""img/green_wl/11.jpg"",""time"":550}]","[]"
"","","","choice","","5dd03c5486c8861300974102","bdp_lott","Sun Mar 26 2023 07:27:47 GMT-0400 (Eastern Daylight Time)","305281","green","red","image-keyboard-response","25","123024","0.0-5.0-1.10","","638","","img/green_wl/choose11.jpg","1","215","green","0.5","0.5","0.5","w","",""
"","","","","","5dd03c5486c8861300974102","bdp_lott","Sun Mar 26 2023 07:27:47 GMT-0400 (Eastern Daylight Time)","305281","green","red","animation","26","123624","0.0-5.0-2.10","","","","","","215","","","","","","[{""stimulus"":""img/green_wl/1.jpg"",""time"":50},{""stimulus"":""img/green_wl/2.jpg"",""time"":101},{""stimulus"":""img/green_wl/3.jpg"",""time"":151},{""stimulus"":""img/green_wl/4.jpg"",""time"":201},{""stimulus"":""img/green_wl/5.jpg"",""time"":251},{""stimulus"":""img/green_wl/6.jpg"",""time"":301},{""stimulus"":""img/green_wl/7.jpg"",""time"":351},{""stimulus"":""img/green_wl/8.jpg"",""time"":401},{""stimulus"":""img/green_wl/9.jpg"",""time"":451},{""stimulus"":""img/green_wl/10.jpg"",""time"":501},{""stimulus"":""img/green_wl/11.jpg"",""time"":551}]","[]"
"","","","choice","","5dd03c5486c8861300974102","bdp_lott","Sun Mar 26 2023 07:27:47 GMT-0400 (Eastern Daylight Time)","305281","green","red","image-keyboard-response","27","124010","0.0-5.0-1.11","","385","","img/green_wl/choose11.jpg","1","214","green","0.5","0.5","0.5","l","",""
"","","","","","5dd03c5486c8861300974102","bdp_lott","Sun Mar 26 2023 07:27:47 GMT-0400 (Eastern Daylight Time)","305281","green","red","animation","28","124611","0.0-5.0-2.11","","","","","","214","","","","","","[{""stimulus"":""img/green_ll/1.jpg"",""time"":59},{""stimulus"":""img/green_ll/2.jpg"",""time"":105},{""stimulus"":""img/green_ll/3.jpg"",""time"":151},{""stimulus"":""img/green_ll/4.jpg"",""time"":201},{""stimulus"":""img/green_ll/5.jpg"",""time"":251},{""stimulus"":""img/green_ll/6.jpg"",""time"":301},{""stimulus"":""img/green_ll/7.jpg"",""time"":351},{""stimulus"":""img/green_ll/8.jpg"",""time"":401},{""stimulus"":""img/green_ll/9.jpg"",""time"":451},{""stimulus"":""img/green_ll/10.jpg"",""time"":501},{""stimulus"":""img/green_ll/11.jpg"",""time"":551}]","[]"
"","","","choice","","5dd03c5486c8861300974102","bdp_lott","Sun Mar 26 2023 07:27:47 GMT-0400 (Eastern Daylight Time)","305281","green","red","image-keyboard-response","29","125092","0.0-5.0-1.12","","481","","img/green_ll/choose11.jpg","2","213","red","0.5","0.5","0.5","l","",""
"","","","","","5dd03c5486c8861300974102","bdp_lott","Sun Mar 26 2023 07:27:47 GMT-0400 (Eastern Daylight Time)","305281","green","red","animation","30","125692","0.0-5.0-2.12","","","","","","213","","","","","","[{""stimulus"":""img/red_ll/1.jpg"",""time"":50},{""stimulus"":""img/red_ll/2.jpg"",""time"":105},{""stimulus"":""img/red_ll/3.jpg"",""time"":152},{""stimulus"":""img/red_ll/4.jpg"",""time"":201},{""stimulus"":""img/red_ll/5.jpg"",""time"":250},{""stimulus"":""img/red_ll/6.jpg"",""time"":300},{""stimulus"":""img/red_ll/7.jpg"",""time"":350},{""stimulus"":""img/red_ll/8.jpg"",""time"":401},{""stimulus"":""img/red_ll/9.jpg"",""time"":451},{""stimulus"":""img/red_ll/10.jpg"",""time"":500},{""stimulus"":""img/red_ll/11.jpg"",""time"":550}]","[]"
"","","","choice","","5dd03c5486c8861300974102","bdp_lott","Sun Mar 26 2023 07:27:47 GMT-0400 (Eastern Daylight Time)","305281","green","red","image-keyboard-response","31","127490","0.0-5.0-1.13","","1796","","img/red_ll/choose11.jpg","2","212","red","0.5","0.5","0.5","l","",""
"","","","","","5dd03c5486c8861300974102","bdp_lott","Sun Mar 26 2023 07:27:47 GMT-0400 (Eastern Daylight Time)","305281","green","red","animation","32","128091","0.0-5.0-2.13","","","","","","212","","","","","","[{""stimulus"":""img/red_ll/1.jpg"",""time"":51},{""stimulus"":""img/red_ll/2.jpg"",""time"":101},{""stimulus"":""img/red_ll/3.jpg"",""time"":151},{""stimulus"":""img/red_ll/4.jpg"",""time"":201},{""stimulus"":""img/red_ll/5.jpg"",""time"":251},{""stimulus"":""img/red_ll/6.jpg"",""time"":313},{""stimulus"":""img/red_ll/7.jpg"",""time"":360},{""stimulus"":""img/red_ll/8.jpg"",""time"":401},{""stimulus"":""img/red_ll/9.jpg"",""time"":450},{""stimulus"":""img/red_ll/10.jpg"",""time"":515},{""stimulus"":""img/red_ll/11.jpg"",""time"":551}]","[]"
"","","","choice","","5dd03c5486c8861300974102","bdp_lott","Sun Mar 26 2023 07:27:47 GMT-0400 (Eastern Daylight Time)","305281","green","red","image-keyboard-response","33","128479","0.0-5.0-1.14","","388","","img/red_ll/choose11.jpg","1","211","green","0.5","0.5","0.5","l","",""
"","","","","","5dd03c5486c8861300974102","bdp_lott","Sun Mar 26 2023 07:27:47 GMT-0400 (Eastern Daylight Time)","305281","green","red","animation","34","129079","0.0-5.0-2.14","","","","","","211","","","","","","[{""stimulus"":""img/green_ll/1.jpg"",""time"":50},{""stimulus"":""img/green_ll/2.jpg"",""time"":113},{""stimulus"":""img/green_ll/3.jpg"",""time"":159},{""stimulus"":""img/green_ll/4.jpg"",""time"":200},{""stimulus"":""img/green_ll/5.jpg"",""time"":251},{""stimulus"":""img/green_ll/6.jpg"",""time"":301},{""stimulus"":""img/green_ll/7.jpg"",""time"":350},{""stimulus"":""img/green_ll/8.jpg"",""time"":401},{""stimulus"":""img/green_ll/9.jpg"",""time"":451},{""stimulus"":""img/green_ll/10.jpg"",""time"":500},{""stimulus"":""img/green_ll/11.jpg"",""time"":550}]","[]"
"","","","choice","","5dd03c5486c8861300974102","bdp_lott","Sun Mar 26 2023 07:27:47 GMT-0400 (Eastern Daylight Time)","305281","green","red","image-keyboard-response","35","129255","0.0-5.0-1.15","","176","","img/green_ll/choose11.jpg","2","210","red","0.5","0.5","0.5","l","",""
"","","","","","5dd03c5486c8861300974102","bdp_lott","Sun Mar 26 2023 07:27:47 GMT-0400 (Eastern Daylight Time)","305281","green","red","animation","36","129855","0.0-5.0-2.15","","","","","","210","","","","","","[{""stimulus"":""img/red_ll/1.jpg"",""time"":63},{""stimulus"":""img/red_ll/2.jpg"",""time"":100},{""stimulus"":""img/red_ll/3.jpg"",""time"":150},{""stimulus"":""img/red_ll/4.jpg"",""time"":201},{""stimulus"":""img/red_ll/5.jpg"",""time"":263},{""stimulus"":""img/red_ll/6.jpg"",""time"":309},{""stimulus"":""img/red_ll/7.jpg"",""time"":350},{""stimulus"":""img/red_ll/8.jpg"",""time"":402},{""stimulus"":""img/red_ll/9.jpg"",""time"":464},{""stimulus"":""img/red_ll/10.jpg"",""time"":510},{""stimulus"":""img/red_ll/11.jpg"",""time"":550}]","[]"
"","","","choice","","5dd03c5486c8861300974102","bdp_lott","Sun Mar 26 2023 07:27:47 GMT-0400 (Eastern Daylight Time)","305281","green","red","image-keyboard-response","37","130139","0.0-5.0-1.16","","283","","img/red_ll/choose11.jpg","2","209","red","0.5","0.5","0.5","w","",""
"","","","","","5dd03c5486c8861300974102","bdp_lott","Sun Mar 26 2023 07:27:47 GMT-0400 (Eastern Daylight Time)","305281","green","red","animation","38","130739","0.0-5.0-2.16","","","","","","209","","","","","","[{""stimulus"":""img/red_lw/1.jpg"",""time"":58},{""stimulus"":""img/red_lw/2.jpg"",""time"":101},{""stimulus"":""img/red_lw/3.jpg"",""time"":151},{""stimulus"":""img/red_lw/4.jpg"",""time"":201},{""stimulus"":""img/red_lw/5.jpg"",""time"":251},{""stimulus"":""img/red_lw/6.jpg"",""time"":300},{""stimulus"":""img/red_lw/7.jpg"",""time"":351},{""stimulus"":""img/red_lw/8.jpg"",""time"":401},{""stimulus"":""img/red_lw/9.jpg"",""time"":460},{""stimulus"":""img/red_lw/10.jpg"",""time"":506},{""stimulus"":""img/red_lw/11.jpg"",""time"":551}]","[]"
"","","","choice","","5dd03c5486c8861300974102","bdp_lott","Sun Mar 26 2023 07:27:47 GMT-0400 (Eastern Daylight Time)","305281","green","red","image-keyboard-response","39","130810","0.0-5.0-1.17","","70","","img/red_lw/choose11.jpg","1","208","green","0.5","0.5","0.5","l","",""
"","","","","","5dd03c5486c8861300974102","bdp_lott","Sun Mar 26 2023 07:27:47 GMT-0400 (Eastern Daylight Time)","305281","green","red","animation","40","131411","0.0-5.0-2.17","","","","","","208","","","","","","[{""stimulus"":""img/green_lw/1.jpg"",""time"":50},{""stimulus"":""img/green_lw/2.jpg"",""time"":113},{""stimulus"":""img/green_lw/3.jpg"",""time"":159},{""stimulus"":""img/green_lw/4.jpg"",""time"":201},{""stimulus"":""img/green_lw/5.jpg"",""time"":251},{""stimulus"":""img/green_lw/6.jpg"",""time"":301},{""stimulus"":""img/green_lw/7.jpg"",""time"":351},{""stimulus"":""img/green_lw/8.jpg"",""time"":401},{""stimulus"":""img/green_lw/9.jpg"",""time"":451},{""stimulus"":""img/green_lw/10.jpg"",""time"":501},{""stimulus"":""img/green_lw/11.jpg"",""time"":551}]","[]"
"","","","choice","","5dd03c5486c8861300974102","bdp_lott","Sun Mar 26 2023 07:27:47 GMT-0400 (Eastern Daylight Time)","305281","green","red","image-keyboard-response","41","131568","0.0-5.0-1.18","","157","","img/green_lw/choose11.jpg","1","207","green","0.5","0.5","0.5","w","",""
"","","","","","5dd03c5486c8861300974102","bdp_lott","Sun Mar 26 2023 07:27:47 GMT-0400 (Eastern Daylight Time)","305281","green","red","animation","42","132169","0.0-5.0-2.18","","","","","","207","","","","","","[{""stimulus"":""img/green_ww/1.jpg"",""time"":51},{""stimulus"":""img/green_ww/2.jpg"",""time"":112},{""stimulus"":""img/green_ww/3.jpg"",""time"":151},{""stimulus"":""img/green_ww/4.jpg"",""time"":201},{""stimulus"":""img/green_ww/5.jpg"",""time"":251},{""stimulus"":""img/green_ww/6.jpg"",""time"":301},{""stimulus"":""img/green_ww/7.jpg"",""time"":351},{""stimulus"":""img/green_ww/8.jpg"",""time"":401},{""stimulus"":""img/green_ww/9.jpg"",""time"":451},{""stimulus"":""img/green_ww/10.jpg"",""time"":501},{""stimulus"":""img/green_ww/11.jpg"",""time"":551}]","[]"
"","","","choice","","5dd03c5486c8861300974102","bdp_lott","Sun Mar 26 2023 07:27:47 GMT-0400 (Eastern Daylight Time)","305281","green","red","image-keyboard-response","43","132356","0.0-5.0-1.19","","187","","img/green_ww/choose11.jpg","2","206","red","0.5","0.5","0.5","l","",""
"","","","","","5dd03c5486c8861300974102","bdp_lott","Sun Mar 26 2023 07:27:47 GMT-0400 (Eastern Daylight Time)","305281","green","red","animation","44","132957","0.0-5.0-2.19","","","","","","206","","","","","","[{""stimulus"":""img/red_wl/1.jpg"",""time"":64},{""stimulus"":""img/red_wl/2.jpg"",""time"":100},{""stimulus"":""img/red_wl/3.jpg"",""time"":150},{""stimulus"":""img/red_wl/4.jpg"",""time"":203},{""stimulus"":""img/red_wl/5.jpg"",""time"":250},{""stimulus"":""img/red_wl/6.jpg"",""time"":300},{""stimulus"":""img/red_wl/7.jpg"",""time"":350},{""stimulus"":""img/red_wl/8.jpg"",""time"":400},{""stimulus"":""img/red_wl/9.jpg"",""time"":450},{""stimulus"":""img/red_wl/10.jpg"",""time"":500},{""stimulus"":""img/red_wl/11.jpg"",""time"":550}]","[]"
"","","","choice","","5dd03c5486c8861300974102","bdp_lott","Sun Mar 26 2023 07:27:47 GMT-0400 (Eastern Daylight Time)","305281","green","red","image-keyboard-response","45","133160","0.0-5.0-1.20","","203","","img/red_wl/choose11.jpg","1","205","green","0.5","0.5","0.5","w","",""
"","","","","","5dd03c5486c8861300974102","bdp_lott","Sun Mar 26 2023 07:27:47 GMT-0400 (Eastern Daylight Time)","305281","green","red","animation","46","133761","0.0-5.0-2.20","","","","","","205","","","","","","[{""stimulus"":""img/green_wl/1.jpg"",""time"":52},{""stimulus"":""img/green_wl/2.jpg"",""time"":101},{""stimulus"":""img/green_wl/3.jpg"",""time"":151},{""stimulus"":""img/green_wl/4.jpg"",""time"":201},{""stimulus"":""img/green_wl/5.jpg"",""time"":251},{""stimulus"":""img/green_wl/6.jpg"",""time"":312},{""stimulus"":""img/green_wl/7.jpg"",""time"":351},{""stimulus"":""img/green_wl/8.jpg"",""time"":401},{""stimulus"":""img/green_wl/9.jpg"",""time"":451},{""stimulus"":""img/green_wl/10.jpg"",""time"":501},{""stimulus"":""img/green_wl/11.jpg"",""time"":551}]","[]"
"","","","choice","","5dd03c5486c8861300974102","bdp_lott","Sun Mar 26 2023 07:27:47 GMT-0400 (Eastern Daylight Time)","305281","green","red","image-keyboard-response","47","133880","0.0-5.0-1.21","","119","","img/green_wl/choose11.jpg","1","204","green","0.5","0.5","0.5","l","",""
"","","","","","5dd03c5486c8861300974102","bdp_lott","Sun Mar 26 2023 07:27:47 GMT-0400 (Eastern Daylight Time)","305281","green","red","animation","48","134482","0.0-5.0-2.21","","","","","","204","","","","","","[{""stimulus"":""img/green_ll/1.jpg"",""time"":55},{""stimulus"":""img/green_ll/2.jpg"",""time"":101},{""stimulus"":""img/green_ll/3.jpg"",""time"":151},{""stimulus"":""img/green_ll/4.jpg"",""time"":200},{""stimulus"":""img/green_ll/5.jpg"",""time"":256},{""stimulus"":""img/green_ll/6.jpg"",""time"":301},{""stimulus"":""img/green_ll/7.jpg"",""time"":350},{""stimulus"":""img/green_ll/8.jpg"",""time"":410},{""stimulus"":""img/green_ll/9.jpg"",""time"":450},{""stimulus"":""img/green_ll/10.jpg"",""time"":500},{""stimulus"":""img/green_ll/11.jpg"",""time"":564}]","[]"
"","","","choice","","5dd03c5486c8861300974102","bdp_lott","Sun Mar 26 2023 07:27:47 GMT-0400 (Eastern Daylight Time)","305281","green","red","image-keyboard-response","49","134626","0.0-5.0-1.22","","144","","img/green_ll/choose11.jpg","1","203","green","0.5","0.5","0.5","w","",""
"","","","","","5dd03c5486c8861300974102","bdp_lott","Sun Mar 26 2023 07:27:47 GMT-0400 (Eastern Daylight Time)","305281","green","red","animation","50","135226","0.0-5.0-2.22","","","","","","203","","","","","","[{""stimulus"":""img/green_wl/1.jpg"",""time"":50},{""stimulus"":""img/green_wl/2.jpg"",""time"":110},{""stimulus"":""img/green_wl/3.jpg"",""time"":150},{""stimulus"":""img/green_wl/4.jpg"",""time"":201},{""stimulus"":""img/green_wl/5.jpg"",""time"":250},{""stimulus"":""img/green_wl/6.jpg"",""time"":300},{""stimulus"":""img/green_wl/7.jpg"",""time"":351},{""stimulus"":""img/green_wl/8.jpg"",""time"":400},{""stimulus"":""img/green_wl/9.jpg"",""time"":451},{""stimulus"":""img/green_wl/10.jpg"",""time"":501},{""stimulus"":""img/green_wl/11.jpg"",""time"":550}]","[]"
"","","","choice","","5dd03c5486c8861300974102","bdp_lott","Sun Mar 26 2023 07:27:47 GMT-0400 (Eastern Daylight Time)","305281","green","red","image-keyboard-response","51","135948","0.0-5.0-1.23","","721","","img/green_wl/choose11.jpg","1","202","green","0.5","0.5","0.5","w","",""
"","","","","","5dd03c5486c8861300974102","bdp_lott","Sun Mar 26 2023 07:27:47 GMT-0400 (Eastern Daylight Time)","305281","green","red","animation","52","136549","0.0-5.0-2.23","","","","","","202","","","","","","[{""stimulus"":""img/green_wl/1.jpg"",""time"":51},{""stimulus"":""img/green_wl/2.jpg"",""time"":100},{""stimulus"":""img/green_wl/3.jpg"",""time"":151},{""stimulus"":""img/green_wl/4.jpg"",""time"":201},{""stimulus"":""img/green_wl/5.jpg"",""time"":251},{""stimulus"":""img/green_wl/6.jpg"",""time"":301},{""stimulus"":""img/green_wl/7.jpg"",""time"":351},{""stimulus"":""img/green_wl/8.jpg"",""time"":401},{""stimulus"":""img/green_wl/9.jpg"",""time"":451},{""stimulus"":""img/green_wl/10.jpg"",""time"":507},{""stimulus"":""img/green_wl/11.jpg"",""time"":551}]","[]"
"","","","choice","","5dd03c5486c8861300974102","bdp_lott","Sun Mar 26 2023 07:27:47 GMT-0400 (Eastern Daylight Time)","305281","green","red","image-keyboard-response","53","136972","0.0-5.0-1.24","","422","","img/green_wl/choose11.jpg","1","201","green","0.5","0.5","0.5","w","",""
"","","","","","5dd03c5486c8861300974102","bdp_lott","Sun Mar 26 2023 07:27:47 GMT-0400 (Eastern Daylight Time)","305281","green","red","animation","54","137573","0.0-5.0-2.24","","","","","","201","","","","","","[{""stimulus"":""img/green_wl/1.jpg"",""time"":51},{""stimulus"":""img/green_wl/2.jpg"",""time"":107},{""stimulus"":""img/green_wl/3.jpg"",""time"":151},{""stimulus"":""img/green_wl/4.jpg"",""time"":201},{""stimulus"":""img/green_wl/5.jpg"",""time"":251},{""stimulus"":""img/green_wl/6.jpg"",""time"":301},{""stimulus"":""img/green_wl/7.jpg"",""time"":351},{""stimulus"":""img/green_wl/8.jpg"",""time"":401},{""stimulus"":""img/green_wl/9.jpg"",""time"":451},{""stimulus"":""img/green_wl/10.jpg"",""time"":501},{""stimulus"":""img/green_wl/11.jpg"",""time"":551}]","[]"
"","","","choice","","5dd03c5486c8861300974102","bdp_lott","Sun Mar 26 2023 07:27:47 GMT-0400 (Eastern Daylight Time)","305281","green","red","image-keyboard-response","55","137917","0.0-5.0-1.25","","344","","img/green_wl/choose11.jpg","1","200","green","0.5","0.5","0.5","l","",""
"","","","","","5dd03c5486c8861300974102","bdp_lott","Sun Mar 26 2023 07:27:47 GMT-0400 (Eastern Daylight Time)","305281","green","red","animation","56","138517","0.0-5.0-2.25","","","","","","200","","","","","","[{""stimulus"":""img/green_ll/1.jpg"",""time"":66},{""stimulus"":""img/green_ll/2.jpg"",""time"":101},{""stimulus"":""img/green_ll/3.jpg"",""time"":151},{""stimulus"":""img/green_ll/4.jpg"",""time"":201},{""stimulus"":""img/green_ll/5.jpg"",""time"":251},{""stimulus"":""img/green_ll/6.jpg"",""time"":301},{""stimulus"":""img/green_ll/7.jpg"",""time"":351},{""stimulus"":""img/green_ll/8.jpg"",""time"":405},{""stimulus"":""img/green_ll/9.jpg"",""time"":451},{""stimulus"":""img/green_ll/10.jpg"",""time"":514},{""stimulus"":""img/green_ll/11.jpg"",""time"":551}]","[]"
"","","","choice","","5dd03c5486c8861300974102","bdp_lott","Sun Mar 26 2023 07:27:47 GMT-0400 (Eastern Daylight Time)","305281","green","red","image-keyboard-response","57","139070","0.0-5.0-1.26","","552","","img/green_ll/choose11.jpg","2","199","red","0.5","0.5","0.5","l","",""
"","","","","","5dd03c5486c8861300974102","bdp_lott","Sun Mar 26 2023 07:27:47 GMT-0400 (Eastern Daylight Time)","305281","green","red","animation","58","139671","0.0-5.0-2.26","","","","","","199","","","","","","[{""stimulus"":""img/red_ll/1.jpg"",""time"":51},{""stimulus"":""img/red_ll/2.jpg"",""time"":101},{""stimulus"":""img/red_ll/3.jpg"",""time"":151},{""stimulus"":""img/red_ll/4.jpg"",""time"":201},{""stimulus"":""img/red_ll/5.jpg"",""time"":251},{""stimulus"":""img/red_ll/6.jpg"",""time"":301},{""stimulus"":""img/red_ll/7.jpg"",""time"":351},{""stimulus"":""img/red_ll/8.jpg"",""time"":401},{""stimulus"":""img/red_ll/9.jpg"",""time"":451},{""stimulus"":""img/red_ll/10.jpg"",""time"":501},{""stimulus"":""img/red_ll/11.jpg"",""time"":551}]","[]"
"","","","choice","","5dd03c5486c8861300974102","bdp_lott","Sun Mar 26 2023 07:27:47 GMT-0400 (Eastern Daylight Time)","305281","green","red","image-keyboard-response","59","139788","0.0-5.0-1.27","","117","","img/red_ll/choose11.jpg","1","198","green","0.5","0.5","0.5","l","",""
"","","","","","5dd03c5486c8861300974102","bdp_lott","Sun Mar 26 2023 07:27:47 GMT-0400 (Eastern Daylight Time)","305281","green","red","animation","60","140389","0.0-5.0-2.27","","","","","","198","","","","","","[{""stimulus"":""img/green_ll/1.jpg"",""time"":66},{""stimulus"":""img/green_ll/2.jpg"",""time"":101},{""stimulus"":""img/green_ll/3.jpg"",""time"":159},{""stimulus"":""img/green_ll/4.jpg"",""time"":201},{""stimulus"":""img/green_ll/5.jpg"",""time"":252},{""stimulus"":""img/green_ll/6.jpg"",""time"":302},{""stimulus"":""img/green_ll/7.jpg"",""time"":352},{""stimulus"":""img/green_ll/8.jpg"",""time"":401},{""stimulus"":""img/green_ll/9.jpg"",""time"":452},{""stimulus"":""img/green_ll/10.jpg"",""time"":513},{""stimulus"":""img/green_ll/11.jpg"",""time"":551}]","[]"
"","","","choice","","5dd03c5486c8861300974102","bdp_lott","Sun Mar 26 2023 07:27:47 GMT-0400 (Eastern Daylight Time)","305281","green","red","image-keyboard-response","61","140514","0.0-5.0-1.28","","124","","img/green_ll/choose11.jpg","1","197","green","0.5","0.5","0.5","l","",""
"","","","","","5dd03c5486c8861300974102","bdp_lott","Sun Mar 26 2023 07:27:47 GMT-0400 (Eastern Daylight Time)","305281","green","red","animation","62","141115","0.0-5.0-2.28","","","","","","197","","","","","","[{""stimulus"":""img/green_ll/1.jpg"",""time"":51},{""stimulus"":""img/green_ll/2.jpg"",""time"":112},{""stimulus"":""img/green_ll/3.jpg"",""time"":151},{""stimulus"":""img/green_ll/4.jpg"",""time"":201},{""stimulus"":""img/green_ll/5.jpg"",""time"":251},{""stimulus"":""img/green_ll/6.jpg"",""time"":301},{""stimulus"":""img/green_ll/7.jpg"",""time"":351},{""stimulus"":""img/green_ll/8.jpg"",""time"":401},{""stimulus"":""img/green_ll/9.jpg"",""time"":451},{""stimulus"":""img/green_ll/10.jpg"",""time"":513},{""stimulus"":""img/green_ll/11.jpg"",""time"":560}]","[]"
"","","","choice","","5dd03c5486c8861300974102","bdp_lott","Sun Mar 26 2023 07:27:47 GMT-0400 (Eastern Daylight Time)","305281","green","red","image-keyboard-response","63","141206","0.0-5.0-1.29","","91","","img/green_ll/choose11.jpg","1","196","green","0.5","0.5","0.5","l","",""
"","","","","","5dd03c5486c8861300974102","bdp_lott","Sun Mar 26 2023 07:27:47 GMT-0400 (Eastern Daylight Time)","305281","green","red","animation","64","141806","0.0-5.0-2.29","","","","","","196","","","","","","[{""stimulus"":""img/green_ll/1.jpg"",""time"":53},{""stimulus"":""img/green_ll/2.jpg"",""time"":100},{""stimulus"":""img/green_ll/3.jpg"",""time"":151},{""stimulus"":""img/green_ll/4.jpg"",""time"":207},{""stimulus"":""img/green_ll/5.jpg"",""time"":253},{""stimulus"":""img/green_ll/6.jpg"",""time"":300},{""stimulus"":""img/green_ll/7.jpg"",""time"":351},{""stimulus"":""img/green_ll/8.jpg"",""time"":407},{""stimulus"":""img/green_ll/9.jpg"",""time"":450},{""stimulus"":""img/green_ll/10.jpg"",""time"":515},{""stimulus"":""img/green_ll/11.jpg"",""time"":561}]","[]"
"","","","choice","","5dd03c5486c8861300974102","bdp_lott","Sun Mar 26 2023 07:27:47 GMT-0400 (Eastern Daylight Time)","305281","green","red","image-keyboard-response","65","141877","0.0-5.0-1.30","","69","","img/green_ll/choose11.jpg","1","195","green","0.5","0.5","0.5","w","",""
"","","","","","5dd03c5486c8861300974102","bdp_lott","Sun Mar 26 2023 07:27:47 GMT-0400 (Eastern Daylight Time)","305281","green","red","animation","66","142477","0.0-5.0-2.30","","","","","","195","","","","","","[{""stimulus"":""img/green_wl/1.jpg"",""time"":50},{""stimulus"":""img/green_wl/2.jpg"",""time"":105},{""stimulus"":""img/green_wl/3.jpg"",""time"":151},{""stimulus"":""img/green_wl/4.jpg"",""time"":201},{""stimulus"":""img/green_wl/5.jpg"",""time"":260},{""stimulus"":""img/green_wl/6.jpg"",""time"":300},{""stimulus"":""img/green_wl/7.jpg"",""time"":350},{""stimulus"":""img/green_wl/8.jpg"",""time"":400},{""stimulus"":""img/green_wl/9.jpg"",""time"":450},{""stimulus"":""img/green_wl/10.jpg"",""time"":500},{""stimulus"":""img/green_wl/11.jpg"",""time"":550}]","[]"
"","","","choice","","5dd03c5486c8861300974102","bdp_lott","Sun Mar 26 2023 07:27:47 GMT-0400 (Eastern Daylight Time)","305281","green","red","image-keyboard-response","67","143001","0.0-5.0-1.31","","523","","img/green_wl/choose11.jpg","1","194","green","0.5","0.5","0.5","w","",""
"","","","","","5dd03c5486c8861300974102","bdp_lott","Sun Mar 26 2023 07:27:47 GMT-0400 (Eastern Daylight Time)","305281","green","red","animation","68","143606","0.0-5.0-2.31","","","","","","194","","","","","","[{""stimulus"":""img/green_wl/1.jpg"",""time"":63},{""stimulus"":""img/green_wl/2.jpg"",""time"":100},{""stimulus"":""img/green_wl/3.jpg"",""time"":150},{""stimulus"":""img/green_wl/4.jpg"",""time"":200},{""stimulus"":""img/green_wl/5.jpg"",""time"":251},{""stimulus"":""img/green_wl/6.jpg"",""time"":300},{""stimulus"":""img/green_wl/7.jpg"",""time"":351},{""stimulus"":""img/green_wl/8.jpg"",""time"":405},{""stimulus"":""img/green_wl/9.jpg"",""time"":451},{""stimulus"":""img/green_wl/10.jpg"",""time"":501},{""stimulus"":""img/green_wl/11.jpg"",""time"":559}]","[]"
"","","","choice","","5dd03c5486c8861300974102","bdp_lott","Sun Mar 26 2023 07:27:47 GMT-0400 (Eastern Daylight Time)","305281","green","red","image-keyboard-response","69","143869","0.0-5.0-1.32","","262","","img/green_wl/choose11.jpg","1","193","green","0.5","0.5","0.5","l","",""
"","","","","","5dd03c5486c8861300974102","bdp_lott","Sun Mar 26 2023 07:27:47 GMT-0400 (Eastern Daylight Time)","305281","green","red","animation","70","144470","0.0-5.0-2.32","","","","","","193","","","","","","[{""stimulus"":""img/green_ll/1.jpg"",""time"":51},{""stimulus"":""img/green_ll/2.jpg"",""time"":108},{""stimulus"":""img/green_ll/3.jpg"",""time"":151},{""stimulus"":""img/green_ll/4.jpg"",""time"":201},{""stimulus"":""img/green_ll/5.jpg"",""time"":251},{""stimulus"":""img/green_ll/6.jpg"",""time"":301},{""stimulus"":""img/green_ll/7.jpg"",""time"":350},{""stimulus"":""img/green_ll/8.jpg"",""time"":401},{""stimulus"":""img/green_ll/9.jpg"",""time"":451},{""stimulus"":""img/green_ll/10.jpg"",""time"":501},{""stimulus"":""img/green_ll/11.jpg"",""time"":551}]","[]"
"","","","choice","","5dd03c5486c8861300974102","bdp_lott","Sun Mar 26 2023 07:27:47 GMT-0400 (Eastern Daylight Time)","305281","green","red","image-keyboard-response","71","144655","0.0-5.0-1.33","","185","","img/green_ll/choose11.jpg","2","192","red","0.5","0.5","0.5","w","",""
"","","","","","5dd03c5486c8861300974102","bdp_lott","Sun Mar 26 2023 07:27:47 GMT-0400 (Eastern Daylight Time)","305281","green","red","animation","72","145256","0.0-5.0-2.33","","","","","","192","","","","","","[{""stimulus"":""img/red_lw/1.jpg"",""time"":62},{""stimulus"":""img/red_lw/2.jpg"",""time"":101},{""stimulus"":""img/red_lw/3.jpg"",""time"":154},{""stimulus"":""img/red_lw/4.jpg"",""time"":201},{""stimulus"":""img/red_lw/5.jpg"",""time"":252},{""stimulus"":""img/red_lw/6.jpg"",""time"":301},{""stimulus"":""img/red_lw/7.jpg"",""time"":351},{""stimulus"":""img/red_lw/8.jpg"",""time"":401},{""stimulus"":""img/red_lw/9.jpg"",""time"":451},{""stimulus"":""img/red_lw/10.jpg"",""time"":510},{""stimulus"":""img/red_lw/11.jpg"",""time"":551}]","[]"
"","","","choice","","5dd03c5486c8861300974102","bdp_lott","Sun Mar 26 2023 07:27:47 GMT-0400 (Eastern Daylight Time)","305281","green","red","image-keyboard-response","73","145353","0.0-5.0-1.34","","96","","img/red_lw/choose11.jpg","2","191","red","0.5","0.5","0.5","w","",""
"","","","","","5dd03c5486c8861300974102","bdp_lott","Sun Mar 26 2023 07:27:47 GMT-0400 (Eastern Daylight Time)","305281","green","red","animation","74","145954","0.0-5.0-2.34","","","","","","191","","","","","","[{""stimulus"":""img/red_lw/1.jpg"",""time"":51},{""stimulus"":""img/red_lw/2.jpg"",""time"":106},{""stimulus"":""img/red_lw/3.jpg"",""time"":151},{""stimulus"":""img/red_lw/4.jpg"",""time"":201},{""stimulus"":""img/red_lw/5.jpg"",""time"":251},{""stimulus"":""img/red_lw/6.jpg"",""time"":307},{""stimulus"":""img/red_lw/7.jpg"",""time"":351},{""stimulus"":""img/red_lw/8.jpg"",""time"":401},{""stimulus"":""img/red_lw/9.jpg"",""time"":462},{""stimulus"":""img/red_lw/10.jpg"",""time"":501},{""stimulus"":""img/red_lw/11.jpg"",""time"":551}]","[]"
"","","","choice","","5dd03c5486c8861300974102","bdp_lott","Sun Mar 26 2023 07:27:47 GMT-0400 (Eastern Daylight Time)","305281","green","red","image-keyboard-response","75","146511","0.0-5.0-1.35","","557","","img/red_lw/choose11.jpg","2","190","red","0.5","0.5","0.5","w","",""
"","","","","","5dd03c5486c8861300974102","bdp_lott","Sun Mar 26 2023 07:27:47 GMT-0400 (Eastern Daylight Time)","305281","green","red","animation","76","147127","0.0-5.0-2.35","","","","","","190","","","","","","[{""stimulus"":""img/red_lw/1.jpg"",""time"":50},{""stimulus"":""img/red_lw/2.jpg"",""time"":100},{""stimulus"":""img/red_lw/3.jpg"",""time"":151},{""stimulus"":""img/red_lw/4.jpg"",""time"":201},{""stimulus"":""img/red_lw/5.jpg"",""time"":250},{""stimulus"":""img/red_lw/6.jpg"",""time"":306},{""stimulus"":""img/red_lw/7.jpg"",""time"":353},{""stimulus"":""img/red_lw/8.jpg"",""time"":415},{""stimulus"":""img/red_lw/9.jpg"",""time"":461},{""stimulus"":""img/red_lw/10.jpg"",""time"":500},{""stimulus"":""img/red_lw/11.jpg"",""time"":551}]","[]"
"","","","choice","","5dd03c5486c8861300974102","bdp_lott","Sun Mar 26 2023 07:27:47 GMT-0400 (Eastern Daylight Time)","305281","green","red","image-keyboard-response","77","147511","0.0-5.0-1.36","","384","","img/red_lw/choose11.jpg","2","189","red","0.5","0.5","0.5","l","",""
"","","","","","5dd03c5486c8861300974102","bdp_lott","Sun Mar 26 2023 07:27:47 GMT-0400 (Eastern Daylight Time)","305281","green","red","animation","78","148112","0.0-5.0-2.36","","","","","","189","","","","","","[{""stimulus"":""img/red_ll/1.jpg"",""time"":63},{""stimulus"":""img/red_ll/2.jpg"",""time"":110},{""stimulus"":""img/red_ll/3.jpg"",""time"":156},{""stimulus"":""img/red_ll/4.jpg"",""time"":201},{""stimulus"":""img/red_ll/5.jpg"",""time"":265},{""stimulus"":""img/red_ll/6.jpg"",""time"":311},{""stimulus"":""img/red_ll/7.jpg"",""time"":351},{""stimulus"":""img/red_ll/8.jpg"",""time"":401},{""stimulus"":""img/red_ll/9.jpg"",""time"":451},{""stimulus"":""img/red_ll/10.jpg"",""time"":512},{""stimulus"":""img/red_ll/11.jpg"",""time"":551}]","[]"
"","","","choice","","5dd03c5486c8861300974102","bdp_lott","Sun Mar 26 2023 07:27:47 GMT-0400 (Eastern Daylight Time)","305281","green","red","image-keyboard-response","79","149073","0.0-5.0-1.37","","960","","img/red_ll/choose11.jpg","1","188","green","0.5","0.5","0.5","l","",""
"","","","","","5dd03c5486c8861300974102","bdp_lott","Sun Mar 26 2023 07:27:47 GMT-0400 (Eastern Daylight Time)","305281","green","red","animation","80","149674","0.0-5.0-2.37","","","","","","188","","","","","","[{""stimulus"":""img/green_ll/1.jpg"",""time"":50},{""stimulus"":""img/green_ll/2.jpg"",""time"":100},{""stimulus"":""img/green_ll/3.jpg"",""time"":155},{""stimulus"":""img/green_ll/4.jpg"",""time"":216},{""stimulus"":""img/green_ll/5.jpg"",""time"":262},{""stimulus"":""img/green_ll/6.jpg"",""time"":301},{""stimulus"":""img/green_ll/7.jpg"",""time"":351},{""stimulus"":""img/green_ll/8.jpg"",""time"":401},{""stimulus"":""img/green_ll/9.jpg"",""time"":451},{""stimulus"":""img/green_ll/10.jpg"",""time"":509},{""stimulus"":""img/green_ll/11.jpg"",""time"":551}]","[]"
"","","","choice","","5dd03c5486c8861300974102","bdp_lott","Sun Mar 26 2023 07:27:47 GMT-0400 (Eastern Daylight Time)","305281","green","red","image-keyboard-response","81","149917","0.0-5.0-1.38","","243","","img/green_ll/choose11.jpg","1","187","green","0.5","0.5","0.5","w","",""
"","","","","","5dd03c5486c8861300974102","bdp_lott","Sun Mar 26 2023 07:27:47 GMT-0400 (Eastern Daylight Time)","305281","green","red","animation","82","150518","0.0-5.0-2.38","","","","","","187","","","","","","[{""stimulus"":""img/green_wl/1.jpg"",""time"":50},{""stimulus"":""img/green_wl/2.jpg"",""time"":100},{""stimulus"":""img/green_wl/3.jpg"",""time"":151},{""stimulus"":""img/green_wl/4.jpg"",""time"":201},{""stimulus"":""img/green_wl/5.jpg"",""time"":250},{""stimulus"":""img/green_wl/6.jpg"",""time"":301},{""stimulus"":""img/green_wl/7.jpg"",""time"":350},{""stimulus"":""img/green_wl/8.jpg"",""time"":401},{""stimulus"":""img/green_wl/9.jpg"",""time"":451},{""stimulus"":""img/green_wl/10.jpg"",""time"":515},{""stimulus"":""img/green_wl/11.jpg"",""time"":551}]","[]"
"","","","choice","","5dd03c5486c8861300974102","bdp_lott","Sun Mar 26 2023 07:27:47 GMT-0400 (Eastern Daylight Time)","305281","green","red","image-keyboard-response","83","151004","0.0-5.0-1.39","","486","","img/green_wl/choose11.jpg","1","186","green","0.5","0.5","0.5","w","",""
"","","","","","5dd03c5486c8861300974102","bdp_lott","Sun Mar 26 2023 07:27:47 GMT-0400 (Eastern Daylight Time)","305281","green","red","animation","84","151607","0.0-5.0-2.39","","","","","","186","","","","","","[{""stimulus"":""img/green_wl/1.jpg"",""time"":62},{""stimulus"":""img/green_wl/2.jpg"",""time"":101},{""stimulus"":""img/green_wl/3.jpg"",""time"":151},{""stimulus"":""img/green_wl/4.jpg"",""time"":200},{""stimulus"":""img/green_wl/5.jpg"",""time"":251},{""stimulus"":""img/green_wl/6.jpg"",""time"":300},{""stimulus"":""img/green_wl/7.jpg"",""time"":350},{""stimulus"":""img/green_wl/8.jpg"",""time"":400},{""stimulus"":""img/green_wl/9.jpg"",""time"":450},{""stimulus"":""img/green_wl/10.jpg"",""time"":500},{""stimulus"":""img/green_wl/11.jpg"",""time"":557}]","[]"
"","","","choice","","5dd03c5486c8861300974102","bdp_lott","Sun Mar 26 2023 07:27:47 GMT-0400 (Eastern Daylight Time)","305281","green","red","image-keyboard-response","85","152056","0.0-5.0-1.40","","448","","img/green_wl/choose11.jpg","1","185","green","0.5","0.5","0.5","w","",""
"","","","","","5dd03c5486c8861300974102","bdp_lott","Sun Mar 26 2023 07:27:47 GMT-0400 (Eastern Daylight Time)","305281","green","red","animation","86","152657","0.0-5.0-2.40","","","","","","185","","","","","","[{""stimulus"":""img/green_wl/1.jpg"",""time"":62},{""stimulus"":""img/green_wl/2.jpg"",""time"":101},{""stimulus"":""img/green_wl/3.jpg"",""time"":151},{""stimulus"":""img/green_wl/4.jpg"",""time"":201},{""stimulus"":""img/green_wl/5.jpg"",""time"":251},{""stimulus"":""img/green_wl/6.jpg"",""time"":301},{""stimulus"":""img/green_wl/7.jpg"",""time"":351},{""stimulus"":""img/green_wl/8.jpg"",""time"":401},{""stimulus"":""img/green_wl/9.jpg"",""time"":451},{""stimulus"":""img/green_wl/10.jpg"",""time"":511},{""stimulus"":""img/green_wl/11.jpg"",""time"":551}]","[]"
"","","","choice","","5dd03c5486c8861300974102","bdp_lott","Sun Mar 26 2023 07:27:47 GMT-0400 (Eastern Daylight Time)","305281","green","red","image-keyboard-response","87","153162","0.0-5.0-1.41","","504","","img/green_wl/choose11.jpg","1","184","green","0.5","0.5","0.5","l","",""
"","","","","","5dd03c5486c8861300974102","bdp_lott","Sun Mar 26 2023 07:27:47 GMT-0400 (Eastern Daylight Time)","305281","green","red","animation","88","153773","0.0-5.0-2.41","","","","","","184","","","","","","[{""stimulus"":""img/green_ll/1.jpg"",""time"":54},{""stimulus"":""img/green_ll/2.jpg"",""time"":101},{""stimulus"":""img/green_ll/3.jpg"",""time"":151},{""stimulus"":""img/green_ll/4.jpg"",""time"":201},{""stimulus"":""img/green_ll/5.jpg"",""time"":255},{""stimulus"":""img/green_ll/6.jpg"",""time"":301},{""stimulus"":""img/green_ll/7.jpg"",""time"":351},{""stimulus"":""img/green_ll/8.jpg"",""time"":401},{""stimulus"":""img/green_ll/9.jpg"",""time"":451},{""stimulus"":""img/green_ll/10.jpg"",""time"":501},{""stimulus"":""img/green_ll/11.jpg"",""time"":565}]","[]"
"","","","choice","","5dd03c5486c8861300974102","bdp_lott","Sun Mar 26 2023 07:27:47 GMT-0400 (Eastern Daylight Time)","305281","green","red","image-keyboard-response","89","153947","0.0-5.0-1.42","","173","","img/green_ll/choose11.jpg","1","183","green","0.5","0.5","0.5","w","",""
"","","","","","5dd03c5486c8861300974102","bdp_lott","Sun Mar 26 2023 07:27:47 GMT-0400 (Eastern Daylight Time)","305281","green","red","animation","90","154548","0.0-5.0-2.42","","","","","","183","","","","","","[{""stimulus"":""img/green_wl/1.jpg"",""time"":57},{""stimulus"":""img/green_wl/2.jpg"",""time"":103},{""stimulus"":""img/green_wl/3.jpg"",""time"":151},{""stimulus"":""img/green_wl/4.jpg"",""time"":201},{""stimulus"":""img/green_wl/5.jpg"",""time"":251},{""stimulus"":""img/green_wl/6.jpg"",""time"":301},{""stimulus"":""img/green_wl/7.jpg"",""time"":351},{""stimulus"":""img/green_wl/8.jpg"",""time"":401},{""stimulus"":""img/green_wl/9.jpg"",""time"":451},{""stimulus"":""img/green_wl/10.jpg"",""time"":501},{""stimulus"":""img/green_wl/11.jpg"",""time"":551}]","[]"
"","","","choice","","5dd03c5486c8861300974102","bdp_lott","Sun Mar 26 2023 07:27:47 GMT-0400 (Eastern Daylight Time)","305281","green","red","image-keyboard-response","91","154998","0.0-5.0-1.43","","450","","img/green_wl/choose11.jpg","1","182","green","0.5","0.5","0.5","l","",""
"","","","","","5dd03c5486c8861300974102","bdp_lott","Sun Mar 26 2023 07:27:47 GMT-0400 (Eastern Daylight Time)","305281","green","red","animation","92","155599","0.0-5.0-2.43","","","","","","182","","","","","","[{""stimulus"":""img/green_ll/1.jpg"",""time"":51},{""stimulus"":""img/green_ll/2.jpg"",""time"":101},{""stimulus"":""img/green_ll/3.jpg"",""time"":151},{""stimulus"":""img/green_ll/4.jpg"",""time"":201},{""stimulus"":""img/green_ll/5.jpg"",""time"":251},{""stimulus"":""img/green_ll/6.jpg"",""time"":301},{""stimulus"":""img/green_ll/7.jpg"",""time"":351},{""stimulus"":""img/green_ll/8.jpg"",""time"":401},{""stimulus"":""img/green_ll/9.jpg"",""time"":451},{""stimulus"":""img/green_ll/10.jpg"",""time"":501},{""stimulus"":""img/green_ll/11.jpg"",""time"":567}]","[]"
"","","","choice","","5dd03c5486c8861300974102","bdp_lott","Sun Mar 26 2023 07:27:47 GMT-0400 (Eastern Daylight Time)","305281","green","red","image-keyboard-response","93","156028","0.0-5.0-1.44","","428","","img/green_ll/choose11.jpg","1","181","green","0.5","0.5","0.5","l","",""
"","","","","","5dd03c5486c8861300974102","bdp_lott","Sun Mar 26 2023 07:27:47 GMT-0400 (Eastern Daylight Time)","305281","green","red","animation","94","156628","0.0-5.0-2.44","","","","","","181","","","","","","[{""stimulus"":""img/green_ll/1.jpg"",""time"":50},{""stimulus"":""img/green_ll/2.jpg"",""time"":109},{""stimulus"":""img/green_ll/3.jpg"",""time"":151},{""stimulus"":""img/green_ll/4.jpg"",""time"":200},{""stimulus"":""img/green_ll/5.jpg"",""time"":250},{""stimulus"":""img/green_ll/6.jpg"",""time"":300},{""stimulus"":""img/green_ll/7.jpg"",""time"":350},{""stimulus"":""img/green_ll/8.jpg"",""time"":400},{""stimulus"":""img/green_ll/9.jpg"",""time"":450},{""stimulus"":""img/green_ll/10.jpg"",""time"":501},{""stimulus"":""img/green_ll/11.jpg"",""time"":551}]","[]"
"","","","choice","","5dd03c5486c8861300974102","bdp_lott","Sun Mar 26 2023 07:27:47 GMT-0400 (Eastern Daylight Time)","305281","green","red","image-keyboard-response","95","157301","0.0-5.0-1.45","","673","","img/green_ll/choose11.jpg","1","180","green","0.5","0.5","0.5","w","",""
"","","","","","5dd03c5486c8861300974102","bdp_lott","Sun Mar 26 2023 07:27:47 GMT-0400 (Eastern Daylight Time)","305281","green","red","animation","96","157902","0.0-5.0-2.45","","","","","","180","","","","","","[{""stimulus"":""img/green_wl/1.jpg"",""time"":50},{""stimulus"":""img/green_wl/2.jpg"",""time"":100},{""stimulus"":""img/green_wl/3.jpg"",""time"":151},{""stimulus"":""img/green_wl/4.jpg"",""time"":201},{""stimulus"":""img/green_wl/5.jpg"",""time"":251},{""stimulus"":""img/green_wl/6.jpg"",""time"":301},{""stimulus"":""img/green_wl/7.jpg"",""time"":351},{""stimulus"":""img/green_wl/8.jpg"",""time"":401},{""stimulus"":""img/green_wl/9.jpg"",""time"":451},{""stimulus"":""img/green_wl/10.jpg"",""time"":505},{""stimulus"":""img/green_wl/11.jpg"",""time"":551}]","[]"
"","","","choice","","5dd03c5486c8861300974102","bdp_lott","Sun Mar 26 2023 07:27:47 GMT-0400 (Eastern Daylight Time)","305281","green","red","image-keyboard-response","97","158474","0.0-5.0-1.46","","572","","img/green_wl/choose11.jpg","1","179","green","0.5","0.5","0.5","w","",""
"","","","","","5dd03c5486c8861300974102","bdp_lott","Sun Mar 26 2023 07:27:47 GMT-0400 (Eastern Daylight Time)","305281","green","red","animation","98","159075","0.0-5.0-2.46","","","","","","179","","","","","","[{""stimulus"":""img/green_wl/1.jpg"",""time"":51},{""stimulus"":""img/green_wl/2.jpg"",""time"":101},{""stimulus"":""img/green_wl/3.jpg"",""time"":150},{""stimulus"":""img/green_wl/4.jpg"",""time"":200},{""stimulus"":""img/green_wl/5.jpg"",""time"":250},{""stimulus"":""img/green_wl/6.jpg"",""time"":300},{""stimulus"":""img/green_wl/7.jpg"",""time"":350},{""stimulus"":""img/green_wl/8.jpg"",""time"":400},{""stimulus"":""img/green_wl/9.jpg"",""time"":451},{""stimulus"":""img/green_wl/10.jpg"",""time"":501},{""stimulus"":""img/green_wl/11.jpg"",""time"":550}]","[]"
"","","","choice","","5dd03c5486c8861300974102","bdp_lott","Sun Mar 26 2023 07:27:47 GMT-0400 (Eastern Daylight Time)","305281","green","red","image-keyboard-response","99","159500","0.0-5.0-1.47","","425","","img/green_wl/choose11.jpg","1","178","green","0.5","0.5","0.5","l","",""
"","","","","","5dd03c5486c8861300974102","bdp_lott","Sun Mar 26 2023 07:27:47 GMT-0400 (Eastern Daylight Time)","305281","green","red","animation","100","160101","0.0-5.0-2.47","","","","","","178","","","","","","[{""stimulus"":""img/green_ll/1.jpg"",""time"":65},{""stimulus"":""img/green_ll/2.jpg"",""time"":101},{""stimulus"":""img/green_ll/3.jpg"",""time"":157},{""stimulus"":""img/green_ll/4.jpg"",""time"":204},{""stimulus"":""img/green_ll/5.jpg"",""time"":266},{""stimulus"":""img/green_ll/6.jpg"",""time"":301},{""stimulus"":""img/green_ll/7.jpg"",""time"":351},{""stimulus"":""img/green_ll/8.jpg"",""time"":401},{""stimulus"":""img/green_ll/9.jpg"",""time"":451},{""stimulus"":""img/green_ll/10.jpg"",""time"":501},{""stimulus"":""img/green_ll/11.jpg"",""time"":551}]","[]"
"","","","choice","","5dd03c5486c8861300974102","bdp_lott","Sun Mar 26 2023 07:27:47 GMT-0400 (Eastern Daylight Time)","305281","green","red","image-keyboard-response","101","160453","0.0-5.0-1.48","","352","","img/green_ll/choose11.jpg","1","177","green","0.5","0.5","0.5","w","",""
"","","","","","5dd03c5486c8861300974102","bdp_lott","Sun Mar 26 2023 07:27:47 GMT-0400 (Eastern Daylight Time)","305281","green","red","animation","102","161054","0.0-5.0-2.48","","","","","","177","","","","","","[{""stimulus"":""img/green_wl/1.jpg"",""time"":51},{""stimulus"":""img/green_wl/2.jpg"",""time"":111},{""stimulus"":""img/green_wl/3.jpg"",""time"":151},{""stimulus"":""img/green_wl/4.jpg"",""time"":201},{""stimulus"":""img/green_wl/5.jpg"",""time"":251},{""stimulus"":""img/green_wl/6.jpg"",""time"":301},{""stimulus"":""img/green_wl/7.jpg"",""time"":351},{""stimulus"":""img/green_wl/8.jpg"",""time"":401},{""stimulus"":""img/green_wl/9.jpg"",""time"":451},{""stimulus"":""img/green_wl/10.jpg"",""time"":501},{""stimulus"":""img/green_wl/11.jpg"",""time"":551}]","[]"
"","","","choice","","5dd03c5486c8861300974102","bdp_lott","Sun Mar 26 2023 07:27:47 GMT-0400 (Eastern Daylight Time)","305281","green","red","image-keyboard-response","103","161240","0.0-5.0-1.49","","186","","img/green_wl/choose11.jpg","2","176","red","0.5","0.5","0.5","l","",""
"","","","","","5dd03c5486c8861300974102","bdp_lott","Sun Mar 26 2023 07:27:47 GMT-0400 (Eastern Daylight Time)","305281","green","red","animation","104","161842","0.0-5.0-2.49","","","","","","176","","","","","","[{""stimulus"":""img/red_wl/1.jpg"",""time"":51},{""stimulus"":""img/red_wl/2.jpg"",""time"":102},{""stimulus"":""img/red_wl/3.jpg"",""time"":151},{""stimulus"":""img/red_wl/4.jpg"",""time"":201},{""stimulus"":""img/red_wl/5.jpg"",""time"":251},{""stimulus"":""img/red_wl/6.jpg"",""time"":301},{""stimulus"":""img/red_wl/7.jpg"",""time"":351},{""stimulus"":""img/red_wl/8.jpg"",""time"":401},{""stimulus"":""img/red_wl/9.jpg"",""time"":451},{""stimulus"":""img/red_wl/10.jpg"",""time"":514},{""stimulus"":""img/red_wl/11.jpg"",""time"":551}]","[]"
"","","","choice","","5dd03c5486c8861300974102","bdp_lott","Sun Mar 26 2023 07:27:47 GMT-0400 (Eastern Daylight Time)","305281","green","red","image-keyboard-response","105","162185","0.0-5.0-1.50","","343","","img/red_wl/choose11.jpg","1","175","green","0.5","0.5","0.5","w","",""
"","","","","","5dd03c5486c8861300974102","bdp_lott","Sun Mar 26 2023 07:27:47 GMT-0400 (Eastern Daylight Time)","305281","green","red","animation","106","162786","0.0-5.0-2.50","","","","","","175","","","","","","[{""stimulus"":""img/green_wl/1.jpg"",""time"":51},{""stimulus"":""img/green_wl/2.jpg"",""time"":110},{""stimulus"":""img/green_wl/3.jpg"",""time"":151},{""stimulus"":""img/green_wl/4.jpg"",""time"":201},{""stimulus"":""img/green_wl/5.jpg"",""time"":252},{""stimulus"":""img/green_wl/6.jpg"",""time"":301},{""stimulus"":""img/green_wl/7.jpg"",""time"":351},{""stimulus"":""img/green_wl/8.jpg"",""time"":401},{""stimulus"":""img/green_wl/9.jpg"",""time"":451},{""stimulus"":""img/green_wl/10.jpg"",""time"":511},{""stimulus"":""img/green_wl/11.jpg"",""time"":551}]","[]"
"","","","choice","","5dd03c5486c8861300974102","bdp_lott","Sun Mar 26 2023 07:27:47 GMT-0400 (Eastern Daylight Time)","305281","green","red","image-keyboard-response","107","163173","0.0-5.0-1.51","","387","","img/green_wl/choose11.jpg","1","174","green","0.5","0.5","0.5","l","",""
"","","","","","5dd03c5486c8861300974102","bdp_lott","Sun Mar 26 2023 07:27:47 GMT-0400 (Eastern Daylight Time)","305281","green","red","animation","108","163774","0.0-5.0-2.51","","","","","","174","","","","","","[{""stimulus"":""img/green_ll/1.jpg"",""time"":50},{""stimulus"":""img/green_ll/2.jpg"",""time"":100},{""stimulus"":""img/green_ll/3.jpg"",""time"":151},{""stimulus"":""img/green_ll/4.jpg"",""time"":201},{""stimulus"":""img/green_ll/5.jpg"",""time"":251},{""stimulus"":""img/green_ll/6.jpg"",""time"":301},{""stimulus"":""img/green_ll/7.jpg"",""time"":350},{""stimulus"":""img/green_ll/8.jpg"",""time"":401},{""stimulus"":""img/green_ll/9.jpg"",""time"":451},{""stimulus"":""img/green_ll/10.jpg"",""time"":500},{""stimulus"":""img/green_ll/11.jpg"",""time"":551}]","[]"
"","","","choice","","5dd03c5486c8861300974102","bdp_lott","Sun Mar 26 2023 07:27:47 GMT-0400 (Eastern Daylight Time)","305281","green","red","image-keyboard-response","109","164566","0.0-5.0-1.52","","792","","img/green_ll/choose11.jpg","2","173","red","0.5","0.5","0.5","w","",""
"","","","","","5dd03c5486c8861300974102","bdp_lott","Sun Mar 26 2023 07:27:47 GMT-0400 (Eastern Daylight Time)","305281","green","red","animation","110","165166","0.0-5.0-2.52","","","","","","173","","","","","","[{""stimulus"":""img/red_lw/1.jpg"",""time"":51},{""stimulus"":""img/red_lw/2.jpg"",""time"":109},{""stimulus"":""img/red_lw/3.jpg"",""time"":155},{""stimulus"":""img/red_lw/4.jpg"",""time"":200},{""stimulus"":""img/red_lw/5.jpg"",""time"":263},{""stimulus"":""img/red_lw/6.jpg"",""time"":301},{""stimulus"":""img/red_lw/7.jpg"",""time"":350},{""stimulus"":""img/red_lw/8.jpg"",""time"":401},{""stimulus"":""img/red_lw/9.jpg"",""time"":451},{""stimulus"":""img/red_lw/10.jpg"",""time"":501},{""stimulus"":""img/red_lw/11.jpg"",""time"":551}]","[]"
"","","","choice","","5dd03c5486c8861300974102","bdp_lott","Sun Mar 26 2023 07:27:47 GMT-0400 (Eastern Daylight Time)","305281","green","red","image-keyboard-response","111","165811","0.0-5.0-1.53","","644","","img/red_lw/choose11.jpg","2","172","red","0.5","0.5","0.5","l","",""
"","","","","","5dd03c5486c8861300974102","bdp_lott","Sun Mar 26 2023 07:27:47 GMT-0400 (Eastern Daylight Time)","305281","green","red","animation","112","166411","0.0-5.0-2.53","","","","","","172","","","","","","[{""stimulus"":""img/red_ll/1.jpg"",""time"":51},{""stimulus"":""img/red_ll/2.jpg"",""time"":112},{""stimulus"":""img/red_ll/3.jpg"",""time"":151},{""stimulus"":""img/red_ll/4.jpg"",""time"":200},{""stimulus"":""img/red_ll/5.jpg"",""time"":250},{""stimulus"":""img/red_ll/6.jpg"",""time"":301},{""stimulus"":""img/red_ll/7.jpg"",""time"":351},{""stimulus"":""img/red_ll/8.jpg"",""time"":401},{""stimulus"":""img/red_ll/9.jpg"",""time"":451},{""stimulus"":""img/red_ll/10.jpg"",""time"":501},{""stimulus"":""img/red_ll/11.jpg"",""time"":550}]","[]"
"","","","choice","","5dd03c5486c8861300974102","bdp_lott","Sun Mar 26 2023 07:27:47 GMT-0400 (Eastern Daylight Time)","305281","green","red","image-keyboard-response","113","166729","0.0-5.0-1.54","","317","","img/red_ll/choose11.jpg","1","171","green","0.5","0.5","0.5","w","",""
"","","","","","5dd03c5486c8861300974102","bdp_lott","Sun Mar 26 2023 07:27:47 GMT-0400 (Eastern Daylight Time)","305281","green","red","animation","114","167329","0.0-5.0-2.54","","","","","","171","","","","","","[{""stimulus"":""img/green_wl/1.jpg"",""time"":59},{""stimulus"":""img/green_wl/2.jpg"",""time"":101},{""stimulus"":""img/green_wl/3.jpg"",""time"":150},{""stimulus"":""img/green_wl/4.jpg"",""time"":200},{""stimulus"":""img/green_wl/5.jpg"",""time"":261},{""stimulus"":""img/green_wl/6.jpg"",""time"":300},{""stimulus"":""img/green_wl/7.jpg"",""time"":350},{""stimulus"":""img/green_wl/8.jpg"",""time"":415},{""stimulus"":""img/green_wl/9.jpg"",""time"":451},{""stimulus"":""img/green_wl/10.jpg"",""time"":508},{""stimulus"":""img/green_wl/11.jpg"",""time"":551}]","[]"
"","","","choice","","5dd03c5486c8861300974102","bdp_lott","Sun Mar 26 2023 07:27:47 GMT-0400 (Eastern Daylight Time)","305281","green","red","image-keyboard-response","115","167563","0.0-5.0-1.55","","234","","img/green_wl/choose11.jpg","1","170","green","0.5","0.5","0.5","w","",""
"","","","","","5dd03c5486c8861300974102","bdp_lott","Sun Mar 26 2023 07:27:47 GMT-0400 (Eastern Daylight Time)","305281","green","red","animation","116","168179","0.0-5.0-2.55","","","","","","170","","","","","","[{""stimulus"":""img/green_wl/1.jpg"",""time"":51},{""stimulus"":""img/green_wl/2.jpg"",""time"":101},{""stimulus"":""img/green_wl/3.jpg"",""time"":151},{""stimulus"":""img/green_wl/4.jpg"",""time"":201},{""stimulus"":""img/green_wl/5.jpg"",""time"":251},{""stimulus"":""img/green_wl/6.jpg"",""time"":301},{""stimulus"":""img/green_wl/7.jpg"",""time"":354},{""stimulus"":""img/green_wl/8.jpg"",""time"":401},{""stimulus"":""img/green_wl/9.jpg"",""time"":462},{""stimulus"":""img/green_wl/10.jpg"",""time"":509},{""stimulus"":""img/green_wl/11.jpg"",""time"":554}]","[]"
"","","","choice","","5dd03c5486c8861300974102","bdp_lott","Sun Mar 26 2023 07:27:47 GMT-0400 (Eastern Daylight Time)","305281","green","red","image-keyboard-response","117","168322","0.0-5.0-1.56","","143","","img/green_wl/choose11.jpg","1","169","green","0.5","0.5","0.5","w","",""
"","","","","","5dd03c5486c8861300974102","bdp_lott","Sun Mar 26 2023 07:27:47 GMT-0400 (Eastern Daylight Time)","305281","green","red","animation","118","168935","0.0-5.0-2.56","","","","","","169","","","","","","[{""stimulus"":""img/green_wl/1.jpg"",""time"":57},{""stimulus"":""img/green_wl/2.jpg"",""time"":101},{""stimulus"":""img/green_wl/3.jpg"",""time"":165},{""stimulus"":""img/green_wl/4.jpg"",""time"":201},{""stimulus"":""img/green_wl/5.jpg"",""time"":251},{""stimulus"":""img/green_wl/6.jpg"",""time"":301},{""stimulus"":""img/green_wl/7.jpg"",""time"":351},{""stimulus"":""img/green_wl/8.jpg"",""time"":401},{""stimulus"":""img/green_wl/9.jpg"",""time"":451},{""stimulus"":""img/green_wl/10.jpg"",""time"":501},{""stimulus"":""img/green_wl/11.jpg"",""time"":551}]","[]"
"","","","choice","","5dd03c5486c8861300974102","bdp_lott","Sun Mar 26 2023 07:27:47 GMT-0400 (Eastern Daylight Time)","305281","green","red","image-keyboard-response","119","169132","0.0-5.0-1.57","","197","","img/green_wl/choose11.jpg","1","168","green","0.5","0.5","0.5","l","",""
"","","","","","5dd03c5486c8861300974102","bdp_lott","Sun Mar 26 2023 07:27:47 GMT-0400 (Eastern Daylight Time)","305281","green","red","animation","120","169733","0.0-5.0-2.57","","","","","","168","","","","","","[{""stimulus"":""img/green_ll/1.jpg"",""time"":65},{""stimulus"":""img/green_ll/2.jpg"",""time"":101},{""stimulus"":""img/green_ll/3.jpg"",""time"":158},{""stimulus"":""img/green_ll/4.jpg"",""time"":201},{""stimulus"":""img/green_ll/5.jpg"",""time"":265},{""stimulus"":""img/green_ll/6.jpg"",""time"":301},{""stimulus"":""img/green_ll/7.jpg"",""time"":351},{""stimulus"":""img/green_ll/8.jpg"",""time"":401},{""stimulus"":""img/green_ll/9.jpg"",""time"":451},{""stimulus"":""img/green_ll/10.jpg"",""time"":501},{""stimulus"":""img/green_ll/11.jpg"",""time"":551}]","[]"
"","","","choice","","5dd03c5486c8861300974102","bdp_lott","Sun Mar 26 2023 07:27:47 GMT-0400 (Eastern Daylight Time)","305281","green","red","image-keyboard-response","121","169922","0.0-5.0-1.58","","189","","img/green_ll/choose11.jpg","1","167","green","0.5","0.5","0.5","l","",""
"","","","","","5dd03c5486c8861300974102","bdp_lott","Sun Mar 26 2023 07:27:47 GMT-0400 (Eastern Daylight Time)","305281","green","red","animation","122","170523","0.0-5.0-2.58","","","","","","167","","","","","","[{""stimulus"":""img/green_ll/1.jpg"",""time"":63},{""stimulus"":""img/green_ll/2.jpg"",""time"":101},{""stimulus"":""img/green_ll/3.jpg"",""time"":155},{""stimulus"":""img/green_ll/4.jpg"",""time"":201},{""stimulus"":""img/green_ll/5.jpg"",""time"":252},{""stimulus"":""img/green_ll/6.jpg"",""time"":302},{""stimulus"":""img/green_ll/7.jpg"",""time"":352},{""stimulus"":""img/green_ll/8.jpg"",""time"":402},{""stimulus"":""img/green_ll/9.jpg"",""time"":451},{""stimulus"":""img/green_ll/10.jpg"",""time"":509},{""stimulus"":""img/green_ll/11.jpg"",""time"":551}]","[]"
"","","","choice","","5dd03c5486c8861300974102","bdp_lott","Sun Mar 26 2023 07:27:47 GMT-0400 (Eastern Daylight Time)","305281","green","red","image-keyboard-response","123","170650","0.0-5.0-1.59","","126","","img/green_ll/choose11.jpg","2","166","red","0.5","0.5","0.5","w","",""
"","","","","","5dd03c5486c8861300974102","bdp_lott","Sun Mar 26 2023 07:27:47 GMT-0400 (Eastern Daylight Time)","305281","green","red","animation","124","171251","0.0-5.0-2.59","","","","","","166","","","","","","[{""stimulus"":""img/red_lw/1.jpg"",""time"":50},{""stimulus"":""img/red_lw/2.jpg"",""time"":105},{""stimulus"":""img/red_lw/3.jpg"",""time"":151},{""stimulus"":""img/red_lw/4.jpg"",""time"":213},{""stimulus"":""img/red_lw/5.jpg"",""time"":260},{""stimulus"":""img/red_lw/6.jpg"",""time"":300},{""stimulus"":""img/red_lw/7.jpg"",""time"":353},{""stimulus"":""img/red_lw/8.jpg"",""time"":414},{""stimulus"":""img/red_lw/9.jpg"",""time"":461},{""stimulus"":""img/red_lw/10.jpg"",""time"":507},{""stimulus"":""img/red_lw/11.jpg"",""time"":550}]","[]"
"","","","choice","","5dd03c5486c8861300974102","bdp_lott","Sun Mar 26 2023 07:27:47 GMT-0400 (Eastern Daylight Time)","305281","green","red","image-keyboard-response","125","171389","0.0-5.0-1.60","","137","","img/red_lw/choose11.jpg","2","165","red","0.5","0.5","0.5","l","",""
"","","","","","5dd03c5486c8861300974102","bdp_lott","Sun Mar 26 2023 07:27:47 GMT-0400 (Eastern Daylight Time)","305281","green","red","animation","126","171993","0.0-5.0-2.60","","","","","","165","","","","","","[{""stimulus"":""img/red_ll/1.jpg"",""time"":63},{""stimulus"":""img/red_ll/2.jpg"",""time"":100},{""stimulus"":""img/red_ll/3.jpg"",""time"":156},{""stimulus"":""img/red_ll/4.jpg"",""time"":200},{""stimulus"":""img/red_ll/5.jpg"",""time"":264},{""stimulus"":""img/red_ll/6.jpg"",""time"":300},{""stimulus"":""img/red_ll/7.jpg"",""time"":350},{""stimulus"":""img/red_ll/8.jpg"",""time"":400},{""stimulus"":""img/red_ll/9.jpg"",""time"":450},{""stimulus"":""img/red_ll/10.jpg"",""time"":501},{""stimulus"":""img/red_ll/11.jpg"",""time"":550}]","[]"
"","","","choice","","5dd03c5486c8861300974102","bdp_lott","Sun Mar 26 2023 07:27:47 GMT-0400 (Eastern Daylight Time)","305281","green","red","image-keyboard-response","127","172123","0.0-5.0-1.61","","130","","img/red_ll/choose11.jpg","1","164","green","0.5","0.5","0.5","w","",""
"","","","","","5dd03c5486c8861300974102","bdp_lott","Sun Mar 26 2023 07:27:47 GMT-0400 (Eastern Daylight Time)","305281","green","red","animation","128","172736","0.0-5.0-2.61","","","","","","164","","","","","","[{""stimulus"":""img/green_wl/1.jpg"",""time"":50},{""stimulus"":""img/green_wl/2.jpg"",""time"":100},{""stimulus"":""img/green_wl/3.jpg"",""time"":163},{""stimulus"":""img/green_wl/4.jpg"",""time"":201},{""stimulus"":""img/green_wl/5.jpg"",""time"":251},{""stimulus"":""img/green_wl/6.jpg"",""time"":300},{""stimulus"":""img/green_wl/7.jpg"",""time"":351},{""stimulus"":""img/green_wl/8.jpg"",""time"":401},{""stimulus"":""img/green_wl/9.jpg"",""time"":450},{""stimulus"":""img/green_wl/10.jpg"",""time"":501},{""stimulus"":""img/green_wl/11.jpg"",""time"":551}]","[]"
"","","","choice","","5dd03c5486c8861300974102","bdp_lott","Sun Mar 26 2023 07:27:47 GMT-0400 (Eastern Daylight Time)","305281","green","red","image-keyboard-response","129","172857","0.0-5.0-1.62","","121","","img/green_wl/choose11.jpg","1","163","green","0.5","0.5","0.5","w","",""
"","","","","","5dd03c5486c8861300974102","bdp_lott","Sun Mar 26 2023 07:27:47 GMT-0400 (Eastern Daylight Time)","305281","green","red","animation","130","173458","0.0-5.0-2.62","","","","","","163","","","","","","[{""stimulus"":""img/green_wl/1.jpg"",""time"":64},{""stimulus"":""img/green_wl/2.jpg"",""time"":101},{""stimulus"":""img/green_wl/3.jpg"",""time"":151},{""stimulus"":""img/green_wl/4.jpg"",""time"":201},{""stimulus"":""img/green_wl/5.jpg"",""time"":251},{""stimulus"":""img/green_wl/6.jpg"",""time"":301},{""stimulus"":""img/green_wl/7.jpg"",""time"":351},{""stimulus"":""img/green_wl/8.jpg"",""time"":401},{""stimulus"":""img/green_wl/9.jpg"",""time"":451},{""stimulus"":""img/green_wl/10.jpg"",""time"":501},{""stimulus"":""img/green_wl/11.jpg"",""time"":551}]","[]"
"","","","choice","","5dd03c5486c8861300974102","bdp_lott","Sun Mar 26 2023 07:27:47 GMT-0400 (Eastern Daylight Time)","305281","green","red","image-keyboard-response","131","173591","0.0-5.0-1.63","","133","","img/green_wl/choose11.jpg","1","162","green","0.5","0.5","0.5","l","",""
"","","","","","5dd03c5486c8861300974102","bdp_lott","Sun Mar 26 2023 07:27:47 GMT-0400 (Eastern Daylight Time)","305281","green","red","animation","132","174192","0.0-5.0-2.63","","","","","","162","","","","","","[{""stimulus"":""img/green_ll/1.jpg"",""time"":55},{""stimulus"":""img/green_ll/2.jpg"",""time"":100},{""stimulus"":""img/green_ll/3.jpg"",""time"":151},{""stimulus"":""img/green_ll/4.jpg"",""time"":200},{""stimulus"":""img/green_ll/5.jpg"",""time"":250},{""stimulus"":""img/green_ll/6.jpg"",""time"":301},{""stimulus"":""img/green_ll/7.jpg"",""time"":351},{""stimulus"":""img/green_ll/8.jpg"",""time"":401},{""stimulus"":""img/green_ll/9.jpg"",""time"":451},{""stimulus"":""img/green_ll/10.jpg"",""time"":501},{""stimulus"":""img/green_ll/11.jpg"",""time"":551}]","[]"
"","","","choice","","5dd03c5486c8861300974102","bdp_lott","Sun Mar 26 2023 07:27:47 GMT-0400 (Eastern Daylight Time)","305281","green","red","image-keyboard-response","133","174271","0.0-5.0-1.64","","79","","img/green_ll/choose11.jpg","1","161","green","0.5","0.5","0.5","l","",""
"","","","","","5dd03c5486c8861300974102","bdp_lott","Sun Mar 26 2023 07:27:47 GMT-0400 (Eastern Daylight Time)","305281","green","red","animation","134","174871","0.0-5.0-2.64","","","","","","161","","","","","","[{""stimulus"":""img/green_ll/1.jpg"",""time"":51},{""stimulus"":""img/green_ll/2.jpg"",""time"":100},{""stimulus"":""img/green_ll/3.jpg"",""time"":162},{""stimulus"":""img/green_ll/4.jpg"",""time"":208},{""stimulus"":""img/green_ll/5.jpg"",""time"":250},{""stimulus"":""img/green_ll/6.jpg"",""time"":300},{""stimulus"":""img/green_ll/7.jpg"",""time"":363},{""stimulus"":""img/green_ll/8.jpg"",""time"":401},{""stimulus"":""img/green_ll/9.jpg"",""time"":450},{""stimulus"":""img/green_ll/10.jpg"",""time"":502},{""stimulus"":""img/green_ll/11.jpg"",""time"":550}]","[]"
"","","","choice","","5dd03c5486c8861300974102","bdp_lott","Sun Mar 26 2023 07:27:47 GMT-0400 (Eastern Daylight Time)","305281","green","red","image-keyboard-response","135","175075","0.0-5.0-1.65","","203","","img/green_ll/choose11.jpg","1","160","green","0.5","0.5","0.5","w","",""
"","","","","","5dd03c5486c8861300974102","bdp_lott","Sun Mar 26 2023 07:27:47 GMT-0400 (Eastern Daylight Time)","305281","green","red","animation","136","175676","0.0-5.0-2.65","","","","","","160","","","","","","[{""stimulus"":""img/green_wl/1.jpg"",""time"":54},{""stimulus"":""img/green_wl/2.jpg"",""time"":100},{""stimulus"":""img/green_wl/3.jpg"",""time"":151},{""stimulus"":""img/green_wl/4.jpg"",""time"":201},{""stimulus"":""img/green_wl/5.jpg"",""time"":253},{""stimulus"":""img/green_wl/6.jpg"",""time"":301},{""stimulus"":""img/green_wl/7.jpg"",""time"":351},{""stimulus"":""img/green_wl/8.jpg"",""time"":401},{""stimulus"":""img/green_wl/9.jpg"",""time"":451},{""stimulus"":""img/green_wl/10.jpg"",""time"":515},{""stimulus"":""img/green_wl/11.jpg"",""time"":551}]","[]"
"","","","choice","","5dd03c5486c8861300974102","bdp_lott","Sun Mar 26 2023 07:27:47 GMT-0400 (Eastern Daylight Time)","305281","green","red","image-keyboard-response","137","175828","0.0-5.0-1.66","","152","","img/green_wl/choose11.jpg","1","159","green","0.5","0.5","0.5","w","",""
"","","","","","5dd03c5486c8861300974102","bdp_lott","Sun Mar 26 2023 07:27:47 GMT-0400 (Eastern Daylight Time)","305281","green","red","animation","138","176429","0.0-5.0-2.66","","","","","","159","","","","","","[{""stimulus"":""img/green_wl/1.jpg"",""time"":56},{""stimulus"":""img/green_wl/2.jpg"",""time"":102},{""stimulus"":""img/green_wl/3.jpg"",""time"":151},{""stimulus"":""img/green_wl/4.jpg"",""time"":201},{""stimulus"":""img/green_wl/5.jpg"",""time"":251},{""stimulus"":""img/green_wl/6.jpg"",""time"":301},{""stimulus"":""img/green_wl/7.jpg"",""time"":351},{""stimulus"":""img/green_wl/8.jpg"",""time"":401},{""stimulus"":""img/green_wl/9.jpg"",""time"":451},{""stimulus"":""img/green_wl/10.jpg"",""time"":504},{""stimulus"":""img/green_wl/11.jpg"",""time"":551}]","[]"
"","","","choice","","5dd03c5486c8861300974102","bdp_lott","Sun Mar 26 2023 07:27:47 GMT-0400 (Eastern Daylight Time)","305281","green","red","image-keyboard-response","139","176521","0.0-5.0-1.67","","91","","img/green_wl/choose11.jpg","2","158","red","0.5","0.5","0.5","w","",""
"","","","","","5dd03c5486c8861300974102","bdp_lott","Sun Mar 26 2023 07:27:47 GMT-0400 (Eastern Daylight Time)","305281","green","red","animation","140","177121","0.0-5.0-2.67","","","","","","158","","","","","","[{""stimulus"":""img/red_ww/1.jpg"",""time"":51},{""stimulus"":""img/red_ww/2.jpg"",""time"":101},{""stimulus"":""img/red_ww/3.jpg"",""time"":151},{""stimulus"":""img/red_ww/4.jpg"",""time"":201},{""stimulus"":""img/red_ww/5.jpg"",""time"":251},{""stimulus"":""img/red_ww/6.jpg"",""time"":307},{""stimulus"":""img/red_ww/7.jpg"",""time"":353},{""stimulus"":""img/red_ww/8.jpg"",""time"":401},{""stimulus"":""img/red_ww/9.jpg"",""time"":451},{""stimulus"":""img/red_ww/10.jpg"",""time"":501},{""stimulus"":""img/red_ww/11.jpg"",""time"":553}]","[]"
"","","","choice","","5dd03c5486c8861300974102","bdp_lott","Sun Mar 26 2023 07:27:47 GMT-0400 (Eastern Daylight Time)","305281","green","red","image-keyboard-response","141","177250","0.0-5.0-1.68","","128","","img/red_ww/choose11.jpg","2","157","red","0.5","0.5","0.5","l","",""
"","","","","","5dd03c5486c8861300974102","bdp_lott","Sun Mar 26 2023 07:27:47 GMT-0400 (Eastern Daylight Time)","305281","green","red","animation","142","177851","0.0-5.0-2.68","","","","","","157","","","","","","[{""stimulus"":""img/red_wl/1.jpg"",""time"":56},{""stimulus"":""img/red_wl/2.jpg"",""time"":100},{""stimulus"":""img/red_wl/3.jpg"",""time"":164},{""stimulus"":""img/red_wl/4.jpg"",""time"":200},{""stimulus"":""img/red_wl/5.jpg"",""time"":250},{""stimulus"":""img/red_wl/6.jpg"",""time"":300},{""stimulus"":""img/red_wl/7.jpg"",""time"":350},{""stimulus"":""img/red_wl/8.jpg"",""time"":412},{""stimulus"":""img/red_wl/9.jpg"",""time"":450},{""stimulus"":""img/red_wl/10.jpg"",""time"":500},{""stimulus"":""img/red_wl/11.jpg"",""time"":551}]","[]"
"","","","choice","","5dd03c5486c8861300974102","bdp_lott","Sun Mar 26 2023 07:27:47 GMT-0400 (Eastern Daylight Time)","305281","green","red","image-keyboard-response","143","177889","0.0-5.0-1.69","","38","","img/red_wl/choose11.jpg","2","156","red","0.5","0.5","0.5","l","",""
"","","","","","5dd03c5486c8861300974102","bdp_lott","Sun Mar 26 2023 07:27:47 GMT-0400 (Eastern Daylight Time)","305281","green","red","animation","144","178496","0.0-5.0-2.69","","","","","","156","","","","","","[{""stimulus"":""img/red_wl/1.jpg"",""time"":52},{""stimulus"":""img/red_wl/2.jpg"",""time"":100},{""stimulus"":""img/red_wl/3.jpg"",""time"":150},{""stimulus"":""img/red_wl/4.jpg"",""time"":206},{""stimulus"":""img/red_wl/5.jpg"",""time"":250},{""stimulus"":""img/red_wl/6.jpg"",""time"":315},{""stimulus"":""img/red_wl/7.jpg"",""time"":361},{""stimulus"":""img/red_wl/8.jpg"",""time"":400},{""stimulus"":""img/red_wl/9.jpg"",""time"":451},{""stimulus"":""img/red_wl/10.jpg"",""time"":515},{""stimulus"":""img/red_wl/11.jpg"",""time"":550}]","[]"
"","","","choice","","5dd03c5486c8861300974102","bdp_lott","Sun Mar 26 2023 07:27:47 GMT-0400 (Eastern Daylight Time)","305281","green","red","image-keyboard-response","145","178598","0.0-5.0-1.70","","101","","img/red_wl/choose11.jpg","2","155","red","0.5","0.5","0.5","l","",""
"","","","","","5dd03c5486c8861300974102","bdp_lott","Sun Mar 26 2023 07:27:47 GMT-0400 (Eastern Daylight Time)","305281","green","red","animation","146","179199","0.0-5.0-2.70","","","","","","155","","","","","","[{""stimulus"":""img/red_wl/1.jpg"",""time"":53},{""stimulus"":""img/red_wl/2.jpg"",""time"":115},{""stimulus"":""img/red_wl/3.jpg"",""time"":151},{""stimulus"":""img/red_wl/4.jpg"",""time"":201},{""stimulus"":""img/red_wl/5.jpg"",""time"":251},{""stimulus"":""img/red_wl/6.jpg"",""time"":301},{""stimulus"":""img/red_wl/7.jpg"",""time"":351},{""stimulus"":""img/red_wl/8.jpg"",""time"":409},{""stimulus"":""img/red_wl/9.jpg"",""time"":451},{""stimulus"":""img/red_wl/10.jpg"",""time"":500},{""stimulus"":""img/red_wl/11.jpg"",""time"":564}]","[]"
"","","","choice","","5dd03c5486c8861300974102","bdp_lott","Sun Mar 26 2023 07:27:47 GMT-0400 (Eastern Daylight Time)","305281","green","red","image-keyboard-response","147","179234","0.0-5.0-1.71","","35","","img/red_wl/choose11.jpg","1","154","green","0.5","0.5","0.5","l","",""
"","","","","","5dd03c5486c8861300974102","bdp_lott","Sun Mar 26 2023 07:27:47 GMT-0400 (Eastern Daylight Time)","305281","green","red","animation","148","179834","0.0-5.0-2.71","","","","","","154","","","","","","[{""stimulus"":""img/green_ll/1.jpg"",""time"":50},{""stimulus"":""img/green_ll/2.jpg"",""time"":100},{""stimulus"":""img/green_ll/3.jpg"",""time"":160},{""stimulus"":""img/green_ll/4.jpg"",""time"":200},{""stimulus"":""img/green_ll/5.jpg"",""time"":253},{""stimulus"":""img/green_ll/6.jpg"",""time"":300},{""stimulus"":""img/green_ll/7.jpg"",""time"":350},{""stimulus"":""img/green_ll/8.jpg"",""time"":408},{""stimulus"":""img/green_ll/9.jpg"",""time"":454},{""stimulus"":""img/green_ll/10.jpg"",""time"":501},{""stimulus"":""img/green_ll/11.jpg"",""time"":550}]","[]"
"","","","choice","","5dd03c5486c8861300974102","bdp_lott","Sun Mar 26 2023 07:27:47 GMT-0400 (Eastern Daylight Time)","305281","green","red","image-keyboard-response","149","179860","0.0-5.0-1.72","","26","","img/green_ll/choose11.jpg","1","153","green","0.5","0.5","0.5","l","",""
"","","","","","5dd03c5486c8861300974102","bdp_lott","Sun Mar 26 2023 07:27:47 GMT-0400 (Eastern Daylight Time)","305281","green","red","animation","150","180460","0.0-5.0-2.72","","","","","","153","","","","","","[{""stimulus"":""img/green_ll/1.jpg"",""time"":51},{""stimulus"":""img/green_ll/2.jpg"",""time"":101},{""stimulus"":""img/green_ll/3.jpg"",""time"":151},{""stimulus"":""img/green_ll/4.jpg"",""time"":201},{""stimulus"":""img/green_ll/5.jpg"",""time"":251},{""stimulus"":""img/green_ll/6.jpg"",""time"":301},{""stimulus"":""img/green_ll/7.jpg"",""time"":351},{""stimulus"":""img/green_ll/8.jpg"",""time"":401},{""stimulus"":""img/green_ll/9.jpg"",""time"":451},{""stimulus"":""img/green_ll/10.jpg"",""time"":501},{""stimulus"":""img/green_ll/11.jpg"",""time"":551}]","[]"
"","","","choice","","5dd03c5486c8861300974102","bdp_lott","Sun Mar 26 2023 07:27:47 GMT-0400 (Eastern Daylight Time)","305281","green","red","image-keyboard-response","151","180900","0.0-5.0-1.73","","439","","img/green_ll/choose11.jpg","1","152","green","0.5","0.5","0.5","l","",""
"","","","","","5dd03c5486c8861300974102","bdp_lott","Sun Mar 26 2023 07:27:47 GMT-0400 (Eastern Daylight Time)","305281","green","red","animation","152","181501","0.0-5.0-2.73","","","","","","152","","","","","","[{""stimulus"":""img/green_ll/1.jpg"",""time"":51},{""stimulus"":""img/green_ll/2.jpg"",""time"":101},{""stimulus"":""img/green_ll/3.jpg"",""time"":151},{""stimulus"":""img/green_ll/4.jpg"",""time"":201},{""stimulus"":""img/green_ll/5.jpg"",""time"":251},{""stimulus"":""img/green_ll/6.jpg"",""time"":301},{""stimulus"":""img/green_ll/7.jpg"",""time"":351},{""stimulus"":""img/green_ll/8.jpg"",""time"":401},{""stimulus"":""img/green_ll/9.jpg"",""time"":451},{""stimulus"":""img/green_ll/10.jpg"",""time"":501},{""stimulus"":""img/green_ll/11.jpg"",""time"":551}]","[]"
"","","","choice","","5dd03c5486c8861300974102","bdp_lott","Sun Mar 26 2023 07:27:47 GMT-0400 (Eastern Daylight Time)","305281","green","red","image-keyboard-response","153","181918","0.0-5.0-1.74","","417","","img/green_ll/choose11.jpg","1","151","green","0.5","0.5","0.5","l","",""
"","","","","","5dd03c5486c8861300974102","bdp_lott","Sun Mar 26 2023 07:27:47 GMT-0400 (Eastern Daylight Time)","305281","green","red","animation","154","182519","0.0-5.0-2.74","","","","","","151","","","","","","[{""stimulus"":""img/green_ll/1.jpg"",""time"":54},{""stimulus"":""img/green_ll/2.jpg"",""time"":115},{""stimulus"":""img/green_ll/3.jpg"",""time"":151},{""stimulus"":""img/green_ll/4.jpg"",""time"":201},{""stimulus"":""img/green_ll/5.jpg"",""time"":254},{""stimulus"":""img/green_ll/6.jpg"",""time"":301},{""stimulus"":""img/green_ll/7.jpg"",""time"":351},{""stimulus"":""img/green_ll/8.jpg"",""time"":401},{""stimulus"":""img/green_ll/9.jpg"",""time"":455},{""stimulus"":""img/green_ll/10.jpg"",""time"":501},{""stimulus"":""img/green_ll/11.jpg"",""time"":563}]","[]"
"","","","choice","","5dd03c5486c8861300974102","bdp_lott","Sun Mar 26 2023 07:27:47 GMT-0400 (Eastern Daylight Time)","305281","green","red","image-keyboard-response","155","182590","0.0-5.0-1.75","","71","","img/green_ll/choose11.jpg","1","150","green","0.5","0.5","0.5","w","",""
"","","","","","5dd03c5486c8861300974102","bdp_lott","Sun Mar 26 2023 07:27:47 GMT-0400 (Eastern Daylight Time)","305281","green","red","animation","156","183191","0.0-5.0-2.75","","","","","","150","","","","","","[{""stimulus"":""img/green_wl/1.jpg"",""time"":51},{""stimulus"":""img/green_wl/2.jpg"",""time"":101},{""stimulus"":""img/green_wl/3.jpg"",""time"":151},{""stimulus"":""img/green_wl/4.jpg"",""time"":201},{""stimulus"":""img/green_wl/5.jpg"",""time"":251},{""stimulus"":""img/green_wl/6.jpg"",""time"":301},{""stimulus"":""img/green_wl/7.jpg"",""time"":351},{""stimulus"":""img/green_wl/8.jpg"",""time"":401},{""stimulus"":""img/green_wl/9.jpg"",""time"":451},{""stimulus"":""img/green_wl/10.jpg"",""time"":501},{""stimulus"":""img/green_wl/11.jpg"",""time"":551}]","[]"
"","","","choice","","5dd03c5486c8861300974102","bdp_lott","Sun Mar 26 2023 07:27:47 GMT-0400 (Eastern Daylight Time)","305281","green","red","image-keyboard-response","157","183250","0.0-5.0-1.76","","59","","img/green_wl/choose11.jpg","1","149","green","0.5","0.1","0.5","l","",""
"","","","","","5dd03c5486c8861300974102","bdp_lott","Sun Mar 26 2023 07:27:47 GMT-0400 (Eastern Daylight Time)","305281","green","red","animation","158","183851","0.0-5.0-2.76","","","","","","149","","","","","","[{""stimulus"":""img/green_ll/1.jpg"",""time"":65},{""stimulus"":""img/green_ll/2.jpg"",""time"":100},{""stimulus"":""img/green_ll/3.jpg"",""time"":157},{""stimulus"":""img/green_ll/4.jpg"",""time"":203},{""stimulus"":""img/green_ll/5.jpg"",""time"":265},{""stimulus"":""img/green_ll/6.jpg"",""time"":300},{""stimulus"":""img/green_ll/7.jpg"",""time"":350},{""stimulus"":""img/green_ll/8.jpg"",""time"":400},{""stimulus"":""img/green_ll/9.jpg"",""time"":450},{""stimulus"":""img/green_ll/10.jpg"",""time"":500},{""stimulus"":""img/green_ll/11.jpg"",""time"":550}]","[]"
"","","","choice","","5dd03c5486c8861300974102","bdp_lott","Sun Mar 26 2023 07:27:47 GMT-0400 (Eastern Daylight Time)","305281","green","red","image-keyboard-response","159","183957","0.0-5.0-1.77","","104","","img/green_ll/choose11.jpg","1","148","green","0.5","0.1","0.5","l","",""
"","","","","","5dd03c5486c8861300974102","bdp_lott","Sun Mar 26 2023 07:27:47 GMT-0400 (Eastern Daylight Time)","305281","green","red","animation","160","184557","0.0-5.0-2.77","","","","","","148","","","","","","[{""stimulus"":""img/green_ll/1.jpg"",""time"":51},{""stimulus"":""img/green_ll/2.jpg"",""time"":100},{""stimulus"":""img/green_ll/3.jpg"",""time"":162},{""stimulus"":""img/green_ll/4.jpg"",""time"":200},{""stimulus"":""img/green_ll/5.jpg"",""time"":250},{""stimulus"":""img/green_ll/6.jpg"",""time"":302},{""stimulus"":""img/green_ll/7.jpg"",""time"":350},{""stimulus"":""img/green_ll/8.jpg"",""time"":400},{""stimulus"":""img/green_ll/9.jpg"",""time"":450},{""stimulus"":""img/green_ll/10.jpg"",""time"":502},{""stimulus"":""img/green_ll/11.jpg"",""time"":550}]","[]"
"","","","choice","","5dd03c5486c8861300974102","bdp_lott","Sun Mar 26 2023 07:27:47 GMT-0400 (Eastern Daylight Time)","305281","green","red","image-keyboard-response","161","184586","0.0-5.0-1.78","","29","","img/green_ll/choose11.jpg","1","147","green","0.5","0.1","0.5","l","",""
"","","","","","5dd03c5486c8861300974102","bdp_lott","Sun Mar 26 2023 07:27:47 GMT-0400 (Eastern Daylight Time)","305281","green","red","animation","162","185186","0.0-5.0-2.78","","","","","","147","","","","","","[{""stimulus"":""img/green_ll/1.jpg"",""time"":50},{""stimulus"":""img/green_ll/2.jpg"",""time"":100},{""stimulus"":""img/green_ll/3.jpg"",""time"":151},{""stimulus"":""img/green_ll/4.jpg"",""time"":213},{""stimulus"":""img/green_ll/5.jpg"",""time"":250},{""stimulus"":""img/green_ll/6.jpg"",""time"":301},{""stimulus"":""img/green_ll/7.jpg"",""time"":350},{""stimulus"":""img/green_ll/8.jpg"",""time"":400},{""stimulus"":""img/green_ll/9.jpg"",""time"":450},{""stimulus"":""img/green_ll/10.jpg"",""time"":500},{""stimulus"":""img/green_ll/11.jpg"",""time"":550}]","[]"
"","","","choice","","5dd03c5486c8861300974102","bdp_lott","Sun Mar 26 2023 07:27:47 GMT-0400 (Eastern Daylight Time)","305281","green","red","image-keyboard-response","163","185291","0.0-5.0-1.79","","105","","img/green_ll/choose11.jpg","1","146","green","0.5","0.1","0.5","w","",""
"","","","","","5dd03c5486c8861300974102","bdp_lott","Sun Mar 26 2023 07:27:47 GMT-0400 (Eastern Daylight Time)","305281","green","red","animation","164","185891","0.0-5.0-2.79","","","","","","146","","","","","","[{""stimulus"":""img/green_wl/1.jpg"",""time"":64},{""stimulus"":""img/green_wl/2.jpg"",""time"":101},{""stimulus"":""img/green_wl/3.jpg"",""time"":150},{""stimulus"":""img/green_wl/4.jpg"",""time"":200},{""stimulus"":""img/green_wl/5.jpg"",""time"":250},{""stimulus"":""img/green_wl/6.jpg"",""time"":300},{""stimulus"":""img/green_wl/7.jpg"",""time"":350},{""stimulus"":""img/green_wl/8.jpg"",""time"":400},{""stimulus"":""img/green_wl/9.jpg"",""time"":450},{""stimulus"":""img/green_wl/10.jpg"",""time"":500},{""stimulus"":""img/green_wl/11.jpg"",""time"":550}]","[]"
"","","","choice","","5dd03c5486c8861300974102","bdp_lott","Sun Mar 26 2023 07:27:47 GMT-0400 (Eastern Daylight Time)","305281","green","red","image-keyboard-response","165","185899","0.0-5.0-1.80","","8","","img/green_wl/choose11.jpg","1","145","green","0.5","0.1","0.5","l","",""
"","","","","","5dd03c5486c8861300974102","bdp_lott","Sun Mar 26 2023 07:27:47 GMT-0400 (Eastern Daylight Time)","305281","green","red","animation","166","186500","0.0-5.0-2.80","","","","","","145","","","","","","[{""stimulus"":""img/green_ll/1.jpg"",""time"":60},{""stimulus"":""img/green_ll/2.jpg"",""time"":101},{""stimulus"":""img/green_ll/3.jpg"",""time"":150},{""stimulus"":""img/green_ll/4.jpg"",""time"":200},{""stimulus"":""img/green_ll/5.jpg"",""time"":260},{""stimulus"":""img/green_ll/6.jpg"",""time"":301},{""stimulus"":""img/green_ll/7.jpg"",""time"":351},{""stimulus"":""img/green_ll/8.jpg"",""time"":415},{""stimulus"":""img/green_ll/9.jpg"",""time"":451},{""stimulus"":""img/green_ll/10.jpg"",""time"":508},{""stimulus"":""img/green_ll/11.jpg"",""time"":555}]","[]"
"","","","choice","","5dd03c5486c8861300974102","bdp_lott","Sun Mar 26 2023 07:27:47 GMT-0400 (Eastern Daylight Time)","305281","green","red","image-keyboard-response","167","186909","0.0-5.0-1.81","","409","","img/green_ll/choose11.jpg","2","144","red","0.5","0.1","0.1","l","",""
"","","","","","5dd03c5486c8861300974102","bdp_lott","Sun Mar 26 2023 07:27:47 GMT-0400 (Eastern Daylight Time)","305281","green","red","animation","168","187520","0.0-5.0-2.81","","","","","","144","","","","","","[{""stimulus"":""img/red_ll/1.jpg"",""time"":56},{""stimulus"":""img/red_ll/2.jpg"",""time"":102},{""stimulus"":""img/red_ll/3.jpg"",""time"":150},{""stimulus"":""img/red_ll/4.jpg"",""time"":201},{""stimulus"":""img/red_ll/5.jpg"",""time"":251},{""stimulus"":""img/red_ll/6.jpg"",""time"":300},{""stimulus"":""img/red_ll/7.jpg"",""time"":365},{""stimulus"":""img/red_ll/8.jpg"",""time"":401},{""stimulus"":""img/red_ll/9.jpg"",""time"":451},{""stimulus"":""img/red_ll/10.jpg"",""time"":501},{""stimulus"":""img/red_ll/11.jpg"",""time"":551}]","[]"
"","","","choice","","5dd03c5486c8861300974102","bdp_lott","Sun Mar 26 2023 07:27:47 GMT-0400 (Eastern Daylight Time)","305281","green","red","image-keyboard-response","169","187627","0.0-5.0-1.82","","106","","img/red_ll/choose11.jpg","1","143","green","0.5","0.1","0.5","w","",""
"blur","170","187662","blurevent","2","5dd03c5486c8861300974102","bdp_lott","Sun Mar 26 2023 07:27:47 GMT-0400 (Eastern Daylight Time)","305281","green","red","","","","","","","","","","","","","","","","",""
"focus","170","187662","focusevent","","5dd03c5486c8861300974102","bdp_lott","Sun Mar 26 2023 07:27:47 GMT-0400 (Eastern Daylight Time)","305281","green","red","","","","","","","","","","","","","","","","",""
"blur","170","187662","","2","5dd03c5486c8861300974102","bdp_lott","Sun Mar 26 2023 07:27:47 GMT-0400 (Eastern Daylight Time)","305281","green","red","animation","170","188227","0.0-5.0-2.82","","","","","","143","","","","","","[{""stimulus"":""img/green_wl/1.jpg"",""time"":51},{""stimulus"":""img/green_wl/2.jpg"",""time"":100},{""stimulus"":""img/green_wl/3.jpg"",""time"":151},{""stimulus"":""img/green_wl/4.jpg"",""time"":202},{""stimulus"":""img/green_wl/5.jpg"",""time"":251},{""stimulus"":""img/green_wl/6.jpg"",""time"":301},{""stimulus"":""img/green_wl/7.jpg"",""time"":356},{""stimulus"":""img/green_wl/8.jpg"",""time"":401},{""stimulus"":""img/green_wl/9.jpg"",""time"":450},{""stimulus"":""img/green_wl/10.jpg"",""time"":501},{""stimulus"":""img/green_wl/11.jpg"",""time"":557}]","[]"
"","","","blurwarn","2","5dd03c5486c8861300974102","bdp_lott","Sun Mar 26 2023 07:27:47 GMT-0400 (Eastern Daylight Time)","305281","green","red","image-keyboard-response","171","201357","0.0-5.0-0.83-0.83","","13129","","","49","","","","","","","",""
"","","","choice","","5dd03c5486c8861300974102","bdp_lott","Sun Mar 26 2023 07:27:47 GMT-0400 (Eastern Daylight Time)","305281","green","red","image-keyboard-response","172","203424","0.0-5.0-1.83","","1802","","img/green_wl/choose11.jpg","1","142","green","0.5","0.1","0.5","l","",""
"","","","","","5dd03c5486c8861300974102","bdp_lott","Sun Mar 26 2023 07:27:47 GMT-0400 (Eastern Daylight Time)","305281","green","red","animation","173","204025","0.0-5.0-2.83","","","","","","142","","","","","","[{""stimulus"":""img/green_ll/1.jpg"",""time"":51},{""stimulus"":""img/green_ll/2.jpg"",""time"":100},{""stimulus"":""img/green_ll/3.jpg"",""time"":151},{""stimulus"":""img/green_ll/4.jpg"",""time"":201},{""stimulus"":""img/green_ll/5.jpg"",""time"":251},{""stimulus"":""img/green_ll/6.jpg"",""time"":301},{""stimulus"":""img/green_ll/7.jpg"",""time"":351},{""stimulus"":""img/green_ll/8.jpg"",""time"":402},{""stimulus"":""img/green_ll/9.jpg"",""time"":451},{""stimulus"":""img/green_ll/10.jpg"",""time"":502},{""stimulus"":""img/green_ll/11.jpg"",""time"":551}]","[]"
"","","","choice","","5dd03c5486c8861300974102","bdp_lott","Sun Mar 26 2023 07:27:47 GMT-0400 (Eastern Daylight Time)","305281","green","red","image-keyboard-response","174","204243","0.0-5.0-1.84","","217","","img/green_ll/choose11.jpg","1","141","green","0.5","0.1","0.5","l","",""
"","","","","","5dd03c5486c8861300974102","bdp_lott","Sun Mar 26 2023 07:27:47 GMT-0400 (Eastern Daylight Time)","305281","green","red","animation","175","204844","0.0-5.0-2.84","","","","","","141","","","","","","[{""stimulus"":""img/green_ll/1.jpg"",""time"":51},{""stimulus"":""img/green_ll/2.jpg"",""time"":101},{""stimulus"":""img/green_ll/3.jpg"",""time"":151},{""stimulus"":""img/green_ll/4.jpg"",""time"":201},{""stimulus"":""img/green_ll/5.jpg"",""time"":251},{""stimulus"":""img/green_ll/6.jpg"",""time"":301},{""stimulus"":""img/green_ll/7.jpg"",""time"":362},{""stimulus"":""img/green_ll/8.jpg"",""time"":401},{""stimulus"":""img/green_ll/9.jpg"",""time"":451},{""stimulus"":""img/green_ll/10.jpg"",""time"":501},{""stimulus"":""img/green_ll/11.jpg"",""time"":563}]","[]"
"","","","choice","","5dd03c5486c8861300974102","bdp_lott","Sun Mar 26 2023 07:27:47 GMT-0400 (Eastern Daylight Time)","305281","green","red","image-keyboard-response","176","205015","0.0-5.0-1.85","","171","","img/green_ll/choose11.jpg","1","140","green","0.5","0.1","0.5","l","",""
"","","","","","5dd03c5486c8861300974102","bdp_lott","Sun Mar 26 2023 07:27:47 GMT-0400 (Eastern Daylight Time)","305281","green","red","animation","177","205616","0.0-5.0-2.85","","","","","","140","","","","","","[{""stimulus"":""img/green_ll/1.jpg"",""time"":53},{""stimulus"":""img/green_ll/2.jpg"",""time"":100},{""stimulus"":""img/green_ll/3.jpg"",""time"":151},{""stimulus"":""img/green_ll/4.jpg"",""time"":200},{""stimulus"":""img/green_ll/5.jpg"",""time"":250},{""stimulus"":""img/green_ll/6.jpg"",""time"":301},{""stimulus"":""img/green_ll/7.jpg"",""time"":351},{""stimulus"":""img/green_ll/8.jpg"",""time"":400},{""stimulus"":""img/green_ll/9.jpg"",""time"":451},{""stimulus"":""img/green_ll/10.jpg"",""time"":500},{""stimulus"":""img/green_ll/11.jpg"",""time"":551}]","[]"
"","","","choice","","5dd03c5486c8861300974102","bdp_lott","Sun Mar 26 2023 07:27:47 GMT-0400 (Eastern Daylight Time)","305281","green","red","image-keyboard-response","178","205719","0.0-5.0-1.86","","102","","img/green_ll/choose11.jpg","2","139","red","0.5","0.1","0.1","l","",""
"","","","","","5dd03c5486c8861300974102","bdp_lott","Sun Mar 26 2023 07:27:47 GMT-0400 (Eastern Daylight Time)","305281","green","red","animation","179","206321","0.0-5.0-2.86","","","","","","139","","","","","","[{""stimulus"":""img/red_ll/1.jpg"",""time"":50},{""stimulus"":""img/red_ll/2.jpg"",""time"":104},{""stimulus"":""img/red_ll/3.jpg"",""time"":150},{""stimulus"":""img/red_ll/4.jpg"",""time"":200},{""stimulus"":""img/red_ll/5.jpg"",""time"":251},{""stimulus"":""img/red_ll/6.jpg"",""time"":300},{""stimulus"":""img/red_ll/7.jpg"",""time"":350},{""stimulus"":""img/red_ll/8.jpg"",""time"":401},{""stimulus"":""img/red_ll/9.jpg"",""time"":451},{""stimulus"":""img/red_ll/10.jpg"",""time"":507},{""stimulus"":""img/red_ll/11.jpg"",""time"":550}]","[]"
"","","","choice","","5dd03c5486c8861300974102","bdp_lott","Sun Mar 26 2023 07:27:47 GMT-0400 (Eastern Daylight Time)","305281","green","red","image-keyboard-response","180","206437","0.0-5.0-1.87","","116","","img/red_ll/choose11.jpg","1","138","green","0.5","0.1","0.5","w","",""
"","","","","","5dd03c5486c8861300974102","bdp_lott","Sun Mar 26 2023 07:27:47 GMT-0400 (Eastern Daylight Time)","305281","green","red","animation","181","207037","0.0-5.0-2.87","","","","","","138","","","","","","[{""stimulus"":""img/green_wl/1.jpg"",""time"":51},{""stimulus"":""img/green_wl/2.jpg"",""time"":101},{""stimulus"":""img/green_wl/3.jpg"",""time"":150},{""stimulus"":""img/green_wl/4.jpg"",""time"":200},{""stimulus"":""img/green_wl/5.jpg"",""time"":250},{""stimulus"":""img/green_wl/6.jpg"",""time"":300},{""stimulus"":""img/green_wl/7.jpg"",""time"":350},{""stimulus"":""img/green_wl/8.jpg"",""time"":400},{""stimulus"":""img/green_wl/9.jpg"",""time"":450},{""stimulus"":""img/green_wl/10.jpg"",""time"":500},{""stimulus"":""img/green_wl/11.jpg"",""time"":562}]","[]"
"","","","choice","","5dd03c5486c8861300974102","bdp_lott","Sun Mar 26 2023 07:27:47 GMT-0400 (Eastern Daylight Time)","305281","green","red","image-keyboard-response","182","207158","0.0-5.0-1.88","","121","","img/green_wl/choose11.jpg","1","137","green","0.5","0.1","0.5","w","",""
"","","","","","5dd03c5486c8861300974102","bdp_lott","Sun Mar 26 2023 07:27:47 GMT-0400 (Eastern Daylight Time)","305281","green","red","animation","183","207759","0.0-5.0-2.88","","","","","","137","","","","","","[{""stimulus"":""img/green_wl/1.jpg"",""time"":50},{""stimulus"":""img/green_wl/2.jpg"",""time"":100},{""stimulus"":""img/green_wl/3.jpg"",""time"":151},{""stimulus"":""img/green_wl/4.jpg"",""time"":201},{""stimulus"":""img/green_wl/5.jpg"",""time"":250},{""stimulus"":""img/green_wl/6.jpg"",""time"":301},{""stimulus"":""img/green_wl/7.jpg"",""time"":351},{""stimulus"":""img/green_wl/8.jpg"",""time"":401},{""stimulus"":""img/green_wl/9.jpg"",""time"":451},{""stimulus"":""img/green_wl/10.jpg"",""time"":505},{""stimulus"":""img/green_wl/11.jpg"",""time"":552}]","[]"
"","","","choice","","5dd03c5486c8861300974102","bdp_lott","Sun Mar 26 2023 07:27:47 GMT-0400 (Eastern Daylight Time)","305281","green","red","image-keyboard-response","184","207861","0.0-5.0-1.89","","102","","img/green_wl/choose11.jpg","2","136","red","0.5","0.1","0.1","l","",""
"","","","","","5dd03c5486c8861300974102","bdp_lott","Sun Mar 26 2023 07:27:47 GMT-0400 (Eastern Daylight Time)","305281","green","red","animation","185","208466","0.0-5.0-2.89","","","","","","136","","","","","","[{""stimulus"":""img/red_wl/1.jpg"",""time"":50},{""stimulus"":""img/red_wl/2.jpg"",""time"":100},{""stimulus"":""img/red_wl/3.jpg"",""time"":150},{""stimulus"":""img/red_wl/4.jpg"",""time"":200},{""stimulus"":""img/red_wl/5.jpg"",""time"":251},{""stimulus"":""img/red_wl/6.jpg"",""time"":311},{""stimulus"":""img/red_wl/7.jpg"",""time"":351},{""stimulus"":""img/red_wl/8.jpg"",""time"":400},{""stimulus"":""img/red_wl/9.jpg"",""time"":451},{""stimulus"":""img/red_wl/10.jpg"",""time"":501},{""stimulus"":""img/red_wl/11.jpg"",""time"":550}]","[]"
"","","","choice","","5dd03c5486c8861300974102","bdp_lott","Sun Mar 26 2023 07:27:47 GMT-0400 (Eastern Daylight Time)","305281","green","red","image-keyboard-response","186","208585","0.0-5.0-1.90","","118","","img/red_wl/choose11.jpg","2","135","red","0.5","0.1","0.1","l","",""
"","","","","","5dd03c5486c8861300974102","bdp_lott","Sun Mar 26 2023 07:27:47 GMT-0400 (Eastern Daylight Time)","305281","green","red","animation","187","209193","0.0-5.0-2.90","","","","","","135","","","","","","[{""stimulus"":""img/red_wl/1.jpg"",""time"":52},{""stimulus"":""img/red_wl/2.jpg"",""time"":101},{""stimulus"":""img/red_wl/3.jpg"",""time"":160},{""stimulus"":""img/red_wl/4.jpg"",""time"":207},{""stimulus"":""img/red_wl/5.jpg"",""time"":253},{""stimulus"":""img/red_wl/6.jpg"",""time"":301},{""stimulus"":""img/red_wl/7.jpg"",""time"":361},{""stimulus"":""img/red_wl/8.jpg"",""time"":401},{""stimulus"":""img/red_wl/9.jpg"",""time"":451},{""stimulus"":""img/red_wl/10.jpg"",""time"":515},{""stimulus"":""img/red_wl/11.jpg"",""time"":551}]","[]"
"","","","choice","","5dd03c5486c8861300974102","bdp_lott","Sun Mar 26 2023 07:27:47 GMT-0400 (Eastern Daylight Time)","305281","green","red","image-keyboard-response","188","209243","0.0-5.0-1.91","","50","","img/red_wl/choose11.jpg","2","134","red","0.5","0.1","0.1","l","",""
