"trial_type","trial_index","time_elapsed","internal_node_id","subject_id","task","startTime","totalTime","fairMachine","unfairMachine","view_history","rt","event","trial","time","trialtype","success","stimulus","key_press","roundsLeft","chosen","pFairMachWin","pUnfairMachWin","pTrialWin","outcome","animation_sequence","responses"
"pavlovia","0","6","0.0-0.0","610c736500a4b33398fef94f","bdp_lott","Mon Apr 10 2023 18:17:31 GMT-0400 (Eastern Daylight Time)","295816","red","green","","","","","","","","","","","","","","","","",""
"instructions","1","3466","0.0-1.0","610c736500a4b33398fef94f","bdp_lott","Mon Apr 10 2023 18:17:31 GMT-0400 (Eastern Daylight Time)","295816","red","green","[{""page_index"":0,""viewing_time"":3459}]","3459","","","","","","","","","","","","","","",""
"","","","","610c736500a4b33398fef94f","bdp_lott","Mon Apr 10 2023 18:17:31 GMT-0400 (Eastern Daylight Time)","295816","red","green","","","fullscreenenter","2","8058","fullscreenenter","","","","","","","","","","",""
"fullscreen","2","9041","0.0-2.0","610c736500a4b33398fef94f","bdp_lott","Mon Apr 10 2023 18:17:31 GMT-0400 (Eastern Daylight Time)","295816","red","green","","","","","","","true","","","","","","","","","",""
"instructions","3","26343","0.0-4.0","610c736500a4b33398fef94f","bdp_lott","Mon Apr 10 2023 18:17:31 GMT-0400 (Eastern Daylight Time)","295816","red","green","[{""page_index"":0,""viewing_time"":17301}]","17301","","","","","","","","","","","","","","",""
"image-keyboard-response","4","27862","0.0-5.0-1.0","610c736500a4b33398fef94f","bdp_lott","Mon Apr 10 2023 18:17:31 GMT-0400 (Eastern Daylight Time)","295816","red","green","","1516","","","","choice","","img/red_ll/initchoose11.jpg","1","225","green","0.5","0.5","0.5","l","",""
"animation","5","28464","0.0-5.0-2.0","610c736500a4b33398fef94f","bdp_lott","Mon Apr 10 2023 18:17:31 GMT-0400 (Eastern Daylight Time)","295816","red","green","","","","","","","","","","225","","","","","","[{""stimulus"":""img/green_ll/1.jpg"",""time"":64},{""stimulus"":""img/green_ll/2.jpg"",""time"":107},{""stimulus"":""img/green_ll/3.jpg"",""time"":156},{""stimulus"":""img/green_ll/4.jpg"",""time"":204},{""stimulus"":""img/green_ll/5.jpg"",""time"":258},{""stimulus"":""img/green_ll/6.jpg"",""time"":306},{""stimulus"":""img/green_ll/7.jpg"",""time"":355},{""stimulus"":""img/green_ll/8.jpg"",""time"":403},{""stimulus"":""img/green_ll/9.jpg"",""time"":457},{""stimulus"":""img/green_ll/10.jpg"",""time"":506},{""stimulus"":""img/green_ll/11.jpg"",""time"":554}]","[]"
"image-keyboard-response","6","29822","0.0-5.0-1.1","610c736500a4b33398fef94f","bdp_lott","Mon Apr 10 2023 18:17:31 GMT-0400 (Eastern Daylight Time)","295816","red","green","","1357","","","","choice","","img/green_ll/choose11.jpg","1","224","green","0.5","0.5","0.5","w","",""
"animation","7","30426","0.0-5.0-2.1","610c736500a4b33398fef94f","bdp_lott","Mon Apr 10 2023 18:17:31 GMT-0400 (Eastern Daylight Time)","295816","red","green","","","","","","","","","","224","","","","","","[{""stimulus"":""img/green_wl/1.jpg"",""time"":64},{""stimulus"":""img/green_wl/2.jpg"",""time"":104},{""stimulus"":""img/green_wl/3.jpg"",""time"":152},{""stimulus"":""img/green_wl/4.jpg"",""time"":204},{""stimulus"":""img/green_wl/5.jpg"",""time"":252},{""stimulus"":""img/green_wl/6.jpg"",""time"":304},{""stimulus"":""img/green_wl/7.jpg"",""time"":353},{""stimulus"":""img/green_wl/8.jpg"",""time"":401},{""stimulus"":""img/green_wl/9.jpg"",""time"":454},{""stimulus"":""img/green_wl/10.jpg"",""time"":503},{""stimulus"":""img/green_wl/11.jpg"",""time"":551}]","[]"
"image-keyboard-response","8","31335","0.0-5.0-1.2","610c736500a4b33398fef94f","bdp_lott","Mon Apr 10 2023 18:17:31 GMT-0400 (Eastern Daylight Time)","295816","red","green","","909","","","","choice","","img/green_wl/choose11.jpg","2","223","red","0.5","0.5","0.5","l","",""
"animation","9","31936","0.0-5.0-2.2","610c736500a4b33398fef94f","bdp_lott","Mon Apr 10 2023 18:17:31 GMT-0400 (Eastern Daylight Time)","295816","red","green","","","","","","","","","","223","","","","","","[{""stimulus"":""img/red_wl/1.jpg"",""time"":64},{""stimulus"":""img/red_wl/2.jpg"",""time"":101},{""stimulus"":""img/red_wl/3.jpg"",""time"":151},{""stimulus"":""img/red_wl/4.jpg"",""time"":201},{""stimulus"":""img/red_wl/5.jpg"",""time"":251},{""stimulus"":""img/red_wl/6.jpg"",""time"":301},{""stimulus"":""img/red_wl/7.jpg"",""time"":351},{""stimulus"":""img/red_wl/8.jpg"",""time"":401},{""stimulus"":""img/red_wl/9.jpg"",""time"":451},{""stimulus"":""img/red_wl/10.jpg"",""time"":501},{""stimulus"":""img/red_wl/11.jpg"",""time"":551}]","[]"
"image-keyboard-response","10","32724","0.0-5.0-1.3","610c736500a4b33398fef94f","bdp_lott","Mon Apr 10 2023 18:17:31 GMT-0400 (Eastern Daylight Time)","295816","red","green","","787","","","","choice","","img/red_wl/choose11.jpg","1","222","green","0.5","0.5","0.5","w","",""
"animation","11","33325","0.0-5.0-2.3","610c736500a4b33398fef94f","bdp_lott","Mon Apr 10 2023 18:17:31 GMT-0400 (Eastern Daylight Time)","295816","red","green","","","","","","","","","","222","","","","","","[{""stimulus"":""img/green_wl/1.jpg"",""time"":51},{""stimulus"":""img/green_wl/2.jpg"",""time"":102},{""stimulus"":""img/green_wl/3.jpg"",""time"":152},{""stimulus"":""img/green_wl/4.jpg"",""time"":202},{""stimulus"":""img/green_wl/5.jpg"",""time"":252},{""stimulus"":""img/green_wl/6.jpg"",""time"":301},{""stimulus"":""img/green_wl/7.jpg"",""time"":352},{""stimulus"":""img/green_wl/8.jpg"",""time"":402},{""stimulus"":""img/green_wl/9.jpg"",""time"":451},{""stimulus"":""img/green_wl/10.jpg"",""time"":501},{""stimulus"":""img/green_wl/11.jpg"",""time"":551}]","[]"
"image-keyboard-response","12","34136","0.0-5.0-1.4","610c736500a4b33398fef94f","bdp_lott","Mon Apr 10 2023 18:17:31 GMT-0400 (Eastern Daylight Time)","295816","red","green","","809","","","","choice","","img/green_wl/choose11.jpg","1","221","green","0.5","0.5","0.5","l","",""
"animation","13","34742","0.0-5.0-2.4","610c736500a4b33398fef94f","bdp_lott","Mon Apr 10 2023 18:17:31 GMT-0400 (Eastern Daylight Time)","295816","red","green","","","","","","","","","","221","","","","","","[{""stimulus"":""img/green_ll/1.jpg"",""time"":52},{""stimulus"":""img/green_ll/2.jpg"",""time"":106},{""stimulus"":""img/green_ll/3.jpg"",""time"":156},{""stimulus"":""img/green_ll/4.jpg"",""time"":205},{""stimulus"":""img/green_ll/5.jpg"",""time"":256},{""stimulus"":""img/green_ll/6.jpg"",""time"":305},{""stimulus"":""img/green_ll/7.jpg"",""time"":355},{""stimulus"":""img/green_ll/8.jpg"",""time"":405},{""stimulus"":""img/green_ll/9.jpg"",""time"":455},{""stimulus"":""img/green_ll/10.jpg"",""time"":506},{""stimulus"":""img/green_ll/11.jpg"",""time"":557}]","[]"
"image-keyboard-response","14","35455","0.0-5.0-1.5","610c736500a4b33398fef94f","bdp_lott","Mon Apr 10 2023 18:17:31 GMT-0400 (Eastern Daylight Time)","295816","red","green","","712","","","","choice","","img/green_ll/choose11.jpg","2","220","red","0.5","0.5","0.5","l","",""
"animation","15","36062","0.0-5.0-2.5","610c736500a4b33398fef94f","bdp_lott","Mon Apr 10 2023 18:17:31 GMT-0400 (Eastern Daylight Time)","295816","red","green","","","","","","","","","","220","","","","","","[{""stimulus"":""img/red_ll/1.jpg"",""time"":57},{""stimulus"":""img/red_ll/2.jpg"",""time"":105},{""stimulus"":""img/red_ll/3.jpg"",""time"":154},{""stimulus"":""img/red_ll/4.jpg"",""time"":202},{""stimulus"":""img/red_ll/5.jpg"",""time"":251},{""stimulus"":""img/red_ll/6.jpg"",""time"":305},{""stimulus"":""img/red_ll/7.jpg"",""time"":356},{""stimulus"":""img/red_ll/8.jpg"",""time"":404},{""stimulus"":""img/red_ll/9.jpg"",""time"":453},{""stimulus"":""img/red_ll/10.jpg"",""time"":502},{""stimulus"":""img/red_ll/11.jpg"",""time"":551}]","[]"
"image-keyboard-response","16","36686","0.0-5.0-1.6","610c736500a4b33398fef94f","bdp_lott","Mon Apr 10 2023 18:17:31 GMT-0400 (Eastern Daylight Time)","295816","red","green","","622","","","","choice","","img/red_ll/choose11.jpg","1","219","green","0.5","0.5","0.5","l","",""
"animation","17","37299","0.0-5.0-2.6","610c736500a4b33398fef94f","bdp_lott","Mon Apr 10 2023 18:17:31 GMT-0400 (Eastern Daylight Time)","295816","red","green","","","","","","","","","","219","","","","","","[{""stimulus"":""img/green_ll/1.jpg"",""time"":64},{""stimulus"":""img/green_ll/2.jpg"",""time"":105},{""stimulus"":""img/green_ll/3.jpg"",""time"":153},{""stimulus"":""img/green_ll/4.jpg"",""time"":210},{""stimulus"":""img/green_ll/5.jpg"",""time"":258},{""stimulus"":""img/green_ll/6.jpg"",""time"":307},{""stimulus"":""img/green_ll/7.jpg"",""time"":355},{""stimulus"":""img/green_ll/8.jpg"",""time"":402},{""stimulus"":""img/green_ll/9.jpg"",""time"":452},{""stimulus"":""img/green_ll/10.jpg"",""time"":501},{""stimulus"":""img/green_ll/11.jpg"",""time"":550}]","[]"
"image-keyboard-response","18","38167","0.0-5.0-1.7","610c736500a4b33398fef94f","bdp_lott","Mon Apr 10 2023 18:17:31 GMT-0400 (Eastern Daylight Time)","295816","red","green","","866","","","","choice","","img/green_ll/choose11.jpg","1","218","green","0.5","0.5","0.5","l","",""
"animation","19","38769","0.0-5.0-2.7","610c736500a4b33398fef94f","bdp_lott","Mon Apr 10 2023 18:17:31 GMT-0400 (Eastern Daylight Time)","295816","red","green","","","","","","","","","","218","","","","","","[{""stimulus"":""img/green_ll/1.jpg"",""time"":51},{""stimulus"":""img/green_ll/2.jpg"",""time"":107},{""stimulus"":""img/green_ll/3.jpg"",""time"":157},{""stimulus"":""img/green_ll/4.jpg"",""time"":207},{""stimulus"":""img/green_ll/5.jpg"",""time"":272},{""stimulus"":""img/green_ll/6.jpg"",""time"":305},{""stimulus"":""img/green_ll/7.jpg"",""time"":351},{""stimulus"":""img/green_ll/8.jpg"",""time"":401},{""stimulus"":""img/green_ll/9.jpg"",""time"":457},{""stimulus"":""img/green_ll/10.jpg"",""time"":506},{""stimulus"":""img/green_ll/11.jpg"",""time"":554}]","[]"
"image-keyboard-response","20","39549","0.0-5.0-1.8","610c736500a4b33398fef94f","bdp_lott","Mon Apr 10 2023 18:17:31 GMT-0400 (Eastern Daylight Time)","295816","red","green","","779","","","","choice","","img/green_ll/choose11.jpg","2","217","red","0.5","0.5","0.5","l","",""
"animation","21","40155","0.0-5.0-2.8","610c736500a4b33398fef94f","bdp_lott","Mon Apr 10 2023 18:17:31 GMT-0400 (Eastern Daylight Time)","295816","red","green","","","","","","","","","","217","","","","","","[{""stimulus"":""img/red_ll/1.jpg"",""time"":65},{""stimulus"":""img/red_ll/2.jpg"",""time"":106},{""stimulus"":""img/red_ll/3.jpg"",""time"":154},{""stimulus"":""img/red_ll/4.jpg"",""time"":203},{""stimulus"":""img/red_ll/5.jpg"",""time"":250},{""stimulus"":""img/red_ll/6.jpg"",""time"":307},{""stimulus"":""img/red_ll/7.jpg"",""time"":356},{""stimulus"":""img/red_ll/8.jpg"",""time"":404},{""stimulus"":""img/red_ll/9.jpg"",""time"":452},{""stimulus"":""img/red_ll/10.jpg"",""time"":501},{""stimulus"":""img/red_ll/11.jpg"",""time"":557}]","[]"
"image-keyboard-response","22","46016","0.0-5.0-1.9","610c736500a4b33398fef94f","bdp_lott","Mon Apr 10 2023 18:17:31 GMT-0400 (Eastern Daylight Time)","295816","red","green","","5859","","","","choice","","img/red_ll/choose11.jpg","2","216","red","0.5","0.5","0.5","l","",""
"animation","23","46621","0.0-5.0-2.9","610c736500a4b33398fef94f","bdp_lott","Mon Apr 10 2023 18:17:31 GMT-0400 (Eastern Daylight Time)","295816","red","green","","","","","","","","","","216","","","","","","[{""stimulus"":""img/red_ll/1.jpg"",""time"":50},{""stimulus"":""img/red_ll/2.jpg"",""time"":105},{""stimulus"":""img/red_ll/3.jpg"",""time"":155},{""stimulus"":""img/red_ll/4.jpg"",""time"":205},{""stimulus"":""img/red_ll/5.jpg"",""time"":255},{""stimulus"":""img/red_ll/6.jpg"",""time"":305},{""stimulus"":""img/red_ll/7.jpg"",""time"":355},{""stimulus"":""img/red_ll/8.jpg"",""time"":406},{""stimulus"":""img/red_ll/9.jpg"",""time"":455},{""stimulus"":""img/red_ll/10.jpg"",""time"":505},{""stimulus"":""img/red_ll/11.jpg"",""time"":555}]","[]"
"image-keyboard-response","24","47304","0.0-5.0-1.10","610c736500a4b33398fef94f","bdp_lott","Mon Apr 10 2023 18:17:31 GMT-0400 (Eastern Daylight Time)","295816","red","green","","683","","","","choice","","img/red_ll/choose11.jpg","1","215","green","0.5","0.5","0.5","w","",""
"animation","25","47912","0.0-5.0-2.10","610c736500a4b33398fef94f","bdp_lott","Mon Apr 10 2023 18:17:31 GMT-0400 (Eastern Daylight Time)","295816","red","green","","","","","","","","","","215","","","","","","[{""stimulus"":""img/green_wl/1.jpg"",""time"":55},{""stimulus"":""img/green_wl/2.jpg"",""time"":103},{""stimulus"":""img/green_wl/3.jpg"",""time"":151},{""stimulus"":""img/green_wl/4.jpg"",""time"":208},{""stimulus"":""img/green_wl/5.jpg"",""time"":257},{""stimulus"":""img/green_wl/6.jpg"",""time"":305},{""stimulus"":""img/green_wl/7.jpg"",""time"":353},{""stimulus"":""img/green_wl/8.jpg"",""time"":408},{""stimulus"":""img/green_wl/9.jpg"",""time"":457},{""stimulus"":""img/green_wl/10.jpg"",""time"":505},{""stimulus"":""img/green_wl/11.jpg"",""time"":553}]","[]"
"image-keyboard-response","26","50551","0.0-5.0-1.11","610c736500a4b33398fef94f","bdp_lott","Mon Apr 10 2023 18:17:31 GMT-0400 (Eastern Daylight Time)","295816","red","green","","2638","","","","choice","","img/green_wl/choose11.jpg","1","214","green","0.5","0.5","0.5","w","",""
"animation","27","51153","0.0-5.0-2.11","610c736500a4b33398fef94f","bdp_lott","Mon Apr 10 2023 18:17:31 GMT-0400 (Eastern Daylight Time)","295816","red","green","","","","","","","","","","214","","","","","","[{""stimulus"":""img/green_wl/1.jpg"",""time"":60},{""stimulus"":""img/green_wl/2.jpg"",""time"":108},{""stimulus"":""img/green_wl/3.jpg"",""time"":156},{""stimulus"":""img/green_wl/4.jpg"",""time"":205},{""stimulus"":""img/green_wl/5.jpg"",""time"":253},{""stimulus"":""img/green_wl/6.jpg"",""time"":301},{""stimulus"":""img/green_wl/7.jpg"",""time"":358},{""stimulus"":""img/green_wl/8.jpg"",""time"":406},{""stimulus"":""img/green_wl/9.jpg"",""time"":462},{""stimulus"":""img/green_wl/10.jpg"",""time"":503},{""stimulus"":""img/green_wl/11.jpg"",""time"":553}]","[]"
"image-keyboard-response","28","51708","0.0-5.0-1.12","610c736500a4b33398fef94f","bdp_lott","Mon Apr 10 2023 18:17:31 GMT-0400 (Eastern Daylight Time)","295816","red","green","","555","","","","choice","","img/green_wl/choose11.jpg","1","213","green","0.5","0.5","0.5","w","",""
"animation","29","52332","0.0-5.0-2.12","610c736500a4b33398fef94f","bdp_lott","Mon Apr 10 2023 18:17:31 GMT-0400 (Eastern Daylight Time)","295816","red","green","","","","","","","","","","213","","","","","","[{""stimulus"":""img/green_wl/1.jpg"",""time"":58},{""stimulus"":""img/green_wl/2.jpg"",""time"":103},{""stimulus"":""img/green_wl/3.jpg"",""time"":151},{""stimulus"":""img/green_wl/4.jpg"",""time"":203},{""stimulus"":""img/green_wl/5.jpg"",""time"":252},{""stimulus"":""img/green_wl/6.jpg"",""time"":301},{""stimulus"":""img/green_wl/7.jpg"",""time"":373},{""stimulus"":""img/green_wl/8.jpg"",""time"":403},{""stimulus"":""img/green_wl/9.jpg"",""time"":453},{""stimulus"":""img/green_wl/10.jpg"",""time"":503},{""stimulus"":""img/green_wl/11.jpg"",""time"":551}]","[]"
"image-keyboard-response","30","52817","0.0-5.0-1.13","610c736500a4b33398fef94f","bdp_lott","Mon Apr 10 2023 18:17:31 GMT-0400 (Eastern Daylight Time)","295816","red","green","","485","","","","choice","","img/green_wl/choose11.jpg","1","212","green","0.5","0.5","0.5","w","",""
"animation","31","53423","0.0-5.0-2.13","610c736500a4b33398fef94f","bdp_lott","Mon Apr 10 2023 18:17:31 GMT-0400 (Eastern Daylight Time)","295816","red","green","","","","","","","","","","212","","","","","","[{""stimulus"":""img/green_wl/1.jpg"",""time"":53},{""stimulus"":""img/green_wl/2.jpg"",""time"":101},{""stimulus"":""img/green_wl/3.jpg"",""time"":168},{""stimulus"":""img/green_wl/4.jpg"",""time"":201},{""stimulus"":""img/green_wl/5.jpg"",""time"":250},{""stimulus"":""img/green_wl/6.jpg"",""time"":306},{""stimulus"":""img/green_wl/7.jpg"",""time"":355},{""stimulus"":""img/green_wl/8.jpg"",""time"":411},{""stimulus"":""img/green_wl/9.jpg"",""time"":451},{""stimulus"":""img/green_wl/10.jpg"",""time"":508},{""stimulus"":""img/green_wl/11.jpg"",""time"":556}]","[]"
"image-keyboard-response","32","53891","0.0-5.0-1.14","610c736500a4b33398fef94f","bdp_lott","Mon Apr 10 2023 18:17:31 GMT-0400 (Eastern Daylight Time)","295816","red","green","","468","","","","choice","","img/green_wl/choose11.jpg","1","211","green","0.5","0.5","0.5","l","",""
"animation","33","54493","0.0-5.0-2.14","610c736500a4b33398fef94f","bdp_lott","Mon Apr 10 2023 18:17:31 GMT-0400 (Eastern Daylight Time)","295816","red","green","","","","","","","","","","211","","","","","","[{""stimulus"":""img/green_ll/1.jpg"",""time"":56},{""stimulus"":""img/green_ll/2.jpg"",""time"":102},{""stimulus"":""img/green_ll/3.jpg"",""time"":151},{""stimulus"":""img/green_ll/4.jpg"",""time"":223},{""stimulus"":""img/green_ll/5.jpg"",""time"":253},{""stimulus"":""img/green_ll/6.jpg"",""time"":303},{""stimulus"":""img/green_ll/7.jpg"",""time"":351},{""stimulus"":""img/green_ll/8.jpg"",""time"":423},{""stimulus"":""img/green_ll/9.jpg"",""time"":453},{""stimulus"":""img/green_ll/10.jpg"",""time"":503},{""stimulus"":""img/green_ll/11.jpg"",""time"":553}]","[]"
"image-keyboard-response","34","55599","0.0-5.0-1.15","610c736500a4b33398fef94f","bdp_lott","Mon Apr 10 2023 18:17:31 GMT-0400 (Eastern Daylight Time)","295816","red","green","","1106","","","","choice","","img/green_ll/choose11.jpg","1","210","green","0.5","0.5","0.5","l","",""
"animation","35","56204","0.0-5.0-2.15","610c736500a4b33398fef94f","bdp_lott","Mon Apr 10 2023 18:17:31 GMT-0400 (Eastern Daylight Time)","295816","red","green","","","","","","","","","","210","","","","","","[{""stimulus"":""img/green_ll/1.jpg"",""time"":61},{""stimulus"":""img/green_ll/2.jpg"",""time"":109},{""stimulus"":""img/green_ll/3.jpg"",""time"":157},{""stimulus"":""img/green_ll/4.jpg"",""time"":205},{""stimulus"":""img/green_ll/5.jpg"",""time"":253},{""stimulus"":""img/green_ll/6.jpg"",""time"":309},{""stimulus"":""img/green_ll/7.jpg"",""time"":357},{""stimulus"":""img/green_ll/8.jpg"",""time"":405},{""stimulus"":""img/green_ll/9.jpg"",""time"":453},{""stimulus"":""img/green_ll/10.jpg"",""time"":509},{""stimulus"":""img/green_ll/11.jpg"",""time"":557}]","[]"
"image-keyboard-response","36","56673","0.0-5.0-1.16","610c736500a4b33398fef94f","bdp_lott","Mon Apr 10 2023 18:17:31 GMT-0400 (Eastern Daylight Time)","295816","red","green","","468","","","","choice","","img/green_ll/choose11.jpg","1","209","green","0.5","0.5","0.5","w","",""
"animation","37","57276","0.0-5.0-2.16","610c736500a4b33398fef94f","bdp_lott","Mon Apr 10 2023 18:17:31 GMT-0400 (Eastern Daylight Time)","295816","red","green","","","","","","","","","","209","","","","","","[{""stimulus"":""img/green_wl/1.jpg"",""time"":64},{""stimulus"":""img/green_wl/2.jpg"",""time"":113},{""stimulus"":""img/green_wl/3.jpg"",""time"":153},{""stimulus"":""img/green_wl/4.jpg"",""time"":201},{""stimulus"":""img/green_wl/5.jpg"",""time"":257},{""stimulus"":""img/green_wl/6.jpg"",""time"":303},{""stimulus"":""img/green_wl/7.jpg"",""time"":351},{""stimulus"":""img/green_wl/8.jpg"",""time"":407},{""stimulus"":""img/green_wl/9.jpg"",""time"":453},{""stimulus"":""img/green_wl/10.jpg"",""time"":501},{""stimulus"":""img/green_wl/11.jpg"",""time"":557}]","[]"
"image-keyboard-response","38","57982","0.0-5.0-1.17","610c736500a4b33398fef94f","bdp_lott","Mon Apr 10 2023 18:17:31 GMT-0400 (Eastern Daylight Time)","295816","red","green","","705","","","","choice","","img/green_wl/choose11.jpg","1","208","green","0.5","0.5","0.5","l","",""
"animation","39","58588","0.0-5.0-2.17","610c736500a4b33398fef94f","bdp_lott","Mon Apr 10 2023 18:17:31 GMT-0400 (Eastern Daylight Time)","295816","red","green","","","","","","","","","","208","","","","","","[{""stimulus"":""img/green_ll/1.jpg"",""time"":57},{""stimulus"":""img/green_ll/2.jpg"",""time"":105},{""stimulus"":""img/green_ll/3.jpg"",""time"":153},{""stimulus"":""img/green_ll/4.jpg"",""time"":201},{""stimulus"":""img/green_ll/5.jpg"",""time"":257},{""stimulus"":""img/green_ll/6.jpg"",""time"":306},{""stimulus"":""img/green_ll/7.jpg"",""time"":355},{""stimulus"":""img/green_ll/8.jpg"",""time"":404},{""stimulus"":""img/green_ll/9.jpg"",""time"":452},{""stimulus"":""img/green_ll/10.jpg"",""time"":510},{""stimulus"":""img/green_ll/11.jpg"",""time"":558}]","[]"
"image-keyboard-response","40","59099","0.0-5.0-1.18","610c736500a4b33398fef94f","bdp_lott","Mon Apr 10 2023 18:17:31 GMT-0400 (Eastern Daylight Time)","295816","red","green","","510","","","","choice","","img/green_ll/choose11.jpg","1","207","green","0.5","0.5","0.5","w","",""
"animation","41","59704","0.0-5.0-2.18","610c736500a4b33398fef94f","bdp_lott","Mon Apr 10 2023 18:17:31 GMT-0400 (Eastern Daylight Time)","295816","red","green","","","","","","","","","","207","","","","","","[{""stimulus"":""img/green_wl/1.jpg"",""time"":62},{""stimulus"":""img/green_wl/2.jpg"",""time"":102},{""stimulus"":""img/green_wl/3.jpg"",""time"":158},{""stimulus"":""img/green_wl/4.jpg"",""time"":207},{""stimulus"":""img/green_wl/5.jpg"",""time"":255},{""stimulus"":""img/green_wl/6.jpg"",""time"":303},{""stimulus"":""img/green_wl/7.jpg"",""time"":352},{""stimulus"":""img/green_wl/8.jpg"",""time"":407},{""stimulus"":""img/green_wl/9.jpg"",""time"":463},{""stimulus"":""img/green_wl/10.jpg"",""time"":501},{""stimulus"":""img/green_wl/11.jpg"",""time"":557}]","[]"
"image-keyboard-response","42","60175","0.0-5.0-1.19","610c736500a4b33398fef94f","bdp_lott","Mon Apr 10 2023 18:17:31 GMT-0400 (Eastern Daylight Time)","295816","red","green","","470","","","","choice","","img/green_wl/choose11.jpg","1","206","green","0.5","0.5","0.5","w","",""
"animation","43","60776","0.0-5.0-2.19","610c736500a4b33398fef94f","bdp_lott","Mon Apr 10 2023 18:17:31 GMT-0400 (Eastern Daylight Time)","295816","red","green","","","","","","","","","","206","","","","","","[{""stimulus"":""img/green_wl/1.jpg"",""time"":54},{""stimulus"":""img/green_wl/2.jpg"",""time"":107},{""stimulus"":""img/green_wl/3.jpg"",""time"":157},{""stimulus"":""img/green_wl/4.jpg"",""time"":207},{""stimulus"":""img/green_wl/5.jpg"",""time"":257},{""stimulus"":""img/green_wl/6.jpg"",""time"":301},{""stimulus"":""img/green_wl/7.jpg"",""time"":357},{""stimulus"":""img/green_wl/8.jpg"",""time"":416},{""stimulus"":""img/green_wl/9.jpg"",""time"":450},{""stimulus"":""img/green_wl/10.jpg"",""time"":500},{""stimulus"":""img/green_wl/11.jpg"",""time"":550}]","[]"
"image-keyboard-response","44","61198","0.0-5.0-1.20","610c736500a4b33398fef94f","bdp_lott","Mon Apr 10 2023 18:17:31 GMT-0400 (Eastern Daylight Time)","295816","red","green","","421","","","","choice","","img/green_wl/choose11.jpg","1","205","green","0.5","0.5","0.5","l","",""
"animation","45","61799","0.0-5.0-2.20","610c736500a4b33398fef94f","bdp_lott","Mon Apr 10 2023 18:17:31 GMT-0400 (Eastern Daylight Time)","295816","red","green","","","","","","","","","","205","","","","","","[{""stimulus"":""img/green_ll/1.jpg"",""time"":58},{""stimulus"":""img/green_ll/2.jpg"",""time"":106},{""stimulus"":""img/green_ll/3.jpg"",""time"":163},{""stimulus"":""img/green_ll/4.jpg"",""time"":202},{""stimulus"":""img/green_ll/5.jpg"",""time"":258},{""stimulus"":""img/green_ll/6.jpg"",""time"":302},{""stimulus"":""img/green_ll/7.jpg"",""time"":359},{""stimulus"":""img/green_ll/8.jpg"",""time"":408},{""stimulus"":""img/green_ll/9.jpg"",""time"":456},{""stimulus"":""img/green_ll/10.jpg"",""time"":504},{""stimulus"":""img/green_ll/11.jpg"",""time"":562}]","[]"
"image-keyboard-response","46","62593","0.0-5.0-1.21","610c736500a4b33398fef94f","bdp_lott","Mon Apr 10 2023 18:17:31 GMT-0400 (Eastern Daylight Time)","295816","red","green","","793","","","","choice","","img/green_ll/choose11.jpg","1","204","green","0.5","0.5","0.5","l","",""
"animation","47","63206","0.0-5.0-2.21","610c736500a4b33398fef94f","bdp_lott","Mon Apr 10 2023 18:17:31 GMT-0400 (Eastern Daylight Time)","295816","red","green","","","","","","","","","","204","","","","","","[{""stimulus"":""img/green_ll/1.jpg"",""time"":53},{""stimulus"":""img/green_ll/2.jpg"",""time"":106},{""stimulus"":""img/green_ll/3.jpg"",""time"":166},{""stimulus"":""img/green_ll/4.jpg"",""time"":207},{""stimulus"":""img/green_ll/5.jpg"",""time"":256},{""stimulus"":""img/green_ll/6.jpg"",""time"":304},{""stimulus"":""img/green_ll/7.jpg"",""time"":353},{""stimulus"":""img/green_ll/8.jpg"",""time"":410},{""stimulus"":""img/green_ll/9.jpg"",""time"":451},{""stimulus"":""img/green_ll/10.jpg"",""time"":507},{""stimulus"":""img/green_ll/11.jpg"",""time"":556}]","[]"
"image-keyboard-response","48","63593","0.0-5.0-1.22","610c736500a4b33398fef94f","bdp_lott","Mon Apr 10 2023 18:17:31 GMT-0400 (Eastern Daylight Time)","295816","red","green","","387","","","","choice","","img/green_ll/choose11.jpg","1","203","green","0.5","0.5","0.5","l","",""
"animation","49","64194","0.0-5.0-2.22","610c736500a4b33398fef94f","bdp_lott","Mon Apr 10 2023 18:17:31 GMT-0400 (Eastern Daylight Time)","295816","red","green","","","","","","","","","","203","","","","","","[{""stimulus"":""img/green_ll/1.jpg"",""time"":60},{""stimulus"":""img/green_ll/2.jpg"",""time"":109},{""stimulus"":""img/green_ll/3.jpg"",""time"":156},{""stimulus"":""img/green_ll/4.jpg"",""time"":205},{""stimulus"":""img/green_ll/5.jpg"",""time"":254},{""stimulus"":""img/green_ll/6.jpg"",""time"":310},{""stimulus"":""img/green_ll/7.jpg"",""time"":351},{""stimulus"":""img/green_ll/8.jpg"",""time"":407},{""stimulus"":""img/green_ll/9.jpg"",""time"":454},{""stimulus"":""img/green_ll/10.jpg"",""time"":503},{""stimulus"":""img/green_ll/11.jpg"",""time"":552}]","[]"
"image-keyboard-response","50","64632","0.0-5.0-1.23","610c736500a4b33398fef94f","bdp_lott","Mon Apr 10 2023 18:17:31 GMT-0400 (Eastern Daylight Time)","295816","red","green","","438","","","","choice","","img/green_ll/choose11.jpg","2","202","red","0.5","0.5","0.5","l","",""
"animation","51","65240","0.0-5.0-2.23","610c736500a4b33398fef94f","bdp_lott","Mon Apr 10 2023 18:17:31 GMT-0400 (Eastern Daylight Time)","295816","red","green","","","","","","","","","","202","","","","","","[{""stimulus"":""img/red_ll/1.jpg"",""time"":66},{""stimulus"":""img/red_ll/2.jpg"",""time"":108},{""stimulus"":""img/red_ll/3.jpg"",""time"":158},{""stimulus"":""img/red_ll/4.jpg"",""time"":207},{""stimulus"":""img/red_ll/5.jpg"",""time"":255},{""stimulus"":""img/red_ll/6.jpg"",""time"":311},{""stimulus"":""img/red_ll/7.jpg"",""time"":359},{""stimulus"":""img/red_ll/8.jpg"",""time"":407},{""stimulus"":""img/red_ll/9.jpg"",""time"":455},{""stimulus"":""img/red_ll/10.jpg"",""time"":504},{""stimulus"":""img/red_ll/11.jpg"",""time"":552}]","[]"
"image-keyboard-response","52","65908","0.0-5.0-1.24","610c736500a4b33398fef94f","bdp_lott","Mon Apr 10 2023 18:17:31 GMT-0400 (Eastern Daylight Time)","295816","red","green","","668","","","","choice","","img/red_ll/choose11.jpg","2","201","red","0.5","0.5","0.5","w","",""
"animation","53","66510","0.0-5.0-2.24","610c736500a4b33398fef94f","bdp_lott","Mon Apr 10 2023 18:17:31 GMT-0400 (Eastern Daylight Time)","295816","red","green","","","","","","","","","","201","","","","","","[{""stimulus"":""img/red_lw/1.jpg"",""time"":67},{""stimulus"":""img/red_lw/2.jpg"",""time"":107},{""stimulus"":""img/red_lw/3.jpg"",""time"":155},{""stimulus"":""img/red_lw/4.jpg"",""time"":204},{""stimulus"":""img/red_lw/5.jpg"",""time"":253},{""stimulus"":""img/red_lw/6.jpg"",""time"":301},{""stimulus"":""img/red_lw/7.jpg"",""time"":357},{""stimulus"":""img/red_lw/8.jpg"",""time"":407},{""stimulus"":""img/red_lw/9.jpg"",""time"":464},{""stimulus"":""img/red_lw/10.jpg"",""time"":513},{""stimulus"":""img/red_lw/11.jpg"",""time"":553}]","[]"
"image-keyboard-response","54","67071","0.0-5.0-1.25","610c736500a4b33398fef94f","bdp_lott","Mon Apr 10 2023 18:17:31 GMT-0400 (Eastern Daylight Time)","295816","red","green","","561","","","","choice","","img/red_lw/choose11.jpg","2","200","red","0.5","0.5","0.5","w","",""
"animation","55","67672","0.0-5.0-2.25","610c736500a4b33398fef94f","bdp_lott","Mon Apr 10 2023 18:17:31 GMT-0400 (Eastern Daylight Time)","295816","red","green","","","","","","","","","","200","","","","","","[{""stimulus"":""img/red_lw/1.jpg"",""time"":52},{""stimulus"":""img/red_lw/2.jpg"",""time"":103},{""stimulus"":""img/red_lw/3.jpg"",""time"":153},{""stimulus"":""img/red_lw/4.jpg"",""time"":203},{""stimulus"":""img/red_lw/5.jpg"",""time"":253},{""stimulus"":""img/red_lw/6.jpg"",""time"":303},{""stimulus"":""img/red_lw/7.jpg"",""time"":351},{""stimulus"":""img/red_lw/8.jpg"",""time"":423},{""stimulus"":""img/red_lw/9.jpg"",""time"":453},{""stimulus"":""img/red_lw/10.jpg"",""time"":503},{""stimulus"":""img/red_lw/11.jpg"",""time"":552}]","[]"
"image-keyboard-response","56","68114","0.0-5.0-1.26","610c736500a4b33398fef94f","bdp_lott","Mon Apr 10 2023 18:17:31 GMT-0400 (Eastern Daylight Time)","295816","red","green","","441","","","","choice","","img/red_lw/choose11.jpg","2","199","red","0.5","0.5","0.5","l","",""
"animation","57","68722","0.0-5.0-2.26","610c736500a4b33398fef94f","bdp_lott","Mon Apr 10 2023 18:17:31 GMT-0400 (Eastern Daylight Time)","295816","red","green","","","","","","","","","","199","","","","","","[{""stimulus"":""img/red_ll/1.jpg"",""time"":52},{""stimulus"":""img/red_ll/2.jpg"",""time"":108},{""stimulus"":""img/red_ll/3.jpg"",""time"":156},{""stimulus"":""img/red_ll/4.jpg"",""time"":205},{""stimulus"":""img/red_ll/5.jpg"",""time"":261},{""stimulus"":""img/red_ll/6.jpg"",""time"":308},{""stimulus"":""img/red_ll/7.jpg"",""time"":356},{""stimulus"":""img/red_ll/8.jpg"",""time"":405},{""stimulus"":""img/red_ll/9.jpg"",""time"":454},{""stimulus"":""img/red_ll/10.jpg"",""time"":502},{""stimulus"":""img/red_ll/11.jpg"",""time"":551}]","[]"
"image-keyboard-response","58","69207","0.0-5.0-1.27","610c736500a4b33398fef94f","bdp_lott","Mon Apr 10 2023 18:17:31 GMT-0400 (Eastern Daylight Time)","295816","red","green","","485","","","","choice","","img/red_ll/choose11.jpg","2","198","red","0.5","0.5","0.5","w","",""
"animation","59","69812","0.0-5.0-2.27","610c736500a4b33398fef94f","bdp_lott","Mon Apr 10 2023 18:17:31 GMT-0400 (Eastern Daylight Time)","295816","red","green","","","","","","","","","","198","","","","","","[{""stimulus"":""img/red_lw/1.jpg"",""time"":55},{""stimulus"":""img/red_lw/2.jpg"",""time"":105},{""stimulus"":""img/red_lw/3.jpg"",""time"":155},{""stimulus"":""img/red_lw/4.jpg"",""time"":205},{""stimulus"":""img/red_lw/5.jpg"",""time"":256},{""stimulus"":""img/red_lw/6.jpg"",""time"":315},{""stimulus"":""img/red_lw/7.jpg"",""time"":355},{""stimulus"":""img/red_lw/8.jpg"",""time"":404},{""stimulus"":""img/red_lw/9.jpg"",""time"":451},{""stimulus"":""img/red_lw/10.jpg"",""time"":508},{""stimulus"":""img/red_lw/11.jpg"",""time"":556}]","[]"
"image-keyboard-response","60","70347","0.0-5.0-1.28","610c736500a4b33398fef94f","bdp_lott","Mon Apr 10 2023 18:17:31 GMT-0400 (Eastern Daylight Time)","295816","red","green","","535","","","","choice","","img/red_lw/choose11.jpg","2","197","red","0.5","0.5","0.5","l","",""
"animation","61","70954","0.0-5.0-2.28","610c736500a4b33398fef94f","bdp_lott","Mon Apr 10 2023 18:17:31 GMT-0400 (Eastern Daylight Time)","295816","red","green","","","","","","","","","","197","","","","","","[{""stimulus"":""img/red_ll/1.jpg"",""time"":61},{""stimulus"":""img/red_ll/2.jpg"",""time"":100},{""stimulus"":""img/red_ll/3.jpg"",""time"":157},{""stimulus"":""img/red_ll/4.jpg"",""time"":206},{""stimulus"":""img/red_ll/5.jpg"",""time"":254},{""stimulus"":""img/red_ll/6.jpg"",""time"":302},{""stimulus"":""img/red_ll/7.jpg"",""time"":351},{""stimulus"":""img/red_ll/8.jpg"",""time"":407},{""stimulus"":""img/red_ll/9.jpg"",""time"":455},{""stimulus"":""img/red_ll/10.jpg"",""time"":503},{""stimulus"":""img/red_ll/11.jpg"",""time"":551}]","[]"
"image-keyboard-response","62","71718","0.0-5.0-1.29","610c736500a4b33398fef94f","bdp_lott","Mon Apr 10 2023 18:17:31 GMT-0400 (Eastern Daylight Time)","295816","red","green","","763","","","","choice","","img/red_ll/choose11.jpg","2","196","red","0.5","0.5","0.5","l","",""
"animation","63","72335","0.0-5.0-2.29","610c736500a4b33398fef94f","bdp_lott","Mon Apr 10 2023 18:17:31 GMT-0400 (Eastern Daylight Time)","295816","red","green","","","","","","","","","","196","","","","","","[{""stimulus"":""img/red_ll/1.jpg"",""time"":58},{""stimulus"":""img/red_ll/2.jpg"",""time"":103},{""stimulus"":""img/red_ll/3.jpg"",""time"":151},{""stimulus"":""img/red_ll/4.jpg"",""time"":207},{""stimulus"":""img/red_ll/5.jpg"",""time"":253},{""stimulus"":""img/red_ll/6.jpg"",""time"":303},{""stimulus"":""img/red_ll/7.jpg"",""time"":352},{""stimulus"":""img/red_ll/8.jpg"",""time"":423},{""stimulus"":""img/red_ll/9.jpg"",""time"":454},{""stimulus"":""img/red_ll/10.jpg"",""time"":504},{""stimulus"":""img/red_ll/11.jpg"",""time"":553}]","[]"
"image-keyboard-response","64","72678","0.0-5.0-1.30","610c736500a4b33398fef94f","bdp_lott","Mon Apr 10 2023 18:17:31 GMT-0400 (Eastern Daylight Time)","295816","red","green","","343","","","","choice","","img/red_ll/choose11.jpg","2","195","red","0.5","0.5","0.5","l","",""
"animation","65","73279","0.0-5.0-2.30","610c736500a4b33398fef94f","bdp_lott","Mon Apr 10 2023 18:17:31 GMT-0400 (Eastern Daylight Time)","295816","red","green","","","","","","","","","","195","","","","","","[{""stimulus"":""img/red_ll/1.jpg"",""time"":64},{""stimulus"":""img/red_ll/2.jpg"",""time"":102},{""stimulus"":""img/red_ll/3.jpg"",""time"":158},{""stimulus"":""img/red_ll/4.jpg"",""time"":214},{""stimulus"":""img/red_ll/5.jpg"",""time"":251},{""stimulus"":""img/red_ll/6.jpg"",""time"":307},{""stimulus"":""img/red_ll/7.jpg"",""time"":364},{""stimulus"":""img/red_ll/8.jpg"",""time"":401},{""stimulus"":""img/red_ll/9.jpg"",""time"":457},{""stimulus"":""img/red_ll/10.jpg"",""time"":505},{""stimulus"":""img/red_ll/11.jpg"",""time"":553}]","[]"
"image-keyboard-response","66","73822","0.0-5.0-1.31","610c736500a4b33398fef94f","bdp_lott","Mon Apr 10 2023 18:17:31 GMT-0400 (Eastern Daylight Time)","295816","red","green","","543","","","","choice","","img/red_ll/choose11.jpg","2","194","red","0.5","0.5","0.5","l","",""
"animation","67","74428","0.0-5.0-2.31","610c736500a4b33398fef94f","bdp_lott","Mon Apr 10 2023 18:17:31 GMT-0400 (Eastern Daylight Time)","295816","red","green","","","","","","","","","","194","","","","","","[{""stimulus"":""img/red_ll/1.jpg"",""time"":52},{""stimulus"":""img/red_ll/2.jpg"",""time"":106},{""stimulus"":""img/red_ll/3.jpg"",""time"":156},{""stimulus"":""img/red_ll/4.jpg"",""time"":207},{""stimulus"":""img/red_ll/5.jpg"",""time"":256},{""stimulus"":""img/red_ll/6.jpg"",""time"":306},{""stimulus"":""img/red_ll/7.jpg"",""time"":356},{""stimulus"":""img/red_ll/8.jpg"",""time"":406},{""stimulus"":""img/red_ll/9.jpg"",""time"":456},{""stimulus"":""img/red_ll/10.jpg"",""time"":506},{""stimulus"":""img/red_ll/11.jpg"",""time"":556}]","[]"
"image-keyboard-response","68","74772","0.0-5.0-1.32","610c736500a4b33398fef94f","bdp_lott","Mon Apr 10 2023 18:17:31 GMT-0400 (Eastern Daylight Time)","295816","red","green","","344","","","","choice","","img/red_ll/choose11.jpg","2","193","red","0.5","0.5","0.5","w","",""
"animation","69","75380","0.0-5.0-2.32","610c736500a4b33398fef94f","bdp_lott","Mon Apr 10 2023 18:17:31 GMT-0400 (Eastern Daylight Time)","295816","red","green","","","","","","","","","","193","","","","","","[{""stimulus"":""img/red_lw/1.jpg"",""time"":64},{""stimulus"":""img/red_lw/2.jpg"",""time"":105},{""stimulus"":""img/red_lw/3.jpg"",""time"":151},{""stimulus"":""img/red_lw/4.jpg"",""time"":211},{""stimulus"":""img/red_lw/5.jpg"",""time"":251},{""stimulus"":""img/red_lw/6.jpg"",""time"":307},{""stimulus"":""img/red_lw/7.jpg"",""time"":355},{""stimulus"":""img/red_lw/8.jpg"",""time"":404},{""stimulus"":""img/red_lw/9.jpg"",""time"":452},{""stimulus"":""img/red_lw/10.jpg"",""time"":500},{""stimulus"":""img/red_lw/11.jpg"",""time"":565}]","[]"
"image-keyboard-response","70","76200","0.0-5.0-1.33","610c736500a4b33398fef94f","bdp_lott","Mon Apr 10 2023 18:17:31 GMT-0400 (Eastern Daylight Time)","295816","red","green","","819","","","","choice","","img/red_lw/choose11.jpg","1","192","green","0.5","0.5","0.5","w","",""
"animation","71","76824","0.0-5.0-2.33","610c736500a4b33398fef94f","bdp_lott","Mon Apr 10 2023 18:17:31 GMT-0400 (Eastern Daylight Time)","295816","red","green","","","","","","","","","","192","","","","","","[{""stimulus"":""img/green_ww/1.jpg"",""time"":59},{""stimulus"":""img/green_ww/2.jpg"",""time"":103},{""stimulus"":""img/green_ww/3.jpg"",""time"":151},{""stimulus"":""img/green_ww/4.jpg"",""time"":224},{""stimulus"":""img/green_ww/5.jpg"",""time"":254},{""stimulus"":""img/green_ww/6.jpg"",""time"":304},{""stimulus"":""img/green_ww/7.jpg"",""time"":354},{""stimulus"":""img/green_ww/8.jpg"",""time"":404},{""stimulus"":""img/green_ww/9.jpg"",""time"":454},{""stimulus"":""img/green_ww/10.jpg"",""time"":504},{""stimulus"":""img/green_ww/11.jpg"",""time"":552}]","[]"
"image-keyboard-response","72","77415","0.0-5.0-1.34","610c736500a4b33398fef94f","bdp_lott","Mon Apr 10 2023 18:17:31 GMT-0400 (Eastern Daylight Time)","295816","red","green","","590","","","","choice","","img/green_ww/choose11.jpg","1","191","green","0.5","0.5","0.5","w","",""
"animation","73","78016","0.0-5.0-2.34","610c736500a4b33398fef94f","bdp_lott","Mon Apr 10 2023 18:17:31 GMT-0400 (Eastern Daylight Time)","295816","red","green","","","","","","","","","","191","","","","","","[{""stimulus"":""img/green_ww/1.jpg"",""time"":58},{""stimulus"":""img/green_ww/2.jpg"",""time"":105},{""stimulus"":""img/green_ww/3.jpg"",""time"":153},{""stimulus"":""img/green_ww/4.jpg"",""time"":202},{""stimulus"":""img/green_ww/5.jpg"",""time"":273},{""stimulus"":""img/green_ww/6.jpg"",""time"":305},{""stimulus"":""img/green_ww/7.jpg"",""time"":353},{""stimulus"":""img/green_ww/8.jpg"",""time"":402},{""stimulus"":""img/green_ww/9.jpg"",""time"":473},{""stimulus"":""img/green_ww/10.jpg"",""time"":505},{""stimulus"":""img/green_ww/11.jpg"",""time"":553}]","[]"
"image-keyboard-response","74","78486","0.0-5.0-1.35","610c736500a4b33398fef94f","bdp_lott","Mon Apr 10 2023 18:17:31 GMT-0400 (Eastern Daylight Time)","295816","red","green","","469","","","","choice","","img/green_ww/choose11.jpg","1","190","green","0.5","0.5","0.5","w","",""
"animation","75","79093","0.0-5.0-2.35","610c736500a4b33398fef94f","bdp_lott","Mon Apr 10 2023 18:17:31 GMT-0400 (Eastern Daylight Time)","295816","red","green","","","","","","","","","","190","","","","","","[{""stimulus"":""img/green_ww/1.jpg"",""time"":57},{""stimulus"":""img/green_ww/2.jpg"",""time"":108},{""stimulus"":""img/green_ww/3.jpg"",""time"":173},{""stimulus"":""img/green_ww/4.jpg"",""time"":205},{""stimulus"":""img/green_ww/5.jpg"",""time"":254},{""stimulus"":""img/green_ww/6.jpg"",""time"":302},{""stimulus"":""img/green_ww/7.jpg"",""time"":358},{""stimulus"":""img/green_ww/8.jpg"",""time"":402},{""stimulus"":""img/green_ww/9.jpg"",""time"":455},{""stimulus"":""img/green_ww/10.jpg"",""time"":503},{""stimulus"":""img/green_ww/11.jpg"",""time"":551}]","[]"
"image-keyboard-response","76","79704","0.0-5.0-1.36","610c736500a4b33398fef94f","bdp_lott","Mon Apr 10 2023 18:17:31 GMT-0400 (Eastern Daylight Time)","295816","red","green","","609","","","","choice","","img/green_ww/choose11.jpg","1","189","green","0.5","0.5","0.5","w","",""
"animation","77","80307","0.0-5.0-2.36","610c736500a4b33398fef94f","bdp_lott","Mon Apr 10 2023 18:17:31 GMT-0400 (Eastern Daylight Time)","295816","red","green","","","","","","","","","","189","","","","","","[{""stimulus"":""img/green_ww/1.jpg"",""time"":64},{""stimulus"":""img/green_ww/2.jpg"",""time"":112},{""stimulus"":""img/green_ww/3.jpg"",""time"":160},{""stimulus"":""img/green_ww/4.jpg"",""time"":204},{""stimulus"":""img/green_ww/5.jpg"",""time"":256},{""stimulus"":""img/green_ww/6.jpg"",""time"":305},{""stimulus"":""img/green_ww/7.jpg"",""time"":354},{""stimulus"":""img/green_ww/8.jpg"",""time"":402},{""stimulus"":""img/green_ww/9.jpg"",""time"":450},{""stimulus"":""img/green_ww/10.jpg"",""time"":506},{""stimulus"":""img/green_ww/11.jpg"",""time"":555}]","[]"
"image-keyboard-response","78","80748","0.0-5.0-1.37","610c736500a4b33398fef94f","bdp_lott","Mon Apr 10 2023 18:17:31 GMT-0400 (Eastern Daylight Time)","295816","red","green","","440","","","","choice","","img/green_ww/choose11.jpg","1","188","green","0.5","0.5","0.5","l","",""
"animation","79","81351","0.0-5.0-2.37","610c736500a4b33398fef94f","bdp_lott","Mon Apr 10 2023 18:17:31 GMT-0400 (Eastern Daylight Time)","295816","red","green","","","","","","","","","","188","","","","","","[{""stimulus"":""img/green_lw/1.jpg"",""time"":56},{""stimulus"":""img/green_lw/2.jpg"",""time"":104},{""stimulus"":""img/green_lw/3.jpg"",""time"":152},{""stimulus"":""img/green_lw/4.jpg"",""time"":200},{""stimulus"":""img/green_lw/5.jpg"",""time"":273},{""stimulus"":""img/green_lw/6.jpg"",""time"":305},{""stimulus"":""img/green_lw/7.jpg"",""time"":353},{""stimulus"":""img/green_lw/8.jpg"",""time"":409},{""stimulus"":""img/green_lw/9.jpg"",""time"":453},{""stimulus"":""img/green_lw/10.jpg"",""time"":502},{""stimulus"":""img/green_lw/11.jpg"",""time"":558}]","[]"
"image-keyboard-response","80","81818","0.0-5.0-1.38","610c736500a4b33398fef94f","bdp_lott","Mon Apr 10 2023 18:17:31 GMT-0400 (Eastern Daylight Time)","295816","red","green","","466","","","","choice","","img/green_lw/choose11.jpg","1","187","green","0.5","0.5","0.5","l","",""
"animation","81","82419","0.0-5.0-2.38","610c736500a4b33398fef94f","bdp_lott","Mon Apr 10 2023 18:17:31 GMT-0400 (Eastern Daylight Time)","295816","red","green","","","","","","","","","","187","","","","","","[{""stimulus"":""img/green_lw/1.jpg"",""time"":58},{""stimulus"":""img/green_lw/2.jpg"",""time"":108},{""stimulus"":""img/green_lw/3.jpg"",""time"":158},{""stimulus"":""img/green_lw/4.jpg"",""time"":208},{""stimulus"":""img/green_lw/5.jpg"",""time"":258},{""stimulus"":""img/green_lw/6.jpg"",""time"":308},{""stimulus"":""img/green_lw/7.jpg"",""time"":358},{""stimulus"":""img/green_lw/8.jpg"",""time"":407},{""stimulus"":""img/green_lw/9.jpg"",""time"":458},{""stimulus"":""img/green_lw/10.jpg"",""time"":524},{""stimulus"":""img/green_lw/11.jpg"",""time"":551}]","[]"
"image-keyboard-response","82","82899","0.0-5.0-1.39","610c736500a4b33398fef94f","bdp_lott","Mon Apr 10 2023 18:17:31 GMT-0400 (Eastern Daylight Time)","295816","red","green","","480","","","","choice","","img/green_lw/choose11.jpg","2","186","red","0.5","0.5","0.5","l","",""
"animation","83","83507","0.0-5.0-2.39","610c736500a4b33398fef94f","bdp_lott","Mon Apr 10 2023 18:17:31 GMT-0400 (Eastern Daylight Time)","295816","red","green","","","","","","","","","","186","","","","","","[{""stimulus"":""img/red_ll/1.jpg"",""time"":56},{""stimulus"":""img/red_ll/2.jpg"",""time"":101},{""stimulus"":""img/red_ll/3.jpg"",""time"":172},{""stimulus"":""img/red_ll/4.jpg"",""time"":202},{""stimulus"":""img/red_ll/5.jpg"",""time"":252},{""stimulus"":""img/red_ll/6.jpg"",""time"":302},{""stimulus"":""img/red_ll/7.jpg"",""time"":352},{""stimulus"":""img/red_ll/8.jpg"",""time"":402},{""stimulus"":""img/red_ll/9.jpg"",""time"":452},{""stimulus"":""img/red_ll/10.jpg"",""time"":502},{""stimulus"":""img/red_ll/11.jpg"",""time"":551}]","[]"
"image-keyboard-response","84","84794","0.0-5.0-1.40","610c736500a4b33398fef94f","bdp_lott","Mon Apr 10 2023 18:17:31 GMT-0400 (Eastern Daylight Time)","295816","red","green","","1286","","","","choice","","img/red_ll/choose11.jpg","2","185","red","0.5","0.5","0.5","l","",""
"animation","85","85395","0.0-5.0-2.40","610c736500a4b33398fef94f","bdp_lott","Mon Apr 10 2023 18:17:31 GMT-0400 (Eastern Daylight Time)","295816","red","green","","","","","","","","","","185","","","","","","[{""stimulus"":""img/red_ll/1.jpg"",""time"":62},{""stimulus"":""img/red_ll/2.jpg"",""time"":106},{""stimulus"":""img/red_ll/3.jpg"",""time"":155},{""stimulus"":""img/red_ll/4.jpg"",""time"":203},{""stimulus"":""img/red_ll/5.jpg"",""time"":251},{""stimulus"":""img/red_ll/6.jpg"",""time"":324},{""stimulus"":""img/red_ll/7.jpg"",""time"":357},{""stimulus"":""img/red_ll/8.jpg"",""time"":405},{""stimulus"":""img/red_ll/9.jpg"",""time"":461},{""stimulus"":""img/red_ll/10.jpg"",""time"":506},{""stimulus"":""img/red_ll/11.jpg"",""time"":554}]","[]"
"image-keyboard-response","86","85752","0.0-5.0-1.41","610c736500a4b33398fef94f","bdp_lott","Mon Apr 10 2023 18:17:31 GMT-0400 (Eastern Daylight Time)","295816","red","green","","356","","","","choice","","img/red_ll/choose11.jpg","2","184","red","0.5","0.5","0.5","w","",""
"animation","87","86366","0.0-5.0-2.41","610c736500a4b33398fef94f","bdp_lott","Mon Apr 10 2023 18:17:31 GMT-0400 (Eastern Daylight Time)","295816","red","green","","","","","","","","","","184","","","","","","[{""stimulus"":""img/red_lw/1.jpg"",""time"":59},{""stimulus"":""img/red_lw/2.jpg"",""time"":108},{""stimulus"":""img/red_lw/3.jpg"",""time"":156},{""stimulus"":""img/red_lw/4.jpg"",""time"":204},{""stimulus"":""img/red_lw/5.jpg"",""time"":252},{""stimulus"":""img/red_lw/6.jpg"",""time"":301},{""stimulus"":""img/red_lw/7.jpg"",""time"":357},{""stimulus"":""img/red_lw/8.jpg"",""time"":405},{""stimulus"":""img/red_lw/9.jpg"",""time"":454},{""stimulus"":""img/red_lw/10.jpg"",""time"":502},{""stimulus"":""img/red_lw/11.jpg"",""time"":551}]","[]"
"image-keyboard-response","88","86923","0.0-5.0-1.42","610c736500a4b33398fef94f","bdp_lott","Mon Apr 10 2023 18:17:31 GMT-0400 (Eastern Daylight Time)","295816","red","green","","556","","","","choice","","img/red_lw/choose11.jpg","2","183","red","0.5","0.5","0.5","l","",""
"animation","89","87530","0.0-5.0-2.42","610c736500a4b33398fef94f","bdp_lott","Mon Apr 10 2023 18:17:31 GMT-0400 (Eastern Daylight Time)","295816","red","green","","","","","","","","","","183","","","","","","[{""stimulus"":""img/red_ll/1.jpg"",""time"":56},{""stimulus"":""img/red_ll/2.jpg"",""time"":108},{""stimulus"":""img/red_ll/3.jpg"",""time"":173},{""stimulus"":""img/red_ll/4.jpg"",""time"":205},{""stimulus"":""img/red_ll/5.jpg"",""time"":251},{""stimulus"":""img/red_ll/6.jpg"",""time"":302},{""stimulus"":""img/red_ll/7.jpg"",""time"":358},{""stimulus"":""img/red_ll/8.jpg"",""time"":407},{""stimulus"":""img/red_ll/9.jpg"",""time"":455},{""stimulus"":""img/red_ll/10.jpg"",""time"":503},{""stimulus"":""img/red_ll/11.jpg"",""time"":551}]","[]"
"image-keyboard-response","90","88717","0.0-5.0-1.43","610c736500a4b33398fef94f","bdp_lott","Mon Apr 10 2023 18:17:31 GMT-0400 (Eastern Daylight Time)","295816","red","green","","1186","","","","choice","","img/red_ll/choose11.jpg","2","182","red","0.5","0.5","0.5","l","",""
"animation","91","89318","0.0-5.0-2.43","610c736500a4b33398fef94f","bdp_lott","Mon Apr 10 2023 18:17:31 GMT-0400 (Eastern Daylight Time)","295816","red","green","","","","","","","","","","182","","","","","","[{""stimulus"":""img/red_ll/1.jpg"",""time"":54},{""stimulus"":""img/red_ll/2.jpg"",""time"":102},{""stimulus"":""img/red_ll/3.jpg"",""time"":157},{""stimulus"":""img/red_ll/4.jpg"",""time"":206},{""stimulus"":""img/red_ll/5.jpg"",""time"":254},{""stimulus"":""img/red_ll/6.jpg"",""time"":303},{""stimulus"":""img/red_ll/7.jpg"",""time"":352},{""stimulus"":""img/red_ll/8.jpg"",""time"":424},{""stimulus"":""img/red_ll/9.jpg"",""time"":456},{""stimulus"":""img/red_ll/10.jpg"",""time"":505},{""stimulus"":""img/red_ll/11.jpg"",""time"":554}]","[]"
"image-keyboard-response","92","90516","0.0-5.0-1.44","610c736500a4b33398fef94f","bdp_lott","Mon Apr 10 2023 18:17:31 GMT-0400 (Eastern Daylight Time)","295816","red","green","","1197","","","","choice","","img/red_ll/choose11.jpg","2","181","red","0.5","0.5","0.5","l","",""
"animation","93","91122","0.0-5.0-2.44","610c736500a4b33398fef94f","bdp_lott","Mon Apr 10 2023 18:17:31 GMT-0400 (Eastern Daylight Time)","295816","red","green","","","","","","","","","","181","","","","","","[{""stimulus"":""img/red_ll/1.jpg"",""time"":64},{""stimulus"":""img/red_ll/2.jpg"",""time"":106},{""stimulus"":""img/red_ll/3.jpg"",""time"":154},{""stimulus"":""img/red_ll/4.jpg"",""time"":202},{""stimulus"":""img/red_ll/5.jpg"",""time"":274},{""stimulus"":""img/red_ll/6.jpg"",""time"":306},{""stimulus"":""img/red_ll/7.jpg"",""time"":355},{""stimulus"":""img/red_ll/8.jpg"",""time"":404},{""stimulus"":""img/red_ll/9.jpg"",""time"":452},{""stimulus"":""img/red_ll/10.jpg"",""time"":524},{""stimulus"":""img/red_ll/11.jpg"",""time"":556}]","[]"
"image-keyboard-response","94","91583","0.0-5.0-1.45","610c736500a4b33398fef94f","bdp_lott","Mon Apr 10 2023 18:17:31 GMT-0400 (Eastern Daylight Time)","295816","red","green","","460","","","","choice","","img/red_ll/choose11.jpg","2","180","red","0.5","0.5","0.5","w","",""
"animation","95","92186","0.0-5.0-2.45","610c736500a4b33398fef94f","bdp_lott","Mon Apr 10 2023 18:17:31 GMT-0400 (Eastern Daylight Time)","295816","red","green","","","","","","","","","","180","","","","","","[{""stimulus"":""img/red_lw/1.jpg"",""time"":63},{""stimulus"":""img/red_lw/2.jpg"",""time"":105},{""stimulus"":""img/red_lw/3.jpg"",""time"":153},{""stimulus"":""img/red_lw/4.jpg"",""time"":201},{""stimulus"":""img/red_lw/5.jpg"",""time"":273},{""stimulus"":""img/red_lw/6.jpg"",""time"":306},{""stimulus"":""img/red_lw/7.jpg"",""time"":354},{""stimulus"":""img/red_lw/8.jpg"",""time"":403},{""stimulus"":""img/red_lw/9.jpg"",""time"":451},{""stimulus"":""img/red_lw/10.jpg"",""time"":523},{""stimulus"":""img/red_lw/11.jpg"",""time"":555}]","[]"
"image-keyboard-response","96","92681","0.0-5.0-1.46","610c736500a4b33398fef94f","bdp_lott","Mon Apr 10 2023 18:17:31 GMT-0400 (Eastern Daylight Time)","295816","red","green","","493","","","","choice","","img/red_lw/choose11.jpg","1","179","green","0.5","0.5","0.5","w","",""
"animation","97","93304","0.0-5.0-2.46","610c736500a4b33398fef94f","bdp_lott","Mon Apr 10 2023 18:17:31 GMT-0400 (Eastern Daylight Time)","295816","red","green","","","","","","","","","","179","","","","","","[{""stimulus"":""img/green_ww/1.jpg"",""time"":62},{""stimulus"":""img/green_ww/2.jpg"",""time"":107},{""stimulus"":""img/green_ww/3.jpg"",""time"":155},{""stimulus"":""img/green_ww/4.jpg"",""time"":210},{""stimulus"":""img/green_ww/5.jpg"",""time"":256},{""stimulus"":""img/green_ww/6.jpg"",""time"":304},{""stimulus"":""img/green_ww/7.jpg"",""time"":352},{""stimulus"":""img/green_ww/8.jpg"",""time"":424},{""stimulus"":""img/green_ww/9.jpg"",""time"":456},{""stimulus"":""img/green_ww/10.jpg"",""time"":504},{""stimulus"":""img/green_ww/11.jpg"",""time"":552}]","[]"
"image-keyboard-response","98","93758","0.0-5.0-1.47","610c736500a4b33398fef94f","bdp_lott","Mon Apr 10 2023 18:17:31 GMT-0400 (Eastern Daylight Time)","295816","red","green","","453","","","","choice","","img/green_ww/choose11.jpg","1","178","green","0.5","0.5","0.5","l","",""
"animation","99","94362","0.0-5.0-2.47","610c736500a4b33398fef94f","bdp_lott","Mon Apr 10 2023 18:17:31 GMT-0400 (Eastern Daylight Time)","295816","red","green","","","","","","","","","","178","","","","","","[{""stimulus"":""img/green_lw/1.jpg"",""time"":56},{""stimulus"":""img/green_lw/2.jpg"",""time"":112},{""stimulus"":""img/green_lw/3.jpg"",""time"":153},{""stimulus"":""img/green_lw/4.jpg"",""time"":201},{""stimulus"":""img/green_lw/5.jpg"",""time"":258},{""stimulus"":""img/green_lw/6.jpg"",""time"":314},{""stimulus"":""img/green_lw/7.jpg"",""time"":354},{""stimulus"":""img/green_lw/8.jpg"",""time"":402},{""stimulus"":""img/green_lw/9.jpg"",""time"":451},{""stimulus"":""img/green_lw/10.jpg"",""time"":508},{""stimulus"":""img/green_lw/11.jpg"",""time"":556}]","[]"
"image-keyboard-response","100","94831","0.0-5.0-1.48","610c736500a4b33398fef94f","bdp_lott","Mon Apr 10 2023 18:17:31 GMT-0400 (Eastern Daylight Time)","295816","red","green","","469","","","","choice","","img/green_lw/choose11.jpg","2","177","red","0.5","0.5","0.5","l","",""
"animation","101","95441","0.0-5.0-2.48","610c736500a4b33398fef94f","bdp_lott","Mon Apr 10 2023 18:17:31 GMT-0400 (Eastern Daylight Time)","295816","red","green","","","","","","","","","","177","","","","","","[{""stimulus"":""img/red_ll/1.jpg"",""time"":65},{""stimulus"":""img/red_ll/2.jpg"",""time"":105},{""stimulus"":""img/red_ll/3.jpg"",""time"":154},{""stimulus"":""img/red_ll/4.jpg"",""time"":202},{""stimulus"":""img/red_ll/5.jpg"",""time"":273},{""stimulus"":""img/red_ll/6.jpg"",""time"":306},{""stimulus"":""img/red_ll/7.jpg"",""time"":354},{""stimulus"":""img/red_ll/8.jpg"",""time"":403},{""stimulus"":""img/red_ll/9.jpg"",""time"":451},{""stimulus"":""img/red_ll/10.jpg"",""time"":522},{""stimulus"":""img/red_ll/11.jpg"",""time"":554}]","[]"
"image-keyboard-response","102","95915","0.0-5.0-1.49","610c736500a4b33398fef94f","bdp_lott","Mon Apr 10 2023 18:17:31 GMT-0400 (Eastern Daylight Time)","295816","red","green","","472","","","","choice","","img/red_ll/choose11.jpg","2","176","red","0.5","0.5","0.5","l","",""
"animation","103","96524","0.0-5.0-2.49","610c736500a4b33398fef94f","bdp_lott","Mon Apr 10 2023 18:17:31 GMT-0400 (Eastern Daylight Time)","295816","red","green","","","","","","","","","","176","","","","","","[{""stimulus"":""img/red_ll/1.jpg"",""time"":65},{""stimulus"":""img/red_ll/2.jpg"",""time"":105},{""stimulus"":""img/red_ll/3.jpg"",""time"":153},{""stimulus"":""img/red_ll/4.jpg"",""time"":201},{""stimulus"":""img/red_ll/5.jpg"",""time"":259},{""stimulus"":""img/red_ll/6.jpg"",""time"":305},{""stimulus"":""img/red_ll/7.jpg"",""time"":353},{""stimulus"":""img/red_ll/8.jpg"",""time"":402},{""stimulus"":""img/red_ll/9.jpg"",""time"":458},{""stimulus"":""img/red_ll/10.jpg"",""time"":505},{""stimulus"":""img/red_ll/11.jpg"",""time"":553}]","[]"
"image-keyboard-response","104","96824","0.0-5.0-1.50","610c736500a4b33398fef94f","bdp_lott","Mon Apr 10 2023 18:17:31 GMT-0400 (Eastern Daylight Time)","295816","red","green","","299","","","","choice","","img/red_ll/choose11.jpg","1","175","green","0.5","0.5","0.5","w","",""
"animation","105","97427","0.0-5.0-2.50","610c736500a4b33398fef94f","bdp_lott","Mon Apr 10 2023 18:17:31 GMT-0400 (Eastern Daylight Time)","295816","red","green","","","","","","","","","","175","","","","","","[{""stimulus"":""img/green_wl/1.jpg"",""time"":51},{""stimulus"":""img/green_wl/2.jpg"",""time"":104},{""stimulus"":""img/green_wl/3.jpg"",""time"":153},{""stimulus"":""img/green_wl/4.jpg"",""time"":203},{""stimulus"":""img/green_wl/5.jpg"",""time"":253},{""stimulus"":""img/green_wl/6.jpg"",""time"":303},{""stimulus"":""img/green_wl/7.jpg"",""time"":353},{""stimulus"":""img/green_wl/8.jpg"",""time"":403},{""stimulus"":""img/green_wl/9.jpg"",""time"":454},{""stimulus"":""img/green_wl/10.jpg"",""time"":503},{""stimulus"":""img/green_wl/11.jpg"",""time"":553}]","[]"
"image-keyboard-response","106","97759","0.0-5.0-1.51","610c736500a4b33398fef94f","bdp_lott","Mon Apr 10 2023 18:17:31 GMT-0400 (Eastern Daylight Time)","295816","red","green","","331","","","","choice","","img/green_wl/choose11.jpg","1","174","green","0.5","0.5","0.5","w","",""
"animation","107","98366","0.0-5.0-2.51","610c736500a4b33398fef94f","bdp_lott","Mon Apr 10 2023 18:17:31 GMT-0400 (Eastern Daylight Time)","295816","red","green","","","","","","","","","","174","","","","","","[{""stimulus"":""img/green_wl/1.jpg"",""time"":62},{""stimulus"":""img/green_wl/2.jpg"",""time"":102},{""stimulus"":""img/green_wl/3.jpg"",""time"":150},{""stimulus"":""img/green_wl/4.jpg"",""time"":207},{""stimulus"":""img/green_wl/5.jpg"",""time"":264},{""stimulus"":""img/green_wl/6.jpg"",""time"":302},{""stimulus"":""img/green_wl/7.jpg"",""time"":358},{""stimulus"":""img/green_wl/8.jpg"",""time"":406},{""stimulus"":""img/green_wl/9.jpg"",""time"":454},{""stimulus"":""img/green_wl/10.jpg"",""time"":502},{""stimulus"":""img/green_wl/11.jpg"",""time"":558}]","[]"
"image-keyboard-response","108","98718","0.0-5.0-1.52","610c736500a4b33398fef94f","bdp_lott","Mon Apr 10 2023 18:17:31 GMT-0400 (Eastern Daylight Time)","295816","red","green","","352","","","","choice","","img/green_wl/choose11.jpg","1","173","green","0.5","0.5","0.5","w","",""
"animation","109","99319","0.0-5.0-2.52","610c736500a4b33398fef94f","bdp_lott","Mon Apr 10 2023 18:17:31 GMT-0400 (Eastern Daylight Time)","295816","red","green","","","","","","","","","","173","","","","","","[{""stimulus"":""img/green_wl/1.jpg"",""time"":64},{""stimulus"":""img/green_wl/2.jpg"",""time"":101},{""stimulus"":""img/green_wl/3.jpg"",""time"":151},{""stimulus"":""img/green_wl/4.jpg"",""time"":201},{""stimulus"":""img/green_wl/5.jpg"",""time"":251},{""stimulus"":""img/green_wl/6.jpg"",""time"":301},{""stimulus"":""img/green_wl/7.jpg"",""time"":351},{""stimulus"":""img/green_wl/8.jpg"",""time"":401},{""stimulus"":""img/green_wl/9.jpg"",""time"":451},{""stimulus"":""img/green_wl/10.jpg"",""time"":501},{""stimulus"":""img/green_wl/11.jpg"",""time"":551}]","[]"
"image-keyboard-response","110","99656","0.0-5.0-1.53","610c736500a4b33398fef94f","bdp_lott","Mon Apr 10 2023 18:17:31 GMT-0400 (Eastern Daylight Time)","295816","red","green","","336","","","","choice","","img/green_wl/choose11.jpg","1","172","green","0.5","0.5","0.5","l","",""
"animation","111","100260","0.0-5.0-2.53","610c736500a4b33398fef94f","bdp_lott","Mon Apr 10 2023 18:17:31 GMT-0400 (Eastern Daylight Time)","295816","red","green","","","","","","","","","","172","","","","","","[{""stimulus"":""img/green_ll/1.jpg"",""time"":65},{""stimulus"":""img/green_ll/2.jpg"",""time"":104},{""stimulus"":""img/green_ll/3.jpg"",""time"":152},{""stimulus"":""img/green_ll/4.jpg"",""time"":201},{""stimulus"":""img/green_ll/5.jpg"",""time"":258},{""stimulus"":""img/green_ll/6.jpg"",""time"":305},{""stimulus"":""img/green_ll/7.jpg"",""time"":354},{""stimulus"":""img/green_ll/8.jpg"",""time"":402},{""stimulus"":""img/green_ll/9.jpg"",""time"":451},{""stimulus"":""img/green_ll/10.jpg"",""time"":508},{""stimulus"":""img/green_ll/11.jpg"",""time"":556}]","[]"
"image-keyboard-response","112","100908","0.0-5.0-1.54","610c736500a4b33398fef94f","bdp_lott","Mon Apr 10 2023 18:17:31 GMT-0400 (Eastern Daylight Time)","295816","red","green","","648","","","","choice","","img/green_ll/choose11.jpg","2","171","red","0.5","0.5","0.5","w","",""
"animation","113","101509","0.0-5.0-2.54","610c736500a4b33398fef94f","bdp_lott","Mon Apr 10 2023 18:17:31 GMT-0400 (Eastern Daylight Time)","295816","red","green","","","","","","","","","","171","","","","","","[{""stimulus"":""img/red_lw/1.jpg"",""time"":57},{""stimulus"":""img/red_lw/2.jpg"",""time"":113},{""stimulus"":""img/red_lw/3.jpg"",""time"":150},{""stimulus"":""img/red_lw/4.jpg"",""time"":207},{""stimulus"":""img/red_lw/5.jpg"",""time"":255},{""stimulus"":""img/red_lw/6.jpg"",""time"":304},{""stimulus"":""img/red_lw/7.jpg"",""time"":350},{""stimulus"":""img/red_lw/8.jpg"",""time"":407},{""stimulus"":""img/red_lw/9.jpg"",""time"":455},{""stimulus"":""img/red_lw/10.jpg"",""time"":504},{""stimulus"":""img/red_lw/11.jpg"",""time"":552}]","[]"
"image-keyboard-response","114","102434","0.0-5.0-1.55","610c736500a4b33398fef94f","bdp_lott","Mon Apr 10 2023 18:17:31 GMT-0400 (Eastern Daylight Time)","295816","red","green","","925","","","","choice","","img/red_lw/choose11.jpg","2","170","red","0.5","0.5","0.5","w","",""
"animation","115","103042","0.0-5.0-2.55","610c736500a4b33398fef94f","bdp_lott","Mon Apr 10 2023 18:17:31 GMT-0400 (Eastern Daylight Time)","295816","red","green","","","","","","","","","","170","","","","","","[{""stimulus"":""img/red_lw/1.jpg"",""time"":62},{""stimulus"":""img/red_lw/2.jpg"",""time"":103},{""stimulus"":""img/red_lw/3.jpg"",""time"":153},{""stimulus"":""img/red_lw/4.jpg"",""time"":206},{""stimulus"":""img/red_lw/5.jpg"",""time"":258},{""stimulus"":""img/red_lw/6.jpg"",""time"":308},{""stimulus"":""img/red_lw/7.jpg"",""time"":358},{""stimulus"":""img/red_lw/8.jpg"",""time"":408},{""stimulus"":""img/red_lw/9.jpg"",""time"":458},{""stimulus"":""img/red_lw/10.jpg"",""time"":501},{""stimulus"":""img/red_lw/11.jpg"",""time"":557}]","[]"
"image-keyboard-response","116","104342","0.0-5.0-1.56","610c736500a4b33398fef94f","bdp_lott","Mon Apr 10 2023 18:17:31 GMT-0400 (Eastern Daylight Time)","295816","red","green","","1300","","","","choice","","img/red_lw/choose11.jpg","2","169","red","0.5","0.5","0.5","w","",""
"animation","117","104948","0.0-5.0-2.56","610c736500a4b33398fef94f","bdp_lott","Mon Apr 10 2023 18:17:31 GMT-0400 (Eastern Daylight Time)","295816","red","green","","","","","","","","","","169","","","","","","[{""stimulus"":""img/red_lw/1.jpg"",""time"":65},{""stimulus"":""img/red_lw/2.jpg"",""time"":108},{""stimulus"":""img/red_lw/3.jpg"",""time"":156},{""stimulus"":""img/red_lw/4.jpg"",""time"":204},{""stimulus"":""img/red_lw/5.jpg"",""time"":252},{""stimulus"":""img/red_lw/6.jpg"",""time"":301},{""stimulus"":""img/red_lw/7.jpg"",""time"":357},{""stimulus"":""img/red_lw/8.jpg"",""time"":405},{""stimulus"":""img/red_lw/9.jpg"",""time"":453},{""stimulus"":""img/red_lw/10.jpg"",""time"":502},{""stimulus"":""img/red_lw/11.jpg"",""time"":558}]","[]"
"image-keyboard-response","118","105333","0.0-5.0-1.57","610c736500a4b33398fef94f","bdp_lott","Mon Apr 10 2023 18:17:31 GMT-0400 (Eastern Daylight Time)","295816","red","green","","384","","","","choice","","img/red_lw/choose11.jpg","2","168","red","0.5","0.5","0.5","l","",""
"animation","119","105934","0.0-5.0-2.57","610c736500a4b33398fef94f","bdp_lott","Mon Apr 10 2023 18:17:31 GMT-0400 (Eastern Daylight Time)","295816","red","green","","","","","","","","","","168","","","","","","[{""stimulus"":""img/red_ll/1.jpg"",""time"":63},{""stimulus"":""img/red_ll/2.jpg"",""time"":101},{""stimulus"":""img/red_ll/3.jpg"",""time"":151},{""stimulus"":""img/red_ll/4.jpg"",""time"":201},{""stimulus"":""img/red_ll/5.jpg"",""time"":251},{""stimulus"":""img/red_ll/6.jpg"",""time"":301},{""stimulus"":""img/red_ll/7.jpg"",""time"":351},{""stimulus"":""img/red_ll/8.jpg"",""time"":402},{""stimulus"":""img/red_ll/9.jpg"",""time"":451},{""stimulus"":""img/red_ll/10.jpg"",""time"":501},{""stimulus"":""img/red_ll/11.jpg"",""time"":551}]","[]"
"image-keyboard-response","120","107022","0.0-5.0-1.58","610c736500a4b33398fef94f","bdp_lott","Mon Apr 10 2023 18:17:31 GMT-0400 (Eastern Daylight Time)","295816","red","green","","1087","","","","choice","","img/red_ll/choose11.jpg","2","167","red","0.5","0.5","0.5","w","",""
"animation","121","107622","0.0-5.0-2.58","610c736500a4b33398fef94f","bdp_lott","Mon Apr 10 2023 18:17:31 GMT-0400 (Eastern Daylight Time)","295816","red","green","","","","","","","","","","167","","","","","","[{""stimulus"":""img/red_lw/1.jpg"",""time"":64},{""stimulus"":""img/red_lw/2.jpg"",""time"":103},{""stimulus"":""img/red_lw/3.jpg"",""time"":151},{""stimulus"":""img/red_lw/4.jpg"",""time"":207},{""stimulus"":""img/red_lw/5.jpg"",""time"":256},{""stimulus"":""img/red_lw/6.jpg"",""time"":304},{""stimulus"":""img/red_lw/7.jpg"",""time"":352},{""stimulus"":""img/red_lw/8.jpg"",""time"":401},{""stimulus"":""img/red_lw/9.jpg"",""time"":458},{""stimulus"":""img/red_lw/10.jpg"",""time"":515},{""stimulus"":""img/red_lw/11.jpg"",""time"":552}]","[]"
"image-keyboard-response","122","108032","0.0-5.0-1.59","610c736500a4b33398fef94f","bdp_lott","Mon Apr 10 2023 18:17:31 GMT-0400 (Eastern Daylight Time)","295816","red","green","","409","","","","choice","","img/red_lw/choose11.jpg","2","166","red","0.5","0.5","0.5","w","",""
"animation","123","108633","0.0-5.0-2.59","610c736500a4b33398fef94f","bdp_lott","Mon Apr 10 2023 18:17:31 GMT-0400 (Eastern Daylight Time)","295816","red","green","","","","","","","","","","166","","","","","","[{""stimulus"":""img/red_lw/1.jpg"",""time"":60},{""stimulus"":""img/red_lw/2.jpg"",""time"":101},{""stimulus"":""img/red_lw/3.jpg"",""time"":172},{""stimulus"":""img/red_lw/4.jpg"",""time"":200},{""stimulus"":""img/red_lw/5.jpg"",""time"":250},{""stimulus"":""img/red_lw/6.jpg"",""time"":300},{""stimulus"":""img/red_lw/7.jpg"",""time"":350},{""stimulus"":""img/red_lw/8.jpg"",""time"":400},{""stimulus"":""img/red_lw/9.jpg"",""time"":450},{""stimulus"":""img/red_lw/10.jpg"",""time"":500},{""stimulus"":""img/red_lw/11.jpg"",""time"":550}]","[]"
"image-keyboard-response","124","109043","0.0-5.0-1.60","610c736500a4b33398fef94f","bdp_lott","Mon Apr 10 2023 18:17:31 GMT-0400 (Eastern Daylight Time)","295816","red","green","","409","","","","choice","","img/red_lw/choose11.jpg","2","165","red","0.5","0.5","0.5","w","",""
"animation","125","109648","0.0-5.0-2.60","610c736500a4b33398fef94f","bdp_lott","Mon Apr 10 2023 18:17:31 GMT-0400 (Eastern Daylight Time)","295816","red","green","","","","","","","","","","165","","","","","","[{""stimulus"":""img/red_lw/1.jpg"",""time"":55},{""stimulus"":""img/red_lw/2.jpg"",""time"":103},{""stimulus"":""img/red_lw/3.jpg"",""time"":152},{""stimulus"":""img/red_lw/4.jpg"",""time"":207},{""stimulus"":""img/red_lw/5.jpg"",""time"":256},{""stimulus"":""img/red_lw/6.jpg"",""time"":304},{""stimulus"":""img/red_lw/7.jpg"",""time"":353},{""stimulus"":""img/red_lw/8.jpg"",""time"":424},{""stimulus"":""img/red_lw/9.jpg"",""time"":456},{""stimulus"":""img/red_lw/10.jpg"",""time"":505},{""stimulus"":""img/red_lw/11.jpg"",""time"":562}]","[]"
"image-keyboard-response","126","110027","0.0-5.0-1.61","610c736500a4b33398fef94f","bdp_lott","Mon Apr 10 2023 18:17:31 GMT-0400 (Eastern Daylight Time)","295816","red","green","","378","","","","choice","","img/red_lw/choose11.jpg","2","164","red","0.5","0.5","0.5","l","",""
"animation","127","110628","0.0-5.0-2.61","610c736500a4b33398fef94f","bdp_lott","Mon Apr 10 2023 18:17:31 GMT-0400 (Eastern Daylight Time)","295816","red","green","","","","","","","","","","164","","","","","","[{""stimulus"":""img/red_ll/1.jpg"",""time"":55},{""stimulus"":""img/red_ll/2.jpg"",""time"":104},{""stimulus"":""img/red_ll/3.jpg"",""time"":152},{""stimulus"":""img/red_ll/4.jpg"",""time"":201},{""stimulus"":""img/red_ll/5.jpg"",""time"":274},{""stimulus"":""img/red_ll/6.jpg"",""time"":306},{""stimulus"":""img/red_ll/7.jpg"",""time"":355},{""stimulus"":""img/red_ll/8.jpg"",""time"":403},{""stimulus"":""img/red_ll/9.jpg"",""time"":451},{""stimulus"":""img/red_ll/10.jpg"",""time"":505},{""stimulus"":""img/red_ll/11.jpg"",""time"":553}]","[]"
"image-keyboard-response","128","111186","0.0-5.0-1.62","610c736500a4b33398fef94f","bdp_lott","Mon Apr 10 2023 18:17:31 GMT-0400 (Eastern Daylight Time)","295816","red","green","","557","","","","choice","","img/red_ll/choose11.jpg","2","163","red","0.5","0.5","0.5","l","",""
"animation","129","111789","0.0-5.0-2.62","610c736500a4b33398fef94f","bdp_lott","Mon Apr 10 2023 18:17:31 GMT-0400 (Eastern Daylight Time)","295816","red","green","","","","","","","","","","163","","","","","","[{""stimulus"":""img/red_ll/1.jpg"",""time"":51},{""stimulus"":""img/red_ll/2.jpg"",""time"":103},{""stimulus"":""img/red_ll/3.jpg"",""time"":169},{""stimulus"":""img/red_ll/4.jpg"",""time"":201},{""stimulus"":""img/red_ll/5.jpg"",""time"":257},{""stimulus"":""img/red_ll/6.jpg"",""time"":305},{""stimulus"":""img/red_ll/7.jpg"",""time"":354},{""stimulus"":""img/red_ll/8.jpg"",""time"":402},{""stimulus"":""img/red_ll/9.jpg"",""time"":451},{""stimulus"":""img/red_ll/10.jpg"",""time"":507},{""stimulus"":""img/red_ll/11.jpg"",""time"":555}]","[]"
"image-keyboard-response","130","112242","0.0-5.0-1.63","610c736500a4b33398fef94f","bdp_lott","Mon Apr 10 2023 18:17:31 GMT-0400 (Eastern Daylight Time)","295816","red","green","","453","","","","choice","","img/red_ll/choose11.jpg","2","162","red","0.5","0.5","0.5","l","",""
"animation","131","112848","0.0-5.0-2.63","610c736500a4b33398fef94f","bdp_lott","Mon Apr 10 2023 18:17:31 GMT-0400 (Eastern Daylight Time)","295816","red","green","","","","","","","","","","162","","","","","","[{""stimulus"":""img/red_ll/1.jpg"",""time"":64},{""stimulus"":""img/red_ll/2.jpg"",""time"":105},{""stimulus"":""img/red_ll/3.jpg"",""time"":153},{""stimulus"":""img/red_ll/4.jpg"",""time"":201},{""stimulus"":""img/red_ll/5.jpg"",""time"":273},{""stimulus"":""img/red_ll/6.jpg"",""time"":305},{""stimulus"":""img/red_ll/7.jpg"",""time"":354},{""stimulus"":""img/red_ll/8.jpg"",""time"":403},{""stimulus"":""img/red_ll/9.jpg"",""time"":452},{""stimulus"":""img/red_ll/10.jpg"",""time"":501},{""stimulus"":""img/red_ll/11.jpg"",""time"":573}]","[]"
"image-keyboard-response","132","113235","0.0-5.0-1.64","610c736500a4b33398fef94f","bdp_lott","Mon Apr 10 2023 18:17:31 GMT-0400 (Eastern Daylight Time)","295816","red","green","","386","","","","choice","","img/red_ll/choose11.jpg","1","161","green","0.5","0.5","0.5","l","",""
"animation","133","113837","0.0-5.0-2.64","610c736500a4b33398fef94f","bdp_lott","Mon Apr 10 2023 18:17:31 GMT-0400 (Eastern Daylight Time)","295816","red","green","","","","","","","","","","161","","","","","","[{""stimulus"":""img/green_ll/1.jpg"",""time"":62},{""stimulus"":""img/green_ll/2.jpg"",""time"":102},{""stimulus"":""img/green_ll/3.jpg"",""time"":158},{""stimulus"":""img/green_ll/4.jpg"",""time"":207},{""stimulus"":""img/green_ll/5.jpg"",""time"":254},{""stimulus"":""img/green_ll/6.jpg"",""time"":303},{""stimulus"":""img/green_ll/7.jpg"",""time"":352},{""stimulus"":""img/green_ll/8.jpg"",""time"":409},{""stimulus"":""img/green_ll/9.jpg"",""time"":457},{""stimulus"":""img/green_ll/10.jpg"",""time"":505},{""stimulus"":""img/green_ll/11.jpg"",""time"":554}]","[]"
"image-keyboard-response","134","114197","0.0-5.0-1.65","610c736500a4b33398fef94f","bdp_lott","Mon Apr 10 2023 18:17:31 GMT-0400 (Eastern Daylight Time)","295816","red","green","","358","","","","choice","","img/green_ll/choose11.jpg","1","160","green","0.5","0.5","0.5","l","",""
"animation","135","114797","0.0-5.0-2.65","610c736500a4b33398fef94f","bdp_lott","Mon Apr 10 2023 18:17:31 GMT-0400 (Eastern Daylight Time)","295816","red","green","","","","","","","","","","160","","","","","","[{""stimulus"":""img/green_ll/1.jpg"",""time"":62},{""stimulus"":""img/green_ll/2.jpg"",""time"":102},{""stimulus"":""img/green_ll/3.jpg"",""time"":151},{""stimulus"":""img/green_ll/4.jpg"",""time"":221},{""stimulus"":""img/green_ll/5.jpg"",""time"":251},{""stimulus"":""img/green_ll/6.jpg"",""time"":301},{""stimulus"":""img/green_ll/7.jpg"",""time"":351},{""stimulus"":""img/green_ll/8.jpg"",""time"":401},{""stimulus"":""img/green_ll/9.jpg"",""time"":451},{""stimulus"":""img/green_ll/10.jpg"",""time"":501},{""stimulus"":""img/green_ll/11.jpg"",""time"":551}]","[]"
"image-keyboard-response","136","115203","0.0-5.0-1.66","610c736500a4b33398fef94f","bdp_lott","Mon Apr 10 2023 18:17:31 GMT-0400 (Eastern Daylight Time)","295816","red","green","","405","","","","choice","","img/green_ll/choose11.jpg","1","159","green","0.5","0.5","0.5","l","",""
"animation","137","115807","0.0-5.0-2.66","610c736500a4b33398fef94f","bdp_lott","Mon Apr 10 2023 18:17:31 GMT-0400 (Eastern Daylight Time)","295816","red","green","","","","","","","","","","159","","","","","","[{""stimulus"":""img/green_ll/1.jpg"",""time"":58},{""stimulus"":""img/green_ll/2.jpg"",""time"":115},{""stimulus"":""img/green_ll/3.jpg"",""time"":160},{""stimulus"":""img/green_ll/4.jpg"",""time"":201},{""stimulus"":""img/green_ll/5.jpg"",""time"":258},{""stimulus"":""img/green_ll/6.jpg"",""time"":314},{""stimulus"":""img/green_ll/7.jpg"",""time"":352},{""stimulus"":""img/green_ll/8.jpg"",""time"":401},{""stimulus"":""img/green_ll/9.jpg"",""time"":459},{""stimulus"":""img/green_ll/10.jpg"",""time"":507},{""stimulus"":""img/green_ll/11.jpg"",""time"":556}]","[]"
"image-keyboard-response","138","116352","0.0-5.0-1.67","610c736500a4b33398fef94f","bdp_lott","Mon Apr 10 2023 18:17:31 GMT-0400 (Eastern Daylight Time)","295816","red","green","","543","","","","choice","","img/green_ll/choose11.jpg","1","158","green","0.5","0.5","0.5","w","",""
"animation","139","116954","0.0-5.0-2.67","610c736500a4b33398fef94f","bdp_lott","Mon Apr 10 2023 18:17:31 GMT-0400 (Eastern Daylight Time)","295816","red","green","","","","","","","","","","158","","","","","","[{""stimulus"":""img/green_wl/1.jpg"",""time"":50},{""stimulus"":""img/green_wl/2.jpg"",""time"":102},{""stimulus"":""img/green_wl/3.jpg"",""time"":152},{""stimulus"":""img/green_wl/4.jpg"",""time"":202},{""stimulus"":""img/green_wl/5.jpg"",""time"":252},{""stimulus"":""img/green_wl/6.jpg"",""time"":303},{""stimulus"":""img/green_wl/7.jpg"",""time"":352},{""stimulus"":""img/green_wl/8.jpg"",""time"":402},{""stimulus"":""img/green_wl/9.jpg"",""time"":452},{""stimulus"":""img/green_wl/10.jpg"",""time"":502},{""stimulus"":""img/green_wl/11.jpg"",""time"":552}]","[]"
"image-keyboard-response","140","117473","0.0-5.0-1.68","610c736500a4b33398fef94f","bdp_lott","Mon Apr 10 2023 18:17:31 GMT-0400 (Eastern Daylight Time)","295816","red","green","","518","","","","choice","","img/green_wl/choose11.jpg","1","157","green","0.5","0.5","0.5","l","",""
"animation","141","118077","0.0-5.0-2.68","610c736500a4b33398fef94f","bdp_lott","Mon Apr 10 2023 18:17:31 GMT-0400 (Eastern Daylight Time)","295816","red","green","","","","","","","","","","157","","","","","","[{""stimulus"":""img/green_ll/1.jpg"",""time"":62},{""stimulus"":""img/green_ll/2.jpg"",""time"":105},{""stimulus"":""img/green_ll/3.jpg"",""time"":153},{""stimulus"":""img/green_ll/4.jpg"",""time"":201},{""stimulus"":""img/green_ll/5.jpg"",""time"":273},{""stimulus"":""img/green_ll/6.jpg"",""time"":306},{""stimulus"":""img/green_ll/7.jpg"",""time"":353},{""stimulus"":""img/green_ll/8.jpg"",""time"":402},{""stimulus"":""img/green_ll/9.jpg"",""time"":474},{""stimulus"":""img/green_ll/10.jpg"",""time"":506},{""stimulus"":""img/green_ll/11.jpg"",""time"":555}]","[]"
"image-keyboard-response","142","118624","0.0-5.0-1.69","610c736500a4b33398fef94f","bdp_lott","Mon Apr 10 2023 18:17:31 GMT-0400 (Eastern Daylight Time)","295816","red","green","","545","","","","choice","","img/green_ll/choose11.jpg","1","156","green","0.5","0.5","0.5","l","",""
"animation","143","119225","0.0-5.0-2.69","610c736500a4b33398fef94f","bdp_lott","Mon Apr 10 2023 18:17:31 GMT-0400 (Eastern Daylight Time)","295816","red","green","","","","","","","","","","156","","","","","","[{""stimulus"":""img/green_ll/1.jpg"",""time"":57},{""stimulus"":""img/green_ll/2.jpg"",""time"":105},{""stimulus"":""img/green_ll/3.jpg"",""time"":153},{""stimulus"":""img/green_ll/4.jpg"",""time"":202},{""stimulus"":""img/green_ll/5.jpg"",""time"":258},{""stimulus"":""img/green_ll/6.jpg"",""time"":305},{""stimulus"":""img/green_ll/7.jpg"",""time"":353},{""stimulus"":""img/green_ll/8.jpg"",""time"":402},{""stimulus"":""img/green_ll/9.jpg"",""time"":473},{""stimulus"":""img/green_ll/10.jpg"",""time"":505},{""stimulus"":""img/green_ll/11.jpg"",""time"":553}]","[]"
"image-keyboard-response","144","119607","0.0-5.0-1.70","610c736500a4b33398fef94f","bdp_lott","Mon Apr 10 2023 18:17:31 GMT-0400 (Eastern Daylight Time)","295816","red","green","","381","","","","choice","","img/green_ll/choose11.jpg","2","155","red","0.5","0.5","0.5","w","",""
"animation","145","120211","0.0-5.0-2.70","610c736500a4b33398fef94f","bdp_lott","Mon Apr 10 2023 18:17:31 GMT-0400 (Eastern Daylight Time)","295816","red","green","","","","","","","","","","155","","","","","","[{""stimulus"":""img/red_lw/1.jpg"",""time"":51},{""stimulus"":""img/red_lw/2.jpg"",""time"":114},{""stimulus"":""img/red_lw/3.jpg"",""time"":155},{""stimulus"":""img/red_lw/4.jpg"",""time"":204},{""stimulus"":""img/red_lw/5.jpg"",""time"":252},{""stimulus"":""img/red_lw/6.jpg"",""time"":301},{""stimulus"":""img/red_lw/7.jpg"",""time"":372},{""stimulus"":""img/red_lw/8.jpg"",""time"":405},{""stimulus"":""img/red_lw/9.jpg"",""time"":453},{""stimulus"":""img/red_lw/10.jpg"",""time"":502},{""stimulus"":""img/red_lw/11.jpg"",""time"":558}]","[]"
"image-keyboard-response","146","120820","0.0-5.0-1.71","610c736500a4b33398fef94f","bdp_lott","Mon Apr 10 2023 18:17:31 GMT-0400 (Eastern Daylight Time)","295816","red","green","","608","","","","choice","","img/red_lw/choose11.jpg","2","154","red","0.5","0.5","0.5","l","",""
"animation","147","121424","0.0-5.0-2.71","610c736500a4b33398fef94f","bdp_lott","Mon Apr 10 2023 18:17:31 GMT-0400 (Eastern Daylight Time)","295816","red","green","","","","","","","","","","154","","","","","","[{""stimulus"":""img/red_ll/1.jpg"",""time"":56},{""stimulus"":""img/red_ll/2.jpg"",""time"":104},{""stimulus"":""img/red_ll/3.jpg"",""time"":153},{""stimulus"":""img/red_ll/4.jpg"",""time"":201},{""stimulus"":""img/red_ll/5.jpg"",""time"":257},{""stimulus"":""img/red_ll/6.jpg"",""time"":305},{""stimulus"":""img/red_ll/7.jpg"",""time"":354},{""stimulus"":""img/red_ll/8.jpg"",""time"":402},{""stimulus"":""img/red_ll/9.jpg"",""time"":451},{""stimulus"":""img/red_ll/10.jpg"",""time"":507},{""stimulus"":""img/red_ll/11.jpg"",""time"":555}]","[]"
"image-keyboard-response","148","121801","0.0-5.0-1.72","610c736500a4b33398fef94f","bdp_lott","Mon Apr 10 2023 18:17:31 GMT-0400 (Eastern Daylight Time)","295816","red","green","","376","","","","choice","","img/red_ll/choose11.jpg","2","153","red","0.5","0.5","0.5","l","",""
"animation","149","122407","0.0-5.0-2.72","610c736500a4b33398fef94f","bdp_lott","Mon Apr 10 2023 18:17:31 GMT-0400 (Eastern Daylight Time)","295816","red","green","","","","","","","","","","153","","","","","","[{""stimulus"":""img/red_ll/1.jpg"",""time"":54},{""stimulus"":""img/red_ll/2.jpg"",""time"":111},{""stimulus"":""img/red_ll/3.jpg"",""time"":159},{""stimulus"":""img/red_ll/4.jpg"",""time"":207},{""stimulus"":""img/red_ll/5.jpg"",""time"":256},{""stimulus"":""img/red_ll/6.jpg"",""time"":304},{""stimulus"":""img/red_ll/7.jpg"",""time"":352},{""stimulus"":""img/red_ll/8.jpg"",""time"":408},{""stimulus"":""img/red_ll/9.jpg"",""time"":464},{""stimulus"":""img/red_ll/10.jpg"",""time"":502},{""stimulus"":""img/red_ll/11.jpg"",""time"":558}]","[]"
"image-keyboard-response","150","122692","0.0-5.0-1.73","610c736500a4b33398fef94f","bdp_lott","Mon Apr 10 2023 18:17:31 GMT-0400 (Eastern Daylight Time)","295816","red","green","","284","","","","choice","","img/red_ll/choose11.jpg","1","152","green","0.5","0.5","0.5","w","",""
"animation","151","123294","0.0-5.0-2.73","610c736500a4b33398fef94f","bdp_lott","Mon Apr 10 2023 18:17:31 GMT-0400 (Eastern Daylight Time)","295816","red","green","","","","","","","","","","152","","","","","","[{""stimulus"":""img/green_wl/1.jpg"",""time"":53},{""stimulus"":""img/green_wl/2.jpg"",""time"":103},{""stimulus"":""img/green_wl/3.jpg"",""time"":151},{""stimulus"":""img/green_wl/4.jpg"",""time"":223},{""stimulus"":""img/green_wl/5.jpg"",""time"":253},{""stimulus"":""img/green_wl/6.jpg"",""time"":303},{""stimulus"":""img/green_wl/7.jpg"",""time"":352},{""stimulus"":""img/green_wl/8.jpg"",""time"":424},{""stimulus"":""img/green_wl/9.jpg"",""time"":453},{""stimulus"":""img/green_wl/10.jpg"",""time"":503},{""stimulus"":""img/green_wl/11.jpg"",""time"":553}]","[]"
"image-keyboard-response","152","123688","0.0-5.0-1.74","610c736500a4b33398fef94f","bdp_lott","Mon Apr 10 2023 18:17:31 GMT-0400 (Eastern Daylight Time)","295816","red","green","","394","","","","choice","","img/green_wl/choose11.jpg","1","151","green","0.5","0.5","0.5","w","",""
"animation","153","124289","0.0-5.0-2.74","610c736500a4b33398fef94f","bdp_lott","Mon Apr 10 2023 18:17:31 GMT-0400 (Eastern Daylight Time)","295816","red","green","","","","","","","","","","151","","","","","","[{""stimulus"":""img/green_wl/1.jpg"",""time"":53},{""stimulus"":""img/green_wl/2.jpg"",""time"":102},{""stimulus"":""img/green_wl/3.jpg"",""time"":158},{""stimulus"":""img/green_wl/4.jpg"",""time"":206},{""stimulus"":""img/green_wl/5.jpg"",""time"":255},{""stimulus"":""img/green_wl/6.jpg"",""time"":303},{""stimulus"":""img/green_wl/7.jpg"",""time"":352},{""stimulus"":""img/green_wl/8.jpg"",""time"":424},{""stimulus"":""img/green_wl/9.jpg"",""time"":456},{""stimulus"":""img/green_wl/10.jpg"",""time"":504},{""stimulus"":""img/green_wl/11.jpg"",""time"":553}]","[]"
"image-keyboard-response","154","124607","0.0-5.0-1.75","610c736500a4b33398fef94f","bdp_lott","Mon Apr 10 2023 18:17:31 GMT-0400 (Eastern Daylight Time)","295816","red","green","","317","","","","choice","","img/green_wl/choose11.jpg","1","150","green","0.5","0.5","0.5","w","",""
"animation","155","125208","0.0-5.0-2.75","610c736500a4b33398fef94f","bdp_lott","Mon Apr 10 2023 18:17:31 GMT-0400 (Eastern Daylight Time)","295816","red","green","","","","","","","","","","150","","","","","","[{""stimulus"":""img/green_wl/1.jpg"",""time"":52},{""stimulus"":""img/green_wl/2.jpg"",""time"":104},{""stimulus"":""img/green_wl/3.jpg"",""time"":154},{""stimulus"":""img/green_wl/4.jpg"",""time"":204},{""stimulus"":""img/green_wl/5.jpg"",""time"":252},{""stimulus"":""img/green_wl/6.jpg"",""time"":309},{""stimulus"":""img/green_wl/7.jpg"",""time"":353},{""stimulus"":""img/green_wl/8.jpg"",""time"":401},{""stimulus"":""img/green_wl/9.jpg"",""time"":473},{""stimulus"":""img/green_wl/10.jpg"",""time"":504},{""stimulus"":""img/green_wl/11.jpg"",""time"":553}]","[]"
"image-keyboard-response","156","125716","0.0-5.0-1.76","610c736500a4b33398fef94f","bdp_lott","Mon Apr 10 2023 18:17:31 GMT-0400 (Eastern Daylight Time)","295816","red","green","","506","","","","choice","","img/green_wl/choose11.jpg","1","149","green","0.5","0.1","0.1","l","",""
"animation","157","126320","0.0-5.0-2.76","610c736500a4b33398fef94f","bdp_lott","Mon Apr 10 2023 18:17:31 GMT-0400 (Eastern Daylight Time)","295816","red","green","","","","","","","","","","149","","","","","","[{""stimulus"":""img/green_ll/1.jpg"",""time"":59},{""stimulus"":""img/green_ll/2.jpg"",""time"":116},{""stimulus"":""img/green_ll/3.jpg"",""time"":152},{""stimulus"":""img/green_ll/4.jpg"",""time"":201},{""stimulus"":""img/green_ll/5.jpg"",""time"":257},{""stimulus"":""img/green_ll/6.jpg"",""time"":306},{""stimulus"":""img/green_ll/7.jpg"",""time"":354},{""stimulus"":""img/green_ll/8.jpg"",""time"":402},{""stimulus"":""img/green_ll/9.jpg"",""time"":450},{""stimulus"":""img/green_ll/10.jpg"",""time"":507},{""stimulus"":""img/green_ll/11.jpg"",""time"":556}]","[]"
"image-keyboard-response","158","127375","0.0-5.0-1.77","610c736500a4b33398fef94f","bdp_lott","Mon Apr 10 2023 18:17:31 GMT-0400 (Eastern Daylight Time)","295816","red","green","","1055","","","","choice","","img/green_ll/choose11.jpg","1","148","green","0.5","0.1","0.1","l","",""
"animation","159","127976","0.0-5.0-2.77","610c736500a4b33398fef94f","bdp_lott","Mon Apr 10 2023 18:17:31 GMT-0400 (Eastern Daylight Time)","295816","red","green","","","","","","","","","","148","","","","","","[{""stimulus"":""img/green_ll/1.jpg"",""time"":57},{""stimulus"":""img/green_ll/2.jpg"",""time"":101},{""stimulus"":""img/green_ll/3.jpg"",""time"":158},{""stimulus"":""img/green_ll/4.jpg"",""time"":201},{""stimulus"":""img/green_ll/5.jpg"",""time"":258},{""stimulus"":""img/green_ll/6.jpg"",""time"":301},{""stimulus"":""img/green_ll/7.jpg"",""time"":373},{""stimulus"":""img/green_ll/8.jpg"",""time"":402},{""stimulus"":""img/green_ll/9.jpg"",""time"":452},{""stimulus"":""img/green_ll/10.jpg"",""time"":502},{""stimulus"":""img/green_ll/11.jpg"",""time"":552}]","[]"
"image-keyboard-response","160","128421","0.0-5.0-1.78","610c736500a4b33398fef94f","bdp_lott","Mon Apr 10 2023 18:17:31 GMT-0400 (Eastern Daylight Time)","295816","red","green","","444","","","","choice","","img/green_ll/choose11.jpg","1","147","green","0.5","0.1","0.1","l","",""
"animation","161","129024","0.0-5.0-2.78","610c736500a4b33398fef94f","bdp_lott","Mon Apr 10 2023 18:17:31 GMT-0400 (Eastern Daylight Time)","295816","red","green","","","","","","","","","","147","","","","","","[{""stimulus"":""img/green_ll/1.jpg"",""time"":64},{""stimulus"":""img/green_ll/2.jpg"",""time"":104},{""stimulus"":""img/green_ll/3.jpg"",""time"":153},{""stimulus"":""img/green_ll/4.jpg"",""time"":201},{""stimulus"":""img/green_ll/5.jpg"",""time"":274},{""stimulus"":""img/green_ll/6.jpg"",""time"":305},{""stimulus"":""img/green_ll/7.jpg"",""time"":355},{""stimulus"":""img/green_ll/8.jpg"",""time"":403},{""stimulus"":""img/green_ll/9.jpg"",""time"":451},{""stimulus"":""img/green_ll/10.jpg"",""time"":522},{""stimulus"":""img/green_ll/11.jpg"",""time"":555}]","[]"
"image-keyboard-response","162","129658","0.0-5.0-1.79","610c736500a4b33398fef94f","bdp_lott","Mon Apr 10 2023 18:17:31 GMT-0400 (Eastern Daylight Time)","295816","red","green","","633","","","","choice","","img/green_ll/choose11.jpg","1","146","green","0.5","0.1","0.1","l","",""
"animation","163","130259","0.0-5.0-2.79","610c736500a4b33398fef94f","bdp_lott","Mon Apr 10 2023 18:17:31 GMT-0400 (Eastern Daylight Time)","295816","red","green","","","","","","","","","","146","","","","","","[{""stimulus"":""img/green_ll/1.jpg"",""time"":65},{""stimulus"":""img/green_ll/2.jpg"",""time"":102},{""stimulus"":""img/green_ll/3.jpg"",""time"":151},{""stimulus"":""img/green_ll/4.jpg"",""time"":201},{""stimulus"":""img/green_ll/5.jpg"",""time"":252},{""stimulus"":""img/green_ll/6.jpg"",""time"":301},{""stimulus"":""img/green_ll/7.jpg"",""time"":351},{""stimulus"":""img/green_ll/8.jpg"",""time"":401},{""stimulus"":""img/green_ll/9.jpg"",""time"":451},{""stimulus"":""img/green_ll/10.jpg"",""time"":501},{""stimulus"":""img/green_ll/11.jpg"",""time"":551}]","[]"
"image-keyboard-response","164","130634","0.0-5.0-1.80","610c736500a4b33398fef94f","bdp_lott","Mon Apr 10 2023 18:17:31 GMT-0400 (Eastern Daylight Time)","295816","red","green","","374","","","","choice","","img/green_ll/choose11.jpg","2","145","red","0.5","0.1","0.5","l","",""
"animation","165","131237","0.0-5.0-2.80","610c736500a4b33398fef94f","bdp_lott","Mon Apr 10 2023 18:17:31 GMT-0400 (Eastern Daylight Time)","295816","red","green","","","","","","","","","","145","","","","","","[{""stimulus"":""img/red_ll/1.jpg"",""time"":57},{""stimulus"":""img/red_ll/2.jpg"",""time"":116},{""stimulus"":""img/red_ll/3.jpg"",""time"":157},{""stimulus"":""img/red_ll/4.jpg"",""time"":208},{""stimulus"":""img/red_ll/5.jpg"",""time"":257},{""stimulus"":""img/red_ll/6.jpg"",""time"":305},{""stimulus"":""img/red_ll/7.jpg"",""time"":354},{""stimulus"":""img/red_ll/8.jpg"",""time"":402},{""stimulus"":""img/red_ll/9.jpg"",""time"":466},{""stimulus"":""img/red_ll/10.jpg"",""time"":507},{""stimulus"":""img/red_ll/11.jpg"",""time"":555}]","[]"
"image-keyboard-response","166","131550","0.0-5.0-1.81","610c736500a4b33398fef94f","bdp_lott","Mon Apr 10 2023 18:17:31 GMT-0400 (Eastern Daylight Time)","295816","red","green","","312","","","","choice","","img/red_ll/choose11.jpg","2","144","red","0.5","0.1","0.5","l","",""
"animation","167","132155","0.0-5.0-2.81","610c736500a4b33398fef94f","bdp_lott","Mon Apr 10 2023 18:17:31 GMT-0400 (Eastern Daylight Time)","295816","red","green","","","","","","","","","","144","","","","","","[{""stimulus"":""img/red_ll/1.jpg"",""time"":60},{""stimulus"":""img/red_ll/2.jpg"",""time"":108},{""stimulus"":""img/red_ll/3.jpg"",""time"":158},{""stimulus"":""img/red_ll/4.jpg"",""time"":225},{""stimulus"":""img/red_ll/5.jpg"",""time"":252},{""stimulus"":""img/red_ll/6.jpg"",""time"":307},{""stimulus"":""img/red_ll/7.jpg"",""time"":363},{""stimulus"":""img/red_ll/8.jpg"",""time"":404},{""stimulus"":""img/red_ll/9.jpg"",""time"":460},{""stimulus"":""img/red_ll/10.jpg"",""time"":508},{""stimulus"":""img/red_ll/11.jpg"",""time"":557}]","[]"
"image-keyboard-response","168","132442","0.0-5.0-1.82","610c736500a4b33398fef94f","bdp_lott","Mon Apr 10 2023 18:17:31 GMT-0400 (Eastern Daylight Time)","295816","red","green","","286","","","","choice","","img/red_ll/choose11.jpg","1","143","green","0.5","0.1","0.1","l","",""
"animation","169","133048","0.0-5.0-2.82","610c736500a4b33398fef94f","bdp_lott","Mon Apr 10 2023 18:17:31 GMT-0400 (Eastern Daylight Time)","295816","red","green","","","","","","","","","","143","","","","","","[{""stimulus"":""img/green_ll/1.jpg"",""time"":52},{""stimulus"":""img/green_ll/2.jpg"",""time"":107},{""stimulus"":""img/green_ll/3.jpg"",""time"":168},{""stimulus"":""img/green_ll/4.jpg"",""time"":208},{""stimulus"":""img/green_ll/5.jpg"",""time"":251},{""stimulus"":""img/green_ll/6.jpg"",""time"":307},{""stimulus"":""img/green_ll/7.jpg"",""time"":357},{""stimulus"":""img/green_ll/8.jpg"",""time"":406},{""stimulus"":""img/green_ll/9.jpg"",""time"":462},{""stimulus"":""img/green_ll/10.jpg"",""time"":502},{""stimulus"":""img/green_ll/11.jpg"",""time"":559}]","[]"
"image-keyboard-response","170","133421","0.0-5.0-1.83","610c736500a4b33398fef94f","bdp_lott","Mon Apr 10 2023 18:17:31 GMT-0400 (Eastern Daylight Time)","295816","red","green","","372","","","","choice","","img/green_ll/choose11.jpg","1","142","green","0.5","0.1","0.1","l","",""
"animation","171","134024","0.0-5.0-2.83","610c736500a4b33398fef94f","bdp_lott","Mon Apr 10 2023 18:17:31 GMT-0400 (Eastern Daylight Time)","295816","red","green","","","","","","","","","","142","","","","","","[{""stimulus"":""img/green_ll/1.jpg"",""time"":52},{""stimulus"":""img/green_ll/2.jpg"",""time"":112},{""stimulus"":""img/green_ll/3.jpg"",""time"":153},{""stimulus"":""img/green_ll/4.jpg"",""time"":224},{""stimulus"":""img/green_ll/5.jpg"",""time"":253},{""stimulus"":""img/green_ll/6.jpg"",""time"":303},{""stimulus"":""img/green_ll/7.jpg"",""time"":353},{""stimulus"":""img/green_ll/8.jpg"",""time"":403},{""stimulus"":""img/green_ll/9.jpg"",""time"":452},{""stimulus"":""img/green_ll/10.jpg"",""time"":500},{""stimulus"":""img/green_ll/11.jpg"",""time"":573}]","[]"
"image-keyboard-response","172","134385","0.0-5.0-1.84","610c736500a4b33398fef94f","bdp_lott","Mon Apr 10 2023 18:17:31 GMT-0400 (Eastern Daylight Time)","295816","red","green","","360","","","","choice","","img/green_ll/choose11.jpg","1","141","green","0.5","0.1","0.1","l","",""
"animation","173","135008","0.0-5.0-2.84","610c736500a4b33398fef94f","bdp_lott","Mon Apr 10 2023 18:17:31 GMT-0400 (Eastern Daylight Time)","295816","red","green","","","","","","","","","","141","","","","","","[{""stimulus"":""img/green_ll/1.jpg"",""time"":57},{""stimulus"":""img/green_ll/2.jpg"",""time"":108},{""stimulus"":""img/green_ll/3.jpg"",""time"":172},{""stimulus"":""img/green_ll/4.jpg"",""time"":206},{""stimulus"":""img/green_ll/5.jpg"",""time"":256},{""stimulus"":""img/green_ll/6.jpg"",""time"":306},{""stimulus"":""img/green_ll/7.jpg"",""time"":356},{""stimulus"":""img/green_ll/8.jpg"",""time"":408},{""stimulus"":""img/green_ll/9.jpg"",""time"":455},{""stimulus"":""img/green_ll/10.jpg"",""time"":504},{""stimulus"":""img/green_ll/11.jpg"",""time"":552}]","[]"
"image-keyboard-response","174","135294","0.0-5.0-1.85","610c736500a4b33398fef94f","bdp_lott","Mon Apr 10 2023 18:17:31 GMT-0400 (Eastern Daylight Time)","295816","red","green","","285","","","","choice","","img/green_ll/choose11.jpg","2","140","red","0.5","0.1","0.5","w","",""
"animation","175","135899","0.0-5.0-2.85","610c736500a4b33398fef94f","bdp_lott","Mon Apr 10 2023 18:17:31 GMT-0400 (Eastern Daylight Time)","295816","red","green","","","","","","","","","","140","","","","","","[{""stimulus"":""img/red_lw/1.jpg"",""time"":51},{""stimulus"":""img/red_lw/2.jpg"",""time"":103},{""stimulus"":""img/red_lw/3.jpg"",""time"":152},{""stimulus"":""img/red_lw/4.jpg"",""time"":202},{""stimulus"":""img/red_lw/5.jpg"",""time"":260},{""stimulus"":""img/red_lw/6.jpg"",""time"":309},{""stimulus"":""img/red_lw/7.jpg"",""time"":354},{""stimulus"":""img/red_lw/8.jpg"",""time"":404},{""stimulus"":""img/red_lw/9.jpg"",""time"":453},{""stimulus"":""img/red_lw/10.jpg"",""time"":500},{""stimulus"":""img/red_lw/11.jpg"",""time"":556}]","[]"
"image-keyboard-response","176","136198","0.0-5.0-1.86","610c736500a4b33398fef94f","bdp_lott","Mon Apr 10 2023 18:17:31 GMT-0400 (Eastern Daylight Time)","295816","red","green","","298","","","","choice","","img/red_lw/choose11.jpg","2","139","red","0.5","0.1","0.5","w","",""
"animation","177","136800","0.0-5.0-2.86","610c736500a4b33398fef94f","bdp_lott","Mon Apr 10 2023 18:17:31 GMT-0400 (Eastern Daylight Time)","295816","red","green","","","","","","","","","","139","","","","","","[{""stimulus"":""img/red_lw/1.jpg"",""time"":62},{""stimulus"":""img/red_lw/2.jpg"",""time"":108},{""stimulus"":""img/red_lw/3.jpg"",""time"":156},{""stimulus"":""img/red_lw/4.jpg"",""time"":205},{""stimulus"":""img/red_lw/5.jpg"",""time"":258},{""stimulus"":""img/red_lw/6.jpg"",""time"":307},{""stimulus"":""img/red_lw/7.jpg"",""time"":351},{""stimulus"":""img/red_lw/8.jpg"",""time"":401},{""stimulus"":""img/red_lw/9.jpg"",""time"":451},{""stimulus"":""img/red_lw/10.jpg"",""time"":507},{""stimulus"":""img/red_lw/11.jpg"",""time"":555}]","[]"
"image-keyboard-response","178","137076","0.0-5.0-1.87","610c736500a4b33398fef94f","bdp_lott","Mon Apr 10 2023 18:17:31 GMT-0400 (Eastern Daylight Time)","295816","red","green","","275","","","","choice","","img/red_lw/choose11.jpg","2","138","red","0.5","0.1","0.5","w","",""
"animation","179","137680","0.0-5.0-2.87","610c736500a4b33398fef94f","bdp_lott","Mon Apr 10 2023 18:17:31 GMT-0400 (Eastern Daylight Time)","295816","red","green","","","","","","","","","","138","","","","","","[{""stimulus"":""img/red_lw/1.jpg"",""time"":58},{""stimulus"":""img/red_lw/2.jpg"",""time"":114},{""stimulus"":""img/red_lw/3.jpg"",""time"":155},{""stimulus"":""img/red_lw/4.jpg"",""time"":203},{""stimulus"":""img/red_lw/5.jpg"",""time"":251},{""stimulus"":""img/red_lw/6.jpg"",""time"":308},{""stimulus"":""img/red_lw/7.jpg"",""time"":356},{""stimulus"":""img/red_lw/8.jpg"",""time"":404},{""stimulus"":""img/red_lw/9.jpg"",""time"":453},{""stimulus"":""img/red_lw/10.jpg"",""time"":501},{""stimulus"":""img/red_lw/11.jpg"",""time"":557}]","[]"
"image-keyboard-response","180","138227","0.0-5.0-1.88","610c736500a4b33398fef94f","bdp_lott","Mon Apr 10 2023 18:17:31 GMT-0400 (Eastern Daylight Time)","295816","red","green","","546","","","","choice","","img/red_lw/choose11.jpg","2","137","red","0.5","0.1","0.5","l","",""
"animation","181","138835","0.0-5.0-2.88","610c736500a4b33398fef94f","bdp_lott","Mon Apr 10 2023 18:17:31 GMT-0400 (Eastern Daylight Time)","295816","red","green","","","","","","","","","","137","","","","","","[{""stimulus"":""img/red_ll/1.jpg"",""time"":65},{""stimulus"":""img/red_ll/2.jpg"",""time"":103},{""stimulus"":""img/red_ll/3.jpg"",""time"":151},{""stimulus"":""img/red_ll/4.jpg"",""time"":208},{""stimulus"":""img/red_ll/5.jpg"",""time"":256},{""stimulus"":""img/red_ll/6.jpg"",""time"":305},{""stimulus"":""img/red_ll/7.jpg"",""time"":353},{""stimulus"":""img/red_ll/8.jpg"",""time"":402},{""stimulus"":""img/red_ll/9.jpg"",""time"":466},{""stimulus"":""img/red_ll/10.jpg"",""time"":503},{""stimulus"":""img/red_ll/11.jpg"",""time"":551}]","[]"
"image-keyboard-response","182","139327","0.0-5.0-1.89","610c736500a4b33398fef94f","bdp_lott","Mon Apr 10 2023 18:17:31 GMT-0400 (Eastern Daylight Time)","295816","red","green","","492","","","","choice","","img/red_ll/choose11.jpg","2","136","red","0.5","0.1","0.5","l","",""
"animation","183","139932","0.0-5.0-2.89","610c736500a4b33398fef94f","bdp_lott","Mon Apr 10 2023 18:17:31 GMT-0400 (Eastern Daylight Time)","295816","red","green","","","","","","","","","","136","","","","","","[{""stimulus"":""img/red_ll/1.jpg"",""time"":57},{""stimulus"":""img/red_ll/2.jpg"",""time"":106},{""stimulus"":""img/red_ll/3.jpg"",""time"":161},{""stimulus"":""img/red_ll/4.jpg"",""time"":204},{""stimulus"":""img/red_ll/5.jpg"",""time"":253},{""stimulus"":""img/red_ll/6.jpg"",""time"":303},{""stimulus"":""img/red_ll/7.jpg"",""time"":353},{""stimulus"":""img/red_ll/8.jpg"",""time"":403},{""stimulus"":""img/red_ll/9.jpg"",""time"":460},{""stimulus"":""img/red_ll/10.jpg"",""time"":501},{""stimulus"":""img/red_ll/11.jpg"",""time"":557}]","[]"
"image-keyboard-response","184","140233","0.0-5.0-1.90","610c736500a4b33398fef94f","bdp_lott","Mon Apr 10 2023 18:17:31 GMT-0400 (Eastern Daylight Time)","295816","red","green","","300","","","","choice","","img/red_ll/choose11.jpg","2","135","red","0.5","0.1","0.5","w","",""
"animation","185","140838","0.0-5.0-2.90","610c736500a4b33398fef94f","bdp_lott","Mon Apr 10 2023 18:17:31 GMT-0400 (Eastern Daylight Time)","295816","red","green","","","","","","","","","","135","","","","","","[{""stimulus"":""img/red_lw/1.jpg"",""time"":59},{""stimulus"":""img/red_lw/2.jpg"",""time"":104},{""stimulus"":""img/red_lw/3.jpg"",""time"":152},{""stimulus"":""img/red_lw/4.jpg"",""time"":206},{""stimulus"":""img/red_lw/5.jpg"",""time"":256},{""stimulus"":""img/red_lw/6.jpg"",""time"":313},{""stimulus"":""img/red_lw/7.jpg"",""time"":355},{""stimulus"":""img/red_lw/8.jpg"",""time"":407},{""stimulus"":""img/red_lw/9.jpg"",""time"":456},{""stimulus"":""img/red_lw/10.jpg"",""time"":505},{""stimulus"":""img/red_lw/11.jpg"",""time"":550}]","[]"
"image-keyboard-response","186","141338","0.0-5.0-1.91","610c736500a4b33398fef94f","bdp_lott","Mon Apr 10 2023 18:17:31 GMT-0400 (Eastern Daylight Time)","295816","red","green","","499","","","","choice","","img/red_lw/choose11.jpg","2","134","red","0.5","0.1","0.5","l","",""
"animation","187","141938","0.0-5.0-2.91","610c736500a4b33398fef94f","bdp_lott","Mon Apr 10 2023 18:17:31 GMT-0400 (Eastern Daylight Time)","295816","red","green","","","","","","","","","","134","","","","","","[{""stimulus"":""img/red_ll/1.jpg"",""time"":57},{""stimulus"":""img/red_ll/2.jpg"",""time"":108},{""stimulus"":""img/red_ll/3.jpg"",""time"":158},{""stimulus"":""img/red_ll/4.jpg"",""time"":208},{""stimulus"":""img/red_ll/5.jpg"",""time"":274},{""stimulus"":""img/red_ll/6.jpg"",""time"":301},{""stimulus"":""img/red_ll/7.jpg"",""time"":351},{""stimulus"":""img/red_ll/8.jpg"",""time"":401},{""stimulus"":""img/red_ll/9.jpg"",""time"":451},{""stimulus"":""img/red_ll/10.jpg"",""time"":501},{""stimulus"":""img/red_ll/11.jpg"",""time"":551}]","[]"
"image-keyboard-response","188","142317","0.0-5.0-1.92","610c736500a4b33398fef94f","bdp_lott","Mon Apr 10 2023 18:17:31 GMT-0400 (Eastern Daylight Time)","295816","red","green","","378","","","","choice","","img/red_ll/choose11.jpg","2","133","red","0.5","0.1","0.5","w","",""
"animation","189","142940","0.0-5.0-2.92","610c736500a4b33398fef94f","bdp_lott","Mon Apr 10 2023 18:17:31 GMT-0400 (Eastern Daylight Time)","295816","red","green","","","","","","","","","","133","","","","","","[{""stimulus"":""img/red_lw/1.jpg"",""time"":64},{""stimulus"":""img/red_lw/2.jpg"",""time"":121},{""stimulus"":""img/red_lw/3.jpg"",""time"":155},{""stimulus"":""img/red_lw/4.jpg"",""time"":204},{""stimulus"":""img/red_lw/5.jpg"",""time"":254},{""stimulus"":""img/red_lw/6.jpg"",""time"":304},{""stimulus"":""img/red_lw/7.jpg"",""time"":353},{""stimulus"":""img/red_lw/8.jpg"",""time"":424},{""stimulus"":""img/red_lw/9.jpg"",""time"":451},{""stimulus"":""img/red_lw/10.jpg"",""time"":503},{""stimulus"":""img/red_lw/11.jpg"",""time"":551}]","[]"
"image-keyboard-response","190","143412","0.0-5.0-1.93","610c736500a4b33398fef94f","bdp_lott","Mon Apr 10 2023 18:17:31 GMT-0400 (Eastern Daylight Time)","295816","red","green","","471","","","","choice","","img/red_lw/choose11.jpg","2","132","red","0.5","0.1","0.5","l","",""
"animation","191","144015","0.0-5.0-2.93","610c736500a4b33398fef94f","bdp_lott","Mon Apr 10 2023 18:17:31 GMT-0400 (Eastern Daylight Time)","295816","red","green","","","","","","","","","","132","","","","","","[{""stimulus"":""img/red_ll/1.jpg"",""time"":51},{""stimulus"":""img/red_ll/2.jpg"",""time"":115},{""stimulus"":""img/red_ll/3.jpg"",""time"":158},{""stimulus"":""img/red_ll/4.jpg"",""time"":201},{""stimulus"":""img/red_ll/5.jpg"",""time"":257},{""stimulus"":""img/red_ll/6.jpg"",""time"":306},{""stimulus"":""img/red_ll/7.jpg"",""time"":354},{""stimulus"":""img/red_ll/8.jpg"",""time"":400},{""stimulus"":""img/red_ll/9.jpg"",""time"":456},{""stimulus"":""img/red_ll/10.jpg"",""time"":505},{""stimulus"":""img/red_ll/11.jpg"",""time"":553}]","[]"
