"event","trial","time","trialtype","subject_id","task","startTime","totalTime","fairMachine","unfairMachine","trial_type","trial_index","time_elapsed","internal_node_id","view_history","rt","success","stimulus","key_press","roundsLeft","chosen","pFairMachWin","pUnfairMachWin","pTrialWin","outcome","animation_sequence","responses","numBlurs"
"focus","0","0","focusevent","5e03f8517f08edece67a3137","bdp_lott","Sat Mar 25 2023 16:57:14 GMT-0700 (Pacific Daylight Time)","474550","green","red","","","","","","","","","","","","","","","","","",""
"","","","","5e03f8517f08edece67a3137","bdp_lott","Sat Mar 25 2023 16:57:14 GMT-0700 (Pacific Daylight Time)","474550","green","red","pavlovia","0","35","0.0-0.0","","","","","","","","","","","","","",""
"","","","","5e03f8517f08edece67a3137","bdp_lott","Sat Mar 25 2023 16:57:14 GMT-0700 (Pacific Daylight Time)","474550","green","red","instructions","1","6719","0.0-1.0","[{""page_index"":0,""viewing_time"":6683}]","6683","","","","","","","","","","","",""
"fullscreenexit","2","11324","fullscreenexit","5e03f8517f08edece67a3137","bdp_lott","Sat Mar 25 2023 16:57:14 GMT-0700 (Pacific Daylight Time)","474550","green","red","","","","","","","","","","","","","","","","","",""
"","","","","5e03f8517f08edece67a3137","bdp_lott","Sat Mar 25 2023 16:57:14 GMT-0700 (Pacific Daylight Time)","474550","green","red","fullscreen","2","12081","0.0-2.0","","","true","","","","","","","","","","",""
"","","","fullscreenfail","5e03f8517f08edece67a3137","bdp_lott","Sat Mar 25 2023 16:57:14 GMT-0700 (Pacific Daylight Time)","474550","green","red","image-keyboard-response","3","16582","0.0-3.0-0.0","","4497","","","32","","","","","","","","",""
"","","","","5e03f8517f08edece67a3137","bdp_lott","Sat Mar 25 2023 16:57:14 GMT-0700 (Pacific Daylight Time)","474550","green","red","instructions","4","96038","0.0-4.0","[{""page_index"":0,""viewing_time"":79185}]","79186","","","","","","","","","","","",""
"","","","choice","5e03f8517f08edece67a3137","bdp_lott","Sat Mar 25 2023 16:57:14 GMT-0700 (Pacific Daylight Time)","474550","green","red","image-keyboard-response","5","97960","0.0-5.0-1.0","","1919","","img/red_ll/initchoose11.jpg","1","225","green","0.5","0.5","0.5","w","","",""
"","","","","5e03f8517f08edece67a3137","bdp_lott","Sat Mar 25 2023 16:57:14 GMT-0700 (Pacific Daylight Time)","474550","green","red","animation","6","98695","0.0-5.0-2.0","","","","","","225","","","","","","[{""stimulus"":""img/green_wl/1.jpg"",""time"":63},{""stimulus"":""img/green_wl/2.jpg"",""time"":120},{""stimulus"":""img/green_wl/3.jpg"",""time"":181},{""stimulus"":""img/green_wl/4.jpg"",""time"":246},{""stimulus"":""img/green_wl/5.jpg"",""time"":306},{""stimulus"":""img/green_wl/6.jpg"",""time"":366},{""stimulus"":""img/green_wl/7.jpg"",""time"":429},{""stimulus"":""img/green_wl/8.jpg"",""time"":489},{""stimulus"":""img/green_wl/9.jpg"",""time"":550},{""stimulus"":""img/green_wl/10.jpg"",""time"":612},{""stimulus"":""img/green_wl/11.jpg"",""time"":671}]","[]",""
"","","","choice","5e03f8517f08edece67a3137","bdp_lott","Sat Mar 25 2023 16:57:14 GMT-0700 (Pacific Daylight Time)","474550","green","red","image-keyboard-response","7","101542","0.0-5.0-1.1","","2845","","img/green_wl/choose11.jpg","2","224","red","0.5","0.5","0.5","l","","",""
"","","","","5e03f8517f08edece67a3137","bdp_lott","Sat Mar 25 2023 16:57:14 GMT-0700 (Pacific Daylight Time)","474550","green","red","animation","8","102281","0.0-5.0-2.1","","","","","","224","","","","","","[{""stimulus"":""img/red_wl/1.jpg"",""time"":62},{""stimulus"":""img/red_wl/2.jpg"",""time"":124},{""stimulus"":""img/red_wl/3.jpg"",""time"":188},{""stimulus"":""img/red_wl/4.jpg"",""time"":248},{""stimulus"":""img/red_wl/5.jpg"",""time"":308},{""stimulus"":""img/red_wl/6.jpg"",""time"":372},{""stimulus"":""img/red_wl/7.jpg"",""time"":436},{""stimulus"":""img/red_wl/8.jpg"",""time"":502},{""stimulus"":""img/red_wl/9.jpg"",""time"":560},{""stimulus"":""img/red_wl/10.jpg"",""time"":621},{""stimulus"":""img/red_wl/11.jpg"",""time"":679}]","[]",""
"","","","choice","5e03f8517f08edece67a3137","bdp_lott","Sat Mar 25 2023 16:57:14 GMT-0700 (Pacific Daylight Time)","474550","green","red","image-keyboard-response","9","104082","0.0-5.0-1.2","","1800","","img/red_wl/choose11.jpg","1","223","green","0.5","0.5","0.5","l","","",""
"","","","","5e03f8517f08edece67a3137","bdp_lott","Sat Mar 25 2023 16:57:14 GMT-0700 (Pacific Daylight Time)","474550","green","red","animation","10","104787","0.0-5.0-2.2","","","","","","223","","","","","","[{""stimulus"":""img/green_ll/1.jpg"",""time"":53},{""stimulus"":""img/green_ll/2.jpg"",""time"":115},{""stimulus"":""img/green_ll/3.jpg"",""time"":167},{""stimulus"":""img/green_ll/4.jpg"",""time"":230},{""stimulus"":""img/green_ll/5.jpg"",""time"":292},{""stimulus"":""img/green_ll/6.jpg"",""time"":355},{""stimulus"":""img/green_ll/7.jpg"",""time"":404},{""stimulus"":""img/green_ll/8.jpg"",""time"":467},{""stimulus"":""img/green_ll/9.jpg"",""time"":530},{""stimulus"":""img/green_ll/10.jpg"",""time"":580},{""stimulus"":""img/green_ll/11.jpg"",""time"":643}]","[]",""
"","","","choice","5e03f8517f08edece67a3137","bdp_lott","Sat Mar 25 2023 16:57:14 GMT-0700 (Pacific Daylight Time)","474550","green","red","image-keyboard-response","11","105920","0.0-5.0-1.3","","1130","","img/green_ll/choose11.jpg","2","222","red","0.5","0.5","0.5","w","","",""
"","","","","5e03f8517f08edece67a3137","bdp_lott","Sat Mar 25 2023 16:57:14 GMT-0700 (Pacific Daylight Time)","474550","green","red","animation","12","106643","0.0-5.0-2.3","","","","","","222","","","","","","[{""stimulus"":""img/red_lw/1.jpg"",""time"":65},{""stimulus"":""img/red_lw/2.jpg"",""time"":128},{""stimulus"":""img/red_lw/3.jpg"",""time"":191},{""stimulus"":""img/red_lw/4.jpg"",""time"":254},{""stimulus"":""img/red_lw/5.jpg"",""time"":304},{""stimulus"":""img/red_lw/6.jpg"",""time"":365},{""stimulus"":""img/red_lw/7.jpg"",""time"":415},{""stimulus"":""img/red_lw/8.jpg"",""time"":475},{""stimulus"":""img/red_lw/9.jpg"",""time"":538},{""stimulus"":""img/red_lw/10.jpg"",""time"":600},{""stimulus"":""img/red_lw/11.jpg"",""time"":662}]","[]",""
"","","","choice","5e03f8517f08edece67a3137","bdp_lott","Sat Mar 25 2023 16:57:14 GMT-0700 (Pacific Daylight Time)","474550","green","red","image-keyboard-response","13","108273","0.0-5.0-1.4","","1628","","img/red_lw/choose11.jpg","1","221","green","0.5","0.5","0.5","l","","",""
"","","","","5e03f8517f08edece67a3137","bdp_lott","Sat Mar 25 2023 16:57:14 GMT-0700 (Pacific Daylight Time)","474550","green","red","animation","14","108995","0.0-5.0-2.4","","","","","","221","","","","","","[{""stimulus"":""img/green_lw/1.jpg"",""time"":60},{""stimulus"":""img/green_lw/2.jpg"",""time"":110},{""stimulus"":""img/green_lw/3.jpg"",""time"":172},{""stimulus"":""img/green_lw/4.jpg"",""time"":235},{""stimulus"":""img/green_lw/5.jpg"",""time"":297},{""stimulus"":""img/green_lw/6.jpg"",""time"":357},{""stimulus"":""img/green_lw/7.jpg"",""time"":420},{""stimulus"":""img/green_lw/8.jpg"",""time"":483},{""stimulus"":""img/green_lw/9.jpg"",""time"":533},{""stimulus"":""img/green_lw/10.jpg"",""time"":597},{""stimulus"":""img/green_lw/11.jpg"",""time"":659}]","[]",""
"","","","choice","5e03f8517f08edece67a3137","bdp_lott","Sat Mar 25 2023 16:57:14 GMT-0700 (Pacific Daylight Time)","474550","green","red","image-keyboard-response","15","109908","0.0-5.0-1.5","","913","","img/green_lw/choose11.jpg","1","220","green","0.5","0.5","0.5","l","","",""
"","","","","5e03f8517f08edece67a3137","bdp_lott","Sat Mar 25 2023 16:57:14 GMT-0700 (Pacific Daylight Time)","474550","green","red","animation","16","110643","0.0-5.0-2.5","","","","","","220","","","","","","[{""stimulus"":""img/green_lw/1.jpg"",""time"":56},{""stimulus"":""img/green_lw/2.jpg"",""time"":118},{""stimulus"":""img/green_lw/3.jpg"",""time"":178},{""stimulus"":""img/green_lw/4.jpg"",""time"":238},{""stimulus"":""img/green_lw/5.jpg"",""time"":301},{""stimulus"":""img/green_lw/6.jpg"",""time"":363},{""stimulus"":""img/green_lw/7.jpg"",""time"":426},{""stimulus"":""img/green_lw/8.jpg"",""time"":488},{""stimulus"":""img/green_lw/9.jpg"",""time"":550},{""stimulus"":""img/green_lw/10.jpg"",""time"":614},{""stimulus"":""img/green_lw/11.jpg"",""time"":673}]","[]",""
"","","","choice","5e03f8517f08edece67a3137","bdp_lott","Sat Mar 25 2023 16:57:14 GMT-0700 (Pacific Daylight Time)","474550","green","red","image-keyboard-response","17","111517","0.0-5.0-1.6","","872","","img/green_lw/choose11.jpg","1","219","green","0.5","0.5","0.5","l","","",""
"","","","","5e03f8517f08edece67a3137","bdp_lott","Sat Mar 25 2023 16:57:14 GMT-0700 (Pacific Daylight Time)","474550","green","red","animation","18","112233","0.0-5.0-2.6","","","","","","219","","","","","","[{""stimulus"":""img/green_lw/1.jpg"",""time"":62},{""stimulus"":""img/green_lw/2.jpg"",""time"":124},{""stimulus"":""img/green_lw/3.jpg"",""time"":184},{""stimulus"":""img/green_lw/4.jpg"",""time"":244},{""stimulus"":""img/green_lw/5.jpg"",""time"":303},{""stimulus"":""img/green_lw/6.jpg"",""time"":354},{""stimulus"":""img/green_lw/7.jpg"",""time"":414},{""stimulus"":""img/green_lw/8.jpg"",""time"":464},{""stimulus"":""img/green_lw/9.jpg"",""time"":525},{""stimulus"":""img/green_lw/10.jpg"",""time"":590},{""stimulus"":""img/green_lw/11.jpg"",""time"":655}]","[]",""
"","","","choice","5e03f8517f08edece67a3137","bdp_lott","Sat Mar 25 2023 16:57:14 GMT-0700 (Pacific Daylight Time)","474550","green","red","image-keyboard-response","19","112845","0.0-5.0-1.7","","611","","img/green_lw/choose11.jpg","2","218","red","0.5","0.5","0.5","w","","",""
"","","","","5e03f8517f08edece67a3137","bdp_lott","Sat Mar 25 2023 16:57:14 GMT-0700 (Pacific Daylight Time)","474550","green","red","animation","20","113584","0.0-5.0-2.7","","","","","","218","","","","","","[{""stimulus"":""img/red_lw/1.jpg"",""time"":61},{""stimulus"":""img/red_lw/2.jpg"",""time"":113},{""stimulus"":""img/red_lw/3.jpg"",""time"":166},{""stimulus"":""img/red_lw/4.jpg"",""time"":227},{""stimulus"":""img/red_lw/5.jpg"",""time"":308},{""stimulus"":""img/red_lw/6.jpg"",""time"":370},{""stimulus"":""img/red_lw/7.jpg"",""time"":430},{""stimulus"":""img/red_lw/8.jpg"",""time"":498},{""stimulus"":""img/red_lw/9.jpg"",""time"":558},{""stimulus"":""img/red_lw/10.jpg"",""time"":620},{""stimulus"":""img/red_lw/11.jpg"",""time"":680}]","[]",""
"","","","choice","5e03f8517f08edece67a3137","bdp_lott","Sat Mar 25 2023 16:57:14 GMT-0700 (Pacific Daylight Time)","474550","green","red","image-keyboard-response","21","114316","0.0-5.0-1.8","","730","","img/red_lw/choose11.jpg","2","217","red","0.5","0.5","0.5","w","","",""
"","","","","5e03f8517f08edece67a3137","bdp_lott","Sat Mar 25 2023 16:57:14 GMT-0700 (Pacific Daylight Time)","474550","green","red","animation","22","115040","0.0-5.0-2.8","","","","","","217","","","","","","[{""stimulus"":""img/red_lw/1.jpg"",""time"":61},{""stimulus"":""img/red_lw/2.jpg"",""time"":117},{""stimulus"":""img/red_lw/3.jpg"",""time"":177},{""stimulus"":""img/red_lw/4.jpg"",""time"":241},{""stimulus"":""img/red_lw/5.jpg"",""time"":300},{""stimulus"":""img/red_lw/6.jpg"",""time"":360},{""stimulus"":""img/red_lw/7.jpg"",""time"":424},{""stimulus"":""img/red_lw/8.jpg"",""time"":482},{""stimulus"":""img/red_lw/9.jpg"",""time"":542},{""stimulus"":""img/red_lw/10.jpg"",""time"":605},{""stimulus"":""img/red_lw/11.jpg"",""time"":665}]","[]",""
"","","","choice","5e03f8517f08edece67a3137","bdp_lott","Sat Mar 25 2023 16:57:14 GMT-0700 (Pacific Daylight Time)","474550","green","red","image-keyboard-response","23","115731","0.0-5.0-1.9","","690","","img/red_lw/choose11.jpg","2","216","red","0.5","0.5","0.5","l","","",""
"","","","","5e03f8517f08edece67a3137","bdp_lott","Sat Mar 25 2023 16:57:14 GMT-0700 (Pacific Daylight Time)","474550","green","red","animation","24","116465","0.0-5.0-2.9","","","","","","216","","","","","","[{""stimulus"":""img/red_ll/1.jpg"",""time"":64},{""stimulus"":""img/red_ll/2.jpg"",""time"":128},{""stimulus"":""img/red_ll/3.jpg"",""time"":184},{""stimulus"":""img/red_ll/4.jpg"",""time"":243},{""stimulus"":""img/red_ll/5.jpg"",""time"":305},{""stimulus"":""img/red_ll/6.jpg"",""time"":370},{""stimulus"":""img/red_ll/7.jpg"",""time"":428},{""stimulus"":""img/red_ll/8.jpg"",""time"":488},{""stimulus"":""img/red_ll/9.jpg"",""time"":551},{""stimulus"":""img/red_ll/10.jpg"",""time"":611},{""stimulus"":""img/red_ll/11.jpg"",""time"":674}]","[]",""
"","","","choice","5e03f8517f08edece67a3137","bdp_lott","Sat Mar 25 2023 16:57:14 GMT-0700 (Pacific Daylight Time)","474550","green","red","image-keyboard-response","25","117565","0.0-5.0-1.10","","1099","","img/red_ll/choose11.jpg","2","215","red","0.5","0.5","0.5","l","","",""
"","","","","5e03f8517f08edece67a3137","bdp_lott","Sat Mar 25 2023 16:57:14 GMT-0700 (Pacific Daylight Time)","474550","green","red","animation","26","118281","0.0-5.0-2.10","","","","","","215","","","","","","[{""stimulus"":""img/red_ll/1.jpg"",""time"":51},{""stimulus"":""img/red_ll/2.jpg"",""time"":111},{""stimulus"":""img/red_ll/3.jpg"",""time"":170},{""stimulus"":""img/red_ll/4.jpg"",""time"":230},{""stimulus"":""img/red_ll/5.jpg"",""time"":293},{""stimulus"":""img/red_ll/6.jpg"",""time"":357},{""stimulus"":""img/red_ll/7.jpg"",""time"":421},{""stimulus"":""img/red_ll/8.jpg"",""time"":481},{""stimulus"":""img/red_ll/9.jpg"",""time"":542},{""stimulus"":""img/red_ll/10.jpg"",""time"":593},{""stimulus"":""img/red_ll/11.jpg"",""time"":653}]","[]",""
"","","","choice","5e03f8517f08edece67a3137","bdp_lott","Sat Mar 25 2023 16:57:14 GMT-0700 (Pacific Daylight Time)","474550","green","red","image-keyboard-response","27","118818","0.0-5.0-1.11","","536","","img/red_ll/choose11.jpg","1","214","green","0.5","0.5","0.5","l","","",""
"","","","","5e03f8517f08edece67a3137","bdp_lott","Sat Mar 25 2023 16:57:14 GMT-0700 (Pacific Daylight Time)","474550","green","red","animation","28","119541","0.0-5.0-2.11","","","","","","214","","","","","","[{""stimulus"":""img/green_ll/1.jpg"",""time"":56},{""stimulus"":""img/green_ll/2.jpg"",""time"":118},{""stimulus"":""img/green_ll/3.jpg"",""time"":177},{""stimulus"":""img/green_ll/4.jpg"",""time"":238},{""stimulus"":""img/green_ll/5.jpg"",""time"":297},{""stimulus"":""img/green_ll/6.jpg"",""time"":357},{""stimulus"":""img/green_ll/7.jpg"",""time"":417},{""stimulus"":""img/green_ll/8.jpg"",""time"":477},{""stimulus"":""img/green_ll/9.jpg"",""time"":537},{""stimulus"":""img/green_ll/10.jpg"",""time"":597},{""stimulus"":""img/green_ll/11.jpg"",""time"":660}]","[]",""
"","","","choice","5e03f8517f08edece67a3137","bdp_lott","Sat Mar 25 2023 16:57:14 GMT-0700 (Pacific Daylight Time)","474550","green","red","image-keyboard-response","29","119998","0.0-5.0-1.12","","457","","img/green_ll/choose11.jpg","1","213","green","0.5","0.5","0.5","w","","",""
"","","","","5e03f8517f08edece67a3137","bdp_lott","Sat Mar 25 2023 16:57:14 GMT-0700 (Pacific Daylight Time)","474550","green","red","animation","30","120712","0.0-5.0-2.12","","","","","","213","","","","","","[{""stimulus"":""img/green_wl/1.jpg"",""time"":58},{""stimulus"":""img/green_wl/2.jpg"",""time"":121},{""stimulus"":""img/green_wl/3.jpg"",""time"":184},{""stimulus"":""img/green_wl/4.jpg"",""time"":244},{""stimulus"":""img/green_wl/5.jpg"",""time"":307},{""stimulus"":""img/green_wl/6.jpg"",""time"":369},{""stimulus"":""img/green_wl/7.jpg"",""time"":429},{""stimulus"":""img/green_wl/8.jpg"",""time"":479},{""stimulus"":""img/green_wl/9.jpg"",""time"":542},{""stimulus"":""img/green_wl/10.jpg"",""time"":604},{""stimulus"":""img/green_wl/11.jpg"",""time"":658}]","[]",""
"","","","choice","5e03f8517f08edece67a3137","bdp_lott","Sat Mar 25 2023 16:57:14 GMT-0700 (Pacific Daylight Time)","474550","green","red","image-keyboard-response","31","121413","0.0-5.0-1.13","","701","","img/green_wl/choose11.jpg","1","212","green","0.5","0.5","0.5","l","","",""
"","","","","5e03f8517f08edece67a3137","bdp_lott","Sat Mar 25 2023 16:57:14 GMT-0700 (Pacific Daylight Time)","474550","green","red","animation","32","122125","0.0-5.0-2.13","","","","","","212","","","","","","[{""stimulus"":""img/green_ll/1.jpg"",""time"":50},{""stimulus"":""img/green_ll/2.jpg"",""time"":113},{""stimulus"":""img/green_ll/3.jpg"",""time"":173},{""stimulus"":""img/green_ll/4.jpg"",""time"":234},{""stimulus"":""img/green_ll/5.jpg"",""time"":293},{""stimulus"":""img/green_ll/6.jpg"",""time"":355},{""stimulus"":""img/green_ll/7.jpg"",""time"":417},{""stimulus"":""img/green_ll/8.jpg"",""time"":478},{""stimulus"":""img/green_ll/9.jpg"",""time"":538},{""stimulus"":""img/green_ll/10.jpg"",""time"":598},{""stimulus"":""img/green_ll/11.jpg"",""time"":648}]","[]",""
"","","","choice","5e03f8517f08edece67a3137","bdp_lott","Sat Mar 25 2023 16:57:14 GMT-0700 (Pacific Daylight Time)","474550","green","red","image-keyboard-response","33","122827","0.0-5.0-1.14","","701","","img/green_ll/choose11.jpg","2","211","red","0.5","0.5","0.5","l","","",""
"","","","","5e03f8517f08edece67a3137","bdp_lott","Sat Mar 25 2023 16:57:14 GMT-0700 (Pacific Daylight Time)","474550","green","red","animation","34","123536","0.0-5.0-2.14","","","","","","211","","","","","","[{""stimulus"":""img/red_ll/1.jpg"",""time"":50},{""stimulus"":""img/red_ll/2.jpg"",""time"":113},{""stimulus"":""img/red_ll/3.jpg"",""time"":162},{""stimulus"":""img/red_ll/4.jpg"",""time"":225},{""stimulus"":""img/red_ll/5.jpg"",""time"":285},{""stimulus"":""img/red_ll/6.jpg"",""time"":347},{""stimulus"":""img/red_ll/7.jpg"",""time"":407},{""stimulus"":""img/red_ll/8.jpg"",""time"":468},{""stimulus"":""img/red_ll/9.jpg"",""time"":530},{""stimulus"":""img/red_ll/10.jpg"",""time"":588},{""stimulus"":""img/red_ll/11.jpg"",""time"":648}]","[]",""
"","","","choice","5e03f8517f08edece67a3137","bdp_lott","Sat Mar 25 2023 16:57:14 GMT-0700 (Pacific Daylight Time)","474550","green","red","image-keyboard-response","35","123990","0.0-5.0-1.15","","454","","img/red_ll/choose11.jpg","2","210","red","0.5","0.5","0.5","l","","",""
"","","","","5e03f8517f08edece67a3137","bdp_lott","Sat Mar 25 2023 16:57:14 GMT-0700 (Pacific Daylight Time)","474550","green","red","animation","36","124696","0.0-5.0-2.15","","","","","","210","","","","","","[{""stimulus"":""img/red_ll/1.jpg"",""time"":58},{""stimulus"":""img/red_ll/2.jpg"",""time"":117},{""stimulus"":""img/red_ll/3.jpg"",""time"":168},{""stimulus"":""img/red_ll/4.jpg"",""time"":232},{""stimulus"":""img/red_ll/5.jpg"",""time"":292},{""stimulus"":""img/red_ll/6.jpg"",""time"":343},{""stimulus"":""img/red_ll/7.jpg"",""time"":404},{""stimulus"":""img/red_ll/8.jpg"",""time"":463},{""stimulus"":""img/red_ll/9.jpg"",""time"":526},{""stimulus"":""img/red_ll/10.jpg"",""time"":586},{""stimulus"":""img/red_ll/11.jpg"",""time"":646}]","[]",""
"","","","choice","5e03f8517f08edece67a3137","bdp_lott","Sat Mar 25 2023 16:57:14 GMT-0700 (Pacific Daylight Time)","474550","green","red","image-keyboard-response","37","125130","0.0-5.0-1.16","","434","","img/red_ll/choose11.jpg","2","209","red","0.5","0.5","0.5","w","","",""
"","","","","5e03f8517f08edece67a3137","bdp_lott","Sat Mar 25 2023 16:57:14 GMT-0700 (Pacific Daylight Time)","474550","green","red","animation","38","125851","0.0-5.0-2.16","","","","","","209","","","","","","[{""stimulus"":""img/red_lw/1.jpg"",""time"":56},{""stimulus"":""img/red_lw/2.jpg"",""time"":109},{""stimulus"":""img/red_lw/3.jpg"",""time"":174},{""stimulus"":""img/red_lw/4.jpg"",""time"":233},{""stimulus"":""img/red_lw/5.jpg"",""time"":297},{""stimulus"":""img/red_lw/6.jpg"",""time"":356},{""stimulus"":""img/red_lw/7.jpg"",""time"":416},{""stimulus"":""img/red_lw/8.jpg"",""time"":476},{""stimulus"":""img/red_lw/9.jpg"",""time"":537},{""stimulus"":""img/red_lw/10.jpg"",""time"":596},{""stimulus"":""img/red_lw/11.jpg"",""time"":659}]","[]",""
"","","","choice","5e03f8517f08edece67a3137","bdp_lott","Sat Mar 25 2023 16:57:14 GMT-0700 (Pacific Daylight Time)","474550","green","red","image-keyboard-response","39","127435","0.0-5.0-1.17","","1583","","img/red_lw/choose11.jpg","1","208","green","0.5","0.5","0.5","w","","",""
"","","","","5e03f8517f08edece67a3137","bdp_lott","Sat Mar 25 2023 16:57:14 GMT-0700 (Pacific Daylight Time)","474550","green","red","animation","40","128161","0.0-5.0-2.17","","","","","","208","","","","","","[{""stimulus"":""img/green_ww/1.jpg"",""time"":58},{""stimulus"":""img/green_ww/2.jpg"",""time"":121},{""stimulus"":""img/green_ww/3.jpg"",""time"":181},{""stimulus"":""img/green_ww/4.jpg"",""time"":241},{""stimulus"":""img/green_ww/5.jpg"",""time"":303},{""stimulus"":""img/green_ww/6.jpg"",""time"":362},{""stimulus"":""img/green_ww/7.jpg"",""time"":422},{""stimulus"":""img/green_ww/8.jpg"",""time"":482},{""stimulus"":""img/green_ww/9.jpg"",""time"":542},{""stimulus"":""img/green_ww/10.jpg"",""time"":604},{""stimulus"":""img/green_ww/11.jpg"",""time"":666}]","[]",""
"","","","choice","5e03f8517f08edece67a3137","bdp_lott","Sat Mar 25 2023 16:57:14 GMT-0700 (Pacific Daylight Time)","474550","green","red","image-keyboard-response","41","130822","0.0-5.0-1.18","","2660","","img/green_ww/choose11.jpg","2","207","red","0.5","0.5","0.5","l","","",""
"","","","","5e03f8517f08edece67a3137","bdp_lott","Sat Mar 25 2023 16:57:14 GMT-0700 (Pacific Daylight Time)","474550","green","red","animation","42","131564","0.0-5.0-2.18","","","","","","207","","","","","","[{""stimulus"":""img/red_wl/1.jpg"",""time"":62},{""stimulus"":""img/red_wl/2.jpg"",""time"":125},{""stimulus"":""img/red_wl/3.jpg"",""time"":185},{""stimulus"":""img/red_wl/4.jpg"",""time"":244},{""stimulus"":""img/red_wl/5.jpg"",""time"":307},{""stimulus"":""img/red_wl/6.jpg"",""time"":369},{""stimulus"":""img/red_wl/7.jpg"",""time"":433},{""stimulus"":""img/red_wl/8.jpg"",""time"":497},{""stimulus"":""img/red_wl/9.jpg"",""time"":557},{""stimulus"":""img/red_wl/10.jpg"",""time"":620},{""stimulus"":""img/red_wl/11.jpg"",""time"":686}]","[]",""
"","","","choice","5e03f8517f08edece67a3137","bdp_lott","Sat Mar 25 2023 16:57:14 GMT-0700 (Pacific Daylight Time)","474550","green","red","image-keyboard-response","43","132182","0.0-5.0-1.19","","618","","img/red_wl/choose11.jpg","1","206","green","0.5","0.5","0.5","w","","",""
"","","","","5e03f8517f08edece67a3137","bdp_lott","Sat Mar 25 2023 16:57:14 GMT-0700 (Pacific Daylight Time)","474550","green","red","animation","44","132916","0.0-5.0-2.19","","","","","","206","","","","","","[{""stimulus"":""img/green_wl/1.jpg"",""time"":56},{""stimulus"":""img/green_wl/2.jpg"",""time"":115},{""stimulus"":""img/green_wl/3.jpg"",""time"":178},{""stimulus"":""img/green_wl/4.jpg"",""time"":240},{""stimulus"":""img/green_wl/5.jpg"",""time"":304},{""stimulus"":""img/green_wl/6.jpg"",""time"":367},{""stimulus"":""img/green_wl/7.jpg"",""time"":427},{""stimulus"":""img/green_wl/8.jpg"",""time"":489},{""stimulus"":""img/green_wl/9.jpg"",""time"":552},{""stimulus"":""img/green_wl/10.jpg"",""time"":615},{""stimulus"":""img/green_wl/11.jpg"",""time"":675}]","[]",""
"","","","choice","5e03f8517f08edece67a3137","bdp_lott","Sat Mar 25 2023 16:57:14 GMT-0700 (Pacific Daylight Time)","474550","green","red","image-keyboard-response","45","133797","0.0-5.0-1.20","","880","","img/green_wl/choose11.jpg","2","205","red","0.5","0.5","0.5","l","","",""
"","","","","5e03f8517f08edece67a3137","bdp_lott","Sat Mar 25 2023 16:57:14 GMT-0700 (Pacific Daylight Time)","474550","green","red","animation","46","134522","0.0-5.0-2.20","","","","","","205","","","","","","[{""stimulus"":""img/red_wl/1.jpg"",""time"":60},{""stimulus"":""img/red_wl/2.jpg"",""time"":118},{""stimulus"":""img/red_wl/3.jpg"",""time"":178},{""stimulus"":""img/red_wl/4.jpg"",""time"":238},{""stimulus"":""img/red_wl/5.jpg"",""time"":300},{""stimulus"":""img/red_wl/6.jpg"",""time"":363},{""stimulus"":""img/red_wl/7.jpg"",""time"":425},{""stimulus"":""img/red_wl/8.jpg"",""time"":477},{""stimulus"":""img/red_wl/9.jpg"",""time"":538},{""stimulus"":""img/red_wl/10.jpg"",""time"":597},{""stimulus"":""img/red_wl/11.jpg"",""time"":663}]","[]",""
"","","","choice","5e03f8517f08edece67a3137","bdp_lott","Sat Mar 25 2023 16:57:14 GMT-0700 (Pacific Daylight Time)","474550","green","red","image-keyboard-response","47","135013","0.0-5.0-1.21","","490","","img/red_wl/choose11.jpg","2","204","red","0.5","0.5","0.5","l","","",""
"","","","","5e03f8517f08edece67a3137","bdp_lott","Sat Mar 25 2023 16:57:14 GMT-0700 (Pacific Daylight Time)","474550","green","red","animation","48","135741","0.0-5.0-2.21","","","","","","204","","","","","","[{""stimulus"":""img/red_wl/1.jpg"",""time"":55},{""stimulus"":""img/red_wl/2.jpg"",""time"":115},{""stimulus"":""img/red_wl/3.jpg"",""time"":175},{""stimulus"":""img/red_wl/4.jpg"",""time"":236},{""stimulus"":""img/red_wl/5.jpg"",""time"":297},{""stimulus"":""img/red_wl/6.jpg"",""time"":359},{""stimulus"":""img/red_wl/7.jpg"",""time"":420},{""stimulus"":""img/red_wl/8.jpg"",""time"":483},{""stimulus"":""img/red_wl/9.jpg"",""time"":545},{""stimulus"":""img/red_wl/10.jpg"",""time"":608},{""stimulus"":""img/red_wl/11.jpg"",""time"":667}]","[]",""
"","","","choice","5e03f8517f08edece67a3137","bdp_lott","Sat Mar 25 2023 16:57:14 GMT-0700 (Pacific Daylight Time)","474550","green","red","image-keyboard-response","49","136122","0.0-5.0-1.22","","381","","img/red_wl/choose11.jpg","1","203","green","0.5","0.5","0.5","l","","",""
"","","","","5e03f8517f08edece67a3137","bdp_lott","Sat Mar 25 2023 16:57:14 GMT-0700 (Pacific Daylight Time)","474550","green","red","animation","50","136842","0.0-5.0-2.22","","","","","","203","","","","","","[{""stimulus"":""img/green_ll/1.jpg"",""time"":53},{""stimulus"":""img/green_ll/2.jpg"",""time"":112},{""stimulus"":""img/green_ll/3.jpg"",""time"":171},{""stimulus"":""img/green_ll/4.jpg"",""time"":229},{""stimulus"":""img/green_ll/5.jpg"",""time"":293},{""stimulus"":""img/green_ll/6.jpg"",""time"":353},{""stimulus"":""img/green_ll/7.jpg"",""time"":412},{""stimulus"":""img/green_ll/8.jpg"",""time"":475},{""stimulus"":""img/green_ll/9.jpg"",""time"":537},{""stimulus"":""img/green_ll/10.jpg"",""time"":599},{""stimulus"":""img/green_ll/11.jpg"",""time"":659}]","[]",""
"","","","choice","5e03f8517f08edece67a3137","bdp_lott","Sat Mar 25 2023 16:57:14 GMT-0700 (Pacific Daylight Time)","474550","green","red","image-keyboard-response","51","137462","0.0-5.0-1.23","","619","","img/green_ll/choose11.jpg","2","202","red","0.5","0.5","0.5","w","","",""
"","","","","5e03f8517f08edece67a3137","bdp_lott","Sat Mar 25 2023 16:57:14 GMT-0700 (Pacific Daylight Time)","474550","green","red","animation","52","138201","0.0-5.0-2.23","","","","","","202","","","","","","[{""stimulus"":""img/red_lw/1.jpg"",""time"":64},{""stimulus"":""img/red_lw/2.jpg"",""time"":127},{""stimulus"":""img/red_lw/3.jpg"",""time"":192},{""stimulus"":""img/red_lw/4.jpg"",""time"":253},{""stimulus"":""img/red_lw/5.jpg"",""time"":314},{""stimulus"":""img/red_lw/6.jpg"",""time"":377},{""stimulus"":""img/red_lw/7.jpg"",""time"":439},{""stimulus"":""img/red_lw/8.jpg"",""time"":501},{""stimulus"":""img/red_lw/9.jpg"",""time"":564},{""stimulus"":""img/red_lw/10.jpg"",""time"":616},{""stimulus"":""img/red_lw/11.jpg"",""time"":676}]","[]",""
"","","","choice","5e03f8517f08edece67a3137","bdp_lott","Sat Mar 25 2023 16:57:14 GMT-0700 (Pacific Daylight Time)","474550","green","red","image-keyboard-response","53","138696","0.0-5.0-1.24","","494","","img/red_lw/choose11.jpg","1","201","green","0.5","0.5","0.5","l","","",""
"","","","","5e03f8517f08edece67a3137","bdp_lott","Sat Mar 25 2023 16:57:14 GMT-0700 (Pacific Daylight Time)","474550","green","red","animation","54","139424","0.0-5.0-2.24","","","","","","201","","","","","","[{""stimulus"":""img/green_lw/1.jpg"",""time"":61},{""stimulus"":""img/green_lw/2.jpg"",""time"":124},{""stimulus"":""img/green_lw/3.jpg"",""time"":186},{""stimulus"":""img/green_lw/4.jpg"",""time"":246},{""stimulus"":""img/green_lw/5.jpg"",""time"":295},{""stimulus"":""img/green_lw/6.jpg"",""time"":356},{""stimulus"":""img/green_lw/7.jpg"",""time"":418},{""stimulus"":""img/green_lw/8.jpg"",""time"":481},{""stimulus"":""img/green_lw/9.jpg"",""time"":544},{""stimulus"":""img/green_lw/10.jpg"",""time"":603},{""stimulus"":""img/green_lw/11.jpg"",""time"":665}]","[]",""
"","","","choice","5e03f8517f08edece67a3137","bdp_lott","Sat Mar 25 2023 16:57:14 GMT-0700 (Pacific Daylight Time)","474550","green","red","image-keyboard-response","55","140074","0.0-5.0-1.25","","649","","img/green_lw/choose11.jpg","2","200","red","0.5","0.5","0.5","l","","",""
"","","","","5e03f8517f08edece67a3137","bdp_lott","Sat Mar 25 2023 16:57:14 GMT-0700 (Pacific Daylight Time)","474550","green","red","animation","56","140801","0.0-5.0-2.25","","","","","","200","","","","","","[{""stimulus"":""img/red_ll/1.jpg"",""time"":51},{""stimulus"":""img/red_ll/2.jpg"",""time"":115},{""stimulus"":""img/red_ll/3.jpg"",""time"":174},{""stimulus"":""img/red_ll/4.jpg"",""time"":232},{""stimulus"":""img/red_ll/5.jpg"",""time"":297},{""stimulus"":""img/red_ll/6.jpg"",""time"":357},{""stimulus"":""img/red_ll/7.jpg"",""time"":420},{""stimulus"":""img/red_ll/8.jpg"",""time"":482},{""stimulus"":""img/red_ll/9.jpg"",""time"":546},{""stimulus"":""img/red_ll/10.jpg"",""time"":608},{""stimulus"":""img/red_ll/11.jpg"",""time"":666}]","[]",""
"","","","choice","5e03f8517f08edece67a3137","bdp_lott","Sat Mar 25 2023 16:57:14 GMT-0700 (Pacific Daylight Time)","474550","green","red","image-keyboard-response","57","141489","0.0-5.0-1.26","","687","","img/red_ll/choose11.jpg","1","199","green","0.5","0.5","0.5","w","","",""
"","","","","5e03f8517f08edece67a3137","bdp_lott","Sat Mar 25 2023 16:57:14 GMT-0700 (Pacific Daylight Time)","474550","green","red","animation","58","142185","0.0-5.0-2.26","","","","","","199","","","","","","[{""stimulus"":""img/green_wl/1.jpg"",""time"":53},{""stimulus"":""img/green_wl/2.jpg"",""time"":116},{""stimulus"":""img/green_wl/3.jpg"",""time"":179},{""stimulus"":""img/green_wl/4.jpg"",""time"":240},{""stimulus"":""img/green_wl/5.jpg"",""time"":297},{""stimulus"":""img/green_wl/6.jpg"",""time"":349},{""stimulus"":""img/green_wl/7.jpg"",""time"":399},{""stimulus"":""img/green_wl/8.jpg"",""time"":450},{""stimulus"":""img/green_wl/9.jpg"",""time"":512},{""stimulus"":""img/green_wl/10.jpg"",""time"":575},{""stimulus"":""img/green_wl/11.jpg"",""time"":635}]","[]",""
"","","","choice","5e03f8517f08edece67a3137","bdp_lott","Sat Mar 25 2023 16:57:14 GMT-0700 (Pacific Daylight Time)","474550","green","red","image-keyboard-response","59","143179","0.0-5.0-1.27","","993","","img/green_wl/choose11.jpg","2","198","red","0.5","0.5","0.5","w","","",""
"","","","","5e03f8517f08edece67a3137","bdp_lott","Sat Mar 25 2023 16:57:14 GMT-0700 (Pacific Daylight Time)","474550","green","red","animation","60","143906","0.0-5.0-2.27","","","","","","198","","","","","","[{""stimulus"":""img/red_ww/1.jpg"",""time"":52},{""stimulus"":""img/red_ww/2.jpg"",""time"":114},{""stimulus"":""img/red_ww/3.jpg"",""time"":177},{""stimulus"":""img/red_ww/4.jpg"",""time"":237},{""stimulus"":""img/red_ww/5.jpg"",""time"":296},{""stimulus"":""img/red_ww/6.jpg"",""time"":361},{""stimulus"":""img/red_ww/7.jpg"",""time"":421},{""stimulus"":""img/red_ww/8.jpg"",""time"":483},{""stimulus"":""img/red_ww/9.jpg"",""time"":543},{""stimulus"":""img/red_ww/10.jpg"",""time"":607},{""stimulus"":""img/red_ww/11.jpg"",""time"":667}]","[]",""
"","","","choice","5e03f8517f08edece67a3137","bdp_lott","Sat Mar 25 2023 16:57:14 GMT-0700 (Pacific Daylight Time)","474550","green","red","image-keyboard-response","61","145515","0.0-5.0-1.28","","1608","","img/red_ww/choose11.jpg","2","197","red","0.5","0.5","0.5","w","","",""
"","","","","5e03f8517f08edece67a3137","bdp_lott","Sat Mar 25 2023 16:57:14 GMT-0700 (Pacific Daylight Time)","474550","green","red","animation","62","146251","0.0-5.0-2.28","","","","","","197","","","","","","[{""stimulus"":""img/red_ww/1.jpg"",""time"":60},{""stimulus"":""img/red_ww/2.jpg"",""time"":122},{""stimulus"":""img/red_ww/3.jpg"",""time"":178},{""stimulus"":""img/red_ww/4.jpg"",""time"":239},{""stimulus"":""img/red_ww/5.jpg"",""time"":300},{""stimulus"":""img/red_ww/6.jpg"",""time"":363},{""stimulus"":""img/red_ww/7.jpg"",""time"":423},{""stimulus"":""img/red_ww/8.jpg"",""time"":485},{""stimulus"":""img/red_ww/9.jpg"",""time"":545},{""stimulus"":""img/red_ww/10.jpg"",""time"":610},{""stimulus"":""img/red_ww/11.jpg"",""time"":673}]","[]",""
"","","","choice","5e03f8517f08edece67a3137","bdp_lott","Sat Mar 25 2023 16:57:14 GMT-0700 (Pacific Daylight Time)","474550","green","red","image-keyboard-response","63","147639","0.0-5.0-1.29","","1387","","img/red_ww/choose11.jpg","2","196","red","0.5","0.5","0.5","l","","",""
"","","","","5e03f8517f08edece67a3137","bdp_lott","Sat Mar 25 2023 16:57:14 GMT-0700 (Pacific Daylight Time)","474550","green","red","animation","64","148514","0.0-5.0-2.29","","","","","","196","","","","","","[{""stimulus"":""img/red_wl/1.jpg"",""time"":76},{""stimulus"":""img/red_wl/2.jpg"",""time"":123},{""stimulus"":""img/red_wl/3.jpg"",""time"":259},{""stimulus"":""img/red_wl/4.jpg"",""time"":350},{""stimulus"":""img/red_wl/5.jpg"",""time"":413},{""stimulus"":""img/red_wl/6.jpg"",""time"":490},{""stimulus"":""img/red_wl/7.jpg"",""time"":590},{""stimulus"":""img/red_wl/8.jpg"",""time"":653},{""stimulus"":""img/red_wl/9.jpg"",""time"":717},{""stimulus"":""img/red_wl/10.jpg"",""time"":772},{""stimulus"":""img/red_wl/11.jpg"",""time"":825}]","[]",""
"","","","choice","5e03f8517f08edece67a3137","bdp_lott","Sat Mar 25 2023 16:57:14 GMT-0700 (Pacific Daylight Time)","474550","green","red","image-keyboard-response","65","149560","0.0-5.0-1.30","","1045","","img/red_wl/choose11.jpg","1","195","green","0.5","0.5","0.5","w","","",""
"","","","","5e03f8517f08edece67a3137","bdp_lott","Sat Mar 25 2023 16:57:14 GMT-0700 (Pacific Daylight Time)","474550","green","red","animation","66","150292","0.0-5.0-2.30","","","","","","195","","","","","","[{""stimulus"":""img/green_wl/1.jpg"",""time"":62},{""stimulus"":""img/green_wl/2.jpg"",""time"":128},{""stimulus"":""img/green_wl/3.jpg"",""time"":190},{""stimulus"":""img/green_wl/4.jpg"",""time"":253},{""stimulus"":""img/green_wl/5.jpg"",""time"":316},{""stimulus"":""img/green_wl/6.jpg"",""time"":374},{""stimulus"":""img/green_wl/7.jpg"",""time"":438},{""stimulus"":""img/green_wl/8.jpg"",""time"":487},{""stimulus"":""img/green_wl/9.jpg"",""time"":548},{""stimulus"":""img/green_wl/10.jpg"",""time"":611},{""stimulus"":""img/green_wl/11.jpg"",""time"":673}]","[]",""
"","","","choice","5e03f8517f08edece67a3137","bdp_lott","Sat Mar 25 2023 16:57:14 GMT-0700 (Pacific Daylight Time)","474550","green","red","image-keyboard-response","67","151047","0.0-5.0-1.31","","754","","img/green_wl/choose11.jpg","2","194","red","0.5","0.5","0.5","l","","",""
"","","","","5e03f8517f08edece67a3137","bdp_lott","Sat Mar 25 2023 16:57:14 GMT-0700 (Pacific Daylight Time)","474550","green","red","animation","68","151766","0.0-5.0-2.31","","","","","","194","","","","","","[{""stimulus"":""img/red_wl/1.jpg"",""time"":58},{""stimulus"":""img/red_wl/2.jpg"",""time"":116},{""stimulus"":""img/red_wl/3.jpg"",""time"":168},{""stimulus"":""img/red_wl/4.jpg"",""time"":230},{""stimulus"":""img/red_wl/5.jpg"",""time"":290},{""stimulus"":""img/red_wl/6.jpg"",""time"":354},{""stimulus"":""img/red_wl/7.jpg"",""time"":415},{""stimulus"":""img/red_wl/8.jpg"",""time"":476},{""stimulus"":""img/red_wl/9.jpg"",""time"":535},{""stimulus"":""img/red_wl/10.jpg"",""time"":597},{""stimulus"":""img/red_wl/11.jpg"",""time"":661}]","[]",""
"","","","choice","5e03f8517f08edece67a3137","bdp_lott","Sat Mar 25 2023 16:57:14 GMT-0700 (Pacific Daylight Time)","474550","green","red","image-keyboard-response","69","152331","0.0-5.0-1.32","","564","","img/red_wl/choose11.jpg","2","193","red","0.5","0.5","0.5","l","","",""
"","","","","5e03f8517f08edece67a3137","bdp_lott","Sat Mar 25 2023 16:57:14 GMT-0700 (Pacific Daylight Time)","474550","green","red","animation","70","153058","0.0-5.0-2.32","","","","","","193","","","","","","[{""stimulus"":""img/red_wl/1.jpg"",""time"":62},{""stimulus"":""img/red_wl/2.jpg"",""time"":124},{""stimulus"":""img/red_wl/3.jpg"",""time"":184},{""stimulus"":""img/red_wl/4.jpg"",""time"":244},{""stimulus"":""img/red_wl/5.jpg"",""time"":307},{""stimulus"":""img/red_wl/6.jpg"",""time"":370},{""stimulus"":""img/red_wl/7.jpg"",""time"":430},{""stimulus"":""img/red_wl/8.jpg"",""time"":494},{""stimulus"":""img/red_wl/9.jpg"",""time"":556},{""stimulus"":""img/red_wl/10.jpg"",""time"":617},{""stimulus"":""img/red_wl/11.jpg"",""time"":667}]","[]",""
"","","","choice","5e03f8517f08edece67a3137","bdp_lott","Sat Mar 25 2023 16:57:14 GMT-0700 (Pacific Daylight Time)","474550","green","red","image-keyboard-response","71","154110","0.0-5.0-1.33","","1051","","img/red_wl/choose11.jpg","2","192","red","0.5","0.5","0.5","l","","",""
"","","","","5e03f8517f08edece67a3137","bdp_lott","Sat Mar 25 2023 16:57:14 GMT-0700 (Pacific Daylight Time)","474550","green","red","animation","72","154841","0.0-5.0-2.33","","","","","","192","","","","","","[{""stimulus"":""img/red_wl/1.jpg"",""time"":69},{""stimulus"":""img/red_wl/2.jpg"",""time"":131},{""stimulus"":""img/red_wl/3.jpg"",""time"":182},{""stimulus"":""img/red_wl/4.jpg"",""time"":244},{""stimulus"":""img/red_wl/5.jpg"",""time"":307},{""stimulus"":""img/red_wl/6.jpg"",""time"":369},{""stimulus"":""img/red_wl/7.jpg"",""time"":433},{""stimulus"":""img/red_wl/8.jpg"",""time"":497},{""stimulus"":""img/red_wl/9.jpg"",""time"":560},{""stimulus"":""img/red_wl/10.jpg"",""time"":611},{""stimulus"":""img/red_wl/11.jpg"",""time"":671}]","[]",""
"","","","choice","5e03f8517f08edece67a3137","bdp_lott","Sat Mar 25 2023 16:57:14 GMT-0700 (Pacific Daylight Time)","474550","green","red","image-keyboard-response","73","155273","0.0-5.0-1.34","","430","","img/red_wl/choose11.jpg","1","191","green","0.5","0.5","0.5","w","","",""
"","","","","5e03f8517f08edece67a3137","bdp_lott","Sat Mar 25 2023 16:57:14 GMT-0700 (Pacific Daylight Time)","474550","green","red","animation","74","156020","0.0-5.0-2.34","","","","","","191","","","","","","[{""stimulus"":""img/green_wl/1.jpg"",""time"":68},{""stimulus"":""img/green_wl/2.jpg"",""time"":125},{""stimulus"":""img/green_wl/3.jpg"",""time"":189},{""stimulus"":""img/green_wl/4.jpg"",""time"":253},{""stimulus"":""img/green_wl/5.jpg"",""time"":314},{""stimulus"":""img/green_wl/6.jpg"",""time"":378},{""stimulus"":""img/green_wl/7.jpg"",""time"":437},{""stimulus"":""img/green_wl/8.jpg"",""time"":500},{""stimulus"":""img/green_wl/9.jpg"",""time"":560},{""stimulus"":""img/green_wl/10.jpg"",""time"":624},{""stimulus"":""img/green_wl/11.jpg"",""time"":688}]","[]",""
"","","","choice","5e03f8517f08edece67a3137","bdp_lott","Sat Mar 25 2023 16:57:14 GMT-0700 (Pacific Daylight Time)","474550","green","red","image-keyboard-response","75","156471","0.0-5.0-1.35","","449","","img/green_wl/choose11.jpg","2","190","red","0.5","0.5","0.5","l","","",""
"","","","","5e03f8517f08edece67a3137","bdp_lott","Sat Mar 25 2023 16:57:14 GMT-0700 (Pacific Daylight Time)","474550","green","red","animation","76","157190","0.0-5.0-2.35","","","","","","190","","","","","","[{""stimulus"":""img/red_wl/1.jpg"",""time"":51},{""stimulus"":""img/red_wl/2.jpg"",""time"":111},{""stimulus"":""img/red_wl/3.jpg"",""time"":173},{""stimulus"":""img/red_wl/4.jpg"",""time"":234},{""stimulus"":""img/red_wl/5.jpg"",""time"":299},{""stimulus"":""img/red_wl/6.jpg"",""time"":358},{""stimulus"":""img/red_wl/7.jpg"",""time"":420},{""stimulus"":""img/red_wl/8.jpg"",""time"":469},{""stimulus"":""img/red_wl/9.jpg"",""time"":533},{""stimulus"":""img/red_wl/10.jpg"",""time"":591},{""stimulus"":""img/red_wl/11.jpg"",""time"":655}]","[]",""
"","","","choice","5e03f8517f08edece67a3137","bdp_lott","Sat Mar 25 2023 16:57:14 GMT-0700 (Pacific Daylight Time)","474550","green","red","image-keyboard-response","77","157689","0.0-5.0-1.36","","497","","img/red_wl/choose11.jpg","2","189","red","0.5","0.5","0.5","l","","",""
"","","","","5e03f8517f08edece67a3137","bdp_lott","Sat Mar 25 2023 16:57:14 GMT-0700 (Pacific Daylight Time)","474550","green","red","animation","78","158400","0.0-5.0-2.36","","","","","","189","","","","","","[{""stimulus"":""img/red_wl/1.jpg"",""time"":55},{""stimulus"":""img/red_wl/2.jpg"",""time"":120},{""stimulus"":""img/red_wl/3.jpg"",""time"":177},{""stimulus"":""img/red_wl/4.jpg"",""time"":239},{""stimulus"":""img/red_wl/5.jpg"",""time"":301},{""stimulus"":""img/red_wl/6.jpg"",""time"":362},{""stimulus"":""img/red_wl/7.jpg"",""time"":419},{""stimulus"":""img/red_wl/8.jpg"",""time"":469},{""stimulus"":""img/red_wl/9.jpg"",""time"":528},{""stimulus"":""img/red_wl/10.jpg"",""time"":587},{""stimulus"":""img/red_wl/11.jpg"",""time"":652}]","[]",""
"","","","choice","5e03f8517f08edece67a3137","bdp_lott","Sat Mar 25 2023 16:57:14 GMT-0700 (Pacific Daylight Time)","474550","green","red","image-keyboard-response","79","158687","0.0-5.0-1.37","","286","","img/red_wl/choose11.jpg","2","188","red","0.5","0.5","0.5","l","","",""
"","","","","5e03f8517f08edece67a3137","bdp_lott","Sat Mar 25 2023 16:57:14 GMT-0700 (Pacific Daylight Time)","474550","green","red","animation","80","159423","0.0-5.0-2.37","","","","","","188","","","","","","[{""stimulus"":""img/red_wl/1.jpg"",""time"":52},{""stimulus"":""img/red_wl/2.jpg"",""time"":117},{""stimulus"":""img/red_wl/3.jpg"",""time"":194},{""stimulus"":""img/red_wl/4.jpg"",""time"":254},{""stimulus"":""img/red_wl/5.jpg"",""time"":317},{""stimulus"":""img/red_wl/6.jpg"",""time"":380},{""stimulus"":""img/red_wl/7.jpg"",""time"":439},{""stimulus"":""img/red_wl/8.jpg"",""time"":502},{""stimulus"":""img/red_wl/9.jpg"",""time"":554},{""stimulus"":""img/red_wl/10.jpg"",""time"":616},{""stimulus"":""img/red_wl/11.jpg"",""time"":677}]","[]",""
"","","","choice","5e03f8517f08edece67a3137","bdp_lott","Sat Mar 25 2023 16:57:14 GMT-0700 (Pacific Daylight Time)","474550","green","red","image-keyboard-response","81","159737","0.0-5.0-1.38","","312","","img/red_wl/choose11.jpg","1","187","green","0.5","0.5","0.5","l","","",""
"","","","","5e03f8517f08edece67a3137","bdp_lott","Sat Mar 25 2023 16:57:14 GMT-0700 (Pacific Daylight Time)","474550","green","red","animation","82","160481","0.0-5.0-2.38","","","","","","187","","","","","","[{""stimulus"":""img/green_ll/1.jpg"",""time"":59},{""stimulus"":""img/green_ll/2.jpg"",""time"":121},{""stimulus"":""img/green_ll/3.jpg"",""time"":185},{""stimulus"":""img/green_ll/4.jpg"",""time"":245},{""stimulus"":""img/green_ll/5.jpg"",""time"":307},{""stimulus"":""img/green_ll/6.jpg"",""time"":370},{""stimulus"":""img/green_ll/7.jpg"",""time"":434},{""stimulus"":""img/green_ll/8.jpg"",""time"":500},{""stimulus"":""img/green_ll/9.jpg"",""time"":559},{""stimulus"":""img/green_ll/10.jpg"",""time"":621},{""stimulus"":""img/green_ll/11.jpg"",""time"":693}]","[]",""
"","","","choice","5e03f8517f08edece67a3137","bdp_lott","Sat Mar 25 2023 16:57:14 GMT-0700 (Pacific Daylight Time)","474550","green","red","image-keyboard-response","83","161607","0.0-5.0-1.39","","1126","","img/green_ll/choose11.jpg","1","186","green","0.5","0.5","0.5","l","","",""
"","","","","5e03f8517f08edece67a3137","bdp_lott","Sat Mar 25 2023 16:57:14 GMT-0700 (Pacific Daylight Time)","474550","green","red","animation","84","162328","0.0-5.0-2.39","","","","","","186","","","","","","[{""stimulus"":""img/green_ll/1.jpg"",""time"":57},{""stimulus"":""img/green_ll/2.jpg"",""time"":120},{""stimulus"":""img/green_ll/3.jpg"",""time"":182},{""stimulus"":""img/green_ll/4.jpg"",""time"":245},{""stimulus"":""img/green_ll/5.jpg"",""time"":305},{""stimulus"":""img/green_ll/6.jpg"",""time"":367},{""stimulus"":""img/green_ll/7.jpg"",""time"":420},{""stimulus"":""img/green_ll/8.jpg"",""time"":485},{""stimulus"":""img/green_ll/9.jpg"",""time"":536},{""stimulus"":""img/green_ll/10.jpg"",""time"":595},{""stimulus"":""img/green_ll/11.jpg"",""time"":659}]","[]",""
"","","","choice","5e03f8517f08edece67a3137","bdp_lott","Sat Mar 25 2023 16:57:14 GMT-0700 (Pacific Daylight Time)","474550","green","red","image-keyboard-response","85","162970","0.0-5.0-1.40","","641","","img/green_ll/choose11.jpg","1","185","green","0.5","0.5","0.5","l","","",""
"","","","","5e03f8517f08edece67a3137","bdp_lott","Sat Mar 25 2023 16:57:14 GMT-0700 (Pacific Daylight Time)","474550","green","red","animation","86","163695","0.0-5.0-2.40","","","","","","185","","","","","","[{""stimulus"":""img/green_ll/1.jpg"",""time"":58},{""stimulus"":""img/green_ll/2.jpg"",""time"":118},{""stimulus"":""img/green_ll/3.jpg"",""time"":180},{""stimulus"":""img/green_ll/4.jpg"",""time"":241},{""stimulus"":""img/green_ll/5.jpg"",""time"":300},{""stimulus"":""img/green_ll/6.jpg"",""time"":360},{""stimulus"":""img/green_ll/7.jpg"",""time"":423},{""stimulus"":""img/green_ll/8.jpg"",""time"":484},{""stimulus"":""img/green_ll/9.jpg"",""time"":543},{""stimulus"":""img/green_ll/10.jpg"",""time"":603},{""stimulus"":""img/green_ll/11.jpg"",""time"":666}]","[]",""
"","","","choice","5e03f8517f08edece67a3137","bdp_lott","Sat Mar 25 2023 16:57:14 GMT-0700 (Pacific Daylight Time)","474550","green","red","image-keyboard-response","87","164545","0.0-5.0-1.41","","849","","img/green_ll/choose11.jpg","2","184","red","0.5","0.5","0.5","l","","",""
"","","","","5e03f8517f08edece67a3137","bdp_lott","Sat Mar 25 2023 16:57:14 GMT-0700 (Pacific Daylight Time)","474550","green","red","animation","88","165250","0.0-5.0-2.41","","","","","","184","","","","","","[{""stimulus"":""img/red_ll/1.jpg"",""time"":59},{""stimulus"":""img/red_ll/2.jpg"",""time"":122},{""stimulus"":""img/red_ll/3.jpg"",""time"":185},{""stimulus"":""img/red_ll/4.jpg"",""time"":245},{""stimulus"":""img/red_ll/5.jpg"",""time"":309},{""stimulus"":""img/red_ll/6.jpg"",""time"":373},{""stimulus"":""img/red_ll/7.jpg"",""time"":433},{""stimulus"":""img/red_ll/8.jpg"",""time"":482},{""stimulus"":""img/red_ll/9.jpg"",""time"":535},{""stimulus"":""img/red_ll/10.jpg"",""time"":585},{""stimulus"":""img/red_ll/11.jpg"",""time"":645}]","[]",""
"","","","choice","5e03f8517f08edece67a3137","bdp_lott","Sat Mar 25 2023 16:57:14 GMT-0700 (Pacific Daylight Time)","474550","green","red","image-keyboard-response","89","166055","0.0-5.0-1.42","","804","","img/red_ll/choose11.jpg","2","183","red","0.5","0.5","0.5","w","","",""
"","","","","5e03f8517f08edece67a3137","bdp_lott","Sat Mar 25 2023 16:57:14 GMT-0700 (Pacific Daylight Time)","474550","green","red","animation","90","166787","0.0-5.0-2.42","","","","","","183","","","","","","[{""stimulus"":""img/red_lw/1.jpg"",""time"":65},{""stimulus"":""img/red_lw/2.jpg"",""time"":123},{""stimulus"":""img/red_lw/3.jpg"",""time"":186},{""stimulus"":""img/red_lw/4.jpg"",""time"":246},{""stimulus"":""img/red_lw/5.jpg"",""time"":308},{""stimulus"":""img/red_lw/6.jpg"",""time"":368},{""stimulus"":""img/red_lw/7.jpg"",""time"":420},{""stimulus"":""img/red_lw/8.jpg"",""time"":484},{""stimulus"":""img/red_lw/9.jpg"",""time"":546},{""stimulus"":""img/red_lw/10.jpg"",""time"":609},{""stimulus"":""img/red_lw/11.jpg"",""time"":672}]","[]",""
"","","","choice","5e03f8517f08edece67a3137","bdp_lott","Sat Mar 25 2023 16:57:14 GMT-0700 (Pacific Daylight Time)","474550","green","red","image-keyboard-response","91","167650","0.0-5.0-1.43","","863","","img/red_lw/choose11.jpg","2","182","red","0.5","0.5","0.5","w","","",""
"","","","","5e03f8517f08edece67a3137","bdp_lott","Sat Mar 25 2023 16:57:14 GMT-0700 (Pacific Daylight Time)","474550","green","red","animation","92","168370","0.0-5.0-2.43","","","","","","182","","","","","","[{""stimulus"":""img/red_lw/1.jpg"",""time"":66},{""stimulus"":""img/red_lw/2.jpg"",""time"":116},{""stimulus"":""img/red_lw/3.jpg"",""time"":178},{""stimulus"":""img/red_lw/4.jpg"",""time"":241},{""stimulus"":""img/red_lw/5.jpg"",""time"":304},{""stimulus"":""img/red_lw/6.jpg"",""time"":366},{""stimulus"":""img/red_lw/7.jpg"",""time"":426},{""stimulus"":""img/red_lw/8.jpg"",""time"":489},{""stimulus"":""img/red_lw/9.jpg"",""time"":548},{""stimulus"":""img/red_lw/10.jpg"",""time"":611},{""stimulus"":""img/red_lw/11.jpg"",""time"":661}]","[]",""
"","","","choice","5e03f8517f08edece67a3137","bdp_lott","Sat Mar 25 2023 16:57:14 GMT-0700 (Pacific Daylight Time)","474550","green","red","image-keyboard-response","93","169608","0.0-5.0-1.44","","1237","","img/red_lw/choose11.jpg","1","181","green","0.5","0.5","0.5","w","","",""
"","","","","5e03f8517f08edece67a3137","bdp_lott","Sat Mar 25 2023 16:57:14 GMT-0700 (Pacific Daylight Time)","474550","green","red","animation","94","170362","0.0-5.0-2.44","","","","","","181","","","","","","[{""stimulus"":""img/green_ww/1.jpg"",""time"":56},{""stimulus"":""img/green_ww/2.jpg"",""time"":118},{""stimulus"":""img/green_ww/3.jpg"",""time"":182},{""stimulus"":""img/green_ww/4.jpg"",""time"":244},{""stimulus"":""img/green_ww/5.jpg"",""time"":308},{""stimulus"":""img/green_ww/6.jpg"",""time"":371},{""stimulus"":""img/green_ww/7.jpg"",""time"":433},{""stimulus"":""img/green_ww/8.jpg"",""time"":503},{""stimulus"":""img/green_ww/9.jpg"",""time"":574},{""stimulus"":""img/green_ww/10.jpg"",""time"":634},{""stimulus"":""img/green_ww/11.jpg"",""time"":688}]","[]",""
"","","","choice","5e03f8517f08edece67a3137","bdp_lott","Sat Mar 25 2023 16:57:14 GMT-0700 (Pacific Daylight Time)","474550","green","red","image-keyboard-response","95","171768","0.0-5.0-1.45","","1403","","img/green_ww/choose11.jpg","1","180","green","0.5","0.5","0.5","l","","",""
"","","","","5e03f8517f08edece67a3137","bdp_lott","Sat Mar 25 2023 16:57:14 GMT-0700 (Pacific Daylight Time)","474550","green","red","animation","96","172485","0.0-5.0-2.45","","","","","","180","","","","","","[{""stimulus"":""img/green_lw/1.jpg"",""time"":52},{""stimulus"":""img/green_lw/2.jpg"",""time"":114},{""stimulus"":""img/green_lw/3.jpg"",""time"":173},{""stimulus"":""img/green_lw/4.jpg"",""time"":239},{""stimulus"":""img/green_lw/5.jpg"",""time"":296},{""stimulus"":""img/green_lw/6.jpg"",""time"":358},{""stimulus"":""img/green_lw/7.jpg"",""time"":418},{""stimulus"":""img/green_lw/8.jpg"",""time"":472},{""stimulus"":""img/green_lw/9.jpg"",""time"":533},{""stimulus"":""img/green_lw/10.jpg"",""time"":593},{""stimulus"":""img/green_lw/11.jpg"",""time"":653}]","[]",""
"","","","choice","5e03f8517f08edece67a3137","bdp_lott","Sat Mar 25 2023 16:57:14 GMT-0700 (Pacific Daylight Time)","474550","green","red","image-keyboard-response","97","173183","0.0-5.0-1.46","","695","","img/green_lw/choose11.jpg","2","179","red","0.5","0.5","0.5","l","","",""
"","","","","5e03f8517f08edece67a3137","bdp_lott","Sat Mar 25 2023 16:57:14 GMT-0700 (Pacific Daylight Time)","474550","green","red","animation","98","174011","0.0-5.0-2.46","","","","","","179","","","","","","[{""stimulus"":""img/red_ll/1.jpg"",""time"":60},{""stimulus"":""img/red_ll/2.jpg"",""time"":117},{""stimulus"":""img/red_ll/3.jpg"",""time"":209},{""stimulus"":""img/red_ll/4.jpg"",""time"":281},{""stimulus"":""img/red_ll/5.jpg"",""time"":377},{""stimulus"":""img/red_ll/6.jpg"",""time"":464},{""stimulus"":""img/red_ll/7.jpg"",""time"":532},{""stimulus"":""img/red_ll/8.jpg"",""time"":586},{""stimulus"":""img/red_ll/9.jpg"",""time"":650},{""stimulus"":""img/red_ll/10.jpg"",""time"":698},{""stimulus"":""img/red_ll/11.jpg"",""time"":764}]","[]",""
"","","","choice","5e03f8517f08edece67a3137","bdp_lott","Sat Mar 25 2023 16:57:14 GMT-0700 (Pacific Daylight Time)","474550","green","red","image-keyboard-response","99","174473","0.0-5.0-1.47","","458","","img/red_ll/choose11.jpg","1","178","green","0.5","0.5","0.5","l","","",""
"","","","","5e03f8517f08edece67a3137","bdp_lott","Sat Mar 25 2023 16:57:14 GMT-0700 (Pacific Daylight Time)","474550","green","red","animation","100","175184","0.0-5.0-2.47","","","","","","178","","","","","","[{""stimulus"":""img/green_ll/1.jpg"",""time"":65},{""stimulus"":""img/green_ll/2.jpg"",""time"":126},{""stimulus"":""img/green_ll/3.jpg"",""time"":186},{""stimulus"":""img/green_ll/4.jpg"",""time"":250},{""stimulus"":""img/green_ll/5.jpg"",""time"":299},{""stimulus"":""img/green_ll/6.jpg"",""time"":352},{""stimulus"":""img/green_ll/7.jpg"",""time"":415},{""stimulus"":""img/green_ll/8.jpg"",""time"":479},{""stimulus"":""img/green_ll/9.jpg"",""time"":538},{""stimulus"":""img/green_ll/10.jpg"",""time"":598},{""stimulus"":""img/green_ll/11.jpg"",""time"":649}]","[]",""
"","","","choice","5e03f8517f08edece67a3137","bdp_lott","Sat Mar 25 2023 16:57:14 GMT-0700 (Pacific Daylight Time)","474550","green","red","image-keyboard-response","101","176158","0.0-5.0-1.48","","973","","img/green_ll/choose11.jpg","1","177","green","0.5","0.5","0.5","l","","",""
"","","","","5e03f8517f08edece67a3137","bdp_lott","Sat Mar 25 2023 16:57:14 GMT-0700 (Pacific Daylight Time)","474550","green","red","animation","102","176876","0.0-5.0-2.48","","","","","","177","","","","","","[{""stimulus"":""img/green_ll/1.jpg"",""time"":65},{""stimulus"":""img/green_ll/2.jpg"",""time"":122},{""stimulus"":""img/green_ll/3.jpg"",""time"":183},{""stimulus"":""img/green_ll/4.jpg"",""time"":247},{""stimulus"":""img/green_ll/5.jpg"",""time"":308},{""stimulus"":""img/green_ll/6.jpg"",""time"":371},{""stimulus"":""img/green_ll/7.jpg"",""time"":420},{""stimulus"":""img/green_ll/8.jpg"",""time"":483},{""stimulus"":""img/green_ll/9.jpg"",""time"":545},{""stimulus"":""img/green_ll/10.jpg"",""time"":598},{""stimulus"":""img/green_ll/11.jpg"",""time"":658}]","[]",""
"","","","choice","5e03f8517f08edece67a3137","bdp_lott","Sat Mar 25 2023 16:57:14 GMT-0700 (Pacific Daylight Time)","474550","green","red","image-keyboard-response","103","178120","0.0-5.0-1.49","","1242","","img/green_ll/choose11.jpg","1","176","green","0.5","0.5","0.5","w","","",""
"","","","","5e03f8517f08edece67a3137","bdp_lott","Sat Mar 25 2023 16:57:14 GMT-0700 (Pacific Daylight Time)","474550","green","red","animation","104","178841","0.0-5.0-2.49","","","","","","176","","","","","","[{""stimulus"":""img/green_wl/1.jpg"",""time"":51},{""stimulus"":""img/green_wl/2.jpg"",""time"":112},{""stimulus"":""img/green_wl/3.jpg"",""time"":173},{""stimulus"":""img/green_wl/4.jpg"",""time"":235},{""stimulus"":""img/green_wl/5.jpg"",""time"":298},{""stimulus"":""img/green_wl/6.jpg"",""time"":360},{""stimulus"":""img/green_wl/7.jpg"",""time"":421},{""stimulus"":""img/green_wl/8.jpg"",""time"":484},{""stimulus"":""img/green_wl/9.jpg"",""time"":546},{""stimulus"":""img/green_wl/10.jpg"",""time"":609},{""stimulus"":""img/green_wl/11.jpg"",""time"":669}]","[]",""
"","","","choice","5e03f8517f08edece67a3137","bdp_lott","Sat Mar 25 2023 16:57:14 GMT-0700 (Pacific Daylight Time)","474550","green","red","image-keyboard-response","105","179755","0.0-5.0-1.50","","913","","img/green_wl/choose11.jpg","2","175","red","0.5","0.5","0.5","w","","",""
"","","","","5e03f8517f08edece67a3137","bdp_lott","Sat Mar 25 2023 16:57:14 GMT-0700 (Pacific Daylight Time)","474550","green","red","animation","106","180465","0.0-5.0-2.50","","","","","","175","","","","","","[{""stimulus"":""img/red_ww/1.jpg"",""time"":65},{""stimulus"":""img/red_ww/2.jpg"",""time"":116},{""stimulus"":""img/red_ww/3.jpg"",""time"":176},{""stimulus"":""img/red_ww/4.jpg"",""time"":226},{""stimulus"":""img/red_ww/5.jpg"",""time"":289},{""stimulus"":""img/red_ww/6.jpg"",""time"":349},{""stimulus"":""img/red_ww/7.jpg"",""time"":411},{""stimulus"":""img/red_ww/8.jpg"",""time"":472},{""stimulus"":""img/red_ww/9.jpg"",""time"":521},{""stimulus"":""img/red_ww/10.jpg"",""time"":584},{""stimulus"":""img/red_ww/11.jpg"",""time"":647}]","[]",""
"","","","choice","5e03f8517f08edece67a3137","bdp_lott","Sat Mar 25 2023 16:57:14 GMT-0700 (Pacific Daylight Time)","474550","green","red","image-keyboard-response","107","181334","0.0-5.0-1.51","","869","","img/red_ww/choose11.jpg","1","174","green","0.5","0.5","0.5","w","","",""
"","","","","5e03f8517f08edece67a3137","bdp_lott","Sat Mar 25 2023 16:57:14 GMT-0700 (Pacific Daylight Time)","474550","green","red","animation","108","182047","0.0-5.0-2.51","","","","","","174","","","","","","[{""stimulus"":""img/green_ww/1.jpg"",""time"":58},{""stimulus"":""img/green_ww/2.jpg"",""time"":118},{""stimulus"":""img/green_ww/3.jpg"",""time"":168},{""stimulus"":""img/green_ww/4.jpg"",""time"":230},{""stimulus"":""img/green_ww/5.jpg"",""time"":281},{""stimulus"":""img/green_ww/6.jpg"",""time"":343},{""stimulus"":""img/green_ww/7.jpg"",""time"":405},{""stimulus"":""img/green_ww/8.jpg"",""time"":465},{""stimulus"":""img/green_ww/9.jpg"",""time"":528},{""stimulus"":""img/green_ww/10.jpg"",""time"":588},{""stimulus"":""img/green_ww/11.jpg"",""time"":650}]","[]",""
"","","","choice","5e03f8517f08edece67a3137","bdp_lott","Sat Mar 25 2023 16:57:14 GMT-0700 (Pacific Daylight Time)","474550","green","red","image-keyboard-response","109","183002","0.0-5.0-1.52","","954","","img/green_ww/choose11.jpg","2","173","red","0.5","0.5","0.5","l","","",""
"","","","","5e03f8517f08edece67a3137","bdp_lott","Sat Mar 25 2023 16:57:14 GMT-0700 (Pacific Daylight Time)","474550","green","red","animation","110","183739","0.0-5.0-2.52","","","","","","173","","","","","","[{""stimulus"":""img/red_wl/1.jpg"",""time"":58},{""stimulus"":""img/red_wl/2.jpg"",""time"":123},{""stimulus"":""img/red_wl/3.jpg"",""time"":186},{""stimulus"":""img/red_wl/4.jpg"",""time"":250},{""stimulus"":""img/red_wl/5.jpg"",""time"":311},{""stimulus"":""img/red_wl/6.jpg"",""time"":374},{""stimulus"":""img/red_wl/7.jpg"",""time"":434},{""stimulus"":""img/red_wl/8.jpg"",""time"":494},{""stimulus"":""img/red_wl/9.jpg"",""time"":553},{""stimulus"":""img/red_wl/10.jpg"",""time"":617},{""stimulus"":""img/red_wl/11.jpg"",""time"":676}]","[]",""
"","","","choice","5e03f8517f08edece67a3137","bdp_lott","Sat Mar 25 2023 16:57:14 GMT-0700 (Pacific Daylight Time)","474550","green","red","image-keyboard-response","111","184457","0.0-5.0-1.53","","718","","img/red_wl/choose11.jpg","1","172","green","0.5","0.5","0.5","l","","",""
"","","","","5e03f8517f08edece67a3137","bdp_lott","Sat Mar 25 2023 16:57:14 GMT-0700 (Pacific Daylight Time)","474550","green","red","animation","112","185184","0.0-5.0-2.53","","","","","","172","","","","","","[{""stimulus"":""img/green_ll/1.jpg"",""time"":52},{""stimulus"":""img/green_ll/2.jpg"",""time"":115},{""stimulus"":""img/green_ll/3.jpg"",""time"":175},{""stimulus"":""img/green_ll/4.jpg"",""time"":237},{""stimulus"":""img/green_ll/5.jpg"",""time"":300},{""stimulus"":""img/green_ll/6.jpg"",""time"":360},{""stimulus"":""img/green_ll/7.jpg"",""time"":420},{""stimulus"":""img/green_ll/8.jpg"",""time"":480},{""stimulus"":""img/green_ll/9.jpg"",""time"":543},{""stimulus"":""img/green_ll/10.jpg"",""time"":604},{""stimulus"":""img/green_ll/11.jpg"",""time"":665}]","[]",""
"","","","choice","5e03f8517f08edece67a3137","bdp_lott","Sat Mar 25 2023 16:57:14 GMT-0700 (Pacific Daylight Time)","474550","green","red","image-keyboard-response","113","185672","0.0-5.0-1.54","","487","","img/green_ll/choose11.jpg","1","171","green","0.5","0.5","0.5","l","","",""
"","","","","5e03f8517f08edece67a3137","bdp_lott","Sat Mar 25 2023 16:57:14 GMT-0700 (Pacific Daylight Time)","474550","green","red","animation","114","186390","0.0-5.0-2.54","","","","","","171","","","","","","[{""stimulus"":""img/green_ll/1.jpg"",""time"":52},{""stimulus"":""img/green_ll/2.jpg"",""time"":113},{""stimulus"":""img/green_ll/3.jpg"",""time"":164},{""stimulus"":""img/green_ll/4.jpg"",""time"":222},{""stimulus"":""img/green_ll/5.jpg"",""time"":286},{""stimulus"":""img/green_ll/6.jpg"",""time"":350},{""stimulus"":""img/green_ll/7.jpg"",""time"":413},{""stimulus"":""img/green_ll/8.jpg"",""time"":471},{""stimulus"":""img/green_ll/9.jpg"",""time"":535},{""stimulus"":""img/green_ll/10.jpg"",""time"":599},{""stimulus"":""img/green_ll/11.jpg"",""time"":657}]","[]",""
"","","","choice","5e03f8517f08edece67a3137","bdp_lott","Sat Mar 25 2023 16:57:14 GMT-0700 (Pacific Daylight Time)","474550","green","red","image-keyboard-response","115","186816","0.0-5.0-1.55","","425","","img/green_ll/choose11.jpg","1","170","green","0.5","0.5","0.5","w","","",""
"","","","","5e03f8517f08edece67a3137","bdp_lott","Sat Mar 25 2023 16:57:14 GMT-0700 (Pacific Daylight Time)","474550","green","red","animation","116","187527","0.0-5.0-2.55","","","","","","170","","","","","","[{""stimulus"":""img/green_wl/1.jpg"",""time"":66},{""stimulus"":""img/green_wl/2.jpg"",""time"":125},{""stimulus"":""img/green_wl/3.jpg"",""time"":186},{""stimulus"":""img/green_wl/4.jpg"",""time"":236},{""stimulus"":""img/green_wl/5.jpg"",""time"":295},{""stimulus"":""img/green_wl/6.jpg"",""time"":355},{""stimulus"":""img/green_wl/7.jpg"",""time"":405},{""stimulus"":""img/green_wl/8.jpg"",""time"":465},{""stimulus"":""img/green_wl/9.jpg"",""time"":528},{""stimulus"":""img/green_wl/10.jpg"",""time"":588},{""stimulus"":""img/green_wl/11.jpg"",""time"":651}]","[]",""
"","","","choice","5e03f8517f08edece67a3137","bdp_lott","Sat Mar 25 2023 16:57:14 GMT-0700 (Pacific Daylight Time)","474550","green","red","image-keyboard-response","117","188068","0.0-5.0-1.56","","539","","img/green_wl/choose11.jpg","1","169","green","0.5","0.5","0.5","w","","",""
"","","","","5e03f8517f08edece67a3137","bdp_lott","Sat Mar 25 2023 16:57:14 GMT-0700 (Pacific Daylight Time)","474550","green","red","animation","118","188783","0.0-5.0-2.56","","","","","","169","","","","","","[{""stimulus"":""img/green_wl/1.jpg"",""time"":64},{""stimulus"":""img/green_wl/2.jpg"",""time"":124},{""stimulus"":""img/green_wl/3.jpg"",""time"":174},{""stimulus"":""img/green_wl/4.jpg"",""time"":224},{""stimulus"":""img/green_wl/5.jpg"",""time"":287},{""stimulus"":""img/green_wl/6.jpg"",""time"":348},{""stimulus"":""img/green_wl/7.jpg"",""time"":408},{""stimulus"":""img/green_wl/8.jpg"",""time"":470},{""stimulus"":""img/green_wl/9.jpg"",""time"":530},{""stimulus"":""img/green_wl/10.jpg"",""time"":593},{""stimulus"":""img/green_wl/11.jpg"",""time"":655}]","[]",""
"","","","choice","5e03f8517f08edece67a3137","bdp_lott","Sat Mar 25 2023 16:57:14 GMT-0700 (Pacific Daylight Time)","474550","green","red","image-keyboard-response","119","189178","0.0-5.0-1.57","","394","","img/green_wl/choose11.jpg","1","168","green","0.5","0.5","0.5","l","","",""
"","","","","5e03f8517f08edece67a3137","bdp_lott","Sat Mar 25 2023 16:57:14 GMT-0700 (Pacific Daylight Time)","474550","green","red","animation","120","189895","0.0-5.0-2.57","","","","","","168","","","","","","[{""stimulus"":""img/green_ll/1.jpg"",""time"":60},{""stimulus"":""img/green_ll/2.jpg"",""time"":119},{""stimulus"":""img/green_ll/3.jpg"",""time"":179},{""stimulus"":""img/green_ll/4.jpg"",""time"":243},{""stimulus"":""img/green_ll/5.jpg"",""time"":304},{""stimulus"":""img/green_ll/6.jpg"",""time"":354},{""stimulus"":""img/green_ll/7.jpg"",""time"":417},{""stimulus"":""img/green_ll/8.jpg"",""time"":480},{""stimulus"":""img/green_ll/9.jpg"",""time"":542},{""stimulus"":""img/green_ll/10.jpg"",""time"":605},{""stimulus"":""img/green_ll/11.jpg"",""time"":666}]","[]",""
"","","","choice","5e03f8517f08edece67a3137","bdp_lott","Sat Mar 25 2023 16:57:14 GMT-0700 (Pacific Daylight Time)","474550","green","red","image-keyboard-response","121","190305","0.0-5.0-1.58","","409","","img/green_ll/choose11.jpg","1","167","green","0.5","0.5","0.5","w","","",""
"","","","","5e03f8517f08edece67a3137","bdp_lott","Sat Mar 25 2023 16:57:14 GMT-0700 (Pacific Daylight Time)","474550","green","red","animation","122","191024","0.0-5.0-2.58","","","","","","167","","","","","","[{""stimulus"":""img/green_wl/1.jpg"",""time"":51},{""stimulus"":""img/green_wl/2.jpg"",""time"":112},{""stimulus"":""img/green_wl/3.jpg"",""time"":171},{""stimulus"":""img/green_wl/4.jpg"",""time"":234},{""stimulus"":""img/green_wl/5.jpg"",""time"":296},{""stimulus"":""img/green_wl/6.jpg"",""time"":360},{""stimulus"":""img/green_wl/7.jpg"",""time"":422},{""stimulus"":""img/green_wl/8.jpg"",""time"":484},{""stimulus"":""img/green_wl/9.jpg"",""time"":534},{""stimulus"":""img/green_wl/10.jpg"",""time"":597},{""stimulus"":""img/green_wl/11.jpg"",""time"":656}]","[]",""
"","","","choice","5e03f8517f08edece67a3137","bdp_lott","Sat Mar 25 2023 16:57:14 GMT-0700 (Pacific Daylight Time)","474550","green","red","image-keyboard-response","123","191434","0.0-5.0-1.59","","410","","img/green_wl/choose11.jpg","1","166","green","0.5","0.5","0.5","l","","",""
"","","","","5e03f8517f08edece67a3137","bdp_lott","Sat Mar 25 2023 16:57:14 GMT-0700 (Pacific Daylight Time)","474550","green","red","animation","124","192140","0.0-5.0-2.59","","","","","","166","","","","","","[{""stimulus"":""img/green_ll/1.jpg"",""time"":63},{""stimulus"":""img/green_ll/2.jpg"",""time"":125},{""stimulus"":""img/green_ll/3.jpg"",""time"":186},{""stimulus"":""img/green_ll/4.jpg"",""time"":249},{""stimulus"":""img/green_ll/5.jpg"",""time"":302},{""stimulus"":""img/green_ll/6.jpg"",""time"":360},{""stimulus"":""img/green_ll/7.jpg"",""time"":424},{""stimulus"":""img/green_ll/8.jpg"",""time"":486},{""stimulus"":""img/green_ll/9.jpg"",""time"":546},{""stimulus"":""img/green_ll/10.jpg"",""time"":596},{""stimulus"":""img/green_ll/11.jpg"",""time"":656}]","[]",""
"","","","choice","5e03f8517f08edece67a3137","bdp_lott","Sat Mar 25 2023 16:57:14 GMT-0700 (Pacific Daylight Time)","474550","green","red","image-keyboard-response","125","192524","0.0-5.0-1.60","","383","","img/green_ll/choose11.jpg","1","165","green","0.5","0.5","0.5","l","","",""
"","","","","5e03f8517f08edece67a3137","bdp_lott","Sat Mar 25 2023 16:57:14 GMT-0700 (Pacific Daylight Time)","474550","green","red","animation","126","193239","0.0-5.0-2.60","","","","","","165","","","","","","[{""stimulus"":""img/green_ll/1.jpg"",""time"":53},{""stimulus"":""img/green_ll/2.jpg"",""time"":113},{""stimulus"":""img/green_ll/3.jpg"",""time"":173},{""stimulus"":""img/green_ll/4.jpg"",""time"":232},{""stimulus"":""img/green_ll/5.jpg"",""time"":295},{""stimulus"":""img/green_ll/6.jpg"",""time"":357},{""stimulus"":""img/green_ll/7.jpg"",""time"":418},{""stimulus"":""img/green_ll/8.jpg"",""time"":483},{""stimulus"":""img/green_ll/9.jpg"",""time"":543},{""stimulus"":""img/green_ll/10.jpg"",""time"":592},{""stimulus"":""img/green_ll/11.jpg"",""time"":652}]","[]",""
"","","","choice","5e03f8517f08edece67a3137","bdp_lott","Sat Mar 25 2023 16:57:14 GMT-0700 (Pacific Daylight Time)","474550","green","red","image-keyboard-response","127","193652","0.0-5.0-1.61","","413","","img/green_ll/choose11.jpg","2","164","red","0.5","0.5","0.5","l","","",""
"","","","","5e03f8517f08edece67a3137","bdp_lott","Sat Mar 25 2023 16:57:14 GMT-0700 (Pacific Daylight Time)","474550","green","red","animation","128","194385","0.0-5.0-2.61","","","","","","164","","","","","","[{""stimulus"":""img/red_ll/1.jpg"",""time"":64},{""stimulus"":""img/red_ll/2.jpg"",""time"":124},{""stimulus"":""img/red_ll/3.jpg"",""time"":184},{""stimulus"":""img/red_ll/4.jpg"",""time"":245},{""stimulus"":""img/red_ll/5.jpg"",""time"":306},{""stimulus"":""img/red_ll/6.jpg"",""time"":368},{""stimulus"":""img/red_ll/7.jpg"",""time"":428},{""stimulus"":""img/red_ll/8.jpg"",""time"":489},{""stimulus"":""img/red_ll/9.jpg"",""time"":551},{""stimulus"":""img/red_ll/10.jpg"",""time"":608},{""stimulus"":""img/red_ll/11.jpg"",""time"":671}]","[]",""
"","","","choice","5e03f8517f08edece67a3137","bdp_lott","Sat Mar 25 2023 16:57:14 GMT-0700 (Pacific Daylight Time)","474550","green","red","image-keyboard-response","129","194942","0.0-5.0-1.62","","556","","img/red_ll/choose11.jpg","2","163","red","0.5","0.5","0.5","l","","",""
"","","","","5e03f8517f08edece67a3137","bdp_lott","Sat Mar 25 2023 16:57:14 GMT-0700 (Pacific Daylight Time)","474550","green","red","animation","130","195635","0.0-5.0-2.62","","","","","","163","","","","","","[{""stimulus"":""img/red_ll/1.jpg"",""time"":54},{""stimulus"":""img/red_ll/2.jpg"",""time"":104},{""stimulus"":""img/red_ll/3.jpg"",""time"":164},{""stimulus"":""img/red_ll/4.jpg"",""time"":227},{""stimulus"":""img/red_ll/5.jpg"",""time"":288},{""stimulus"":""img/red_ll/6.jpg"",""time"":351},{""stimulus"":""img/red_ll/7.jpg"",""time"":414},{""stimulus"":""img/red_ll/8.jpg"",""time"":466},{""stimulus"":""img/red_ll/9.jpg"",""time"":519},{""stimulus"":""img/red_ll/10.jpg"",""time"":581},{""stimulus"":""img/red_ll/11.jpg"",""time"":631}]","[]",""
"","","","choice","5e03f8517f08edece67a3137","bdp_lott","Sat Mar 25 2023 16:57:14 GMT-0700 (Pacific Daylight Time)","474550","green","red","image-keyboard-response","131","196432","0.0-5.0-1.63","","796","","img/red_ll/choose11.jpg","1","162","green","0.5","0.5","0.5","w","","",""
"","","","","5e03f8517f08edece67a3137","bdp_lott","Sat Mar 25 2023 16:57:14 GMT-0700 (Pacific Daylight Time)","474550","green","red","animation","132","197156","0.0-5.0-2.63","","","","","","162","","","","","","[{""stimulus"":""img/green_wl/1.jpg"",""time"":53},{""stimulus"":""img/green_wl/2.jpg"",""time"":114},{""stimulus"":""img/green_wl/3.jpg"",""time"":177},{""stimulus"":""img/green_wl/4.jpg"",""time"":242},{""stimulus"":""img/green_wl/5.jpg"",""time"":304},{""stimulus"":""img/green_wl/6.jpg"",""time"":367},{""stimulus"":""img/green_wl/7.jpg"",""time"":427},{""stimulus"":""img/green_wl/8.jpg"",""time"":489},{""stimulus"":""img/green_wl/9.jpg"",""time"":552},{""stimulus"":""img/green_wl/10.jpg"",""time"":611},{""stimulus"":""img/green_wl/11.jpg"",""time"":661}]","[]",""
"","","","choice","5e03f8517f08edece67a3137","bdp_lott","Sat Mar 25 2023 16:57:14 GMT-0700 (Pacific Daylight Time)","474550","green","red","image-keyboard-response","133","201249","0.0-5.0-1.64","","4093","","img/green_wl/choose11.jpg","1","161","green","0.5","0.5","0.5","l","","",""
"","","","","5e03f8517f08edece67a3137","bdp_lott","Sat Mar 25 2023 16:57:14 GMT-0700 (Pacific Daylight Time)","474550","green","red","animation","134","201966","0.0-5.0-2.64","","","","","","161","","","","","","[{""stimulus"":""img/green_ll/1.jpg"",""time"":56},{""stimulus"":""img/green_ll/2.jpg"",""time"":115},{""stimulus"":""img/green_ll/3.jpg"",""time"":175},{""stimulus"":""img/green_ll/4.jpg"",""time"":238},{""stimulus"":""img/green_ll/5.jpg"",""time"":296},{""stimulus"":""img/green_ll/6.jpg"",""time"":356},{""stimulus"":""img/green_ll/7.jpg"",""time"":418},{""stimulus"":""img/green_ll/8.jpg"",""time"":478},{""stimulus"":""img/green_ll/9.jpg"",""time"":539},{""stimulus"":""img/green_ll/10.jpg"",""time"":598},{""stimulus"":""img/green_ll/11.jpg"",""time"":657}]","[]",""
"","","","choice","5e03f8517f08edece67a3137","bdp_lott","Sat Mar 25 2023 16:57:14 GMT-0700 (Pacific Daylight Time)","474550","green","red","image-keyboard-response","135","207179","0.0-5.0-1.65","","5211","","img/green_ll/choose11.jpg","2","160","red","0.5","0.5","0.5","l","","",""
"","","","","5e03f8517f08edece67a3137","bdp_lott","Sat Mar 25 2023 16:57:14 GMT-0700 (Pacific Daylight Time)","474550","green","red","animation","136","207908","0.0-5.0-2.65","","","","","","160","","","","","","[{""stimulus"":""img/red_ll/1.jpg"",""time"":60},{""stimulus"":""img/red_ll/2.jpg"",""time"":118},{""stimulus"":""img/red_ll/3.jpg"",""time"":177},{""stimulus"":""img/red_ll/4.jpg"",""time"":237},{""stimulus"":""img/red_ll/5.jpg"",""time"":297},{""stimulus"":""img/red_ll/6.jpg"",""time"":356},{""stimulus"":""img/red_ll/7.jpg"",""time"":420},{""stimulus"":""img/red_ll/8.jpg"",""time"":484},{""stimulus"":""img/red_ll/9.jpg"",""time"":546},{""stimulus"":""img/red_ll/10.jpg"",""time"":608},{""stimulus"":""img/red_ll/11.jpg"",""time"":666}]","[]",""
"","","","choice","5e03f8517f08edece67a3137","bdp_lott","Sat Mar 25 2023 16:57:14 GMT-0700 (Pacific Daylight Time)","474550","green","red","image-keyboard-response","137","211986","0.0-5.0-1.66","","4077","","img/red_ll/choose11.jpg","1","159","green","0.5","0.5","0.5","w","","",""
"","","","","5e03f8517f08edece67a3137","bdp_lott","Sat Mar 25 2023 16:57:14 GMT-0700 (Pacific Daylight Time)","474550","green","red","animation","138","212697","0.0-5.0-2.66","","","","","","159","","","","","","[{""stimulus"":""img/green_wl/1.jpg"",""time"":59},{""stimulus"":""img/green_wl/2.jpg"",""time"":121},{""stimulus"":""img/green_wl/3.jpg"",""time"":181},{""stimulus"":""img/green_wl/4.jpg"",""time"":241},{""stimulus"":""img/green_wl/5.jpg"",""time"":302},{""stimulus"":""img/green_wl/6.jpg"",""time"":361},{""stimulus"":""img/green_wl/7.jpg"",""time"":421},{""stimulus"":""img/green_wl/8.jpg"",""time"":471},{""stimulus"":""img/green_wl/9.jpg"",""time"":532},{""stimulus"":""img/green_wl/10.jpg"",""time"":591},{""stimulus"":""img/green_wl/11.jpg"",""time"":651}]","[]",""
"","","","choice","5e03f8517f08edece67a3137","bdp_lott","Sat Mar 25 2023 16:57:14 GMT-0700 (Pacific Daylight Time)","474550","green","red","image-keyboard-response","139","215306","0.0-5.0-1.67","","2609","","img/green_wl/choose11.jpg","2","158","red","0.5","0.5","0.5","l","","",""
"","","","","5e03f8517f08edece67a3137","bdp_lott","Sat Mar 25 2023 16:57:14 GMT-0700 (Pacific Daylight Time)","474550","green","red","animation","140","216023","0.0-5.0-2.67","","","","","","158","","","","","","[{""stimulus"":""img/red_wl/1.jpg"",""time"":64},{""stimulus"":""img/red_wl/2.jpg"",""time"":115},{""stimulus"":""img/red_wl/3.jpg"",""time"":174},{""stimulus"":""img/red_wl/4.jpg"",""time"":235},{""stimulus"":""img/red_wl/5.jpg"",""time"":295},{""stimulus"":""img/red_wl/6.jpg"",""time"":349},{""stimulus"":""img/red_wl/7.jpg"",""time"":414},{""stimulus"":""img/red_wl/8.jpg"",""time"":473},{""stimulus"":""img/red_wl/9.jpg"",""time"":532},{""stimulus"":""img/red_wl/10.jpg"",""time"":595},{""stimulus"":""img/red_wl/11.jpg"",""time"":655}]","[]",""
"","","","choice","5e03f8517f08edece67a3137","bdp_lott","Sat Mar 25 2023 16:57:14 GMT-0700 (Pacific Daylight Time)","474550","green","red","image-keyboard-response","141","216821","0.0-5.0-1.68","","796","","img/red_wl/choose11.jpg","2","157","red","0.5","0.5","0.5","l","","",""
"","","","","5e03f8517f08edece67a3137","bdp_lott","Sat Mar 25 2023 16:57:14 GMT-0700 (Pacific Daylight Time)","474550","green","red","animation","142","217553","0.0-5.0-2.68","","","","","","157","","","","","","[{""stimulus"":""img/red_wl/1.jpg"",""time"":60},{""stimulus"":""img/red_wl/2.jpg"",""time"":110},{""stimulus"":""img/red_wl/3.jpg"",""time"":169},{""stimulus"":""img/red_wl/4.jpg"",""time"":234},{""stimulus"":""img/red_wl/5.jpg"",""time"":292},{""stimulus"":""img/red_wl/6.jpg"",""time"":353},{""stimulus"":""img/red_wl/7.jpg"",""time"":415},{""stimulus"":""img/red_wl/8.jpg"",""time"":476},{""stimulus"":""img/red_wl/9.jpg"",""time"":539},{""stimulus"":""img/red_wl/10.jpg"",""time"":603},{""stimulus"":""img/red_wl/11.jpg"",""time"":667}]","[]",""
"","","","choice","5e03f8517f08edece67a3137","bdp_lott","Sat Mar 25 2023 16:57:14 GMT-0700 (Pacific Daylight Time)","474550","green","red","image-keyboard-response","143","217806","0.0-5.0-1.69","","251","","img/red_wl/choose11.jpg","2","156","red","0.5","0.5","0.5","l","","",""
"","","","","5e03f8517f08edece67a3137","bdp_lott","Sat Mar 25 2023 16:57:14 GMT-0700 (Pacific Daylight Time)","474550","green","red","animation","144","218523","0.0-5.0-2.69","","","","","","156","","","","","","[{""stimulus"":""img/red_wl/1.jpg"",""time"":61},{""stimulus"":""img/red_wl/2.jpg"",""time"":110},{""stimulus"":""img/red_wl/3.jpg"",""time"":170},{""stimulus"":""img/red_wl/4.jpg"",""time"":232},{""stimulus"":""img/red_wl/5.jpg"",""time"":295},{""stimulus"":""img/red_wl/6.jpg"",""time"":345},{""stimulus"":""img/red_wl/7.jpg"",""time"":400},{""stimulus"":""img/red_wl/8.jpg"",""time"":470},{""stimulus"":""img/red_wl/9.jpg"",""time"":532},{""stimulus"":""img/red_wl/10.jpg"",""time"":591},{""stimulus"":""img/red_wl/11.jpg"",""time"":651}]","[]",""
"","","","choice","5e03f8517f08edece67a3137","bdp_lott","Sat Mar 25 2023 16:57:14 GMT-0700 (Pacific Daylight Time)","474550","green","red","image-keyboard-response","145","218795","0.0-5.0-1.70","","270","","img/red_wl/choose11.jpg","2","155","red","0.5","0.5","0.5","l","","",""
"","","","","5e03f8517f08edece67a3137","bdp_lott","Sat Mar 25 2023 16:57:14 GMT-0700 (Pacific Daylight Time)","474550","green","red","animation","146","219525","0.0-5.0-2.70","","","","","","155","","","","","","[{""stimulus"":""img/red_wl/1.jpg"",""time"":63},{""stimulus"":""img/red_wl/2.jpg"",""time"":124},{""stimulus"":""img/red_wl/3.jpg"",""time"":186},{""stimulus"":""img/red_wl/4.jpg"",""time"":245},{""stimulus"":""img/red_wl/5.jpg"",""time"":309},{""stimulus"":""img/red_wl/6.jpg"",""time"":368},{""stimulus"":""img/red_wl/7.jpg"",""time"":431},{""stimulus"":""img/red_wl/8.jpg"",""time"":490},{""stimulus"":""img/red_wl/9.jpg"",""time"":553},{""stimulus"":""img/red_wl/10.jpg"",""time"":606},{""stimulus"":""img/red_wl/11.jpg"",""time"":668}]","[]",""
"","","","choice","5e03f8517f08edece67a3137","bdp_lott","Sat Mar 25 2023 16:57:14 GMT-0700 (Pacific Daylight Time)","474550","green","red","image-keyboard-response","147","219981","0.0-5.0-1.71","","455","","img/red_wl/choose11.jpg","2","154","red","0.5","0.5","0.5","w","","",""
"","","","","5e03f8517f08edece67a3137","bdp_lott","Sat Mar 25 2023 16:57:14 GMT-0700 (Pacific Daylight Time)","474550","green","red","animation","148","220700","0.0-5.0-2.71","","","","","","154","","","","","","[{""stimulus"":""img/red_ww/1.jpg"",""time"":65},{""stimulus"":""img/red_ww/2.jpg"",""time"":127},{""stimulus"":""img/red_ww/3.jpg"",""time"":190},{""stimulus"":""img/red_ww/4.jpg"",""time"":240},{""stimulus"":""img/red_ww/5.jpg"",""time"":305},{""stimulus"":""img/red_ww/6.jpg"",""time"":367},{""stimulus"":""img/red_ww/7.jpg"",""time"":417},{""stimulus"":""img/red_ww/8.jpg"",""time"":480},{""stimulus"":""img/red_ww/9.jpg"",""time"":543},{""stimulus"":""img/red_ww/10.jpg"",""time"":605},{""stimulus"":""img/red_ww/11.jpg"",""time"":669}]","[]",""
"","","","choice","5e03f8517f08edece67a3137","bdp_lott","Sat Mar 25 2023 16:57:14 GMT-0700 (Pacific Daylight Time)","474550","green","red","image-keyboard-response","149","221057","0.0-5.0-1.72","","355","","img/red_ww/choose11.jpg","2","153","red","0.5","0.5","0.5","w","","",""
"","","","","5e03f8517f08edece67a3137","bdp_lott","Sat Mar 25 2023 16:57:14 GMT-0700 (Pacific Daylight Time)","474550","green","red","animation","150","221764","0.0-5.0-2.72","","","","","","153","","","","","","[{""stimulus"":""img/red_ww/1.jpg"",""time"":58},{""stimulus"":""img/red_ww/2.jpg"",""time"":121},{""stimulus"":""img/red_ww/3.jpg"",""time"":171},{""stimulus"":""img/red_ww/4.jpg"",""time"":234},{""stimulus"":""img/red_ww/5.jpg"",""time"":294},{""stimulus"":""img/red_ww/6.jpg"",""time"":343},{""stimulus"":""img/red_ww/7.jpg"",""time"":408},{""stimulus"":""img/red_ww/8.jpg"",""time"":463},{""stimulus"":""img/red_ww/9.jpg"",""time"":525},{""stimulus"":""img/red_ww/10.jpg"",""time"":585},{""stimulus"":""img/red_ww/11.jpg"",""time"":646}]","[]",""
"","","","choice","5e03f8517f08edece67a3137","bdp_lott","Sat Mar 25 2023 16:57:14 GMT-0700 (Pacific Daylight Time)","474550","green","red","image-keyboard-response","151","223416","0.0-5.0-1.73","","1651","","img/red_ww/choose11.jpg","1","152","green","0.5","0.5","0.5","l","","",""
"","","","","5e03f8517f08edece67a3137","bdp_lott","Sat Mar 25 2023 16:57:14 GMT-0700 (Pacific Daylight Time)","474550","green","red","animation","152","224142","0.0-5.0-2.73","","","","","","152","","","","","","[{""stimulus"":""img/green_lw/1.jpg"",""time"":56},{""stimulus"":""img/green_lw/2.jpg"",""time"":107},{""stimulus"":""img/green_lw/3.jpg"",""time"":171},{""stimulus"":""img/green_lw/4.jpg"",""time"":232},{""stimulus"":""img/green_lw/5.jpg"",""time"":293},{""stimulus"":""img/green_lw/6.jpg"",""time"":357},{""stimulus"":""img/green_lw/7.jpg"",""time"":419},{""stimulus"":""img/green_lw/8.jpg"",""time"":481},{""stimulus"":""img/green_lw/9.jpg"",""time"":541},{""stimulus"":""img/green_lw/10.jpg"",""time"":603},{""stimulus"":""img/green_lw/11.jpg"",""time"":667}]","[]",""
"","","","choice","5e03f8517f08edece67a3137","bdp_lott","Sat Mar 25 2023 16:57:14 GMT-0700 (Pacific Daylight Time)","474550","green","red","image-keyboard-response","153","224857","0.0-5.0-1.74","","714","","img/green_lw/choose11.jpg","2","151","red","0.5","0.5","0.5","l","","",""
"","","","","5e03f8517f08edece67a3137","bdp_lott","Sat Mar 25 2023 16:57:14 GMT-0700 (Pacific Daylight Time)","474550","green","red","animation","154","225578","0.0-5.0-2.74","","","","","","151","","","","","","[{""stimulus"":""img/red_ll/1.jpg"",""time"":61},{""stimulus"":""img/red_ll/2.jpg"",""time"":123},{""stimulus"":""img/red_ll/3.jpg"",""time"":184},{""stimulus"":""img/red_ll/4.jpg"",""time"":244},{""stimulus"":""img/red_ll/5.jpg"",""time"":309},{""stimulus"":""img/red_ll/6.jpg"",""time"":369},{""stimulus"":""img/red_ll/7.jpg"",""time"":431},{""stimulus"":""img/red_ll/8.jpg"",""time"":482},{""stimulus"":""img/red_ll/9.jpg"",""time"":543},{""stimulus"":""img/red_ll/10.jpg"",""time"":606},{""stimulus"":""img/red_ll/11.jpg"",""time"":660}]","[]",""
"","","","choice","5e03f8517f08edece67a3137","bdp_lott","Sat Mar 25 2023 16:57:14 GMT-0700 (Pacific Daylight Time)","474550","green","red","image-keyboard-response","155","229405","0.0-5.0-1.75","","3827","","img/red_ll/choose11.jpg","1","150","green","0.5","0.5","0.5","l","","",""
"","","","","5e03f8517f08edece67a3137","bdp_lott","Sat Mar 25 2023 16:57:14 GMT-0700 (Pacific Daylight Time)","474550","green","red","animation","156","230126","0.0-5.0-2.75","","","","","","150","","","","","","[{""stimulus"":""img/green_ll/1.jpg"",""time"":57},{""stimulus"":""img/green_ll/2.jpg"",""time"":118},{""stimulus"":""img/green_ll/3.jpg"",""time"":182},{""stimulus"":""img/green_ll/4.jpg"",""time"":240},{""stimulus"":""img/green_ll/5.jpg"",""time"":300},{""stimulus"":""img/green_ll/6.jpg"",""time"":364},{""stimulus"":""img/green_ll/7.jpg"",""time"":413},{""stimulus"":""img/green_ll/8.jpg"",""time"":475},{""stimulus"":""img/green_ll/9.jpg"",""time"":535},{""stimulus"":""img/green_ll/10.jpg"",""time"":598},{""stimulus"":""img/green_ll/11.jpg"",""time"":665}]","[]",""
"","","","choice","5e03f8517f08edece67a3137","bdp_lott","Sat Mar 25 2023 16:57:14 GMT-0700 (Pacific Daylight Time)","474550","green","red","image-keyboard-response","157","232966","0.0-5.0-1.76","","2840","","img/green_ll/choose11.jpg","1","149","green","0.5","0.1","0.5","w","","",""
"","","","","5e03f8517f08edece67a3137","bdp_lott","Sat Mar 25 2023 16:57:14 GMT-0700 (Pacific Daylight Time)","474550","green","red","animation","158","233686","0.0-5.0-2.76","","","","","","149","","","","","","[{""stimulus"":""img/green_wl/1.jpg"",""time"":51},{""stimulus"":""img/green_wl/2.jpg"",""time"":114},{""stimulus"":""img/green_wl/3.jpg"",""time"":169},{""stimulus"":""img/green_wl/4.jpg"",""time"":224},{""stimulus"":""img/green_wl/5.jpg"",""time"":285},{""stimulus"":""img/green_wl/6.jpg"",""time"":350},{""stimulus"":""img/green_wl/7.jpg"",""time"":409},{""stimulus"":""img/green_wl/8.jpg"",""time"":469},{""stimulus"":""img/green_wl/9.jpg"",""time"":532},{""stimulus"":""img/green_wl/10.jpg"",""time"":595},{""stimulus"":""img/green_wl/11.jpg"",""time"":657}]","[]",""
"","","","choice","5e03f8517f08edece67a3137","bdp_lott","Sat Mar 25 2023 16:57:14 GMT-0700 (Pacific Daylight Time)","474550","green","red","image-keyboard-response","159","234951","0.0-5.0-1.77","","1264","","img/green_wl/choose11.jpg","2","148","red","0.5","0.1","0.1","l","","",""
"","","","","5e03f8517f08edece67a3137","bdp_lott","Sat Mar 25 2023 16:57:14 GMT-0700 (Pacific Daylight Time)","474550","green","red","animation","160","235661","0.0-5.0-2.77","","","","","","148","","","","","","[{""stimulus"":""img/red_wl/1.jpg"",""time"":55},{""stimulus"":""img/red_wl/2.jpg"",""time"":118},{""stimulus"":""img/red_wl/3.jpg"",""time"":180},{""stimulus"":""img/red_wl/4.jpg"",""time"":243},{""stimulus"":""img/red_wl/5.jpg"",""time"":305},{""stimulus"":""img/red_wl/6.jpg"",""time"":365},{""stimulus"":""img/red_wl/7.jpg"",""time"":430},{""stimulus"":""img/red_wl/8.jpg"",""time"":490},{""stimulus"":""img/red_wl/9.jpg"",""time"":551},{""stimulus"":""img/red_wl/10.jpg"",""time"":600},{""stimulus"":""img/red_wl/11.jpg"",""time"":651}]","[]",""
"","","","choice","5e03f8517f08edece67a3137","bdp_lott","Sat Mar 25 2023 16:57:14 GMT-0700 (Pacific Daylight Time)","474550","green","red","image-keyboard-response","161","236317","0.0-5.0-1.78","","656","","img/red_wl/choose11.jpg","2","147","red","0.5","0.1","0.1","l","","",""
"","","","","5e03f8517f08edece67a3137","bdp_lott","Sat Mar 25 2023 16:57:14 GMT-0700 (Pacific Daylight Time)","474550","green","red","animation","162","237046","0.0-5.0-2.78","","","","","","147","","","","","","[{""stimulus"":""img/red_wl/1.jpg"",""time"":54},{""stimulus"":""img/red_wl/2.jpg"",""time"":113},{""stimulus"":""img/red_wl/3.jpg"",""time"":176},{""stimulus"":""img/red_wl/4.jpg"",""time"":237},{""stimulus"":""img/red_wl/5.jpg"",""time"":302},{""stimulus"":""img/red_wl/6.jpg"",""time"":363},{""stimulus"":""img/red_wl/7.jpg"",""time"":424},{""stimulus"":""img/red_wl/8.jpg"",""time"":486},{""stimulus"":""img/red_wl/9.jpg"",""time"":549},{""stimulus"":""img/red_wl/10.jpg"",""time"":607},{""stimulus"":""img/red_wl/11.jpg"",""time"":668}]","[]",""
"","","","choice","5e03f8517f08edece67a3137","bdp_lott","Sat Mar 25 2023 16:57:14 GMT-0700 (Pacific Daylight Time)","474550","green","red","image-keyboard-response","163","238140","0.0-5.0-1.79","","1093","","img/red_wl/choose11.jpg","2","146","red","0.5","0.1","0.1","l","","",""
"","","","","5e03f8517f08edece67a3137","bdp_lott","Sat Mar 25 2023 16:57:14 GMT-0700 (Pacific Daylight Time)","474550","green","red","animation","164","238870","0.0-5.0-2.79","","","","","","146","","","","","","[{""stimulus"":""img/red_wl/1.jpg"",""time"":60},{""stimulus"":""img/red_wl/2.jpg"",""time"":122},{""stimulus"":""img/red_wl/3.jpg"",""time"":185},{""stimulus"":""img/red_wl/4.jpg"",""time"":245},{""stimulus"":""img/red_wl/5.jpg"",""time"":307},{""stimulus"":""img/red_wl/6.jpg"",""time"":368},{""stimulus"":""img/red_wl/7.jpg"",""time"":430},{""stimulus"":""img/red_wl/8.jpg"",""time"":490},{""stimulus"":""img/red_wl/9.jpg"",""time"":548},{""stimulus"":""img/red_wl/10.jpg"",""time"":609},{""stimulus"":""img/red_wl/11.jpg"",""time"":671}]","[]",""
"","","","choice","5e03f8517f08edece67a3137","bdp_lott","Sat Mar 25 2023 16:57:14 GMT-0700 (Pacific Daylight Time)","474550","green","red","image-keyboard-response","165","239505","0.0-5.0-1.80","","633","","img/red_wl/choose11.jpg","2","145","red","0.5","0.1","0.1","w","","",""
"","","","","5e03f8517f08edece67a3137","bdp_lott","Sat Mar 25 2023 16:57:14 GMT-0700 (Pacific Daylight Time)","474550","green","red","animation","166","240241","0.0-5.0-2.80","","","","","","145","","","","","","[{""stimulus"":""img/red_ww/1.jpg"",""time"":58},{""stimulus"":""img/red_ww/2.jpg"",""time"":120},{""stimulus"":""img/red_ww/3.jpg"",""time"":183},{""stimulus"":""img/red_ww/4.jpg"",""time"":245},{""stimulus"":""img/red_ww/5.jpg"",""time"":307},{""stimulus"":""img/red_ww/6.jpg"",""time"":370},{""stimulus"":""img/red_ww/7.jpg"",""time"":432},{""stimulus"":""img/red_ww/8.jpg"",""time"":495},{""stimulus"":""img/red_ww/9.jpg"",""time"":555},{""stimulus"":""img/red_ww/10.jpg"",""time"":616},{""stimulus"":""img/red_ww/11.jpg"",""time"":675}]","[]",""
"","","","choice","5e03f8517f08edece67a3137","bdp_lott","Sat Mar 25 2023 16:57:14 GMT-0700 (Pacific Daylight Time)","474550","green","red","image-keyboard-response","167","241482","0.0-5.0-1.81","","1241","","img/red_ww/choose11.jpg","1","144","green","0.5","0.1","0.5","w","","",""
"","","","","5e03f8517f08edece67a3137","bdp_lott","Sat Mar 25 2023 16:57:14 GMT-0700 (Pacific Daylight Time)","474550","green","red","animation","168","242210","0.0-5.0-2.81","","","","","","144","","","","","","[{""stimulus"":""img/green_ww/1.jpg"",""time"":54},{""stimulus"":""img/green_ww/2.jpg"",""time"":117},{""stimulus"":""img/green_ww/3.jpg"",""time"":176},{""stimulus"":""img/green_ww/4.jpg"",""time"":237},{""stimulus"":""img/green_ww/5.jpg"",""time"":299},{""stimulus"":""img/green_ww/6.jpg"",""time"":361},{""stimulus"":""img/green_ww/7.jpg"",""time"":423},{""stimulus"":""img/green_ww/8.jpg"",""time"":483},{""stimulus"":""img/green_ww/9.jpg"",""time"":543},{""stimulus"":""img/green_ww/10.jpg"",""time"":604},{""stimulus"":""img/green_ww/11.jpg"",""time"":667}]","[]",""
"","","","choice","5e03f8517f08edece67a3137","bdp_lott","Sat Mar 25 2023 16:57:14 GMT-0700 (Pacific Daylight Time)","474550","green","red","image-keyboard-response","169","242938","0.0-5.0-1.82","","726","","img/green_ww/choose11.jpg","2","143","red","0.5","0.1","0.1","l","","",""
"","","","","5e03f8517f08edece67a3137","bdp_lott","Sat Mar 25 2023 16:57:14 GMT-0700 (Pacific Daylight Time)","474550","green","red","animation","170","243684","0.0-5.0-2.82","","","","","","143","","","","","","[{""stimulus"":""img/red_wl/1.jpg"",""time"":62},{""stimulus"":""img/red_wl/2.jpg"",""time"":123},{""stimulus"":""img/red_wl/3.jpg"",""time"":186},{""stimulus"":""img/red_wl/4.jpg"",""time"":246},{""stimulus"":""img/red_wl/5.jpg"",""time"":309},{""stimulus"":""img/red_wl/6.jpg"",""time"":370},{""stimulus"":""img/red_wl/7.jpg"",""time"":432},{""stimulus"":""img/red_wl/8.jpg"",""time"":496},{""stimulus"":""img/red_wl/9.jpg"",""time"":555},{""stimulus"":""img/red_wl/10.jpg"",""time"":622},{""stimulus"":""img/red_wl/11.jpg"",""time"":683}]","[]",""
"","","","choice","5e03f8517f08edece67a3137","bdp_lott","Sat Mar 25 2023 16:57:14 GMT-0700 (Pacific Daylight Time)","474550","green","red","image-keyboard-response","171","245330","0.0-5.0-1.83","","1643","","img/red_wl/choose11.jpg","2","142","red","0.5","0.1","0.1","l","","",""
"","","","","5e03f8517f08edece67a3137","bdp_lott","Sat Mar 25 2023 16:57:14 GMT-0700 (Pacific Daylight Time)","474550","green","red","animation","172","246056","0.0-5.0-2.83","","","","","","142","","","","","","[{""stimulus"":""img/red_wl/1.jpg"",""time"":59},{""stimulus"":""img/red_wl/2.jpg"",""time"":121},{""stimulus"":""img/red_wl/3.jpg"",""time"":184},{""stimulus"":""img/red_wl/4.jpg"",""time"":249},{""stimulus"":""img/red_wl/5.jpg"",""time"":309},{""stimulus"":""img/red_wl/6.jpg"",""time"":372},{""stimulus"":""img/red_wl/7.jpg"",""time"":432},{""stimulus"":""img/red_wl/8.jpg"",""time"":492},{""stimulus"":""img/red_wl/9.jpg"",""time"":554},{""stimulus"":""img/red_wl/10.jpg"",""time"":616},{""stimulus"":""img/red_wl/11.jpg"",""time"":667}]","[]",""
"","","","choice","5e03f8517f08edece67a3137","bdp_lott","Sat Mar 25 2023 16:57:14 GMT-0700 (Pacific Daylight Time)","474550","green","red","image-keyboard-response","173","246799","0.0-5.0-1.84","","742","","img/red_wl/choose11.jpg","2","141","red","0.5","0.1","0.1","w","","",""
"","","","","5e03f8517f08edece67a3137","bdp_lott","Sat Mar 25 2023 16:57:14 GMT-0700 (Pacific Daylight Time)","474550","green","red","animation","174","247519","0.0-5.0-2.84","","","","","","141","","","","","","[{""stimulus"":""img/red_ww/1.jpg"",""time"":51},{""stimulus"":""img/red_ww/2.jpg"",""time"":114},{""stimulus"":""img/red_ww/3.jpg"",""time"":177},{""stimulus"":""img/red_ww/4.jpg"",""time"":237},{""stimulus"":""img/red_ww/5.jpg"",""time"":299},{""stimulus"":""img/red_ww/6.jpg"",""time"":361},{""stimulus"":""img/red_ww/7.jpg"",""time"":424},{""stimulus"":""img/red_ww/8.jpg"",""time"":487},{""stimulus"":""img/red_ww/9.jpg"",""time"":546},{""stimulus"":""img/red_ww/10.jpg"",""time"":596},{""stimulus"":""img/red_ww/11.jpg"",""time"":657}]","[]",""
"","","","choice","5e03f8517f08edece67a3137","bdp_lott","Sat Mar 25 2023 16:57:14 GMT-0700 (Pacific Daylight Time)","474550","green","red","image-keyboard-response","175","248415","0.0-5.0-1.85","","896","","img/red_ww/choose11.jpg","1","140","green","0.5","0.1","0.5","w","","",""
"","","","","5e03f8517f08edece67a3137","bdp_lott","Sat Mar 25 2023 16:57:14 GMT-0700 (Pacific Daylight Time)","474550","green","red","animation","176","249139","0.0-5.0-2.85","","","","","","140","","","","","","[{""stimulus"":""img/green_ww/1.jpg"",""time"":56},{""stimulus"":""img/green_ww/2.jpg"",""time"":117},{""stimulus"":""img/green_ww/3.jpg"",""time"":179},{""stimulus"":""img/green_ww/4.jpg"",""time"":242},{""stimulus"":""img/green_ww/5.jpg"",""time"":303},{""stimulus"":""img/green_ww/6.jpg"",""time"":366},{""stimulus"":""img/green_ww/7.jpg"",""time"":427},{""stimulus"":""img/green_ww/8.jpg"",""time"":488},{""stimulus"":""img/green_ww/9.jpg"",""time"":549},{""stimulus"":""img/green_ww/10.jpg"",""time"":611},{""stimulus"":""img/green_ww/11.jpg"",""time"":661}]","[]",""
"","","","choice","5e03f8517f08edece67a3137","bdp_lott","Sat Mar 25 2023 16:57:14 GMT-0700 (Pacific Daylight Time)","474550","green","red","image-keyboard-response","177","250321","0.0-5.0-1.86","","1180","","img/green_ww/choose11.jpg","2","139","red","0.5","0.1","0.1","l","","",""
"","","","","5e03f8517f08edece67a3137","bdp_lott","Sat Mar 25 2023 16:57:14 GMT-0700 (Pacific Daylight Time)","474550","green","red","animation","178","251054","0.0-5.0-2.86","","","","","","139","","","","","","[{""stimulus"":""img/red_wl/1.jpg"",""time"":56},{""stimulus"":""img/red_wl/2.jpg"",""time"":119},{""stimulus"":""img/red_wl/3.jpg"",""time"":181},{""stimulus"":""img/red_wl/4.jpg"",""time"":245},{""stimulus"":""img/red_wl/5.jpg"",""time"":295},{""stimulus"":""img/red_wl/6.jpg"",""time"":358},{""stimulus"":""img/red_wl/7.jpg"",""time"":420},{""stimulus"":""img/red_wl/8.jpg"",""time"":485},{""stimulus"":""img/red_wl/9.jpg"",""time"":547},{""stimulus"":""img/red_wl/10.jpg"",""time"":612},{""stimulus"":""img/red_wl/11.jpg"",""time"":670}]","[]",""
"","","","choice","5e03f8517f08edece67a3137","bdp_lott","Sat Mar 25 2023 16:57:14 GMT-0700 (Pacific Daylight Time)","474550","green","red","image-keyboard-response","179","253148","0.0-5.0-1.87","","2093","","img/red_wl/choose11.jpg","2","138","red","0.5","0.1","0.1","l","","",""
"","","","","5e03f8517f08edece67a3137","bdp_lott","Sat Mar 25 2023 16:57:14 GMT-0700 (Pacific Daylight Time)","474550","green","red","animation","180","253870","0.0-5.0-2.87","","","","","","138","","","","","","[{""stimulus"":""img/red_wl/1.jpg"",""time"":59},{""stimulus"":""img/red_wl/2.jpg"",""time"":122},{""stimulus"":""img/red_wl/3.jpg"",""time"":184},{""stimulus"":""img/red_wl/4.jpg"",""time"":242},{""stimulus"":""img/red_wl/5.jpg"",""time"":305},{""stimulus"":""img/red_wl/6.jpg"",""time"":366},{""stimulus"":""img/red_wl/7.jpg"",""time"":429},{""stimulus"":""img/red_wl/8.jpg"",""time"":489},{""stimulus"":""img/red_wl/9.jpg"",""time"":539},{""stimulus"":""img/red_wl/10.jpg"",""time"":598},{""stimulus"":""img/red_wl/11.jpg"",""time"":657}]","[]",""
"","","","choice","5e03f8517f08edece67a3137","bdp_lott","Sat Mar 25 2023 16:57:14 GMT-0700 (Pacific Daylight Time)","474550","green","red","image-keyboard-response","181","254982","0.0-5.0-1.88","","1112","","img/red_wl/choose11.jpg","1","137","green","0.5","0.1","0.5","w","","",""
"","","","","5e03f8517f08edece67a3137","bdp_lott","Sat Mar 25 2023 16:57:14 GMT-0700 (Pacific Daylight Time)","474550","green","red","animation","182","255710","0.0-5.0-2.88","","","","","","137","","","","","","[{""stimulus"":""img/green_wl/1.jpg"",""time"":52},{""stimulus"":""img/green_wl/2.jpg"",""time"":114},{""stimulus"":""img/green_wl/3.jpg"",""time"":173},{""stimulus"":""img/green_wl/4.jpg"",""time"":231},{""stimulus"":""img/green_wl/5.jpg"",""time"":294},{""stimulus"":""img/green_wl/6.jpg"",""time"":354},{""stimulus"":""img/green_wl/7.jpg"",""time"":417},{""stimulus"":""img/green_wl/8.jpg"",""time"":482},{""stimulus"":""img/green_wl/9.jpg"",""time"":543},{""stimulus"":""img/green_wl/10.jpg"",""time"":606},{""stimulus"":""img/green_wl/11.jpg"",""time"":668}]","[]",""
"","","","choice","5e03f8517f08edece67a3137","bdp_lott","Sat Mar 25 2023 16:57:14 GMT-0700 (Pacific Daylight Time)","474550","green","red","image-keyboard-response","183","257283","0.0-5.0-1.89","","1572","","img/green_wl/choose11.jpg","2","136","red","0.5","0.1","0.1","l","","",""
"","","","","5e03f8517f08edece67a3137","bdp_lott","Sat Mar 25 2023 16:57:14 GMT-0700 (Pacific Daylight Time)","474550","green","red","animation","184","258007","0.0-5.0-2.89","","","","","","136","","","","","","[{""stimulus"":""img/red_wl/1.jpg"",""time"":53},{""stimulus"":""img/red_wl/2.jpg"",""time"":115},{""stimulus"":""img/red_wl/3.jpg"",""time"":178},{""stimulus"":""img/red_wl/4.jpg"",""time"":238},{""stimulus"":""img/red_wl/5.jpg"",""time"":299},{""stimulus"":""img/red_wl/6.jpg"",""time"":363},{""stimulus"":""img/red_wl/7.jpg"",""time"":422},{""stimulus"":""img/red_wl/8.jpg"",""time"":487},{""stimulus"":""img/red_wl/9.jpg"",""time"":545},{""stimulus"":""img/red_wl/10.jpg"",""time"":605},{""stimulus"":""img/red_wl/11.jpg"",""time"":661}]","[]",""
"","","","choice","5e03f8517f08edece67a3137","bdp_lott","Sat Mar 25 2023 16:57:14 GMT-0700 (Pacific Daylight Time)","474550","green","red","image-keyboard-response","185","258552","0.0-5.0-1.90","","545","","img/red_wl/choose11.jpg","1","135","green","0.5","0.1","0.5","l","","",""
"","","","","5e03f8517f08edece67a3137","bdp_lott","Sat Mar 25 2023 16:57:14 GMT-0700 (Pacific Daylight Time)","474550","green","red","animation","186","259274","0.0-5.0-2.90","","","","","","135","","","","","","[{""stimulus"":""img/green_ll/1.jpg"",""time"":52},{""stimulus"":""img/green_ll/2.jpg"",""time"":114},{""stimulus"":""img/green_ll/3.jpg"",""time"":176},{""stimulus"":""img/green_ll/4.jpg"",""time"":238},{""stimulus"":""img/green_ll/5.jpg"",""time"":302},{""stimulus"":""img/green_ll/6.jpg"",""time"":361},{""stimulus"":""img/green_ll/7.jpg"",""time"":419},{""stimulus"":""img/green_ll/8.jpg"",""time"":480},{""stimulus"":""img/green_ll/9.jpg"",""time"":540},{""stimulus"":""img/green_ll/10.jpg"",""time"":604},{""stimulus"":""img/green_ll/11.jpg"",""time"":666}]","[]",""
"","","","choice","5e03f8517f08edece67a3137","bdp_lott","Sat Mar 25 2023 16:57:14 GMT-0700 (Pacific Daylight Time)","474550","green","red","image-keyboard-response","187","260584","0.0-5.0-1.91","","1309","","img/green_ll/choose11.jpg","1","134","green","0.5","0.1","0.5","l","","",""
"","","","","5e03f8517f08edece67a3137","bdp_lott","Sat Mar 25 2023 16:57:14 GMT-0700 (Pacific Daylight Time)","474550","green","red","animation","188","261305","0.0-5.0-2.91","","","","","","134","","","","","","[{""stimulus"":""img/green_ll/1.jpg"",""time"":59},{""stimulus"":""img/green_ll/2.jpg"",""time"":120},{""stimulus"":""img/green_ll/3.jpg"",""time"":169},{""stimulus"":""img/green_ll/4.jpg"",""time"":232},{""stimulus"":""img/green_ll/5.jpg"",""time"":294},{""stimulus"":""img/green_ll/6.jpg"",""time"":354},{""stimulus"":""img/green_ll/7.jpg"",""time"":419},{""stimulus"":""img/green_ll/8.jpg"",""time"":480},{""stimulus"":""img/green_ll/9.jpg"",""time"":541},{""stimulus"":""img/green_ll/10.jpg"",""time"":603},{""stimulus"":""img/green_ll/11.jpg"",""time"":664}]","[]",""
"","","","choice","5e03f8517f08edece67a3137","bdp_lott","Sat Mar 25 2023 16:57:14 GMT-0700 (Pacific Daylight Time)","474550","green","red","image-keyboard-response","189","262109","0.0-5.0-1.92","","803","","img/green_ll/choose11.jpg","2","133","red","0.5","0.1","0.1","l","","",""
"","","","","5e03f8517f08edece67a3137","bdp_lott","Sat Mar 25 2023 16:57:14 GMT-0700 (Pacific Daylight Time)","474550","green","red","animation","190","262848","0.0-5.0-2.92","","","","","","133","","","","","","[{""stimulus"":""img/red_ll/1.jpg"",""time"":58},{""stimulus"":""img/red_ll/2.jpg"",""time"":120},{""stimulus"":""img/red_ll/3.jpg"",""time"":183},{""stimulus"":""img/red_ll/4.jpg"",""time"":245},{""stimulus"":""img/red_ll/5.jpg"",""time"":308},{""stimulus"":""img/red_ll/6.jpg"",""time"":368},{""stimulus"":""img/red_ll/7.jpg"",""time"":429},{""stimulus"":""img/red_ll/8.jpg"",""time"":489},{""stimulus"":""img/red_ll/9.jpg"",""time"":552},{""stimulus"":""img/red_ll/10.jpg"",""time"":614},{""stimulus"":""img/red_ll/11.jpg"",""time"":678}]","[]",""
