"trial_type","trial_index","time_elapsed","internal_node_id","subject_id","task","startTime","totalTime","fairMachine","unfairMachine","view_history","rt","event","trial","time","trialtype","success","stimulus","key_press","roundsLeft","chosen","pFairMachWin","pUnfairMachWin","pTrialWin","outcome","animation_sequence","responses"
"pavlovia","0","3","0.0-0.0","6404fb7b9a7b3cfb4179d185","bdp_lott","Tue Mar 28 2023 17:11:16 GMT-0400 (Eastern Daylight Time)","358102","red","green","","","","","","","","","","","","","","","","",""
"instructions","1","4400","0.0-1.0","6404fb7b9a7b3cfb4179d185","bdp_lott","Tue Mar 28 2023 17:11:16 GMT-0400 (Eastern Daylight Time)","358102","red","green","[{""page_index"":0,""viewing_time"":4397}]","4397","","","","","","","","","","","","","","",""
"","","","","6404fb7b9a7b3cfb4179d185","bdp_lott","Tue Mar 28 2023 17:11:16 GMT-0400 (Eastern Daylight Time)","358102","red","green","","","fullscreenenter","2","8829","fullscreenenter","","","","","","","","","","",""
"fullscreen","2","9838","0.0-2.0","6404fb7b9a7b3cfb4179d185","bdp_lott","Tue Mar 28 2023 17:11:16 GMT-0400 (Eastern Daylight Time)","358102","red","green","","","","","","","true","","","","","","","","","",""
"instructions","3","50921","0.0-4.0","6404fb7b9a7b3cfb4179d185","bdp_lott","Tue Mar 28 2023 17:11:16 GMT-0400 (Eastern Daylight Time)","358102","red","green","[{""page_index"":0,""viewing_time"":41082}]","41082","","","","","","","","","","","","","","",""
"image-keyboard-response","4","54199","0.0-5.0-1.0","6404fb7b9a7b3cfb4179d185","bdp_lott","Tue Mar 28 2023 17:11:16 GMT-0400 (Eastern Daylight Time)","358102","red","green","","3277","","","","choice","","img/red_ll/initchoose11.jpg","2","225","red","0.5","0.5","0.5","w","",""
"animation","5","54800","0.0-5.0-2.0","6404fb7b9a7b3cfb4179d185","bdp_lott","Tue Mar 28 2023 17:11:16 GMT-0400 (Eastern Daylight Time)","358102","red","green","","","","","","","","","","225","","","","","","[{""stimulus"":""img/red_lw/1.jpg"",""time"":63},{""stimulus"":""img/red_lw/2.jpg"",""time"":101},{""stimulus"":""img/red_lw/3.jpg"",""time"":151},{""stimulus"":""img/red_lw/4.jpg"",""time"":201},{""stimulus"":""img/red_lw/5.jpg"",""time"":251},{""stimulus"":""img/red_lw/6.jpg"",""time"":301},{""stimulus"":""img/red_lw/7.jpg"",""time"":351},{""stimulus"":""img/red_lw/8.jpg"",""time"":401},{""stimulus"":""img/red_lw/9.jpg"",""time"":457},{""stimulus"":""img/red_lw/10.jpg"",""time"":501},{""stimulus"":""img/red_lw/11.jpg"",""time"":551}]","[]"
"image-keyboard-response","6","58862","0.0-5.0-1.1","6404fb7b9a7b3cfb4179d185","bdp_lott","Tue Mar 28 2023 17:11:16 GMT-0400 (Eastern Daylight Time)","358102","red","green","","4062","","","","choice","","img/red_lw/choose11.jpg","2","224","red","0.5","0.5","0.5","l","",""
"animation","7","59463","0.0-5.0-2.1","6404fb7b9a7b3cfb4179d185","bdp_lott","Tue Mar 28 2023 17:11:16 GMT-0400 (Eastern Daylight Time)","358102","red","green","","","","","","","","","","224","","","","","","[{""stimulus"":""img/red_ll/1.jpg"",""time"":57},{""stimulus"":""img/red_ll/2.jpg"",""time"":104},{""stimulus"":""img/red_ll/3.jpg"",""time"":150},{""stimulus"":""img/red_ll/4.jpg"",""time"":201},{""stimulus"":""img/red_ll/5.jpg"",""time"":250},{""stimulus"":""img/red_ll/6.jpg"",""time"":309},{""stimulus"":""img/red_ll/7.jpg"",""time"":351},{""stimulus"":""img/red_ll/8.jpg"",""time"":401},{""stimulus"":""img/red_ll/9.jpg"",""time"":452},{""stimulus"":""img/red_ll/10.jpg"",""time"":514},{""stimulus"":""img/red_ll/11.jpg"",""time"":551}]","[]"
"image-keyboard-response","8","62155","0.0-5.0-1.2","6404fb7b9a7b3cfb4179d185","bdp_lott","Tue Mar 28 2023 17:11:16 GMT-0400 (Eastern Daylight Time)","358102","red","green","","2692","","","","choice","","img/red_ll/choose11.jpg","2","223","red","0.5","0.5","0.5","w","",""
"animation","9","62757","0.0-5.0-2.2","6404fb7b9a7b3cfb4179d185","bdp_lott","Tue Mar 28 2023 17:11:16 GMT-0400 (Eastern Daylight Time)","358102","red","green","","","","","","","","","","223","","","","","","[{""stimulus"":""img/red_lw/1.jpg"",""time"":55},{""stimulus"":""img/red_lw/2.jpg"",""time"":100},{""stimulus"":""img/red_lw/3.jpg"",""time"":151},{""stimulus"":""img/red_lw/4.jpg"",""time"":200},{""stimulus"":""img/red_lw/5.jpg"",""time"":250},{""stimulus"":""img/red_lw/6.jpg"",""time"":300},{""stimulus"":""img/red_lw/7.jpg"",""time"":350},{""stimulus"":""img/red_lw/8.jpg"",""time"":402},{""stimulus"":""img/red_lw/9.jpg"",""time"":452},{""stimulus"":""img/red_lw/10.jpg"",""time"":512},{""stimulus"":""img/red_lw/11.jpg"",""time"":551}]","[]"
"image-keyboard-response","10","64000","0.0-5.0-1.3","6404fb7b9a7b3cfb4179d185","bdp_lott","Tue Mar 28 2023 17:11:16 GMT-0400 (Eastern Daylight Time)","358102","red","green","","1243","","","","choice","","img/red_lw/choose11.jpg","2","222","red","0.5","0.5","0.5","l","",""
"animation","11","64601","0.0-5.0-2.3","6404fb7b9a7b3cfb4179d185","bdp_lott","Tue Mar 28 2023 17:11:16 GMT-0400 (Eastern Daylight Time)","358102","red","green","","","","","","","","","","222","","","","","","[{""stimulus"":""img/red_ll/1.jpg"",""time"":56},{""stimulus"":""img/red_ll/2.jpg"",""time"":101},{""stimulus"":""img/red_ll/3.jpg"",""time"":151},{""stimulus"":""img/red_ll/4.jpg"",""time"":201},{""stimulus"":""img/red_ll/5.jpg"",""time"":251},{""stimulus"":""img/red_ll/6.jpg"",""time"":301},{""stimulus"":""img/red_ll/7.jpg"",""time"":351},{""stimulus"":""img/red_ll/8.jpg"",""time"":402},{""stimulus"":""img/red_ll/9.jpg"",""time"":451},{""stimulus"":""img/red_ll/10.jpg"",""time"":512},{""stimulus"":""img/red_ll/11.jpg"",""time"":551}]","[]"
"image-keyboard-response","12","65404","0.0-5.0-1.4","6404fb7b9a7b3cfb4179d185","bdp_lott","Tue Mar 28 2023 17:11:16 GMT-0400 (Eastern Daylight Time)","358102","red","green","","803","","","","choice","","img/red_ll/choose11.jpg","2","221","red","0.5","0.5","0.5","l","",""
"animation","13","66005","0.0-5.0-2.4","6404fb7b9a7b3cfb4179d185","bdp_lott","Tue Mar 28 2023 17:11:16 GMT-0400 (Eastern Daylight Time)","358102","red","green","","","","","","","","","","221","","","","","","[{""stimulus"":""img/red_ll/1.jpg"",""time"":53},{""stimulus"":""img/red_ll/2.jpg"",""time"":101},{""stimulus"":""img/red_ll/3.jpg"",""time"":163},{""stimulus"":""img/red_ll/4.jpg"",""time"":210},{""stimulus"":""img/red_ll/5.jpg"",""time"":251},{""stimulus"":""img/red_ll/6.jpg"",""time"":304},{""stimulus"":""img/red_ll/7.jpg"",""time"":351},{""stimulus"":""img/red_ll/8.jpg"",""time"":401},{""stimulus"":""img/red_ll/9.jpg"",""time"":451},{""stimulus"":""img/red_ll/10.jpg"",""time"":501},{""stimulus"":""img/red_ll/11.jpg"",""time"":551}]","[]"
"image-keyboard-response","14","66723","0.0-5.0-1.5","6404fb7b9a7b3cfb4179d185","bdp_lott","Tue Mar 28 2023 17:11:16 GMT-0400 (Eastern Daylight Time)","358102","red","green","","718","","","","choice","","img/red_ll/choose11.jpg","2","220","red","0.5","0.5","0.5","l","",""
"animation","15","67324","0.0-5.0-2.5","6404fb7b9a7b3cfb4179d185","bdp_lott","Tue Mar 28 2023 17:11:16 GMT-0400 (Eastern Daylight Time)","358102","red","green","","","","","","","","","","220","","","","","","[{""stimulus"":""img/red_ll/1.jpg"",""time"":58},{""stimulus"":""img/red_ll/2.jpg"",""time"":101},{""stimulus"":""img/red_ll/3.jpg"",""time"":151},{""stimulus"":""img/red_ll/4.jpg"",""time"":201},{""stimulus"":""img/red_ll/5.jpg"",""time"":262},{""stimulus"":""img/red_ll/6.jpg"",""time"":309},{""stimulus"":""img/red_ll/7.jpg"",""time"":356},{""stimulus"":""img/red_ll/8.jpg"",""time"":401},{""stimulus"":""img/red_ll/9.jpg"",""time"":451},{""stimulus"":""img/red_ll/10.jpg"",""time"":512},{""stimulus"":""img/red_ll/11.jpg"",""time"":551}]","[]"
"image-keyboard-response","16","68594","0.0-5.0-1.6","6404fb7b9a7b3cfb4179d185","bdp_lott","Tue Mar 28 2023 17:11:16 GMT-0400 (Eastern Daylight Time)","358102","red","green","","1270","","","","choice","","img/red_ll/choose11.jpg","1","219","green","0.5","0.5","0.5","l","",""
"animation","17","69195","0.0-5.0-2.6","6404fb7b9a7b3cfb4179d185","bdp_lott","Tue Mar 28 2023 17:11:16 GMT-0400 (Eastern Daylight Time)","358102","red","green","","","","","","","","","","219","","","","","","[{""stimulus"":""img/green_ll/1.jpg"",""time"":51},{""stimulus"":""img/green_ll/2.jpg"",""time"":101},{""stimulus"":""img/green_ll/3.jpg"",""time"":150},{""stimulus"":""img/green_ll/4.jpg"",""time"":201},{""stimulus"":""img/green_ll/5.jpg"",""time"":251},{""stimulus"":""img/green_ll/6.jpg"",""time"":306},{""stimulus"":""img/green_ll/7.jpg"",""time"":355},{""stimulus"":""img/green_ll/8.jpg"",""time"":402},{""stimulus"":""img/green_ll/9.jpg"",""time"":451},{""stimulus"":""img/green_ll/10.jpg"",""time"":514},{""stimulus"":""img/green_ll/11.jpg"",""time"":551}]","[]"
"image-keyboard-response","18","70238","0.0-5.0-1.7","6404fb7b9a7b3cfb4179d185","bdp_lott","Tue Mar 28 2023 17:11:16 GMT-0400 (Eastern Daylight Time)","358102","red","green","","1043","","","","choice","","img/green_ll/choose11.jpg","1","218","green","0.5","0.5","0.5","w","",""
"animation","19","70839","0.0-5.0-2.7","6404fb7b9a7b3cfb4179d185","bdp_lott","Tue Mar 28 2023 17:11:16 GMT-0400 (Eastern Daylight Time)","358102","red","green","","","","","","","","","","218","","","","","","[{""stimulus"":""img/green_wl/1.jpg"",""time"":52},{""stimulus"":""img/green_wl/2.jpg"",""time"":101},{""stimulus"":""img/green_wl/3.jpg"",""time"":163},{""stimulus"":""img/green_wl/4.jpg"",""time"":201},{""stimulus"":""img/green_wl/5.jpg"",""time"":261},{""stimulus"":""img/green_wl/6.jpg"",""time"":308},{""stimulus"":""img/green_wl/7.jpg"",""time"":350},{""stimulus"":""img/green_wl/8.jpg"",""time"":400},{""stimulus"":""img/green_wl/9.jpg"",""time"":450},{""stimulus"":""img/green_wl/10.jpg"",""time"":500},{""stimulus"":""img/green_wl/11.jpg"",""time"":550}]","[]"
"image-keyboard-response","20","72119","0.0-5.0-1.8","6404fb7b9a7b3cfb4179d185","bdp_lott","Tue Mar 28 2023 17:11:16 GMT-0400 (Eastern Daylight Time)","358102","red","green","","1279","","","","choice","","img/green_wl/choose11.jpg","1","217","green","0.5","0.5","0.5","w","",""
"animation","21","72720","0.0-5.0-2.8","6404fb7b9a7b3cfb4179d185","bdp_lott","Tue Mar 28 2023 17:11:16 GMT-0400 (Eastern Daylight Time)","358102","red","green","","","","","","","","","","217","","","","","","[{""stimulus"":""img/green_wl/1.jpg"",""time"":54},{""stimulus"":""img/green_wl/2.jpg"",""time"":100},{""stimulus"":""img/green_wl/3.jpg"",""time"":151},{""stimulus"":""img/green_wl/4.jpg"",""time"":212},{""stimulus"":""img/green_wl/5.jpg"",""time"":258},{""stimulus"":""img/green_wl/6.jpg"",""time"":301},{""stimulus"":""img/green_wl/7.jpg"",""time"":351},{""stimulus"":""img/green_wl/8.jpg"",""time"":402},{""stimulus"":""img/green_wl/9.jpg"",""time"":451},{""stimulus"":""img/green_wl/10.jpg"",""time"":501},{""stimulus"":""img/green_wl/11.jpg"",""time"":551}]","[]"
"image-keyboard-response","22","74112","0.0-5.0-1.9","6404fb7b9a7b3cfb4179d185","bdp_lott","Tue Mar 28 2023 17:11:16 GMT-0400 (Eastern Daylight Time)","358102","red","green","","1392","","","","choice","","img/green_wl/choose11.jpg","1","216","green","0.5","0.5","0.5","w","",""
"animation","23","74712","0.0-5.0-2.9","6404fb7b9a7b3cfb4179d185","bdp_lott","Tue Mar 28 2023 17:11:16 GMT-0400 (Eastern Daylight Time)","358102","red","green","","","","","","","","","","216","","","","","","[{""stimulus"":""img/green_wl/1.jpg"",""time"":58},{""stimulus"":""img/green_wl/2.jpg"",""time"":101},{""stimulus"":""img/green_wl/3.jpg"",""time"":153},{""stimulus"":""img/green_wl/4.jpg"",""time"":201},{""stimulus"":""img/green_wl/5.jpg"",""time"":264},{""stimulus"":""img/green_wl/6.jpg"",""time"":300},{""stimulus"":""img/green_wl/7.jpg"",""time"":350},{""stimulus"":""img/green_wl/8.jpg"",""time"":400},{""stimulus"":""img/green_wl/9.jpg"",""time"":450},{""stimulus"":""img/green_wl/10.jpg"",""time"":500},{""stimulus"":""img/green_wl/11.jpg"",""time"":550}]","[]"
"image-keyboard-response","24","75838","0.0-5.0-1.10","6404fb7b9a7b3cfb4179d185","bdp_lott","Tue Mar 28 2023 17:11:16 GMT-0400 (Eastern Daylight Time)","358102","red","green","","1126","","","","choice","","img/green_wl/choose11.jpg","1","215","green","0.5","0.5","0.5","w","",""
"animation","25","76439","0.0-5.0-2.10","6404fb7b9a7b3cfb4179d185","bdp_lott","Tue Mar 28 2023 17:11:16 GMT-0400 (Eastern Daylight Time)","358102","red","green","","","","","","","","","","215","","","","","","[{""stimulus"":""img/green_wl/1.jpg"",""time"":61},{""stimulus"":""img/green_wl/2.jpg"",""time"":101},{""stimulus"":""img/green_wl/3.jpg"",""time"":151},{""stimulus"":""img/green_wl/4.jpg"",""time"":201},{""stimulus"":""img/green_wl/5.jpg"",""time"":251},{""stimulus"":""img/green_wl/6.jpg"",""time"":302},{""stimulus"":""img/green_wl/7.jpg"",""time"":351},{""stimulus"":""img/green_wl/8.jpg"",""time"":401},{""stimulus"":""img/green_wl/9.jpg"",""time"":451},{""stimulus"":""img/green_wl/10.jpg"",""time"":500},{""stimulus"":""img/green_wl/11.jpg"",""time"":551}]","[]"
"image-keyboard-response","26","77498","0.0-5.0-1.11","6404fb7b9a7b3cfb4179d185","bdp_lott","Tue Mar 28 2023 17:11:16 GMT-0400 (Eastern Daylight Time)","358102","red","green","","1059","","","","choice","","img/green_wl/choose11.jpg","1","214","green","0.5","0.5","0.5","w","",""
"animation","27","78099","0.0-5.0-2.11","6404fb7b9a7b3cfb4179d185","bdp_lott","Tue Mar 28 2023 17:11:16 GMT-0400 (Eastern Daylight Time)","358102","red","green","","","","","","","","","","214","","","","","","[{""stimulus"":""img/green_wl/1.jpg"",""time"":63},{""stimulus"":""img/green_wl/2.jpg"",""time"":111},{""stimulus"":""img/green_wl/3.jpg"",""time"":151},{""stimulus"":""img/green_wl/4.jpg"",""time"":201},{""stimulus"":""img/green_wl/5.jpg"",""time"":251},{""stimulus"":""img/green_wl/6.jpg"",""time"":301},{""stimulus"":""img/green_wl/7.jpg"",""time"":351},{""stimulus"":""img/green_wl/8.jpg"",""time"":401},{""stimulus"":""img/green_wl/9.jpg"",""time"":451},{""stimulus"":""img/green_wl/10.jpg"",""time"":501},{""stimulus"":""img/green_wl/11.jpg"",""time"":551}]","[]"
"image-keyboard-response","28","79436","0.0-5.0-1.12","6404fb7b9a7b3cfb4179d185","bdp_lott","Tue Mar 28 2023 17:11:16 GMT-0400 (Eastern Daylight Time)","358102","red","green","","1337","","","","choice","","img/green_wl/choose11.jpg","1","213","green","0.5","0.5","0.5","l","",""
"animation","29","80037","0.0-5.0-2.12","6404fb7b9a7b3cfb4179d185","bdp_lott","Tue Mar 28 2023 17:11:16 GMT-0400 (Eastern Daylight Time)","358102","red","green","","","","","","","","","","213","","","","","","[{""stimulus"":""img/green_ll/1.jpg"",""time"":62},{""stimulus"":""img/green_ll/2.jpg"",""time"":100},{""stimulus"":""img/green_ll/3.jpg"",""time"":156},{""stimulus"":""img/green_ll/4.jpg"",""time"":200},{""stimulus"":""img/green_ll/5.jpg"",""time"":251},{""stimulus"":""img/green_ll/6.jpg"",""time"":300},{""stimulus"":""img/green_ll/7.jpg"",""time"":350},{""stimulus"":""img/green_ll/8.jpg"",""time"":401},{""stimulus"":""img/green_ll/9.jpg"",""time"":450},{""stimulus"":""img/green_ll/10.jpg"",""time"":500},{""stimulus"":""img/green_ll/11.jpg"",""time"":550}]","[]"
"image-keyboard-response","30","81164","0.0-5.0-1.13","6404fb7b9a7b3cfb4179d185","bdp_lott","Tue Mar 28 2023 17:11:16 GMT-0400 (Eastern Daylight Time)","358102","red","green","","1127","","","","choice","","img/green_ll/choose11.jpg","1","212","green","0.5","0.5","0.5","l","",""
"animation","31","81765","0.0-5.0-2.13","6404fb7b9a7b3cfb4179d185","bdp_lott","Tue Mar 28 2023 17:11:16 GMT-0400 (Eastern Daylight Time)","358102","red","green","","","","","","","","","","212","","","","","","[{""stimulus"":""img/green_ll/1.jpg"",""time"":64},{""stimulus"":""img/green_ll/2.jpg"",""time"":101},{""stimulus"":""img/green_ll/3.jpg"",""time"":155},{""stimulus"":""img/green_ll/4.jpg"",""time"":201},{""stimulus"":""img/green_ll/5.jpg"",""time"":251},{""stimulus"":""img/green_ll/6.jpg"",""time"":301},{""stimulus"":""img/green_ll/7.jpg"",""time"":363},{""stimulus"":""img/green_ll/8.jpg"",""time"":413},{""stimulus"":""img/green_ll/9.jpg"",""time"":451},{""stimulus"":""img/green_ll/10.jpg"",""time"":501},{""stimulus"":""img/green_ll/11.jpg"",""time"":551}]","[]"
"image-keyboard-response","32","82629","0.0-5.0-1.14","6404fb7b9a7b3cfb4179d185","bdp_lott","Tue Mar 28 2023 17:11:16 GMT-0400 (Eastern Daylight Time)","358102","red","green","","864","","","","choice","","img/green_ll/choose11.jpg","1","211","green","0.5","0.5","0.5","w","",""
"animation","33","83231","0.0-5.0-2.14","6404fb7b9a7b3cfb4179d185","bdp_lott","Tue Mar 28 2023 17:11:16 GMT-0400 (Eastern Daylight Time)","358102","red","green","","","","","","","","","","211","","","","","","[{""stimulus"":""img/green_wl/1.jpg"",""time"":62},{""stimulus"":""img/green_wl/2.jpg"",""time"":109},{""stimulus"":""img/green_wl/3.jpg"",""time"":157},{""stimulus"":""img/green_wl/4.jpg"",""time"":202},{""stimulus"":""img/green_wl/5.jpg"",""time"":258},{""stimulus"":""img/green_wl/6.jpg"",""time"":302},{""stimulus"":""img/green_wl/7.jpg"",""time"":351},{""stimulus"":""img/green_wl/8.jpg"",""time"":413},{""stimulus"":""img/green_wl/9.jpg"",""time"":451},{""stimulus"":""img/green_wl/10.jpg"",""time"":502},{""stimulus"":""img/green_wl/11.jpg"",""time"":551}]","[]"
"image-keyboard-response","34","84161","0.0-5.0-1.15","6404fb7b9a7b3cfb4179d185","bdp_lott","Tue Mar 28 2023 17:11:16 GMT-0400 (Eastern Daylight Time)","358102","red","green","","930","","","","choice","","img/green_wl/choose11.jpg","1","210","green","0.5","0.5","0.5","l","",""
"animation","35","84762","0.0-5.0-2.15","6404fb7b9a7b3cfb4179d185","bdp_lott","Tue Mar 28 2023 17:11:16 GMT-0400 (Eastern Daylight Time)","358102","red","green","","","","","","","","","","210","","","","","","[{""stimulus"":""img/green_ll/1.jpg"",""time"":54},{""stimulus"":""img/green_ll/2.jpg"",""time"":100},{""stimulus"":""img/green_ll/3.jpg"",""time"":163},{""stimulus"":""img/green_ll/4.jpg"",""time"":201},{""stimulus"":""img/green_ll/5.jpg"",""time"":250},{""stimulus"":""img/green_ll/6.jpg"",""time"":300},{""stimulus"":""img/green_ll/7.jpg"",""time"":351},{""stimulus"":""img/green_ll/8.jpg"",""time"":400},{""stimulus"":""img/green_ll/9.jpg"",""time"":451},{""stimulus"":""img/green_ll/10.jpg"",""time"":501},{""stimulus"":""img/green_ll/11.jpg"",""time"":551}]","[]"
"image-keyboard-response","36","86143","0.0-5.0-1.16","6404fb7b9a7b3cfb4179d185","bdp_lott","Tue Mar 28 2023 17:11:16 GMT-0400 (Eastern Daylight Time)","358102","red","green","","1381","","","","choice","","img/green_ll/choose11.jpg","1","209","green","0.5","0.5","0.5","l","",""
"animation","37","86744","0.0-5.0-2.16","6404fb7b9a7b3cfb4179d185","bdp_lott","Tue Mar 28 2023 17:11:16 GMT-0400 (Eastern Daylight Time)","358102","red","green","","","","","","","","","","209","","","","","","[{""stimulus"":""img/green_ll/1.jpg"",""time"":51},{""stimulus"":""img/green_ll/2.jpg"",""time"":100},{""stimulus"":""img/green_ll/3.jpg"",""time"":150},{""stimulus"":""img/green_ll/4.jpg"",""time"":201},{""stimulus"":""img/green_ll/5.jpg"",""time"":250},{""stimulus"":""img/green_ll/6.jpg"",""time"":300},{""stimulus"":""img/green_ll/7.jpg"",""time"":350},{""stimulus"":""img/green_ll/8.jpg"",""time"":400},{""stimulus"":""img/green_ll/9.jpg"",""time"":451},{""stimulus"":""img/green_ll/10.jpg"",""time"":501},{""stimulus"":""img/green_ll/11.jpg"",""time"":551}]","[]"
"image-keyboard-response","38","87447","0.0-5.0-1.17","6404fb7b9a7b3cfb4179d185","bdp_lott","Tue Mar 28 2023 17:11:16 GMT-0400 (Eastern Daylight Time)","358102","red","green","","703","","","","choice","","img/green_ll/choose11.jpg","1","208","green","0.5","0.5","0.5","w","",""
"animation","39","88049","0.0-5.0-2.17","6404fb7b9a7b3cfb4179d185","bdp_lott","Tue Mar 28 2023 17:11:16 GMT-0400 (Eastern Daylight Time)","358102","red","green","","","","","","","","","","208","","","","","","[{""stimulus"":""img/green_wl/1.jpg"",""time"":65},{""stimulus"":""img/green_wl/2.jpg"",""time"":110},{""stimulus"":""img/green_wl/3.jpg"",""time"":151},{""stimulus"":""img/green_wl/4.jpg"",""time"":201},{""stimulus"":""img/green_wl/5.jpg"",""time"":251},{""stimulus"":""img/green_wl/6.jpg"",""time"":302},{""stimulus"":""img/green_wl/7.jpg"",""time"":351},{""stimulus"":""img/green_wl/8.jpg"",""time"":401},{""stimulus"":""img/green_wl/9.jpg"",""time"":459},{""stimulus"":""img/green_wl/10.jpg"",""time"":501},{""stimulus"":""img/green_wl/11.jpg"",""time"":551}]","[]"
"image-keyboard-response","40","89087","0.0-5.0-1.18","6404fb7b9a7b3cfb4179d185","bdp_lott","Tue Mar 28 2023 17:11:16 GMT-0400 (Eastern Daylight Time)","358102","red","green","","1038","","","","choice","","img/green_wl/choose11.jpg","1","207","green","0.5","0.5","0.5","l","",""
"animation","41","89699","0.0-5.0-2.18","6404fb7b9a7b3cfb4179d185","bdp_lott","Tue Mar 28 2023 17:11:16 GMT-0400 (Eastern Daylight Time)","358102","red","green","","","","","","","","","","207","","","","","","[{""stimulus"":""img/green_ll/1.jpg"",""time"":52},{""stimulus"":""img/green_ll/2.jpg"",""time"":102},{""stimulus"":""img/green_ll/3.jpg"",""time"":151},{""stimulus"":""img/green_ll/4.jpg"",""time"":201},{""stimulus"":""img/green_ll/5.jpg"",""time"":251},{""stimulus"":""img/green_ll/6.jpg"",""time"":301},{""stimulus"":""img/green_ll/7.jpg"",""time"":351},{""stimulus"":""img/green_ll/8.jpg"",""time"":401},{""stimulus"":""img/green_ll/9.jpg"",""time"":451},{""stimulus"":""img/green_ll/10.jpg"",""time"":501},{""stimulus"":""img/green_ll/11.jpg"",""time"":551}]","[]"
"image-keyboard-response","42","90777","0.0-5.0-1.19","6404fb7b9a7b3cfb4179d185","bdp_lott","Tue Mar 28 2023 17:11:16 GMT-0400 (Eastern Daylight Time)","358102","red","green","","1077","","","","choice","","img/green_ll/choose11.jpg","1","206","green","0.5","0.5","0.5","l","",""
"animation","43","91378","0.0-5.0-2.19","6404fb7b9a7b3cfb4179d185","bdp_lott","Tue Mar 28 2023 17:11:16 GMT-0400 (Eastern Daylight Time)","358102","red","green","","","","","","","","","","206","","","","","","[{""stimulus"":""img/green_ll/1.jpg"",""time"":60},{""stimulus"":""img/green_ll/2.jpg"",""time"":101},{""stimulus"":""img/green_ll/3.jpg"",""time"":163},{""stimulus"":""img/green_ll/4.jpg"",""time"":210},{""stimulus"":""img/green_ll/5.jpg"",""time"":258},{""stimulus"":""img/green_ll/6.jpg"",""time"":300},{""stimulus"":""img/green_ll/7.jpg"",""time"":350},{""stimulus"":""img/green_ll/8.jpg"",""time"":400},{""stimulus"":""img/green_ll/9.jpg"",""time"":450},{""stimulus"":""img/green_ll/10.jpg"",""time"":500},{""stimulus"":""img/green_ll/11.jpg"",""time"":551}]","[]"
"image-keyboard-response","44","92137","0.0-5.0-1.20","6404fb7b9a7b3cfb4179d185","bdp_lott","Tue Mar 28 2023 17:11:16 GMT-0400 (Eastern Daylight Time)","358102","red","green","","758","","","","choice","","img/green_ll/choose11.jpg","1","205","green","0.5","0.5","0.5","w","",""
"animation","45","92737","0.0-5.0-2.20","6404fb7b9a7b3cfb4179d185","bdp_lott","Tue Mar 28 2023 17:11:16 GMT-0400 (Eastern Daylight Time)","358102","red","green","","","","","","","","","","205","","","","","","[{""stimulus"":""img/green_wl/1.jpg"",""time"":56},{""stimulus"":""img/green_wl/2.jpg"",""time"":101},{""stimulus"":""img/green_wl/3.jpg"",""time"":167},{""stimulus"":""img/green_wl/4.jpg"",""time"":201},{""stimulus"":""img/green_wl/5.jpg"",""time"":262},{""stimulus"":""img/green_wl/6.jpg"",""time"":301},{""stimulus"":""img/green_wl/7.jpg"",""time"":351},{""stimulus"":""img/green_wl/8.jpg"",""time"":401},{""stimulus"":""img/green_wl/9.jpg"",""time"":451},{""stimulus"":""img/green_wl/10.jpg"",""time"":500},{""stimulus"":""img/green_wl/11.jpg"",""time"":550}]","[]"
"image-keyboard-response","46","93751","0.0-5.0-1.21","6404fb7b9a7b3cfb4179d185","bdp_lott","Tue Mar 28 2023 17:11:16 GMT-0400 (Eastern Daylight Time)","358102","red","green","","1013","","","","choice","","img/green_wl/choose11.jpg","1","204","green","0.5","0.5","0.5","w","",""
"animation","47","94351","0.0-5.0-2.21","6404fb7b9a7b3cfb4179d185","bdp_lott","Tue Mar 28 2023 17:11:16 GMT-0400 (Eastern Daylight Time)","358102","red","green","","","","","","","","","","204","","","","","","[{""stimulus"":""img/green_wl/1.jpg"",""time"":65},{""stimulus"":""img/green_wl/2.jpg"",""time"":101},{""stimulus"":""img/green_wl/3.jpg"",""time"":150},{""stimulus"":""img/green_wl/4.jpg"",""time"":201},{""stimulus"":""img/green_wl/5.jpg"",""time"":251},{""stimulus"":""img/green_wl/6.jpg"",""time"":300},{""stimulus"":""img/green_wl/7.jpg"",""time"":350},{""stimulus"":""img/green_wl/8.jpg"",""time"":400},{""stimulus"":""img/green_wl/9.jpg"",""time"":451},{""stimulus"":""img/green_wl/10.jpg"",""time"":501},{""stimulus"":""img/green_wl/11.jpg"",""time"":550}]","[]"
"image-keyboard-response","48","95140","0.0-5.0-1.22","6404fb7b9a7b3cfb4179d185","bdp_lott","Tue Mar 28 2023 17:11:16 GMT-0400 (Eastern Daylight Time)","358102","red","green","","788","","","","choice","","img/green_wl/choose11.jpg","1","203","green","0.5","0.5","0.5","l","",""
"animation","49","95741","0.0-5.0-2.22","6404fb7b9a7b3cfb4179d185","bdp_lott","Tue Mar 28 2023 17:11:16 GMT-0400 (Eastern Daylight Time)","358102","red","green","","","","","","","","","","203","","","","","","[{""stimulus"":""img/green_ll/1.jpg"",""time"":64},{""stimulus"":""img/green_ll/2.jpg"",""time"":110},{""stimulus"":""img/green_ll/3.jpg"",""time"":151},{""stimulus"":""img/green_ll/4.jpg"",""time"":201},{""stimulus"":""img/green_ll/5.jpg"",""time"":254},{""stimulus"":""img/green_ll/6.jpg"",""time"":301},{""stimulus"":""img/green_ll/7.jpg"",""time"":351},{""stimulus"":""img/green_ll/8.jpg"",""time"":401},{""stimulus"":""img/green_ll/9.jpg"",""time"":451},{""stimulus"":""img/green_ll/10.jpg"",""time"":501},{""stimulus"":""img/green_ll/11.jpg"",""time"":551}]","[]"
"image-keyboard-response","50","96676","0.0-5.0-1.23","6404fb7b9a7b3cfb4179d185","bdp_lott","Tue Mar 28 2023 17:11:16 GMT-0400 (Eastern Daylight Time)","358102","red","green","","935","","","","choice","","img/green_ll/choose11.jpg","1","202","green","0.5","0.5","0.5","w","",""
"animation","51","97277","0.0-5.0-2.23","6404fb7b9a7b3cfb4179d185","bdp_lott","Tue Mar 28 2023 17:11:16 GMT-0400 (Eastern Daylight Time)","358102","red","green","","","","","","","","","","202","","","","","","[{""stimulus"":""img/green_wl/1.jpg"",""time"":64},{""stimulus"":""img/green_wl/2.jpg"",""time"":112},{""stimulus"":""img/green_wl/3.jpg"",""time"":151},{""stimulus"":""img/green_wl/4.jpg"",""time"":202},{""stimulus"":""img/green_wl/5.jpg"",""time"":252},{""stimulus"":""img/green_wl/6.jpg"",""time"":301},{""stimulus"":""img/green_wl/7.jpg"",""time"":351},{""stimulus"":""img/green_wl/8.jpg"",""time"":401},{""stimulus"":""img/green_wl/9.jpg"",""time"":451},{""stimulus"":""img/green_wl/10.jpg"",""time"":501},{""stimulus"":""img/green_wl/11.jpg"",""time"":551}]","[]"
"image-keyboard-response","52","98155","0.0-5.0-1.24","6404fb7b9a7b3cfb4179d185","bdp_lott","Tue Mar 28 2023 17:11:16 GMT-0400 (Eastern Daylight Time)","358102","red","green","","877","","","","choice","","img/green_wl/choose11.jpg","1","201","green","0.5","0.5","0.5","l","",""
"animation","53","98756","0.0-5.0-2.24","6404fb7b9a7b3cfb4179d185","bdp_lott","Tue Mar 28 2023 17:11:16 GMT-0400 (Eastern Daylight Time)","358102","red","green","","","","","","","","","","201","","","","","","[{""stimulus"":""img/green_ll/1.jpg"",""time"":64},{""stimulus"":""img/green_ll/2.jpg"",""time"":100},{""stimulus"":""img/green_ll/3.jpg"",""time"":150},{""stimulus"":""img/green_ll/4.jpg"",""time"":200},{""stimulus"":""img/green_ll/5.jpg"",""time"":250},{""stimulus"":""img/green_ll/6.jpg"",""time"":300},{""stimulus"":""img/green_ll/7.jpg"",""time"":350},{""stimulus"":""img/green_ll/8.jpg"",""time"":400},{""stimulus"":""img/green_ll/9.jpg"",""time"":450},{""stimulus"":""img/green_ll/10.jpg"",""time"":500},{""stimulus"":""img/green_ll/11.jpg"",""time"":550}]","[]"
"image-keyboard-response","54","99488","0.0-5.0-1.25","6404fb7b9a7b3cfb4179d185","bdp_lott","Tue Mar 28 2023 17:11:16 GMT-0400 (Eastern Daylight Time)","358102","red","green","","730","","","","choice","","img/green_ll/choose11.jpg","1","200","green","0.5","0.5","0.5","w","",""
"animation","55","100088","0.0-5.0-2.25","6404fb7b9a7b3cfb4179d185","bdp_lott","Tue Mar 28 2023 17:11:16 GMT-0400 (Eastern Daylight Time)","358102","red","green","","","","","","","","","","200","","","","","","[{""stimulus"":""img/green_wl/1.jpg"",""time"":53},{""stimulus"":""img/green_wl/2.jpg"",""time"":100},{""stimulus"":""img/green_wl/3.jpg"",""time"":150},{""stimulus"":""img/green_wl/4.jpg"",""time"":200},{""stimulus"":""img/green_wl/5.jpg"",""time"":250},{""stimulus"":""img/green_wl/6.jpg"",""time"":300},{""stimulus"":""img/green_wl/7.jpg"",""time"":350},{""stimulus"":""img/green_wl/8.jpg"",""time"":400},{""stimulus"":""img/green_wl/9.jpg"",""time"":450},{""stimulus"":""img/green_wl/10.jpg"",""time"":500},{""stimulus"":""img/green_wl/11.jpg"",""time"":550}]","[]"
"image-keyboard-response","56","100979","0.0-5.0-1.26","6404fb7b9a7b3cfb4179d185","bdp_lott","Tue Mar 28 2023 17:11:16 GMT-0400 (Eastern Daylight Time)","358102","red","green","","891","","","","choice","","img/green_wl/choose11.jpg","1","199","green","0.5","0.5","0.5","l","",""
"animation","57","101580","0.0-5.0-2.26","6404fb7b9a7b3cfb4179d185","bdp_lott","Tue Mar 28 2023 17:11:16 GMT-0400 (Eastern Daylight Time)","358102","red","green","","","","","","","","","","199","","","","","","[{""stimulus"":""img/green_ll/1.jpg"",""time"":56},{""stimulus"":""img/green_ll/2.jpg"",""time"":103},{""stimulus"":""img/green_ll/3.jpg"",""time"":151},{""stimulus"":""img/green_ll/4.jpg"",""time"":212},{""stimulus"":""img/green_ll/5.jpg"",""time"":251},{""stimulus"":""img/green_ll/6.jpg"",""time"":306},{""stimulus"":""img/green_ll/7.jpg"",""time"":351},{""stimulus"":""img/green_ll/8.jpg"",""time"":401},{""stimulus"":""img/green_ll/9.jpg"",""time"":450},{""stimulus"":""img/green_ll/10.jpg"",""time"":500},{""stimulus"":""img/green_ll/11.jpg"",""time"":550}]","[]"
"image-keyboard-response","58","102428","0.0-5.0-1.27","6404fb7b9a7b3cfb4179d185","bdp_lott","Tue Mar 28 2023 17:11:16 GMT-0400 (Eastern Daylight Time)","358102","red","green","","848","","","","choice","","img/green_ll/choose11.jpg","1","198","green","0.5","0.5","0.5","w","",""
"animation","59","103029","0.0-5.0-2.27","6404fb7b9a7b3cfb4179d185","bdp_lott","Tue Mar 28 2023 17:11:16 GMT-0400 (Eastern Daylight Time)","358102","red","green","","","","","","","","","","198","","","","","","[{""stimulus"":""img/green_wl/1.jpg"",""time"":54},{""stimulus"":""img/green_wl/2.jpg"",""time"":100},{""stimulus"":""img/green_wl/3.jpg"",""time"":165},{""stimulus"":""img/green_wl/4.jpg"",""time"":201},{""stimulus"":""img/green_wl/5.jpg"",""time"":251},{""stimulus"":""img/green_wl/6.jpg"",""time"":301},{""stimulus"":""img/green_wl/7.jpg"",""time"":351},{""stimulus"":""img/green_wl/8.jpg"",""time"":401},{""stimulus"":""img/green_wl/9.jpg"",""time"":451},{""stimulus"":""img/green_wl/10.jpg"",""time"":501},{""stimulus"":""img/green_wl/11.jpg"",""time"":551}]","[]"
"image-keyboard-response","60","103927","0.0-5.0-1.28","6404fb7b9a7b3cfb4179d185","bdp_lott","Tue Mar 28 2023 17:11:16 GMT-0400 (Eastern Daylight Time)","358102","red","green","","898","","","","choice","","img/green_wl/choose11.jpg","1","197","green","0.5","0.5","0.5","l","",""
"animation","61","104528","0.0-5.0-2.28","6404fb7b9a7b3cfb4179d185","bdp_lott","Tue Mar 28 2023 17:11:16 GMT-0400 (Eastern Daylight Time)","358102","red","green","","","","","","","","","","197","","","","","","[{""stimulus"":""img/green_ll/1.jpg"",""time"":59},{""stimulus"":""img/green_ll/2.jpg"",""time"":101},{""stimulus"":""img/green_ll/3.jpg"",""time"":150},{""stimulus"":""img/green_ll/4.jpg"",""time"":200},{""stimulus"":""img/green_ll/5.jpg"",""time"":250},{""stimulus"":""img/green_ll/6.jpg"",""time"":300},{""stimulus"":""img/green_ll/7.jpg"",""time"":350},{""stimulus"":""img/green_ll/8.jpg"",""time"":401},{""stimulus"":""img/green_ll/9.jpg"",""time"":457},{""stimulus"":""img/green_ll/10.jpg"",""time"":500},{""stimulus"":""img/green_ll/11.jpg"",""time"":551}]","[]"
"image-keyboard-response","62","105955","0.0-5.0-1.29","6404fb7b9a7b3cfb4179d185","bdp_lott","Tue Mar 28 2023 17:11:16 GMT-0400 (Eastern Daylight Time)","358102","red","green","","1426","","","","choice","","img/green_ll/choose11.jpg","1","196","green","0.5","0.5","0.5","w","",""
"animation","63","106561","0.0-5.0-2.29","6404fb7b9a7b3cfb4179d185","bdp_lott","Tue Mar 28 2023 17:11:16 GMT-0400 (Eastern Daylight Time)","358102","red","green","","","","","","","","","","196","","","","","","[{""stimulus"":""img/green_wl/1.jpg"",""time"":57},{""stimulus"":""img/green_wl/2.jpg"",""time"":100},{""stimulus"":""img/green_wl/3.jpg"",""time"":150},{""stimulus"":""img/green_wl/4.jpg"",""time"":200},{""stimulus"":""img/green_wl/5.jpg"",""time"":250},{""stimulus"":""img/green_wl/6.jpg"",""time"":300},{""stimulus"":""img/green_wl/7.jpg"",""time"":350},{""stimulus"":""img/green_wl/8.jpg"",""time"":400},{""stimulus"":""img/green_wl/9.jpg"",""time"":450},{""stimulus"":""img/green_wl/10.jpg"",""time"":505},{""stimulus"":""img/green_wl/11.jpg"",""time"":551}]","[]"
"image-keyboard-response","64","107593","0.0-5.0-1.30","6404fb7b9a7b3cfb4179d185","bdp_lott","Tue Mar 28 2023 17:11:16 GMT-0400 (Eastern Daylight Time)","358102","red","green","","1031","","","","choice","","img/green_wl/choose11.jpg","1","195","green","0.5","0.5","0.5","w","",""
"animation","65","108194","0.0-5.0-2.30","6404fb7b9a7b3cfb4179d185","bdp_lott","Tue Mar 28 2023 17:11:16 GMT-0400 (Eastern Daylight Time)","358102","red","green","","","","","","","","","","195","","","","","","[{""stimulus"":""img/green_wl/1.jpg"",""time"":52},{""stimulus"":""img/green_wl/2.jpg"",""time"":100},{""stimulus"":""img/green_wl/3.jpg"",""time"":151},{""stimulus"":""img/green_wl/4.jpg"",""time"":214},{""stimulus"":""img/green_wl/5.jpg"",""time"":250},{""stimulus"":""img/green_wl/6.jpg"",""time"":300},{""stimulus"":""img/green_wl/7.jpg"",""time"":350},{""stimulus"":""img/green_wl/8.jpg"",""time"":400},{""stimulus"":""img/green_wl/9.jpg"",""time"":450},{""stimulus"":""img/green_wl/10.jpg"",""time"":500},{""stimulus"":""img/green_wl/11.jpg"",""time"":550}]","[]"
"image-keyboard-response","66","109096","0.0-5.0-1.31","6404fb7b9a7b3cfb4179d185","bdp_lott","Tue Mar 28 2023 17:11:16 GMT-0400 (Eastern Daylight Time)","358102","red","green","","902","","","","choice","","img/green_wl/choose11.jpg","1","194","green","0.5","0.5","0.5","l","",""
"animation","67","109696","0.0-5.0-2.31","6404fb7b9a7b3cfb4179d185","bdp_lott","Tue Mar 28 2023 17:11:16 GMT-0400 (Eastern Daylight Time)","358102","red","green","","","","","","","","","","194","","","","","","[{""stimulus"":""img/green_ll/1.jpg"",""time"":55},{""stimulus"":""img/green_ll/2.jpg"",""time"":100},{""stimulus"":""img/green_ll/3.jpg"",""time"":151},{""stimulus"":""img/green_ll/4.jpg"",""time"":201},{""stimulus"":""img/green_ll/5.jpg"",""time"":251},{""stimulus"":""img/green_ll/6.jpg"",""time"":300},{""stimulus"":""img/green_ll/7.jpg"",""time"":350},{""stimulus"":""img/green_ll/8.jpg"",""time"":400},{""stimulus"":""img/green_ll/9.jpg"",""time"":450},{""stimulus"":""img/green_ll/10.jpg"",""time"":500},{""stimulus"":""img/green_ll/11.jpg"",""time"":550}]","[]"
"image-keyboard-response","68","110901","0.0-5.0-1.32","6404fb7b9a7b3cfb4179d185","bdp_lott","Tue Mar 28 2023 17:11:16 GMT-0400 (Eastern Daylight Time)","358102","red","green","","1204","","","","choice","","img/green_ll/choose11.jpg","1","193","green","0.5","0.5","0.5","w","",""
"animation","69","111501","0.0-5.0-2.32","6404fb7b9a7b3cfb4179d185","bdp_lott","Tue Mar 28 2023 17:11:16 GMT-0400 (Eastern Daylight Time)","358102","red","green","","","","","","","","","","193","","","","","","[{""stimulus"":""img/green_wl/1.jpg"",""time"":53},{""stimulus"":""img/green_wl/2.jpg"",""time"":101},{""stimulus"":""img/green_wl/3.jpg"",""time"":163},{""stimulus"":""img/green_wl/4.jpg"",""time"":201},{""stimulus"":""img/green_wl/5.jpg"",""time"":257},{""stimulus"":""img/green_wl/6.jpg"",""time"":301},{""stimulus"":""img/green_wl/7.jpg"",""time"":351},{""stimulus"":""img/green_wl/8.jpg"",""time"":401},{""stimulus"":""img/green_wl/9.jpg"",""time"":450},{""stimulus"":""img/green_wl/10.jpg"",""time"":501},{""stimulus"":""img/green_wl/11.jpg"",""time"":551}]","[]"
"image-keyboard-response","70","112242","0.0-5.0-1.33","6404fb7b9a7b3cfb4179d185","bdp_lott","Tue Mar 28 2023 17:11:16 GMT-0400 (Eastern Daylight Time)","358102","red","green","","740","","","","choice","","img/green_wl/choose11.jpg","1","192","green","0.5","0.5","0.5","l","",""
"animation","71","112843","0.0-5.0-2.33","6404fb7b9a7b3cfb4179d185","bdp_lott","Tue Mar 28 2023 17:11:16 GMT-0400 (Eastern Daylight Time)","358102","red","green","","","","","","","","","","192","","","","","","[{""stimulus"":""img/green_ll/1.jpg"",""time"":66},{""stimulus"":""img/green_ll/2.jpg"",""time"":100},{""stimulus"":""img/green_ll/3.jpg"",""time"":160},{""stimulus"":""img/green_ll/4.jpg"",""time"":201},{""stimulus"":""img/green_ll/5.jpg"",""time"":254},{""stimulus"":""img/green_ll/6.jpg"",""time"":316},{""stimulus"":""img/green_ll/7.jpg"",""time"":351},{""stimulus"":""img/green_ll/8.jpg"",""time"":412},{""stimulus"":""img/green_ll/9.jpg"",""time"":451},{""stimulus"":""img/green_ll/10.jpg"",""time"":502},{""stimulus"":""img/green_ll/11.jpg"",""time"":551}]","[]"
"image-keyboard-response","72","113775","0.0-5.0-1.34","6404fb7b9a7b3cfb4179d185","bdp_lott","Tue Mar 28 2023 17:11:16 GMT-0400 (Eastern Daylight Time)","358102","red","green","","932","","","","choice","","img/green_ll/choose11.jpg","1","191","green","0.5","0.5","0.5","w","",""
"animation","73","114375","0.0-5.0-2.34","6404fb7b9a7b3cfb4179d185","bdp_lott","Tue Mar 28 2023 17:11:16 GMT-0400 (Eastern Daylight Time)","358102","red","green","","","","","","","","","","191","","","","","","[{""stimulus"":""img/green_wl/1.jpg"",""time"":54},{""stimulus"":""img/green_wl/2.jpg"",""time"":102},{""stimulus"":""img/green_wl/3.jpg"",""time"":151},{""stimulus"":""img/green_wl/4.jpg"",""time"":201},{""stimulus"":""img/green_wl/5.jpg"",""time"":251},{""stimulus"":""img/green_wl/6.jpg"",""time"":301},{""stimulus"":""img/green_wl/7.jpg"",""time"":351},{""stimulus"":""img/green_wl/8.jpg"",""time"":401},{""stimulus"":""img/green_wl/9.jpg"",""time"":450},{""stimulus"":""img/green_wl/10.jpg"",""time"":500},{""stimulus"":""img/green_wl/11.jpg"",""time"":550}]","[]"
"image-keyboard-response","74","115066","0.0-5.0-1.35","6404fb7b9a7b3cfb4179d185","bdp_lott","Tue Mar 28 2023 17:11:16 GMT-0400 (Eastern Daylight Time)","358102","red","green","","691","","","","choice","","img/green_wl/choose11.jpg","1","190","green","0.5","0.5","0.5","w","",""
"animation","75","115666","0.0-5.0-2.35","6404fb7b9a7b3cfb4179d185","bdp_lott","Tue Mar 28 2023 17:11:16 GMT-0400 (Eastern Daylight Time)","358102","red","green","","","","","","","","","","190","","","","","","[{""stimulus"":""img/green_wl/1.jpg"",""time"":65},{""stimulus"":""img/green_wl/2.jpg"",""time"":101},{""stimulus"":""img/green_wl/3.jpg"",""time"":151},{""stimulus"":""img/green_wl/4.jpg"",""time"":201},{""stimulus"":""img/green_wl/5.jpg"",""time"":251},{""stimulus"":""img/green_wl/6.jpg"",""time"":301},{""stimulus"":""img/green_wl/7.jpg"",""time"":351},{""stimulus"":""img/green_wl/8.jpg"",""time"":401},{""stimulus"":""img/green_wl/9.jpg"",""time"":451},{""stimulus"":""img/green_wl/10.jpg"",""time"":501},{""stimulus"":""img/green_wl/11.jpg"",""time"":551}]","[]"
"image-keyboard-response","76","116353","0.0-5.0-1.36","6404fb7b9a7b3cfb4179d185","bdp_lott","Tue Mar 28 2023 17:11:16 GMT-0400 (Eastern Daylight Time)","358102","red","green","","686","","","","choice","","img/green_wl/choose11.jpg","1","189","green","0.5","0.5","0.5","l","",""
"animation","77","116961","0.0-5.0-2.36","6404fb7b9a7b3cfb4179d185","bdp_lott","Tue Mar 28 2023 17:11:16 GMT-0400 (Eastern Daylight Time)","358102","red","green","","","","","","","","","","189","","","","","","[{""stimulus"":""img/green_ll/1.jpg"",""time"":54},{""stimulus"":""img/green_ll/2.jpg"",""time"":101},{""stimulus"":""img/green_ll/3.jpg"",""time"":163},{""stimulus"":""img/green_ll/4.jpg"",""time"":200},{""stimulus"":""img/green_ll/5.jpg"",""time"":256},{""stimulus"":""img/green_ll/6.jpg"",""time"":300},{""stimulus"":""img/green_ll/7.jpg"",""time"":350},{""stimulus"":""img/green_ll/8.jpg"",""time"":400},{""stimulus"":""img/green_ll/9.jpg"",""time"":450},{""stimulus"":""img/green_ll/10.jpg"",""time"":500},{""stimulus"":""img/green_ll/11.jpg"",""time"":550}]","[]"
"image-keyboard-response","78","117765","0.0-5.0-1.37","6404fb7b9a7b3cfb4179d185","bdp_lott","Tue Mar 28 2023 17:11:16 GMT-0400 (Eastern Daylight Time)","358102","red","green","","804","","","","choice","","img/green_ll/choose11.jpg","1","188","green","0.5","0.5","0.5","w","",""
"animation","79","118368","0.0-5.0-2.37","6404fb7b9a7b3cfb4179d185","bdp_lott","Tue Mar 28 2023 17:11:16 GMT-0400 (Eastern Daylight Time)","358102","red","green","","","","","","","","","","188","","","","","","[{""stimulus"":""img/green_wl/1.jpg"",""time"":52},{""stimulus"":""img/green_wl/2.jpg"",""time"":100},{""stimulus"":""img/green_wl/3.jpg"",""time"":158},{""stimulus"":""img/green_wl/4.jpg"",""time"":212},{""stimulus"":""img/green_wl/5.jpg"",""time"":251},{""stimulus"":""img/green_wl/6.jpg"",""time"":308},{""stimulus"":""img/green_wl/7.jpg"",""time"":350},{""stimulus"":""img/green_wl/8.jpg"",""time"":400},{""stimulus"":""img/green_wl/9.jpg"",""time"":450},{""stimulus"":""img/green_wl/10.jpg"",""time"":500},{""stimulus"":""img/green_wl/11.jpg"",""time"":552}]","[]"
"image-keyboard-response","80","119029","0.0-5.0-1.38","6404fb7b9a7b3cfb4179d185","bdp_lott","Tue Mar 28 2023 17:11:16 GMT-0400 (Eastern Daylight Time)","358102","red","green","","661","","","","choice","","img/green_wl/choose11.jpg","1","187","green","0.5","0.5","0.5","w","",""
"animation","81","119630","0.0-5.0-2.38","6404fb7b9a7b3cfb4179d185","bdp_lott","Tue Mar 28 2023 17:11:16 GMT-0400 (Eastern Daylight Time)","358102","red","green","","","","","","","","","","187","","","","","","[{""stimulus"":""img/green_wl/1.jpg"",""time"":65},{""stimulus"":""img/green_wl/2.jpg"",""time"":101},{""stimulus"":""img/green_wl/3.jpg"",""time"":160},{""stimulus"":""img/green_wl/4.jpg"",""time"":202},{""stimulus"":""img/green_wl/5.jpg"",""time"":257},{""stimulus"":""img/green_wl/6.jpg"",""time"":302},{""stimulus"":""img/green_wl/7.jpg"",""time"":352},{""stimulus"":""img/green_wl/8.jpg"",""time"":401},{""stimulus"":""img/green_wl/9.jpg"",""time"":451},{""stimulus"":""img/green_wl/10.jpg"",""time"":501},{""stimulus"":""img/green_wl/11.jpg"",""time"":551}]","[]"
"image-keyboard-response","82","120252","0.0-5.0-1.39","6404fb7b9a7b3cfb4179d185","bdp_lott","Tue Mar 28 2023 17:11:16 GMT-0400 (Eastern Daylight Time)","358102","red","green","","621","","","","choice","","img/green_wl/choose11.jpg","1","186","green","0.5","0.5","0.5","w","",""
"animation","83","120854","0.0-5.0-2.39","6404fb7b9a7b3cfb4179d185","bdp_lott","Tue Mar 28 2023 17:11:16 GMT-0400 (Eastern Daylight Time)","358102","red","green","","","","","","","","","","186","","","","","","[{""stimulus"":""img/green_wl/1.jpg"",""time"":60},{""stimulus"":""img/green_wl/2.jpg"",""time"":101},{""stimulus"":""img/green_wl/3.jpg"",""time"":155},{""stimulus"":""img/green_wl/4.jpg"",""time"":201},{""stimulus"":""img/green_wl/5.jpg"",""time"":266},{""stimulus"":""img/green_wl/6.jpg"",""time"":301},{""stimulus"":""img/green_wl/7.jpg"",""time"":351},{""stimulus"":""img/green_wl/8.jpg"",""time"":401},{""stimulus"":""img/green_wl/9.jpg"",""time"":458},{""stimulus"":""img/green_wl/10.jpg"",""time"":501},{""stimulus"":""img/green_wl/11.jpg"",""time"":551}]","[]"
"image-keyboard-response","84","121456","0.0-5.0-1.40","6404fb7b9a7b3cfb4179d185","bdp_lott","Tue Mar 28 2023 17:11:16 GMT-0400 (Eastern Daylight Time)","358102","red","green","","602","","","","choice","","img/green_wl/choose11.jpg","1","185","green","0.5","0.5","0.5","w","",""
"animation","85","122057","0.0-5.0-2.40","6404fb7b9a7b3cfb4179d185","bdp_lott","Tue Mar 28 2023 17:11:16 GMT-0400 (Eastern Daylight Time)","358102","red","green","","","","","","","","","","185","","","","","","[{""stimulus"":""img/green_wl/1.jpg"",""time"":62},{""stimulus"":""img/green_wl/2.jpg"",""time"":101},{""stimulus"":""img/green_wl/3.jpg"",""time"":157},{""stimulus"":""img/green_wl/4.jpg"",""time"":201},{""stimulus"":""img/green_wl/5.jpg"",""time"":252},{""stimulus"":""img/green_wl/6.jpg"",""time"":302},{""stimulus"":""img/green_wl/7.jpg"",""time"":351},{""stimulus"":""img/green_wl/8.jpg"",""time"":401},{""stimulus"":""img/green_wl/9.jpg"",""time"":451},{""stimulus"":""img/green_wl/10.jpg"",""time"":501},{""stimulus"":""img/green_wl/11.jpg"",""time"":551}]","[]"
"image-keyboard-response","86","122576","0.0-5.0-1.41","6404fb7b9a7b3cfb4179d185","bdp_lott","Tue Mar 28 2023 17:11:16 GMT-0400 (Eastern Daylight Time)","358102","red","green","","519","","","","choice","","img/green_wl/choose11.jpg","1","184","green","0.5","0.5","0.5","w","",""
"animation","87","123177","0.0-5.0-2.41","6404fb7b9a7b3cfb4179d185","bdp_lott","Tue Mar 28 2023 17:11:16 GMT-0400 (Eastern Daylight Time)","358102","red","green","","","","","","","","","","184","","","","","","[{""stimulus"":""img/green_wl/1.jpg"",""time"":55},{""stimulus"":""img/green_wl/2.jpg"",""time"":102},{""stimulus"":""img/green_wl/3.jpg"",""time"":165},{""stimulus"":""img/green_wl/4.jpg"",""time"":201},{""stimulus"":""img/green_wl/5.jpg"",""time"":251},{""stimulus"":""img/green_wl/6.jpg"",""time"":301},{""stimulus"":""img/green_wl/7.jpg"",""time"":351},{""stimulus"":""img/green_wl/8.jpg"",""time"":401},{""stimulus"":""img/green_wl/9.jpg"",""time"":451},{""stimulus"":""img/green_wl/10.jpg"",""time"":501},{""stimulus"":""img/green_wl/11.jpg"",""time"":551}]","[]"
"image-keyboard-response","88","123708","0.0-5.0-1.42","6404fb7b9a7b3cfb4179d185","bdp_lott","Tue Mar 28 2023 17:11:16 GMT-0400 (Eastern Daylight Time)","358102","red","green","","531","","","","choice","","img/green_wl/choose11.jpg","1","183","green","0.5","0.5","0.5","l","",""
"animation","89","124310","0.0-5.0-2.42","6404fb7b9a7b3cfb4179d185","bdp_lott","Tue Mar 28 2023 17:11:16 GMT-0400 (Eastern Daylight Time)","358102","red","green","","","","","","","","","","183","","","","","","[{""stimulus"":""img/green_ll/1.jpg"",""time"":57},{""stimulus"":""img/green_ll/2.jpg"",""time"":101},{""stimulus"":""img/green_ll/3.jpg"",""time"":151},{""stimulus"":""img/green_ll/4.jpg"",""time"":202},{""stimulus"":""img/green_ll/5.jpg"",""time"":252},{""stimulus"":""img/green_ll/6.jpg"",""time"":302},{""stimulus"":""img/green_ll/7.jpg"",""time"":352},{""stimulus"":""img/green_ll/8.jpg"",""time"":401},{""stimulus"":""img/green_ll/9.jpg"",""time"":452},{""stimulus"":""img/green_ll/10.jpg"",""time"":502},{""stimulus"":""img/green_ll/11.jpg"",""time"":552}]","[]"
"image-keyboard-response","90","125069","0.0-5.0-1.43","6404fb7b9a7b3cfb4179d185","bdp_lott","Tue Mar 28 2023 17:11:16 GMT-0400 (Eastern Daylight Time)","358102","red","green","","759","","","","choice","","img/green_ll/choose11.jpg","1","182","green","0.5","0.5","0.5","l","",""
"animation","91","125670","0.0-5.0-2.43","6404fb7b9a7b3cfb4179d185","bdp_lott","Tue Mar 28 2023 17:11:16 GMT-0400 (Eastern Daylight Time)","358102","red","green","","","","","","","","","","182","","","","","","[{""stimulus"":""img/green_ll/1.jpg"",""time"":64},{""stimulus"":""img/green_ll/2.jpg"",""time"":112},{""stimulus"":""img/green_ll/3.jpg"",""time"":151},{""stimulus"":""img/green_ll/4.jpg"",""time"":201},{""stimulus"":""img/green_ll/5.jpg"",""time"":251},{""stimulus"":""img/green_ll/6.jpg"",""time"":301},{""stimulus"":""img/green_ll/7.jpg"",""time"":354},{""stimulus"":""img/green_ll/8.jpg"",""time"":401},{""stimulus"":""img/green_ll/9.jpg"",""time"":451},{""stimulus"":""img/green_ll/10.jpg"",""time"":501},{""stimulus"":""img/green_ll/11.jpg"",""time"":551}]","[]"
"image-keyboard-response","92","126316","0.0-5.0-1.44","6404fb7b9a7b3cfb4179d185","bdp_lott","Tue Mar 28 2023 17:11:16 GMT-0400 (Eastern Daylight Time)","358102","red","green","","646","","","","choice","","img/green_ll/choose11.jpg","1","181","green","0.5","0.5","0.5","l","",""
"animation","93","126923","0.0-5.0-2.44","6404fb7b9a7b3cfb4179d185","bdp_lott","Tue Mar 28 2023 17:11:16 GMT-0400 (Eastern Daylight Time)","358102","red","green","","","","","","","","","","181","","","","","","[{""stimulus"":""img/green_ll/1.jpg"",""time"":53},{""stimulus"":""img/green_ll/2.jpg"",""time"":101},{""stimulus"":""img/green_ll/3.jpg"",""time"":151},{""stimulus"":""img/green_ll/4.jpg"",""time"":201},{""stimulus"":""img/green_ll/5.jpg"",""time"":263},{""stimulus"":""img/green_ll/6.jpg"",""time"":301},{""stimulus"":""img/green_ll/7.jpg"",""time"":351},{""stimulus"":""img/green_ll/8.jpg"",""time"":401},{""stimulus"":""img/green_ll/9.jpg"",""time"":451},{""stimulus"":""img/green_ll/10.jpg"",""time"":500},{""stimulus"":""img/green_ll/11.jpg"",""time"":550}]","[]"
"image-keyboard-response","94","127591","0.0-5.0-1.45","6404fb7b9a7b3cfb4179d185","bdp_lott","Tue Mar 28 2023 17:11:16 GMT-0400 (Eastern Daylight Time)","358102","red","green","","667","","","","choice","","img/green_ll/choose11.jpg","1","180","green","0.5","0.5","0.5","w","",""
"animation","95","128193","0.0-5.0-2.45","6404fb7b9a7b3cfb4179d185","bdp_lott","Tue Mar 28 2023 17:11:16 GMT-0400 (Eastern Daylight Time)","358102","red","green","","","","","","","","","","180","","","","","","[{""stimulus"":""img/green_wl/1.jpg"",""time"":55},{""stimulus"":""img/green_wl/2.jpg"",""time"":101},{""stimulus"":""img/green_wl/3.jpg"",""time"":151},{""stimulus"":""img/green_wl/4.jpg"",""time"":201},{""stimulus"":""img/green_wl/5.jpg"",""time"":251},{""stimulus"":""img/green_wl/6.jpg"",""time"":301},{""stimulus"":""img/green_wl/7.jpg"",""time"":351},{""stimulus"":""img/green_wl/8.jpg"",""time"":401},{""stimulus"":""img/green_wl/9.jpg"",""time"":451},{""stimulus"":""img/green_wl/10.jpg"",""time"":501},{""stimulus"":""img/green_wl/11.jpg"",""time"":551}]","[]"
"image-keyboard-response","96","128885","0.0-5.0-1.46","6404fb7b9a7b3cfb4179d185","bdp_lott","Tue Mar 28 2023 17:11:16 GMT-0400 (Eastern Daylight Time)","358102","red","green","","692","","","","choice","","img/green_wl/choose11.jpg","1","179","green","0.5","0.5","0.5","l","",""
"animation","97","129486","0.0-5.0-2.46","6404fb7b9a7b3cfb4179d185","bdp_lott","Tue Mar 28 2023 17:11:16 GMT-0400 (Eastern Daylight Time)","358102","red","green","","","","","","","","","","179","","","","","","[{""stimulus"":""img/green_ll/1.jpg"",""time"":55},{""stimulus"":""img/green_ll/2.jpg"",""time"":102},{""stimulus"":""img/green_ll/3.jpg"",""time"":151},{""stimulus"":""img/green_ll/4.jpg"",""time"":201},{""stimulus"":""img/green_ll/5.jpg"",""time"":263},{""stimulus"":""img/green_ll/6.jpg"",""time"":301},{""stimulus"":""img/green_ll/7.jpg"",""time"":351},{""stimulus"":""img/green_ll/8.jpg"",""time"":401},{""stimulus"":""img/green_ll/9.jpg"",""time"":454},{""stimulus"":""img/green_ll/10.jpg"",""time"":501},{""stimulus"":""img/green_ll/11.jpg"",""time"":551}]","[]"
"image-keyboard-response","98","130693","0.0-5.0-1.47","6404fb7b9a7b3cfb4179d185","bdp_lott","Tue Mar 28 2023 17:11:16 GMT-0400 (Eastern Daylight Time)","358102","red","green","","1207","","","","choice","","img/green_ll/choose11.jpg","1","178","green","0.5","0.5","0.5","l","",""
"animation","99","131294","0.0-5.0-2.47","6404fb7b9a7b3cfb4179d185","bdp_lott","Tue Mar 28 2023 17:11:16 GMT-0400 (Eastern Daylight Time)","358102","red","green","","","","","","","","","","178","","","","","","[{""stimulus"":""img/green_ll/1.jpg"",""time"":56},{""stimulus"":""img/green_ll/2.jpg"",""time"":100},{""stimulus"":""img/green_ll/3.jpg"",""time"":151},{""stimulus"":""img/green_ll/4.jpg"",""time"":200},{""stimulus"":""img/green_ll/5.jpg"",""time"":262},{""stimulus"":""img/green_ll/6.jpg"",""time"":312},{""stimulus"":""img/green_ll/7.jpg"",""time"":350},{""stimulus"":""img/green_ll/8.jpg"",""time"":401},{""stimulus"":""img/green_ll/9.jpg"",""time"":451},{""stimulus"":""img/green_ll/10.jpg"",""time"":501},{""stimulus"":""img/green_ll/11.jpg"",""time"":551}]","[]"
"image-keyboard-response","100","131884","0.0-5.0-1.48","6404fb7b9a7b3cfb4179d185","bdp_lott","Tue Mar 28 2023 17:11:16 GMT-0400 (Eastern Daylight Time)","358102","red","green","","590","","","","choice","","img/green_ll/choose11.jpg","1","177","green","0.5","0.5","0.5","l","",""
"animation","101","132485","0.0-5.0-2.48","6404fb7b9a7b3cfb4179d185","bdp_lott","Tue Mar 28 2023 17:11:16 GMT-0400 (Eastern Daylight Time)","358102","red","green","","","","","","","","","","177","","","","","","[{""stimulus"":""img/green_ll/1.jpg"",""time"":62},{""stimulus"":""img/green_ll/2.jpg"",""time"":101},{""stimulus"":""img/green_ll/3.jpg"",""time"":151},{""stimulus"":""img/green_ll/4.jpg"",""time"":201},{""stimulus"":""img/green_ll/5.jpg"",""time"":252},{""stimulus"":""img/green_ll/6.jpg"",""time"":301},{""stimulus"":""img/green_ll/7.jpg"",""time"":362},{""stimulus"":""img/green_ll/8.jpg"",""time"":402},{""stimulus"":""img/green_ll/9.jpg"",""time"":452},{""stimulus"":""img/green_ll/10.jpg"",""time"":501},{""stimulus"":""img/green_ll/11.jpg"",""time"":552}]","[]"
"image-keyboard-response","102","133153","0.0-5.0-1.49","6404fb7b9a7b3cfb4179d185","bdp_lott","Tue Mar 28 2023 17:11:16 GMT-0400 (Eastern Daylight Time)","358102","red","green","","667","","","","choice","","img/green_ll/choose11.jpg","1","176","green","0.5","0.5","0.5","w","",""
"animation","103","133754","0.0-5.0-2.49","6404fb7b9a7b3cfb4179d185","bdp_lott","Tue Mar 28 2023 17:11:16 GMT-0400 (Eastern Daylight Time)","358102","red","green","","","","","","","","","","176","","","","","","[{""stimulus"":""img/green_wl/1.jpg"",""time"":60},{""stimulus"":""img/green_wl/2.jpg"",""time"":102},{""stimulus"":""img/green_wl/3.jpg"",""time"":151},{""stimulus"":""img/green_wl/4.jpg"",""time"":201},{""stimulus"":""img/green_wl/5.jpg"",""time"":251},{""stimulus"":""img/green_wl/6.jpg"",""time"":301},{""stimulus"":""img/green_wl/7.jpg"",""time"":351},{""stimulus"":""img/green_wl/8.jpg"",""time"":409},{""stimulus"":""img/green_wl/9.jpg"",""time"":451},{""stimulus"":""img/green_wl/10.jpg"",""time"":501},{""stimulus"":""img/green_wl/11.jpg"",""time"":566}]","[]"
"image-keyboard-response","104","134934","0.0-5.0-1.50","6404fb7b9a7b3cfb4179d185","bdp_lott","Tue Mar 28 2023 17:11:16 GMT-0400 (Eastern Daylight Time)","358102","red","green","","1179","","","","choice","","img/green_wl/choose11.jpg","1","175","green","0.5","0.5","0.5","w","",""
"animation","105","135535","0.0-5.0-2.50","6404fb7b9a7b3cfb4179d185","bdp_lott","Tue Mar 28 2023 17:11:16 GMT-0400 (Eastern Daylight Time)","358102","red","green","","","","","","","","","","175","","","","","","[{""stimulus"":""img/green_wl/1.jpg"",""time"":55},{""stimulus"":""img/green_wl/2.jpg"",""time"":101},{""stimulus"":""img/green_wl/3.jpg"",""time"":151},{""stimulus"":""img/green_wl/4.jpg"",""time"":200},{""stimulus"":""img/green_wl/5.jpg"",""time"":250},{""stimulus"":""img/green_wl/6.jpg"",""time"":300},{""stimulus"":""img/green_wl/7.jpg"",""time"":351},{""stimulus"":""img/green_wl/8.jpg"",""time"":400},{""stimulus"":""img/green_wl/9.jpg"",""time"":452},{""stimulus"":""img/green_wl/10.jpg"",""time"":500},{""stimulus"":""img/green_wl/11.jpg"",""time"":551}]","[]"
"image-keyboard-response","106","136287","0.0-5.0-1.51","6404fb7b9a7b3cfb4179d185","bdp_lott","Tue Mar 28 2023 17:11:16 GMT-0400 (Eastern Daylight Time)","358102","red","green","","751","","","","choice","","img/green_wl/choose11.jpg","1","174","green","0.5","0.5","0.5","w","",""
"animation","107","136887","0.0-5.0-2.51","6404fb7b9a7b3cfb4179d185","bdp_lott","Tue Mar 28 2023 17:11:16 GMT-0400 (Eastern Daylight Time)","358102","red","green","","","","","","","","","","174","","","","","","[{""stimulus"":""img/green_wl/1.jpg"",""time"":60},{""stimulus"":""img/green_wl/2.jpg"",""time"":100},{""stimulus"":""img/green_wl/3.jpg"",""time"":151},{""stimulus"":""img/green_wl/4.jpg"",""time"":201},{""stimulus"":""img/green_wl/5.jpg"",""time"":255},{""stimulus"":""img/green_wl/6.jpg"",""time"":301},{""stimulus"":""img/green_wl/7.jpg"",""time"":351},{""stimulus"":""img/green_wl/8.jpg"",""time"":414},{""stimulus"":""img/green_wl/9.jpg"",""time"":450},{""stimulus"":""img/green_wl/10.jpg"",""time"":500},{""stimulus"":""img/green_wl/11.jpg"",""time"":550}]","[]"
"image-keyboard-response","108","137579","0.0-5.0-1.52","6404fb7b9a7b3cfb4179d185","bdp_lott","Tue Mar 28 2023 17:11:16 GMT-0400 (Eastern Daylight Time)","358102","red","green","","692","","","","choice","","img/green_wl/choose11.jpg","1","173","green","0.5","0.5","0.5","l","",""
"animation","109","138180","0.0-5.0-2.52","6404fb7b9a7b3cfb4179d185","bdp_lott","Tue Mar 28 2023 17:11:16 GMT-0400 (Eastern Daylight Time)","358102","red","green","","","","","","","","","","173","","","","","","[{""stimulus"":""img/green_ll/1.jpg"",""time"":59},{""stimulus"":""img/green_ll/2.jpg"",""time"":100},{""stimulus"":""img/green_ll/3.jpg"",""time"":152},{""stimulus"":""img/green_ll/4.jpg"",""time"":201},{""stimulus"":""img/green_ll/5.jpg"",""time"":263},{""stimulus"":""img/green_ll/6.jpg"",""time"":300},{""stimulus"":""img/green_ll/7.jpg"",""time"":350},{""stimulus"":""img/green_ll/8.jpg"",""time"":404},{""stimulus"":""img/green_ll/9.jpg"",""time"":450},{""stimulus"":""img/green_ll/10.jpg"",""time"":500},{""stimulus"":""img/green_ll/11.jpg"",""time"":550}]","[]"
"image-keyboard-response","110","139657","0.0-5.0-1.53","6404fb7b9a7b3cfb4179d185","bdp_lott","Tue Mar 28 2023 17:11:16 GMT-0400 (Eastern Daylight Time)","358102","red","green","","1476","","","","choice","","img/green_ll/choose11.jpg","1","172","green","0.5","0.5","0.5","w","",""
"animation","111","140257","0.0-5.0-2.53","6404fb7b9a7b3cfb4179d185","bdp_lott","Tue Mar 28 2023 17:11:16 GMT-0400 (Eastern Daylight Time)","358102","red","green","","","","","","","","","","172","","","","","","[{""stimulus"":""img/green_wl/1.jpg"",""time"":65},{""stimulus"":""img/green_wl/2.jpg"",""time"":101},{""stimulus"":""img/green_wl/3.jpg"",""time"":151},{""stimulus"":""img/green_wl/4.jpg"",""time"":208},{""stimulus"":""img/green_wl/5.jpg"",""time"":251},{""stimulus"":""img/green_wl/6.jpg"",""time"":309},{""stimulus"":""img/green_wl/7.jpg"",""time"":350},{""stimulus"":""img/green_wl/8.jpg"",""time"":400},{""stimulus"":""img/green_wl/9.jpg"",""time"":450},{""stimulus"":""img/green_wl/10.jpg"",""time"":500},{""stimulus"":""img/green_wl/11.jpg"",""time"":550}]","[]"
"image-keyboard-response","112","140941","0.0-5.0-1.54","6404fb7b9a7b3cfb4179d185","bdp_lott","Tue Mar 28 2023 17:11:16 GMT-0400 (Eastern Daylight Time)","358102","red","green","","684","","","","choice","","img/green_wl/choose11.jpg","1","171","green","0.5","0.5","0.5","l","",""
"animation","113","141541","0.0-5.0-2.54","6404fb7b9a7b3cfb4179d185","bdp_lott","Tue Mar 28 2023 17:11:16 GMT-0400 (Eastern Daylight Time)","358102","red","green","","","","","","","","","","171","","","","","","[{""stimulus"":""img/green_ll/1.jpg"",""time"":60},{""stimulus"":""img/green_ll/2.jpg"",""time"":101},{""stimulus"":""img/green_ll/3.jpg"",""time"":160},{""stimulus"":""img/green_ll/4.jpg"",""time"":207},{""stimulus"":""img/green_ll/5.jpg"",""time"":255},{""stimulus"":""img/green_ll/6.jpg"",""time"":301},{""stimulus"":""img/green_ll/7.jpg"",""time"":350},{""stimulus"":""img/green_ll/8.jpg"",""time"":401},{""stimulus"":""img/green_ll/9.jpg"",""time"":451},{""stimulus"":""img/green_ll/10.jpg"",""time"":500},{""stimulus"":""img/green_ll/11.jpg"",""time"":550}]","[]"
"image-keyboard-response","114","143054","0.0-5.0-1.55","6404fb7b9a7b3cfb4179d185","bdp_lott","Tue Mar 28 2023 17:11:16 GMT-0400 (Eastern Daylight Time)","358102","red","green","","1512","","","","choice","","img/green_ll/choose11.jpg","1","170","green","0.5","0.5","0.5","w","",""
"animation","115","143655","0.0-5.0-2.55","6404fb7b9a7b3cfb4179d185","bdp_lott","Tue Mar 28 2023 17:11:16 GMT-0400 (Eastern Daylight Time)","358102","red","green","","","","","","","","","","170","","","","","","[{""stimulus"":""img/green_wl/1.jpg"",""time"":57},{""stimulus"":""img/green_wl/2.jpg"",""time"":100},{""stimulus"":""img/green_wl/3.jpg"",""time"":155},{""stimulus"":""img/green_wl/4.jpg"",""time"":200},{""stimulus"":""img/green_wl/5.jpg"",""time"":251},{""stimulus"":""img/green_wl/6.jpg"",""time"":300},{""stimulus"":""img/green_wl/7.jpg"",""time"":350},{""stimulus"":""img/green_wl/8.jpg"",""time"":410},{""stimulus"":""img/green_wl/9.jpg"",""time"":458},{""stimulus"":""img/green_wl/10.jpg"",""time"":501},{""stimulus"":""img/green_wl/11.jpg"",""time"":551}]","[]"
"image-keyboard-response","116","144268","0.0-5.0-1.56","6404fb7b9a7b3cfb4179d185","bdp_lott","Tue Mar 28 2023 17:11:16 GMT-0400 (Eastern Daylight Time)","358102","red","green","","613","","","","choice","","img/green_wl/choose11.jpg","1","169","green","0.5","0.5","0.5","l","",""
"animation","117","144869","0.0-5.0-2.56","6404fb7b9a7b3cfb4179d185","bdp_lott","Tue Mar 28 2023 17:11:16 GMT-0400 (Eastern Daylight Time)","358102","red","green","","","","","","","","","","169","","","","","","[{""stimulus"":""img/green_ll/1.jpg"",""time"":54},{""stimulus"":""img/green_ll/2.jpg"",""time"":101},{""stimulus"":""img/green_ll/3.jpg"",""time"":164},{""stimulus"":""img/green_ll/4.jpg"",""time"":211},{""stimulus"":""img/green_ll/5.jpg"",""time"":258},{""stimulus"":""img/green_ll/6.jpg"",""time"":301},{""stimulus"":""img/green_ll/7.jpg"",""time"":351},{""stimulus"":""img/green_ll/8.jpg"",""time"":401},{""stimulus"":""img/green_ll/9.jpg"",""time"":451},{""stimulus"":""img/green_ll/10.jpg"",""time"":501},{""stimulus"":""img/green_ll/11.jpg"",""time"":551}]","[]"
"image-keyboard-response","118","145560","0.0-5.0-1.57","6404fb7b9a7b3cfb4179d185","bdp_lott","Tue Mar 28 2023 17:11:16 GMT-0400 (Eastern Daylight Time)","358102","red","green","","691","","","","choice","","img/green_ll/choose11.jpg","1","168","green","0.5","0.5","0.5","l","",""
"animation","119","146161","0.0-5.0-2.57","6404fb7b9a7b3cfb4179d185","bdp_lott","Tue Mar 28 2023 17:11:16 GMT-0400 (Eastern Daylight Time)","358102","red","green","","","","","","","","","","168","","","","","","[{""stimulus"":""img/green_ll/1.jpg"",""time"":61},{""stimulus"":""img/green_ll/2.jpg"",""time"":100},{""stimulus"":""img/green_ll/3.jpg"",""time"":150},{""stimulus"":""img/green_ll/4.jpg"",""time"":201},{""stimulus"":""img/green_ll/5.jpg"",""time"":261},{""stimulus"":""img/green_ll/6.jpg"",""time"":301},{""stimulus"":""img/green_ll/7.jpg"",""time"":351},{""stimulus"":""img/green_ll/8.jpg"",""time"":401},{""stimulus"":""img/green_ll/9.jpg"",""time"":451},{""stimulus"":""img/green_ll/10.jpg"",""time"":500},{""stimulus"":""img/green_ll/11.jpg"",""time"":551}]","[]"
"image-keyboard-response","120","146786","0.0-5.0-1.58","6404fb7b9a7b3cfb4179d185","bdp_lott","Tue Mar 28 2023 17:11:16 GMT-0400 (Eastern Daylight Time)","358102","red","green","","625","","","","choice","","img/green_ll/choose11.jpg","1","167","green","0.5","0.5","0.5","l","",""
"animation","121","147387","0.0-5.0-2.58","6404fb7b9a7b3cfb4179d185","bdp_lott","Tue Mar 28 2023 17:11:16 GMT-0400 (Eastern Daylight Time)","358102","red","green","","","","","","","","","","167","","","","","","[{""stimulus"":""img/green_ll/1.jpg"",""time"":54},{""stimulus"":""img/green_ll/2.jpg"",""time"":101},{""stimulus"":""img/green_ll/3.jpg"",""time"":151},{""stimulus"":""img/green_ll/4.jpg"",""time"":201},{""stimulus"":""img/green_ll/5.jpg"",""time"":251},{""stimulus"":""img/green_ll/6.jpg"",""time"":301},{""stimulus"":""img/green_ll/7.jpg"",""time"":351},{""stimulus"":""img/green_ll/8.jpg"",""time"":401},{""stimulus"":""img/green_ll/9.jpg"",""time"":451},{""stimulus"":""img/green_ll/10.jpg"",""time"":501},{""stimulus"":""img/green_ll/11.jpg"",""time"":551}]","[]"
"image-keyboard-response","122","149016","0.0-5.0-1.59","6404fb7b9a7b3cfb4179d185","bdp_lott","Tue Mar 28 2023 17:11:16 GMT-0400 (Eastern Daylight Time)","358102","red","green","","1629","","","","choice","","img/green_ll/choose11.jpg","2","166","red","0.5","0.5","0.5","l","",""
"animation","123","149616","0.0-5.0-2.59","6404fb7b9a7b3cfb4179d185","bdp_lott","Tue Mar 28 2023 17:11:16 GMT-0400 (Eastern Daylight Time)","358102","red","green","","","","","","","","","","166","","","","","","[{""stimulus"":""img/red_ll/1.jpg"",""time"":60},{""stimulus"":""img/red_ll/2.jpg"",""time"":101},{""stimulus"":""img/red_ll/3.jpg"",""time"":151},{""stimulus"":""img/red_ll/4.jpg"",""time"":201},{""stimulus"":""img/red_ll/5.jpg"",""time"":251},{""stimulus"":""img/red_ll/6.jpg"",""time"":301},{""stimulus"":""img/red_ll/7.jpg"",""time"":351},{""stimulus"":""img/red_ll/8.jpg"",""time"":401},{""stimulus"":""img/red_ll/9.jpg"",""time"":451},{""stimulus"":""img/red_ll/10.jpg"",""time"":500},{""stimulus"":""img/red_ll/11.jpg"",""time"":551}]","[]"
"image-keyboard-response","124","150404","0.0-5.0-1.60","6404fb7b9a7b3cfb4179d185","bdp_lott","Tue Mar 28 2023 17:11:16 GMT-0400 (Eastern Daylight Time)","358102","red","green","","787","","","","choice","","img/red_ll/choose11.jpg","2","165","red","0.5","0.5","0.5","l","",""
"animation","125","151004","0.0-5.0-2.60","6404fb7b9a7b3cfb4179d185","bdp_lott","Tue Mar 28 2023 17:11:16 GMT-0400 (Eastern Daylight Time)","358102","red","green","","","","","","","","","","165","","","","","","[{""stimulus"":""img/red_ll/1.jpg"",""time"":57},{""stimulus"":""img/red_ll/2.jpg"",""time"":105},{""stimulus"":""img/red_ll/3.jpg"",""time"":153},{""stimulus"":""img/red_ll/4.jpg"",""time"":201},{""stimulus"":""img/red_ll/5.jpg"",""time"":263},{""stimulus"":""img/red_ll/6.jpg"",""time"":301},{""stimulus"":""img/red_ll/7.jpg"",""time"":351},{""stimulus"":""img/red_ll/8.jpg"",""time"":401},{""stimulus"":""img/red_ll/9.jpg"",""time"":450},{""stimulus"":""img/red_ll/10.jpg"",""time"":501},{""stimulus"":""img/red_ll/11.jpg"",""time"":550}]","[]"
"image-keyboard-response","126","151639","0.0-5.0-1.61","6404fb7b9a7b3cfb4179d185","bdp_lott","Tue Mar 28 2023 17:11:16 GMT-0400 (Eastern Daylight Time)","358102","red","green","","634","","","","choice","","img/red_ll/choose11.jpg","2","164","red","0.5","0.5","0.5","l","",""
"animation","127","152239","0.0-5.0-2.61","6404fb7b9a7b3cfb4179d185","bdp_lott","Tue Mar 28 2023 17:11:16 GMT-0400 (Eastern Daylight Time)","358102","red","green","","","","","","","","","","164","","","","","","[{""stimulus"":""img/red_ll/1.jpg"",""time"":60},{""stimulus"":""img/red_ll/2.jpg"",""time"":101},{""stimulus"":""img/red_ll/3.jpg"",""time"":150},{""stimulus"":""img/red_ll/4.jpg"",""time"":201},{""stimulus"":""img/red_ll/5.jpg"",""time"":250},{""stimulus"":""img/red_ll/6.jpg"",""time"":300},{""stimulus"":""img/red_ll/7.jpg"",""time"":350},{""stimulus"":""img/red_ll/8.jpg"",""time"":400},{""stimulus"":""img/red_ll/9.jpg"",""time"":456},{""stimulus"":""img/red_ll/10.jpg"",""time"":500},{""stimulus"":""img/red_ll/11.jpg"",""time"":550}]","[]"
"image-keyboard-response","128","152849","0.0-5.0-1.62","6404fb7b9a7b3cfb4179d185","bdp_lott","Tue Mar 28 2023 17:11:16 GMT-0400 (Eastern Daylight Time)","358102","red","green","","610","","","","choice","","img/red_ll/choose11.jpg","2","163","red","0.5","0.5","0.5","w","",""
"animation","129","153449","0.0-5.0-2.62","6404fb7b9a7b3cfb4179d185","bdp_lott","Tue Mar 28 2023 17:11:16 GMT-0400 (Eastern Daylight Time)","358102","red","green","","","","","","","","","","163","","","","","","[{""stimulus"":""img/red_lw/1.jpg"",""time"":61},{""stimulus"":""img/red_lw/2.jpg"",""time"":108},{""stimulus"":""img/red_lw/3.jpg"",""time"":151},{""stimulus"":""img/red_lw/4.jpg"",""time"":202},{""stimulus"":""img/red_lw/5.jpg"",""time"":251},{""stimulus"":""img/red_lw/6.jpg"",""time"":313},{""stimulus"":""img/red_lw/7.jpg"",""time"":351},{""stimulus"":""img/red_lw/8.jpg"",""time"":400},{""stimulus"":""img/red_lw/9.jpg"",""time"":450},{""stimulus"":""img/red_lw/10.jpg"",""time"":500},{""stimulus"":""img/red_lw/11.jpg"",""time"":550}]","[]"
"image-keyboard-response","130","154724","0.0-5.0-1.63","6404fb7b9a7b3cfb4179d185","bdp_lott","Tue Mar 28 2023 17:11:16 GMT-0400 (Eastern Daylight Time)","358102","red","green","","1274","","","","choice","","img/red_lw/choose11.jpg","2","162","red","0.5","0.5","0.5","l","",""
"animation","131","155325","0.0-5.0-2.63","6404fb7b9a7b3cfb4179d185","bdp_lott","Tue Mar 28 2023 17:11:16 GMT-0400 (Eastern Daylight Time)","358102","red","green","","","","","","","","","","162","","","","","","[{""stimulus"":""img/red_ll/1.jpg"",""time"":56},{""stimulus"":""img/red_ll/2.jpg"",""time"":102},{""stimulus"":""img/red_ll/3.jpg"",""time"":151},{""stimulus"":""img/red_ll/4.jpg"",""time"":201},{""stimulus"":""img/red_ll/5.jpg"",""time"":252},{""stimulus"":""img/red_ll/6.jpg"",""time"":301},{""stimulus"":""img/red_ll/7.jpg"",""time"":351},{""stimulus"":""img/red_ll/8.jpg"",""time"":401},{""stimulus"":""img/red_ll/9.jpg"",""time"":451},{""stimulus"":""img/red_ll/10.jpg"",""time"":501},{""stimulus"":""img/red_ll/11.jpg"",""time"":551}]","[]"
"image-keyboard-response","132","156184","0.0-5.0-1.64","6404fb7b9a7b3cfb4179d185","bdp_lott","Tue Mar 28 2023 17:11:16 GMT-0400 (Eastern Daylight Time)","358102","red","green","","859","","","","choice","","img/red_ll/choose11.jpg","2","161","red","0.5","0.5","0.5","w","",""
"animation","133","156785","0.0-5.0-2.64","6404fb7b9a7b3cfb4179d185","bdp_lott","Tue Mar 28 2023 17:11:16 GMT-0400 (Eastern Daylight Time)","358102","red","green","","","","","","","","","","161","","","","","","[{""stimulus"":""img/red_lw/1.jpg"",""time"":56},{""stimulus"":""img/red_lw/2.jpg"",""time"":101},{""stimulus"":""img/red_lw/3.jpg"",""time"":151},{""stimulus"":""img/red_lw/4.jpg"",""time"":201},{""stimulus"":""img/red_lw/5.jpg"",""time"":251},{""stimulus"":""img/red_lw/6.jpg"",""time"":301},{""stimulus"":""img/red_lw/7.jpg"",""time"":351},{""stimulus"":""img/red_lw/8.jpg"",""time"":401},{""stimulus"":""img/red_lw/9.jpg"",""time"":452},{""stimulus"":""img/red_lw/10.jpg"",""time"":501},{""stimulus"":""img/red_lw/11.jpg"",""time"":552}]","[]"
"image-keyboard-response","134","157846","0.0-5.0-1.65","6404fb7b9a7b3cfb4179d185","bdp_lott","Tue Mar 28 2023 17:11:16 GMT-0400 (Eastern Daylight Time)","358102","red","green","","1060","","","","choice","","img/red_lw/choose11.jpg","2","160","red","0.5","0.5","0.5","l","",""
"animation","135","158448","0.0-5.0-2.65","6404fb7b9a7b3cfb4179d185","bdp_lott","Tue Mar 28 2023 17:11:16 GMT-0400 (Eastern Daylight Time)","358102","red","green","","","","","","","","","","160","","","","","","[{""stimulus"":""img/red_ll/1.jpg"",""time"":66},{""stimulus"":""img/red_ll/2.jpg"",""time"":101},{""stimulus"":""img/red_ll/3.jpg"",""time"":151},{""stimulus"":""img/red_ll/4.jpg"",""time"":201},{""stimulus"":""img/red_ll/5.jpg"",""time"":253},{""stimulus"":""img/red_ll/6.jpg"",""time"":302},{""stimulus"":""img/red_ll/7.jpg"",""time"":351},{""stimulus"":""img/red_ll/8.jpg"",""time"":411},{""stimulus"":""img/red_ll/9.jpg"",""time"":451},{""stimulus"":""img/red_ll/10.jpg"",""time"":501},{""stimulus"":""img/red_ll/11.jpg"",""time"":551}]","[]"
"image-keyboard-response","136","159121","0.0-5.0-1.66","6404fb7b9a7b3cfb4179d185","bdp_lott","Tue Mar 28 2023 17:11:16 GMT-0400 (Eastern Daylight Time)","358102","red","green","","673","","","","choice","","img/red_ll/choose11.jpg","2","159","red","0.5","0.5","0.5","w","",""
"animation","137","159722","0.0-5.0-2.66","6404fb7b9a7b3cfb4179d185","bdp_lott","Tue Mar 28 2023 17:11:16 GMT-0400 (Eastern Daylight Time)","358102","red","green","","","","","","","","","","159","","","","","","[{""stimulus"":""img/red_lw/1.jpg"",""time"":56},{""stimulus"":""img/red_lw/2.jpg"",""time"":100},{""stimulus"":""img/red_lw/3.jpg"",""time"":166},{""stimulus"":""img/red_lw/4.jpg"",""time"":201},{""stimulus"":""img/red_lw/5.jpg"",""time"":260},{""stimulus"":""img/red_lw/6.jpg"",""time"":300},{""stimulus"":""img/red_lw/7.jpg"",""time"":350},{""stimulus"":""img/red_lw/8.jpg"",""time"":404},{""stimulus"":""img/red_lw/9.jpg"",""time"":450},{""stimulus"":""img/red_lw/10.jpg"",""time"":500},{""stimulus"":""img/red_lw/11.jpg"",""time"":550}]","[]"
"image-keyboard-response","138","160317","0.0-5.0-1.67","6404fb7b9a7b3cfb4179d185","bdp_lott","Tue Mar 28 2023 17:11:16 GMT-0400 (Eastern Daylight Time)","358102","red","green","","595","","","","choice","","img/red_lw/choose11.jpg","2","158","red","0.5","0.5","0.5","w","",""
"animation","139","160917","0.0-5.0-2.67","6404fb7b9a7b3cfb4179d185","bdp_lott","Tue Mar 28 2023 17:11:16 GMT-0400 (Eastern Daylight Time)","358102","red","green","","","","","","","","","","158","","","","","","[{""stimulus"":""img/red_lw/1.jpg"",""time"":64},{""stimulus"":""img/red_lw/2.jpg"",""time"":101},{""stimulus"":""img/red_lw/3.jpg"",""time"":150},{""stimulus"":""img/red_lw/4.jpg"",""time"":205},{""stimulus"":""img/red_lw/5.jpg"",""time"":251},{""stimulus"":""img/red_lw/6.jpg"",""time"":322},{""stimulus"":""img/red_lw/7.jpg"",""time"":351},{""stimulus"":""img/red_lw/8.jpg"",""time"":410},{""stimulus"":""img/red_lw/9.jpg"",""time"":451},{""stimulus"":""img/red_lw/10.jpg"",""time"":501},{""stimulus"":""img/red_lw/11.jpg"",""time"":551}]","[]"
"image-keyboard-response","140","161585","0.0-5.0-1.68","6404fb7b9a7b3cfb4179d185","bdp_lott","Tue Mar 28 2023 17:11:16 GMT-0400 (Eastern Daylight Time)","358102","red","green","","667","","","","choice","","img/red_lw/choose11.jpg","2","157","red","0.5","0.5","0.5","l","",""
"animation","141","162186","0.0-5.0-2.68","6404fb7b9a7b3cfb4179d185","bdp_lott","Tue Mar 28 2023 17:11:16 GMT-0400 (Eastern Daylight Time)","358102","red","green","","","","","","","","","","157","","","","","","[{""stimulus"":""img/red_ll/1.jpg"",""time"":58},{""stimulus"":""img/red_ll/2.jpg"",""time"":101},{""stimulus"":""img/red_ll/3.jpg"",""time"":151},{""stimulus"":""img/red_ll/4.jpg"",""time"":216},{""stimulus"":""img/red_ll/5.jpg"",""time"":251},{""stimulus"":""img/red_ll/6.jpg"",""time"":310},{""stimulus"":""img/red_ll/7.jpg"",""time"":351},{""stimulus"":""img/red_ll/8.jpg"",""time"":401},{""stimulus"":""img/red_ll/9.jpg"",""time"":451},{""stimulus"":""img/red_ll/10.jpg"",""time"":501},{""stimulus"":""img/red_ll/11.jpg"",""time"":551}]","[]"
"image-keyboard-response","142","162748","0.0-5.0-1.69","6404fb7b9a7b3cfb4179d185","bdp_lott","Tue Mar 28 2023 17:11:16 GMT-0400 (Eastern Daylight Time)","358102","red","green","","561","","","","choice","","img/red_ll/choose11.jpg","2","156","red","0.5","0.5","0.5","w","",""
"animation","143","163348","0.0-5.0-2.69","6404fb7b9a7b3cfb4179d185","bdp_lott","Tue Mar 28 2023 17:11:16 GMT-0400 (Eastern Daylight Time)","358102","red","green","","","","","","","","","","156","","","","","","[{""stimulus"":""img/red_lw/1.jpg"",""time"":59},{""stimulus"":""img/red_lw/2.jpg"",""time"":107},{""stimulus"":""img/red_lw/3.jpg"",""time"":150},{""stimulus"":""img/red_lw/4.jpg"",""time"":200},{""stimulus"":""img/red_lw/5.jpg"",""time"":250},{""stimulus"":""img/red_lw/6.jpg"",""time"":300},{""stimulus"":""img/red_lw/7.jpg"",""time"":350},{""stimulus"":""img/red_lw/8.jpg"",""time"":400},{""stimulus"":""img/red_lw/9.jpg"",""time"":450},{""stimulus"":""img/red_lw/10.jpg"",""time"":500},{""stimulus"":""img/red_lw/11.jpg"",""time"":550}]","[]"
"image-keyboard-response","144","164076","0.0-5.0-1.70","6404fb7b9a7b3cfb4179d185","bdp_lott","Tue Mar 28 2023 17:11:16 GMT-0400 (Eastern Daylight Time)","358102","red","green","","728","","","","choice","","img/red_lw/choose11.jpg","2","155","red","0.5","0.5","0.5","l","",""
"animation","145","164677","0.0-5.0-2.70","6404fb7b9a7b3cfb4179d185","bdp_lott","Tue Mar 28 2023 17:11:16 GMT-0400 (Eastern Daylight Time)","358102","red","green","","","","","","","","","","155","","","","","","[{""stimulus"":""img/red_ll/1.jpg"",""time"":52},{""stimulus"":""img/red_ll/2.jpg"",""time"":100},{""stimulus"":""img/red_ll/3.jpg"",""time"":160},{""stimulus"":""img/red_ll/4.jpg"",""time"":208},{""stimulus"":""img/red_ll/5.jpg"",""time"":255},{""stimulus"":""img/red_ll/6.jpg"",""time"":301},{""stimulus"":""img/red_ll/7.jpg"",""time"":350},{""stimulus"":""img/red_ll/8.jpg"",""time"":400},{""stimulus"":""img/red_ll/9.jpg"",""time"":450},{""stimulus"":""img/red_ll/10.jpg"",""time"":501},{""stimulus"":""img/red_ll/11.jpg"",""time"":550}]","[]"
"image-keyboard-response","146","165361","0.0-5.0-1.71","6404fb7b9a7b3cfb4179d185","bdp_lott","Tue Mar 28 2023 17:11:16 GMT-0400 (Eastern Daylight Time)","358102","red","green","","684","","","","choice","","img/red_ll/choose11.jpg","2","154","red","0.5","0.5","0.5","l","",""
"animation","147","165962","0.0-5.0-2.71","6404fb7b9a7b3cfb4179d185","bdp_lott","Tue Mar 28 2023 17:11:16 GMT-0400 (Eastern Daylight Time)","358102","red","green","","","","","","","","","","154","","","","","","[{""stimulus"":""img/red_ll/1.jpg"",""time"":55},{""stimulus"":""img/red_ll/2.jpg"",""time"":101},{""stimulus"":""img/red_ll/3.jpg"",""time"":150},{""stimulus"":""img/red_ll/4.jpg"",""time"":201},{""stimulus"":""img/red_ll/5.jpg"",""time"":251},{""stimulus"":""img/red_ll/6.jpg"",""time"":306},{""stimulus"":""img/red_ll/7.jpg"",""time"":351},{""stimulus"":""img/red_ll/8.jpg"",""time"":401},{""stimulus"":""img/red_ll/9.jpg"",""time"":451},{""stimulus"":""img/red_ll/10.jpg"",""time"":501},{""stimulus"":""img/red_ll/11.jpg"",""time"":558}]","[]"
"image-keyboard-response","148","166835","0.0-5.0-1.72","6404fb7b9a7b3cfb4179d185","bdp_lott","Tue Mar 28 2023 17:11:16 GMT-0400 (Eastern Daylight Time)","358102","red","green","","873","","","","choice","","img/red_ll/choose11.jpg","2","153","red","0.5","0.5","0.5","l","",""
"animation","149","167436","0.0-5.0-2.72","6404fb7b9a7b3cfb4179d185","bdp_lott","Tue Mar 28 2023 17:11:16 GMT-0400 (Eastern Daylight Time)","358102","red","green","","","","","","","","","","153","","","","","","[{""stimulus"":""img/red_ll/1.jpg"",""time"":60},{""stimulus"":""img/red_ll/2.jpg"",""time"":101},{""stimulus"":""img/red_ll/3.jpg"",""time"":154},{""stimulus"":""img/red_ll/4.jpg"",""time"":201},{""stimulus"":""img/red_ll/5.jpg"",""time"":264},{""stimulus"":""img/red_ll/6.jpg"",""time"":300},{""stimulus"":""img/red_ll/7.jpg"",""time"":350},{""stimulus"":""img/red_ll/8.jpg"",""time"":400},{""stimulus"":""img/red_ll/9.jpg"",""time"":454},{""stimulus"":""img/red_ll/10.jpg"",""time"":500},{""stimulus"":""img/red_ll/11.jpg"",""time"":551}]","[]"
"image-keyboard-response","150","168200","0.0-5.0-1.73","6404fb7b9a7b3cfb4179d185","bdp_lott","Tue Mar 28 2023 17:11:16 GMT-0400 (Eastern Daylight Time)","358102","red","green","","763","","","","choice","","img/red_ll/choose11.jpg","2","152","red","0.5","0.5","0.5","l","",""
"animation","151","168801","0.0-5.0-2.73","6404fb7b9a7b3cfb4179d185","bdp_lott","Tue Mar 28 2023 17:11:16 GMT-0400 (Eastern Daylight Time)","358102","red","green","","","","","","","","","","152","","","","","","[{""stimulus"":""img/red_ll/1.jpg"",""time"":64},{""stimulus"":""img/red_ll/2.jpg"",""time"":101},{""stimulus"":""img/red_ll/3.jpg"",""time"":151},{""stimulus"":""img/red_ll/4.jpg"",""time"":204},{""stimulus"":""img/red_ll/5.jpg"",""time"":251},{""stimulus"":""img/red_ll/6.jpg"",""time"":300},{""stimulus"":""img/red_ll/7.jpg"",""time"":350},{""stimulus"":""img/red_ll/8.jpg"",""time"":400},{""stimulus"":""img/red_ll/9.jpg"",""time"":450},{""stimulus"":""img/red_ll/10.jpg"",""time"":500},{""stimulus"":""img/red_ll/11.jpg"",""time"":551}]","[]"
"image-keyboard-response","152","169586","0.0-5.0-1.74","6404fb7b9a7b3cfb4179d185","bdp_lott","Tue Mar 28 2023 17:11:16 GMT-0400 (Eastern Daylight Time)","358102","red","green","","785","","","","choice","","img/red_ll/choose11.jpg","2","151","red","0.5","0.5","0.5","w","",""
"animation","153","170187","0.0-5.0-2.74","6404fb7b9a7b3cfb4179d185","bdp_lott","Tue Mar 28 2023 17:11:16 GMT-0400 (Eastern Daylight Time)","358102","red","green","","","","","","","","","","151","","","","","","[{""stimulus"":""img/red_lw/1.jpg"",""time"":62},{""stimulus"":""img/red_lw/2.jpg"",""time"":101},{""stimulus"":""img/red_lw/3.jpg"",""time"":151},{""stimulus"":""img/red_lw/4.jpg"",""time"":201},{""stimulus"":""img/red_lw/5.jpg"",""time"":251},{""stimulus"":""img/red_lw/6.jpg"",""time"":301},{""stimulus"":""img/red_lw/7.jpg"",""time"":351},{""stimulus"":""img/red_lw/8.jpg"",""time"":401},{""stimulus"":""img/red_lw/9.jpg"",""time"":451},{""stimulus"":""img/red_lw/10.jpg"",""time"":501},{""stimulus"":""img/red_lw/11.jpg"",""time"":552}]","[]"
"image-keyboard-response","154","171192","0.0-5.0-1.75","6404fb7b9a7b3cfb4179d185","bdp_lott","Tue Mar 28 2023 17:11:16 GMT-0400 (Eastern Daylight Time)","358102","red","green","","1005","","","","choice","","img/red_lw/choose11.jpg","2","150","red","0.5","0.5","0.5","l","",""
"animation","155","171793","0.0-5.0-2.75","6404fb7b9a7b3cfb4179d185","bdp_lott","Tue Mar 28 2023 17:11:16 GMT-0400 (Eastern Daylight Time)","358102","red","green","","","","","","","","","","150","","","","","","[{""stimulus"":""img/red_ll/1.jpg"",""time"":61},{""stimulus"":""img/red_ll/2.jpg"",""time"":108},{""stimulus"":""img/red_ll/3.jpg"",""time"":151},{""stimulus"":""img/red_ll/4.jpg"",""time"":201},{""stimulus"":""img/red_ll/5.jpg"",""time"":251},{""stimulus"":""img/red_ll/6.jpg"",""time"":301},{""stimulus"":""img/red_ll/7.jpg"",""time"":351},{""stimulus"":""img/red_ll/8.jpg"",""time"":401},{""stimulus"":""img/red_ll/9.jpg"",""time"":451},{""stimulus"":""img/red_ll/10.jpg"",""time"":501},{""stimulus"":""img/red_ll/11.jpg"",""time"":551}]","[]"
"image-keyboard-response","156","172295","0.0-5.0-1.76","6404fb7b9a7b3cfb4179d185","bdp_lott","Tue Mar 28 2023 17:11:16 GMT-0400 (Eastern Daylight Time)","358102","red","green","","502","","","","choice","","img/red_ll/choose11.jpg","2","149","red","0.5","0.1","0.5","l","",""
"animation","157","172896","0.0-5.0-2.76","6404fb7b9a7b3cfb4179d185","bdp_lott","Tue Mar 28 2023 17:11:16 GMT-0400 (Eastern Daylight Time)","358102","red","green","","","","","","","","","","149","","","","","","[{""stimulus"":""img/red_ll/1.jpg"",""time"":61},{""stimulus"":""img/red_ll/2.jpg"",""time"":101},{""stimulus"":""img/red_ll/3.jpg"",""time"":155},{""stimulus"":""img/red_ll/4.jpg"",""time"":201},{""stimulus"":""img/red_ll/5.jpg"",""time"":265},{""stimulus"":""img/red_ll/6.jpg"",""time"":301},{""stimulus"":""img/red_ll/7.jpg"",""time"":351},{""stimulus"":""img/red_ll/8.jpg"",""time"":402},{""stimulus"":""img/red_ll/9.jpg"",""time"":452},{""stimulus"":""img/red_ll/10.jpg"",""time"":501},{""stimulus"":""img/red_ll/11.jpg"",""time"":552}]","[]"
"image-keyboard-response","158","173356","0.0-5.0-1.77","6404fb7b9a7b3cfb4179d185","bdp_lott","Tue Mar 28 2023 17:11:16 GMT-0400 (Eastern Daylight Time)","358102","red","green","","459","","","","choice","","img/red_ll/choose11.jpg","2","148","red","0.5","0.1","0.5","l","",""
"animation","159","173957","0.0-5.0-2.77","6404fb7b9a7b3cfb4179d185","bdp_lott","Tue Mar 28 2023 17:11:16 GMT-0400 (Eastern Daylight Time)","358102","red","green","","","","","","","","","","148","","","","","","[{""stimulus"":""img/red_ll/1.jpg"",""time"":58},{""stimulus"":""img/red_ll/2.jpg"",""time"":101},{""stimulus"":""img/red_ll/3.jpg"",""time"":152},{""stimulus"":""img/red_ll/4.jpg"",""time"":201},{""stimulus"":""img/red_ll/5.jpg"",""time"":263},{""stimulus"":""img/red_ll/6.jpg"",""time"":301},{""stimulus"":""img/red_ll/7.jpg"",""time"":358},{""stimulus"":""img/red_ll/8.jpg"",""time"":401},{""stimulus"":""img/red_ll/9.jpg"",""time"":451},{""stimulus"":""img/red_ll/10.jpg"",""time"":502},{""stimulus"":""img/red_ll/11.jpg"",""time"":551}]","[]"
"image-keyboard-response","160","174421","0.0-5.0-1.78","6404fb7b9a7b3cfb4179d185","bdp_lott","Tue Mar 28 2023 17:11:16 GMT-0400 (Eastern Daylight Time)","358102","red","green","","464","","","","choice","","img/red_ll/choose11.jpg","2","147","red","0.5","0.1","0.5","l","",""
"animation","161","175022","0.0-5.0-2.78","6404fb7b9a7b3cfb4179d185","bdp_lott","Tue Mar 28 2023 17:11:16 GMT-0400 (Eastern Daylight Time)","358102","red","green","","","","","","","","","","147","","","","","","[{""stimulus"":""img/red_ll/1.jpg"",""time"":65},{""stimulus"":""img/red_ll/2.jpg"",""time"":101},{""stimulus"":""img/red_ll/3.jpg"",""time"":159},{""stimulus"":""img/red_ll/4.jpg"",""time"":202},{""stimulus"":""img/red_ll/5.jpg"",""time"":254},{""stimulus"":""img/red_ll/6.jpg"",""time"":301},{""stimulus"":""img/red_ll/7.jpg"",""time"":351},{""stimulus"":""img/red_ll/8.jpg"",""time"":401},{""stimulus"":""img/red_ll/9.jpg"",""time"":451},{""stimulus"":""img/red_ll/10.jpg"",""time"":501},{""stimulus"":""img/red_ll/11.jpg"",""time"":551}]","[]"
"image-keyboard-response","162","175926","0.0-5.0-1.79","6404fb7b9a7b3cfb4179d185","bdp_lott","Tue Mar 28 2023 17:11:16 GMT-0400 (Eastern Daylight Time)","358102","red","green","","904","","","","choice","","img/red_ll/choose11.jpg","1","146","green","0.5","0.1","0.1","l","",""
"animation","163","176527","0.0-5.0-2.79","6404fb7b9a7b3cfb4179d185","bdp_lott","Tue Mar 28 2023 17:11:16 GMT-0400 (Eastern Daylight Time)","358102","red","green","","","","","","","","","","146","","","","","","[{""stimulus"":""img/green_ll/1.jpg"",""time"":52},{""stimulus"":""img/green_ll/2.jpg"",""time"":101},{""stimulus"":""img/green_ll/3.jpg"",""time"":150},{""stimulus"":""img/green_ll/4.jpg"",""time"":210},{""stimulus"":""img/green_ll/5.jpg"",""time"":251},{""stimulus"":""img/green_ll/6.jpg"",""time"":301},{""stimulus"":""img/green_ll/7.jpg"",""time"":351},{""stimulus"":""img/green_ll/8.jpg"",""time"":401},{""stimulus"":""img/green_ll/9.jpg"",""time"":451},{""stimulus"":""img/green_ll/10.jpg"",""time"":501},{""stimulus"":""img/green_ll/11.jpg"",""time"":551}]","[]"
"image-keyboard-response","164","177109","0.0-5.0-1.80","6404fb7b9a7b3cfb4179d185","bdp_lott","Tue Mar 28 2023 17:11:16 GMT-0400 (Eastern Daylight Time)","358102","red","green","","582","","","","choice","","img/green_ll/choose11.jpg","1","145","green","0.5","0.1","0.1","l","",""
"animation","165","177710","0.0-5.0-2.80","6404fb7b9a7b3cfb4179d185","bdp_lott","Tue Mar 28 2023 17:11:16 GMT-0400 (Eastern Daylight Time)","358102","red","green","","","","","","","","","","145","","","","","","[{""stimulus"":""img/green_ll/1.jpg"",""time"":50},{""stimulus"":""img/green_ll/2.jpg"",""time"":100},{""stimulus"":""img/green_ll/3.jpg"",""time"":150},{""stimulus"":""img/green_ll/4.jpg"",""time"":208},{""stimulus"":""img/green_ll/5.jpg"",""time"":251},{""stimulus"":""img/green_ll/6.jpg"",""time"":304},{""stimulus"":""img/green_ll/7.jpg"",""time"":350},{""stimulus"":""img/green_ll/8.jpg"",""time"":400},{""stimulus"":""img/green_ll/9.jpg"",""time"":450},{""stimulus"":""img/green_ll/10.jpg"",""time"":500},{""stimulus"":""img/green_ll/11.jpg"",""time"":550}]","[]"
"image-keyboard-response","166","178194","0.0-5.0-1.81","6404fb7b9a7b3cfb4179d185","bdp_lott","Tue Mar 28 2023 17:11:16 GMT-0400 (Eastern Daylight Time)","358102","red","green","","484","","","","choice","","img/green_ll/choose11.jpg","1","144","green","0.5","0.1","0.1","l","",""
"animation","167","178794","0.0-5.0-2.81","6404fb7b9a7b3cfb4179d185","bdp_lott","Tue Mar 28 2023 17:11:16 GMT-0400 (Eastern Daylight Time)","358102","red","green","","","","","","","","","","144","","","","","","[{""stimulus"":""img/green_ll/1.jpg"",""time"":55},{""stimulus"":""img/green_ll/2.jpg"",""time"":103},{""stimulus"":""img/green_ll/3.jpg"",""time"":150},{""stimulus"":""img/green_ll/4.jpg"",""time"":201},{""stimulus"":""img/green_ll/5.jpg"",""time"":250},{""stimulus"":""img/green_ll/6.jpg"",""time"":308},{""stimulus"":""img/green_ll/7.jpg"",""time"":350},{""stimulus"":""img/green_ll/8.jpg"",""time"":400},{""stimulus"":""img/green_ll/9.jpg"",""time"":451},{""stimulus"":""img/green_ll/10.jpg"",""time"":500},{""stimulus"":""img/green_ll/11.jpg"",""time"":560}]","[]"
"image-keyboard-response","168","179505","0.0-5.0-1.82","6404fb7b9a7b3cfb4179d185","bdp_lott","Tue Mar 28 2023 17:11:16 GMT-0400 (Eastern Daylight Time)","358102","red","green","","711","","","","choice","","img/green_ll/choose11.jpg","1","143","green","0.5","0.1","0.1","l","",""
"animation","169","180105","0.0-5.0-2.82","6404fb7b9a7b3cfb4179d185","bdp_lott","Tue Mar 28 2023 17:11:16 GMT-0400 (Eastern Daylight Time)","358102","red","green","","","","","","","","","","143","","","","","","[{""stimulus"":""img/green_ll/1.jpg"",""time"":65},{""stimulus"":""img/green_ll/2.jpg"",""time"":101},{""stimulus"":""img/green_ll/3.jpg"",""time"":151},{""stimulus"":""img/green_ll/4.jpg"",""time"":201},{""stimulus"":""img/green_ll/5.jpg"",""time"":250},{""stimulus"":""img/green_ll/6.jpg"",""time"":301},{""stimulus"":""img/green_ll/7.jpg"",""time"":350},{""stimulus"":""img/green_ll/8.jpg"",""time"":401},{""stimulus"":""img/green_ll/9.jpg"",""time"":450},{""stimulus"":""img/green_ll/10.jpg"",""time"":500},{""stimulus"":""img/green_ll/11.jpg"",""time"":550}]","[]"
"image-keyboard-response","170","181047","0.0-5.0-1.83","6404fb7b9a7b3cfb4179d185","bdp_lott","Tue Mar 28 2023 17:11:16 GMT-0400 (Eastern Daylight Time)","358102","red","green","","941","","","","choice","","img/green_ll/choose11.jpg","2","142","red","0.5","0.1","0.5","w","",""
"animation","171","181648","0.0-5.0-2.83","6404fb7b9a7b3cfb4179d185","bdp_lott","Tue Mar 28 2023 17:11:16 GMT-0400 (Eastern Daylight Time)","358102","red","green","","","","","","","","","","142","","","","","","[{""stimulus"":""img/red_lw/1.jpg"",""time"":62},{""stimulus"":""img/red_lw/2.jpg"",""time"":100},{""stimulus"":""img/red_lw/3.jpg"",""time"":158},{""stimulus"":""img/red_lw/4.jpg"",""time"":200},{""stimulus"":""img/red_lw/5.jpg"",""time"":252},{""stimulus"":""img/red_lw/6.jpg"",""time"":300},{""stimulus"":""img/red_lw/7.jpg"",""time"":350},{""stimulus"":""img/red_lw/8.jpg"",""time"":400},{""stimulus"":""img/red_lw/9.jpg"",""time"":451},{""stimulus"":""img/red_lw/10.jpg"",""time"":501},{""stimulus"":""img/red_lw/11.jpg"",""time"":551}]","[]"
"image-keyboard-response","172","182460","0.0-5.0-1.84","6404fb7b9a7b3cfb4179d185","bdp_lott","Tue Mar 28 2023 17:11:16 GMT-0400 (Eastern Daylight Time)","358102","red","green","","812","","","","choice","","img/red_lw/choose11.jpg","2","141","red","0.5","0.1","0.5","l","",""
"animation","173","183061","0.0-5.0-2.84","6404fb7b9a7b3cfb4179d185","bdp_lott","Tue Mar 28 2023 17:11:16 GMT-0400 (Eastern Daylight Time)","358102","red","green","","","","","","","","","","141","","","","","","[{""stimulus"":""img/red_ll/1.jpg"",""time"":66},{""stimulus"":""img/red_ll/2.jpg"",""time"":101},{""stimulus"":""img/red_ll/3.jpg"",""time"":151},{""stimulus"":""img/red_ll/4.jpg"",""time"":201},{""stimulus"":""img/red_ll/5.jpg"",""time"":251},{""stimulus"":""img/red_ll/6.jpg"",""time"":301},{""stimulus"":""img/red_ll/7.jpg"",""time"":366},{""stimulus"":""img/red_ll/8.jpg"",""time"":401},{""stimulus"":""img/red_ll/9.jpg"",""time"":451},{""stimulus"":""img/red_ll/10.jpg"",""time"":501},{""stimulus"":""img/red_ll/11.jpg"",""time"":551}]","[]"
"image-keyboard-response","174","183555","0.0-5.0-1.85","6404fb7b9a7b3cfb4179d185","bdp_lott","Tue Mar 28 2023 17:11:16 GMT-0400 (Eastern Daylight Time)","358102","red","green","","494","","","","choice","","img/red_ll/choose11.jpg","2","140","red","0.5","0.1","0.5","l","",""
"animation","175","184156","0.0-5.0-2.85","6404fb7b9a7b3cfb4179d185","bdp_lott","Tue Mar 28 2023 17:11:16 GMT-0400 (Eastern Daylight Time)","358102","red","green","","","","","","","","","","140","","","","","","[{""stimulus"":""img/red_ll/1.jpg"",""time"":60},{""stimulus"":""img/red_ll/2.jpg"",""time"":101},{""stimulus"":""img/red_ll/3.jpg"",""time"":155},{""stimulus"":""img/red_ll/4.jpg"",""time"":201},{""stimulus"":""img/red_ll/5.jpg"",""time"":251},{""stimulus"":""img/red_ll/6.jpg"",""time"":312},{""stimulus"":""img/red_ll/7.jpg"",""time"":351},{""stimulus"":""img/red_ll/8.jpg"",""time"":401},{""stimulus"":""img/red_ll/9.jpg"",""time"":451},{""stimulus"":""img/red_ll/10.jpg"",""time"":501},{""stimulus"":""img/red_ll/11.jpg"",""time"":551}]","[]"
"image-keyboard-response","176","184682","0.0-5.0-1.86","6404fb7b9a7b3cfb4179d185","bdp_lott","Tue Mar 28 2023 17:11:16 GMT-0400 (Eastern Daylight Time)","358102","red","green","","526","","","","choice","","img/red_ll/choose11.jpg","2","139","red","0.5","0.1","0.5","w","",""
"animation","177","185284","0.0-5.0-2.86","6404fb7b9a7b3cfb4179d185","bdp_lott","Tue Mar 28 2023 17:11:16 GMT-0400 (Eastern Daylight Time)","358102","red","green","","","","","","","","","","139","","","","","","[{""stimulus"":""img/red_lw/1.jpg"",""time"":65},{""stimulus"":""img/red_lw/2.jpg"",""time"":112},{""stimulus"":""img/red_lw/3.jpg"",""time"":152},{""stimulus"":""img/red_lw/4.jpg"",""time"":207},{""stimulus"":""img/red_lw/5.jpg"",""time"":252},{""stimulus"":""img/red_lw/6.jpg"",""time"":302},{""stimulus"":""img/red_lw/7.jpg"",""time"":352},{""stimulus"":""img/red_lw/8.jpg"",""time"":402},{""stimulus"":""img/red_lw/9.jpg"",""time"":452},{""stimulus"":""img/red_lw/10.jpg"",""time"":502},{""stimulus"":""img/red_lw/11.jpg"",""time"":552}]","[]"
"image-keyboard-response","178","186233","0.0-5.0-1.87","6404fb7b9a7b3cfb4179d185","bdp_lott","Tue Mar 28 2023 17:11:16 GMT-0400 (Eastern Daylight Time)","358102","red","green","","949","","","","choice","","img/red_lw/choose11.jpg","2","138","red","0.5","0.1","0.5","w","",""
"animation","179","186834","0.0-5.0-2.87","6404fb7b9a7b3cfb4179d185","bdp_lott","Tue Mar 28 2023 17:11:16 GMT-0400 (Eastern Daylight Time)","358102","red","green","","","","","","","","","","138","","","","","","[{""stimulus"":""img/red_lw/1.jpg"",""time"":52},{""stimulus"":""img/red_lw/2.jpg"",""time"":101},{""stimulus"":""img/red_lw/3.jpg"",""time"":151},{""stimulus"":""img/red_lw/4.jpg"",""time"":201},{""stimulus"":""img/red_lw/5.jpg"",""time"":251},{""stimulus"":""img/red_lw/6.jpg"",""time"":301},{""stimulus"":""img/red_lw/7.jpg"",""time"":351},{""stimulus"":""img/red_lw/8.jpg"",""time"":401},{""stimulus"":""img/red_lw/9.jpg"",""time"":451},{""stimulus"":""img/red_lw/10.jpg"",""time"":501},{""stimulus"":""img/red_lw/11.jpg"",""time"":551}]","[]"
"image-keyboard-response","180","187748","0.0-5.0-1.88","6404fb7b9a7b3cfb4179d185","bdp_lott","Tue Mar 28 2023 17:11:16 GMT-0400 (Eastern Daylight Time)","358102","red","green","","914","","","","choice","","img/red_lw/choose11.jpg","2","137","red","0.5","0.1","0.5","w","",""
"animation","181","188349","0.0-5.0-2.88","6404fb7b9a7b3cfb4179d185","bdp_lott","Tue Mar 28 2023 17:11:16 GMT-0400 (Eastern Daylight Time)","358102","red","green","","","","","","","","","","137","","","","","","[{""stimulus"":""img/red_lw/1.jpg"",""time"":66},{""stimulus"":""img/red_lw/2.jpg"",""time"":113},{""stimulus"":""img/red_lw/3.jpg"",""time"":160},{""stimulus"":""img/red_lw/4.jpg"",""time"":201},{""stimulus"":""img/red_lw/5.jpg"",""time"":251},{""stimulus"":""img/red_lw/6.jpg"",""time"":301},{""stimulus"":""img/red_lw/7.jpg"",""time"":351},{""stimulus"":""img/red_lw/8.jpg"",""time"":401},{""stimulus"":""img/red_lw/9.jpg"",""time"":451},{""stimulus"":""img/red_lw/10.jpg"",""time"":501},{""stimulus"":""img/red_lw/11.jpg"",""time"":551}]","[]"
"image-keyboard-response","182","188984","0.0-5.0-1.89","6404fb7b9a7b3cfb4179d185","bdp_lott","Tue Mar 28 2023 17:11:16 GMT-0400 (Eastern Daylight Time)","358102","red","green","","635","","","","choice","","img/red_lw/choose11.jpg","2","136","red","0.5","0.1","0.5","l","",""
"animation","183","189585","0.0-5.0-2.89","6404fb7b9a7b3cfb4179d185","bdp_lott","Tue Mar 28 2023 17:11:16 GMT-0400 (Eastern Daylight Time)","358102","red","green","","","","","","","","","","136","","","","","","[{""stimulus"":""img/red_ll/1.jpg"",""time"":57},{""stimulus"":""img/red_ll/2.jpg"",""time"":101},{""stimulus"":""img/red_ll/3.jpg"",""time"":151},{""stimulus"":""img/red_ll/4.jpg"",""time"":201},{""stimulus"":""img/red_ll/5.jpg"",""time"":263},{""stimulus"":""img/red_ll/6.jpg"",""time"":302},{""stimulus"":""img/red_ll/7.jpg"",""time"":350},{""stimulus"":""img/red_ll/8.jpg"",""time"":400},{""stimulus"":""img/red_ll/9.jpg"",""time"":452},{""stimulus"":""img/red_ll/10.jpg"",""time"":500},{""stimulus"":""img/red_ll/11.jpg"",""time"":551}]","[]"
"image-keyboard-response","184","190536","0.0-5.0-1.90","6404fb7b9a7b3cfb4179d185","bdp_lott","Tue Mar 28 2023 17:11:16 GMT-0400 (Eastern Daylight Time)","358102","red","green","","950","","","","choice","","img/red_ll/choose11.jpg","2","135","red","0.5","0.1","0.5","w","",""
"animation","185","191137","0.0-5.0-2.90","6404fb7b9a7b3cfb4179d185","bdp_lott","Tue Mar 28 2023 17:11:16 GMT-0400 (Eastern Daylight Time)","358102","red","green","","","","","","","","","","135","","","","","","[{""stimulus"":""img/red_lw/1.jpg"",""time"":65},{""stimulus"":""img/red_lw/2.jpg"",""time"":101},{""stimulus"":""img/red_lw/3.jpg"",""time"":151},{""stimulus"":""img/red_lw/4.jpg"",""time"":201},{""stimulus"":""img/red_lw/5.jpg"",""time"":251},{""stimulus"":""img/red_lw/6.jpg"",""time"":301},{""stimulus"":""img/red_lw/7.jpg"",""time"":351},{""stimulus"":""img/red_lw/8.jpg"",""time"":401},{""stimulus"":""img/red_lw/9.jpg"",""time"":458},{""stimulus"":""img/red_lw/10.jpg"",""time"":501},{""stimulus"":""img/red_lw/11.jpg"",""time"":553}]","[]"
"image-keyboard-response","186","191839","0.0-5.0-1.91","6404fb7b9a7b3cfb4179d185","bdp_lott","Tue Mar 28 2023 17:11:16 GMT-0400 (Eastern Daylight Time)","358102","red","green","","702","","","","choice","","img/red_lw/choose11.jpg","2","134","red","0.5","0.1","0.5","w","",""
"animation","187","192440","0.0-5.0-2.91","6404fb7b9a7b3cfb4179d185","bdp_lott","Tue Mar 28 2023 17:11:16 GMT-0400 (Eastern Daylight Time)","358102","red","green","","","","","","","","","","134","","","","","","[{""stimulus"":""img/red_lw/1.jpg"",""time"":52},{""stimulus"":""img/red_lw/2.jpg"",""time"":105},{""stimulus"":""img/red_lw/3.jpg"",""time"":152},{""stimulus"":""img/red_lw/4.jpg"",""time"":202},{""stimulus"":""img/red_lw/5.jpg"",""time"":265},{""stimulus"":""img/red_lw/6.jpg"",""time"":301},{""stimulus"":""img/red_lw/7.jpg"",""time"":351},{""stimulus"":""img/red_lw/8.jpg"",""time"":401},{""stimulus"":""img/red_lw/9.jpg"",""time"":451},{""stimulus"":""img/red_lw/10.jpg"",""time"":501},{""stimulus"":""img/red_lw/11.jpg"",""time"":551}]","[]"
"image-keyboard-response","188","192979","0.0-5.0-1.92","6404fb7b9a7b3cfb4179d185","bdp_lott","Tue Mar 28 2023 17:11:16 GMT-0400 (Eastern Daylight Time)","358102","red","green","","539","","","","choice","","img/red_lw/choose11.jpg","2","133","red","0.5","0.1","0.5","l","",""
"animation","189","193580","0.0-5.0-2.92","6404fb7b9a7b3cfb4179d185","bdp_lott","Tue Mar 28 2023 17:11:16 GMT-0400 (Eastern Daylight Time)","358102","red","green","","","","","","","","","","133","","","","","","[{""stimulus"":""img/red_ll/1.jpg"",""time"":64},{""stimulus"":""img/red_ll/2.jpg"",""time"":100},{""stimulus"":""img/red_ll/3.jpg"",""time"":157},{""stimulus"":""img/red_ll/4.jpg"",""time"":201},{""stimulus"":""img/red_ll/5.jpg"",""time"":255},{""stimulus"":""img/red_ll/6.jpg"",""time"":302},{""stimulus"":""img/red_ll/7.jpg"",""time"":350},{""stimulus"":""img/red_ll/8.jpg"",""time"":401},{""stimulus"":""img/red_ll/9.jpg"",""time"":451},{""stimulus"":""img/red_ll/10.jpg"",""time"":507},{""stimulus"":""img/red_ll/11.jpg"",""time"":551}]","[]"
"image-keyboard-response","190","194204","0.0-5.0-1.93","6404fb7b9a7b3cfb4179d185","bdp_lott","Tue Mar 28 2023 17:11:16 GMT-0400 (Eastern Daylight Time)","358102","red","green","","622","","","","choice","","img/red_ll/choose11.jpg","2","132","red","0.5","0.1","0.5","l","",""
