"trial_type","trial_index","time_elapsed","internal_node_id","subject_id","task","startTime","totalTime","fairMachine","unfairMachine","view_history","rt","event","trial","time","trialtype","success","stimulus","key_press","roundsLeft","chosen","pFairMachWin","pUnfairMachWin","pTrialWin","outcome","animation_sequence","responses"
"pavlovia","0","3","0.0-0.0","63d41088860131e49a85cfac","bdp_lott","Fri Mar 24 2023 19:12:09 GMT-0400 (Eastern Daylight Time)","259687","green","red","","","","","","","","","","","","","","","","",""
"instructions","1","9609","0.0-1.0","63d41088860131e49a85cfac","bdp_lott","Fri Mar 24 2023 19:12:09 GMT-0400 (Eastern Daylight Time)","259687","green","red","[{""page_index"":0,""viewing_time"":9605}]","9605","","","","","","","","","","","","","","",""
"","","","","63d41088860131e49a85cfac","bdp_lott","Fri Mar 24 2023 19:12:09 GMT-0400 (Eastern Daylight Time)","259687","green","red","","","fullscreenenter","2","11130","fullscreenenter","","","","","","","","","","",""
"fullscreen","2","12092","0.0-2.0","63d41088860131e49a85cfac","bdp_lott","Fri Mar 24 2023 19:12:09 GMT-0400 (Eastern Daylight Time)","259687","green","red","","","","","","","true","","","","","","","","","",""
"instructions","3","26632","0.0-4.0","63d41088860131e49a85cfac","bdp_lott","Fri Mar 24 2023 19:12:09 GMT-0400 (Eastern Daylight Time)","259687","green","red","[{""page_index"":0,""viewing_time"":14538}]","14538","","","","","","","","","","","","","","",""
"image-keyboard-response","4","29078","0.0-5.0-1.0","63d41088860131e49a85cfac","bdp_lott","Fri Mar 24 2023 19:12:09 GMT-0400 (Eastern Daylight Time)","259687","green","red","","2444","","","","choice","","img/red_ll/initchoose11.jpg","1","225","green","0.5","0.5","0.5","w","",""
"animation","5","29684","0.0-5.0-2.0","63d41088860131e49a85cfac","bdp_lott","Fri Mar 24 2023 19:12:09 GMT-0400 (Eastern Daylight Time)","259687","green","red","","","","","","","","","","225","","","","","","[{""stimulus"":""img/green_wl/1.jpg"",""time"":51},{""stimulus"":""img/green_wl/2.jpg"",""time"":109},{""stimulus"":""img/green_wl/3.jpg"",""time"":156},{""stimulus"":""img/green_wl/4.jpg"",""time"":201},{""stimulus"":""img/green_wl/5.jpg"",""time"":251},{""stimulus"":""img/green_wl/6.jpg"",""time"":313},{""stimulus"":""img/green_wl/7.jpg"",""time"":351},{""stimulus"":""img/green_wl/8.jpg"",""time"":406},{""stimulus"":""img/green_wl/9.jpg"",""time"":452},{""stimulus"":""img/green_wl/10.jpg"",""time"":501},{""stimulus"":""img/green_wl/11.jpg"",""time"":559}]","[]"
"image-keyboard-response","6","30949","0.0-5.0-1.1","63d41088860131e49a85cfac","bdp_lott","Fri Mar 24 2023 19:12:09 GMT-0400 (Eastern Daylight Time)","259687","green","red","","1265","","","","choice","","img/green_wl/choose11.jpg","2","224","red","0.5","0.5","0.5","w","",""
"animation","7","31560","0.0-5.0-2.1","63d41088860131e49a85cfac","bdp_lott","Fri Mar 24 2023 19:12:09 GMT-0400 (Eastern Daylight Time)","259687","green","red","","","","","","","","","","224","","","","","","[{""stimulus"":""img/red_ww/1.jpg"",""time"":51},{""stimulus"":""img/red_ww/2.jpg"",""time"":108},{""stimulus"":""img/red_ww/3.jpg"",""time"":151},{""stimulus"":""img/red_ww/4.jpg"",""time"":202},{""stimulus"":""img/red_ww/5.jpg"",""time"":251},{""stimulus"":""img/red_ww/6.jpg"",""time"":301},{""stimulus"":""img/red_ww/7.jpg"",""time"":351},{""stimulus"":""img/red_ww/8.jpg"",""time"":401},{""stimulus"":""img/red_ww/9.jpg"",""time"":450},{""stimulus"":""img/red_ww/10.jpg"",""time"":501},{""stimulus"":""img/red_ww/11.jpg"",""time"":563}]","[]"
"image-keyboard-response","8","33006","0.0-5.0-1.2","63d41088860131e49a85cfac","bdp_lott","Fri Mar 24 2023 19:12:09 GMT-0400 (Eastern Daylight Time)","259687","green","red","","1445","","","","choice","","img/red_ww/choose11.jpg","2","223","red","0.5","0.5","0.5","l","",""
"animation","9","33607","0.0-5.0-2.2","63d41088860131e49a85cfac","bdp_lott","Fri Mar 24 2023 19:12:09 GMT-0400 (Eastern Daylight Time)","259687","green","red","","","","","","","","","","223","","","","","","[{""stimulus"":""img/red_wl/1.jpg"",""time"":52},{""stimulus"":""img/red_wl/2.jpg"",""time"":114},{""stimulus"":""img/red_wl/3.jpg"",""time"":158},{""stimulus"":""img/red_wl/4.jpg"",""time"":207},{""stimulus"":""img/red_wl/5.jpg"",""time"":251},{""stimulus"":""img/red_wl/6.jpg"",""time"":306},{""stimulus"":""img/red_wl/7.jpg"",""time"":353},{""stimulus"":""img/red_wl/8.jpg"",""time"":416},{""stimulus"":""img/red_wl/9.jpg"",""time"":463},{""stimulus"":""img/red_wl/10.jpg"",""time"":515},{""stimulus"":""img/red_wl/11.jpg"",""time"":559}]","[]"
"image-keyboard-response","10","34280","0.0-5.0-1.3","63d41088860131e49a85cfac","bdp_lott","Fri Mar 24 2023 19:12:09 GMT-0400 (Eastern Daylight Time)","259687","green","red","","671","","","","choice","","img/red_wl/choose11.jpg","1","222","green","0.5","0.5","0.5","w","",""
"animation","11","34892","0.0-5.0-2.3","63d41088860131e49a85cfac","bdp_lott","Fri Mar 24 2023 19:12:09 GMT-0400 (Eastern Daylight Time)","259687","green","red","","","","","","","","","","222","","","","","","[{""stimulus"":""img/green_wl/1.jpg"",""time"":51},{""stimulus"":""img/green_wl/2.jpg"",""time"":101},{""stimulus"":""img/green_wl/3.jpg"",""time"":158},{""stimulus"":""img/green_wl/4.jpg"",""time"":204},{""stimulus"":""img/green_wl/5.jpg"",""time"":266},{""stimulus"":""img/green_wl/6.jpg"",""time"":300},{""stimulus"":""img/green_wl/7.jpg"",""time"":350},{""stimulus"":""img/green_wl/8.jpg"",""time"":408},{""stimulus"":""img/green_wl/9.jpg"",""time"":451},{""stimulus"":""img/green_wl/10.jpg"",""time"":503},{""stimulus"":""img/green_wl/11.jpg"",""time"":550}]","[]"
"image-keyboard-response","12","35485","0.0-5.0-1.4","63d41088860131e49a85cfac","bdp_lott","Fri Mar 24 2023 19:12:09 GMT-0400 (Eastern Daylight Time)","259687","green","red","","592","","","","choice","","img/green_wl/choose11.jpg","1","221","green","0.5","0.5","0.5","w","",""
"animation","13","36089","0.0-5.0-2.4","63d41088860131e49a85cfac","bdp_lott","Fri Mar 24 2023 19:12:09 GMT-0400 (Eastern Daylight Time)","259687","green","red","","","","","","","","","","221","","","","","","[{""stimulus"":""img/green_wl/1.jpg"",""time"":51},{""stimulus"":""img/green_wl/2.jpg"",""time"":100},{""stimulus"":""img/green_wl/3.jpg"",""time"":153},{""stimulus"":""img/green_wl/4.jpg"",""time"":215},{""stimulus"":""img/green_wl/5.jpg"",""time"":263},{""stimulus"":""img/green_wl/6.jpg"",""time"":301},{""stimulus"":""img/green_wl/7.jpg"",""time"":356},{""stimulus"":""img/green_wl/8.jpg"",""time"":402},{""stimulus"":""img/green_wl/9.jpg"",""time"":466},{""stimulus"":""img/green_wl/10.jpg"",""time"":512},{""stimulus"":""img/green_wl/11.jpg"",""time"":558}]","[]"
"image-keyboard-response","14","36574","0.0-5.0-1.5","63d41088860131e49a85cfac","bdp_lott","Fri Mar 24 2023 19:12:09 GMT-0400 (Eastern Daylight Time)","259687","green","red","","483","","","","choice","","img/green_wl/choose11.jpg","1","220","green","0.5","0.5","0.5","l","",""
"animation","15","37183","0.0-5.0-2.5","63d41088860131e49a85cfac","bdp_lott","Fri Mar 24 2023 19:12:09 GMT-0400 (Eastern Daylight Time)","259687","green","red","","","","","","","","","","220","","","","","","[{""stimulus"":""img/green_ll/1.jpg"",""time"":64},{""stimulus"":""img/green_ll/2.jpg"",""time"":111},{""stimulus"":""img/green_ll/3.jpg"",""time"":151},{""stimulus"":""img/green_ll/4.jpg"",""time"":203},{""stimulus"":""img/green_ll/5.jpg"",""time"":265},{""stimulus"":""img/green_ll/6.jpg"",""time"":301},{""stimulus"":""img/green_ll/7.jpg"",""time"":358},{""stimulus"":""img/green_ll/8.jpg"",""time"":401},{""stimulus"":""img/green_ll/9.jpg"",""time"":451},{""stimulus"":""img/green_ll/10.jpg"",""time"":513},{""stimulus"":""img/green_ll/11.jpg"",""time"":561}]","[]"
"image-keyboard-response","16","37542","0.0-5.0-1.6","63d41088860131e49a85cfac","bdp_lott","Fri Mar 24 2023 19:12:09 GMT-0400 (Eastern Daylight Time)","259687","green","red","","358","","","","choice","","img/green_ll/choose11.jpg","2","219","red","0.5","0.5","0.5","l","",""
"animation","17","38143","0.0-5.0-2.6","63d41088860131e49a85cfac","bdp_lott","Fri Mar 24 2023 19:12:09 GMT-0400 (Eastern Daylight Time)","259687","green","red","","","","","","","","","","219","","","","","","[{""stimulus"":""img/red_ll/1.jpg"",""time"":59},{""stimulus"":""img/red_ll/2.jpg"",""time"":106},{""stimulus"":""img/red_ll/3.jpg"",""time"":153},{""stimulus"":""img/red_ll/4.jpg"",""time"":214},{""stimulus"":""img/red_ll/5.jpg"",""time"":255},{""stimulus"":""img/red_ll/6.jpg"",""time"":305},{""stimulus"":""img/red_ll/7.jpg"",""time"":354},{""stimulus"":""img/red_ll/8.jpg"",""time"":416},{""stimulus"":""img/red_ll/9.jpg"",""time"":455},{""stimulus"":""img/red_ll/10.jpg"",""time"":505},{""stimulus"":""img/red_ll/11.jpg"",""time"":555}]","[]"
"image-keyboard-response","18","38532","0.0-5.0-1.7","63d41088860131e49a85cfac","bdp_lott","Fri Mar 24 2023 19:12:09 GMT-0400 (Eastern Daylight Time)","259687","green","red","","388","","","","choice","","img/red_ll/choose11.jpg","2","218","red","0.5","0.5","0.5","w","",""
"animation","19","39139","0.0-5.0-2.7","63d41088860131e49a85cfac","bdp_lott","Fri Mar 24 2023 19:12:09 GMT-0400 (Eastern Daylight Time)","259687","green","red","","","","","","","","","","218","","","","","","[{""stimulus"":""img/red_lw/1.jpg"",""time"":60},{""stimulus"":""img/red_lw/2.jpg"",""time"":106},{""stimulus"":""img/red_lw/3.jpg"",""time"":154},{""stimulus"":""img/red_lw/4.jpg"",""time"":202},{""stimulus"":""img/red_lw/5.jpg"",""time"":264},{""stimulus"":""img/red_lw/6.jpg"",""time"":310},{""stimulus"":""img/red_lw/7.jpg"",""time"":357},{""stimulus"":""img/red_lw/8.jpg"",""time"":401},{""stimulus"":""img/red_lw/9.jpg"",""time"":466},{""stimulus"":""img/red_lw/10.jpg"",""time"":514},{""stimulus"":""img/red_lw/11.jpg"",""time"":560}]","[]"
"image-keyboard-response","20","40066","0.0-5.0-1.8","63d41088860131e49a85cfac","bdp_lott","Fri Mar 24 2023 19:12:09 GMT-0400 (Eastern Daylight Time)","259687","green","red","","926","","","","choice","","img/red_lw/choose11.jpg","1","217","green","0.5","0.5","0.5","l","",""
"animation","21","40668","0.0-5.0-2.8","63d41088860131e49a85cfac","bdp_lott","Fri Mar 24 2023 19:12:09 GMT-0400 (Eastern Daylight Time)","259687","green","red","","","","","","","","","","217","","","","","","[{""stimulus"":""img/green_lw/1.jpg"",""time"":50},{""stimulus"":""img/green_lw/2.jpg"",""time"":111},{""stimulus"":""img/green_lw/3.jpg"",""time"":159},{""stimulus"":""img/green_lw/4.jpg"",""time"":201},{""stimulus"":""img/green_lw/5.jpg"",""time"":255},{""stimulus"":""img/green_lw/6.jpg"",""time"":303},{""stimulus"":""img/green_lw/7.jpg"",""time"":352},{""stimulus"":""img/green_lw/8.jpg"",""time"":400},{""stimulus"":""img/green_lw/9.jpg"",""time"":457},{""stimulus"":""img/green_lw/10.jpg"",""time"":504},{""stimulus"":""img/green_lw/11.jpg"",""time"":565}]","[]"
"image-keyboard-response","22","41450","0.0-5.0-1.9","63d41088860131e49a85cfac","bdp_lott","Fri Mar 24 2023 19:12:09 GMT-0400 (Eastern Daylight Time)","259687","green","red","","782","","","","choice","","img/green_lw/choose11.jpg","1","216","green","0.5","0.5","0.5","l","",""
"animation","23","42059","0.0-5.0-2.9","63d41088860131e49a85cfac","bdp_lott","Fri Mar 24 2023 19:12:09 GMT-0400 (Eastern Daylight Time)","259687","green","red","","","","","","","","","","216","","","","","","[{""stimulus"":""img/green_lw/1.jpg"",""time"":51},{""stimulus"":""img/green_lw/2.jpg"",""time"":113},{""stimulus"":""img/green_lw/3.jpg"",""time"":151},{""stimulus"":""img/green_lw/4.jpg"",""time"":205},{""stimulus"":""img/green_lw/5.jpg"",""time"":252},{""stimulus"":""img/green_lw/6.jpg"",""time"":313},{""stimulus"":""img/green_lw/7.jpg"",""time"":359},{""stimulus"":""img/green_lw/8.jpg"",""time"":405},{""stimulus"":""img/green_lw/9.jpg"",""time"":451},{""stimulus"":""img/green_lw/10.jpg"",""time"":501},{""stimulus"":""img/green_lw/11.jpg"",""time"":551}]","[]"
"image-keyboard-response","24","42724","0.0-5.0-1.10","63d41088860131e49a85cfac","bdp_lott","Fri Mar 24 2023 19:12:09 GMT-0400 (Eastern Daylight Time)","259687","green","red","","665","","","","choice","","img/green_lw/choose11.jpg","2","215","red","0.5","0.5","0.5","w","",""
"animation","25","43325","0.0-5.0-2.10","63d41088860131e49a85cfac","bdp_lott","Fri Mar 24 2023 19:12:09 GMT-0400 (Eastern Daylight Time)","259687","green","red","","","","","","","","","","215","","","","","","[{""stimulus"":""img/red_lw/1.jpg"",""time"":60},{""stimulus"":""img/red_lw/2.jpg"",""time"":107},{""stimulus"":""img/red_lw/3.jpg"",""time"":152},{""stimulus"":""img/red_lw/4.jpg"",""time"":213},{""stimulus"":""img/red_lw/5.jpg"",""time"":259},{""stimulus"":""img/red_lw/6.jpg"",""time"":300},{""stimulus"":""img/red_lw/7.jpg"",""time"":354},{""stimulus"":""img/red_lw/8.jpg"",""time"":401},{""stimulus"":""img/red_lw/9.jpg"",""time"":461},{""stimulus"":""img/red_lw/10.jpg"",""time"":507},{""stimulus"":""img/red_lw/11.jpg"",""time"":555}]","[]"
"image-keyboard-response","26","43873","0.0-5.0-1.11","63d41088860131e49a85cfac","bdp_lott","Fri Mar 24 2023 19:12:09 GMT-0400 (Eastern Daylight Time)","259687","green","red","","548","","","","choice","","img/red_lw/choose11.jpg","2","214","red","0.5","0.5","0.5","w","",""
"animation","27","44479","0.0-5.0-2.11","63d41088860131e49a85cfac","bdp_lott","Fri Mar 24 2023 19:12:09 GMT-0400 (Eastern Daylight Time)","259687","green","red","","","","","","","","","","214","","","","","","[{""stimulus"":""img/red_lw/1.jpg"",""time"":51},{""stimulus"":""img/red_lw/2.jpg"",""time"":101},{""stimulus"":""img/red_lw/3.jpg"",""time"":151},{""stimulus"":""img/red_lw/4.jpg"",""time"":205},{""stimulus"":""img/red_lw/5.jpg"",""time"":251},{""stimulus"":""img/red_lw/6.jpg"",""time"":313},{""stimulus"":""img/red_lw/7.jpg"",""time"":359},{""stimulus"":""img/red_lw/8.jpg"",""time"":401},{""stimulus"":""img/red_lw/9.jpg"",""time"":451},{""stimulus"":""img/red_lw/10.jpg"",""time"":512},{""stimulus"":""img/red_lw/11.jpg"",""time"":551}]","[]"
"image-keyboard-response","28","45058","0.0-5.0-1.12","63d41088860131e49a85cfac","bdp_lott","Fri Mar 24 2023 19:12:09 GMT-0400 (Eastern Daylight Time)","259687","green","red","","579","","","","choice","","img/red_lw/choose11.jpg","2","213","red","0.5","0.5","0.5","l","",""
"animation","29","45658","0.0-5.0-2.12","63d41088860131e49a85cfac","bdp_lott","Fri Mar 24 2023 19:12:09 GMT-0400 (Eastern Daylight Time)","259687","green","red","","","","","","","","","","213","","","","","","[{""stimulus"":""img/red_ll/1.jpg"",""time"":59},{""stimulus"":""img/red_ll/2.jpg"",""time"":104},{""stimulus"":""img/red_ll/3.jpg"",""time"":166},{""stimulus"":""img/red_ll/4.jpg"",""time"":212},{""stimulus"":""img/red_ll/5.jpg"",""time"":258},{""stimulus"":""img/red_ll/6.jpg"",""time"":304},{""stimulus"":""img/red_ll/7.jpg"",""time"":351},{""stimulus"":""img/red_ll/8.jpg"",""time"":401},{""stimulus"":""img/red_ll/9.jpg"",""time"":456},{""stimulus"":""img/red_ll/10.jpg"",""time"":502},{""stimulus"":""img/red_ll/11.jpg"",""time"":564}]","[]"
"image-keyboard-response","30","46158","0.0-5.0-1.13","63d41088860131e49a85cfac","bdp_lott","Fri Mar 24 2023 19:12:09 GMT-0400 (Eastern Daylight Time)","259687","green","red","","499","","","","choice","","img/red_ll/choose11.jpg","2","212","red","0.5","0.5","0.5","l","",""
"animation","31","46768","0.0-5.0-2.13","63d41088860131e49a85cfac","bdp_lott","Fri Mar 24 2023 19:12:09 GMT-0400 (Eastern Daylight Time)","259687","green","red","","","","","","","","","","212","","","","","","[{""stimulus"":""img/red_ll/1.jpg"",""time"":51},{""stimulus"":""img/red_ll/2.jpg"",""time"":101},{""stimulus"":""img/red_ll/3.jpg"",""time"":157},{""stimulus"":""img/red_ll/4.jpg"",""time"":203},{""stimulus"":""img/red_ll/5.jpg"",""time"":251},{""stimulus"":""img/red_ll/6.jpg"",""time"":310},{""stimulus"":""img/red_ll/7.jpg"",""time"":356},{""stimulus"":""img/red_ll/8.jpg"",""time"":403},{""stimulus"":""img/red_ll/9.jpg"",""time"":466},{""stimulus"":""img/red_ll/10.jpg"",""time"":514},{""stimulus"":""img/red_ll/11.jpg"",""time"":562}]","[]"
"image-keyboard-response","32","47221","0.0-5.0-1.14","63d41088860131e49a85cfac","bdp_lott","Fri Mar 24 2023 19:12:09 GMT-0400 (Eastern Daylight Time)","259687","green","red","","453","","","","choice","","img/red_ll/choose11.jpg","1","211","green","0.5","0.5","0.5","w","",""
"animation","33","47822","0.0-5.0-2.14","63d41088860131e49a85cfac","bdp_lott","Fri Mar 24 2023 19:12:09 GMT-0400 (Eastern Daylight Time)","259687","green","red","","","","","","","","","","211","","","","","","[{""stimulus"":""img/green_wl/1.jpg"",""time"":58},{""stimulus"":""img/green_wl/2.jpg"",""time"":101},{""stimulus"":""img/green_wl/3.jpg"",""time"":151},{""stimulus"":""img/green_wl/4.jpg"",""time"":214},{""stimulus"":""img/green_wl/5.jpg"",""time"":261},{""stimulus"":""img/green_wl/6.jpg"",""time"":307},{""stimulus"":""img/green_wl/7.jpg"",""time"":350},{""stimulus"":""img/green_wl/8.jpg"",""time"":415},{""stimulus"":""img/green_wl/9.jpg"",""time"":451},{""stimulus"":""img/green_wl/10.jpg"",""time"":500},{""stimulus"":""img/green_wl/11.jpg"",""time"":551}]","[]"
"image-keyboard-response","34","48392","0.0-5.0-1.15","63d41088860131e49a85cfac","bdp_lott","Fri Mar 24 2023 19:12:09 GMT-0400 (Eastern Daylight Time)","259687","green","red","","570","","","","choice","","img/green_wl/choose11.jpg","1","210","green","0.5","0.5","0.5","l","",""
"animation","35","48993","0.0-5.0-2.15","63d41088860131e49a85cfac","bdp_lott","Fri Mar 24 2023 19:12:09 GMT-0400 (Eastern Daylight Time)","259687","green","red","","","","","","","","","","210","","","","","","[{""stimulus"":""img/green_ll/1.jpg"",""time"":51},{""stimulus"":""img/green_ll/2.jpg"",""time"":115},{""stimulus"":""img/green_ll/3.jpg"",""time"":161},{""stimulus"":""img/green_ll/4.jpg"",""time"":208},{""stimulus"":""img/green_ll/5.jpg"",""time"":254},{""stimulus"":""img/green_ll/6.jpg"",""time"":301},{""stimulus"":""img/green_ll/7.jpg"",""time"":351},{""stimulus"":""img/green_ll/8.jpg"",""time"":401},{""stimulus"":""img/green_ll/9.jpg"",""time"":454},{""stimulus"":""img/green_ll/10.jpg"",""time"":502},{""stimulus"":""img/green_ll/11.jpg"",""time"":567}]","[]"
"image-keyboard-response","36","49526","0.0-5.0-1.16","63d41088860131e49a85cfac","bdp_lott","Fri Mar 24 2023 19:12:09 GMT-0400 (Eastern Daylight Time)","259687","green","red","","532","","","","choice","","img/green_ll/choose11.jpg","1","209","green","0.5","0.5","0.5","l","",""
"animation","37","50129","0.0-5.0-2.16","63d41088860131e49a85cfac","bdp_lott","Fri Mar 24 2023 19:12:09 GMT-0400 (Eastern Daylight Time)","259687","green","red","","","","","","","","","","209","","","","","","[{""stimulus"":""img/green_ll/1.jpg"",""time"":51},{""stimulus"":""img/green_ll/2.jpg"",""time"":105},{""stimulus"":""img/green_ll/3.jpg"",""time"":151},{""stimulus"":""img/green_ll/4.jpg"",""time"":215},{""stimulus"":""img/green_ll/5.jpg"",""time"":252},{""stimulus"":""img/green_ll/6.jpg"",""time"":302},{""stimulus"":""img/green_ll/7.jpg"",""time"":353},{""stimulus"":""img/green_ll/8.jpg"",""time"":403},{""stimulus"":""img/green_ll/9.jpg"",""time"":453},{""stimulus"":""img/green_ll/10.jpg"",""time"":502},{""stimulus"":""img/green_ll/11.jpg"",""time"":554}]","[]"
"image-keyboard-response","38","50635","0.0-5.0-1.17","63d41088860131e49a85cfac","bdp_lott","Fri Mar 24 2023 19:12:09 GMT-0400 (Eastern Daylight Time)","259687","green","red","","505","","","","choice","","img/green_ll/choose11.jpg","2","208","red","0.5","0.5","0.5","l","",""
"animation","39","51237","0.0-5.0-2.17","63d41088860131e49a85cfac","bdp_lott","Fri Mar 24 2023 19:12:09 GMT-0400 (Eastern Daylight Time)","259687","green","red","","","","","","","","","","208","","","","","","[{""stimulus"":""img/red_ll/1.jpg"",""time"":52},{""stimulus"":""img/red_ll/2.jpg"",""time"":101},{""stimulus"":""img/red_ll/3.jpg"",""time"":161},{""stimulus"":""img/red_ll/4.jpg"",""time"":201},{""stimulus"":""img/red_ll/5.jpg"",""time"":254},{""stimulus"":""img/red_ll/6.jpg"",""time"":315},{""stimulus"":""img/red_ll/7.jpg"",""time"":362},{""stimulus"":""img/red_ll/8.jpg"",""time"":408},{""stimulus"":""img/red_ll/9.jpg"",""time"":454},{""stimulus"":""img/red_ll/10.jpg"",""time"":501},{""stimulus"":""img/red_ll/11.jpg"",""time"":562}]","[]"
"image-keyboard-response","40","51666","0.0-5.0-1.18","63d41088860131e49a85cfac","bdp_lott","Fri Mar 24 2023 19:12:09 GMT-0400 (Eastern Daylight Time)","259687","green","red","","429","","","","choice","","img/red_ll/choose11.jpg","2","207","red","0.5","0.5","0.5","w","",""
"animation","41","52277","0.0-5.0-2.18","63d41088860131e49a85cfac","bdp_lott","Fri Mar 24 2023 19:12:09 GMT-0400 (Eastern Daylight Time)","259687","green","red","","","","","","","","","","207","","","","","","[{""stimulus"":""img/red_lw/1.jpg"",""time"":61},{""stimulus"":""img/red_lw/2.jpg"",""time"":109},{""stimulus"":""img/red_lw/3.jpg"",""time"":157},{""stimulus"":""img/red_lw/4.jpg"",""time"":205},{""stimulus"":""img/red_lw/5.jpg"",""time"":253},{""stimulus"":""img/red_lw/6.jpg"",""time"":301},{""stimulus"":""img/red_lw/7.jpg"",""time"":363},{""stimulus"":""img/red_lw/8.jpg"",""time"":409},{""stimulus"":""img/red_lw/9.jpg"",""time"":456},{""stimulus"":""img/red_lw/10.jpg"",""time"":501},{""stimulus"":""img/red_lw/11.jpg"",""time"":564}]","[]"
"image-keyboard-response","42","52893","0.0-5.0-1.19","63d41088860131e49a85cfac","bdp_lott","Fri Mar 24 2023 19:12:09 GMT-0400 (Eastern Daylight Time)","259687","green","red","","615","","","","choice","","img/red_lw/choose11.jpg","1","206","green","0.5","0.5","0.5","l","",""
"animation","43","53503","0.0-5.0-2.19","63d41088860131e49a85cfac","bdp_lott","Fri Mar 24 2023 19:12:09 GMT-0400 (Eastern Daylight Time)","259687","green","red","","","","","","","","","","206","","","","","","[{""stimulus"":""img/green_lw/1.jpg"",""time"":51},{""stimulus"":""img/green_lw/2.jpg"",""time"":100},{""stimulus"":""img/green_lw/3.jpg"",""time"":150},{""stimulus"":""img/green_lw/4.jpg"",""time"":206},{""stimulus"":""img/green_lw/5.jpg"",""time"":253},{""stimulus"":""img/green_lw/6.jpg"",""time"":301},{""stimulus"":""img/green_lw/7.jpg"",""time"":360},{""stimulus"":""img/green_lw/8.jpg"",""time"":402},{""stimulus"":""img/green_lw/9.jpg"",""time"":452},{""stimulus"":""img/green_lw/10.jpg"",""time"":514},{""stimulus"":""img/green_lw/11.jpg"",""time"":562}]","[]"
"image-keyboard-response","44","54069","0.0-5.0-1.20","63d41088860131e49a85cfac","bdp_lott","Fri Mar 24 2023 19:12:09 GMT-0400 (Eastern Daylight Time)","259687","green","red","","565","","","","choice","","img/green_lw/choose11.jpg","2","205","red","0.5","0.5","0.5","l","",""
"animation","45","54671","0.0-5.0-2.20","63d41088860131e49a85cfac","bdp_lott","Fri Mar 24 2023 19:12:09 GMT-0400 (Eastern Daylight Time)","259687","green","red","","","","","","","","","","205","","","","","","[{""stimulus"":""img/red_ll/1.jpg"",""time"":59},{""stimulus"":""img/red_ll/2.jpg"",""time"":106},{""stimulus"":""img/red_ll/3.jpg"",""time"":151},{""stimulus"":""img/red_ll/4.jpg"",""time"":200},{""stimulus"":""img/red_ll/5.jpg"",""time"":250},{""stimulus"":""img/red_ll/6.jpg"",""time"":301},{""stimulus"":""img/red_ll/7.jpg"",""time"":354},{""stimulus"":""img/red_ll/8.jpg"",""time"":400},{""stimulus"":""img/red_ll/9.jpg"",""time"":463},{""stimulus"":""img/red_ll/10.jpg"",""time"":509},{""stimulus"":""img/red_ll/11.jpg"",""time"":555}]","[]"
"image-keyboard-response","46","55099","0.0-5.0-1.21","63d41088860131e49a85cfac","bdp_lott","Fri Mar 24 2023 19:12:09 GMT-0400 (Eastern Daylight Time)","259687","green","red","","426","","","","choice","","img/red_ll/choose11.jpg","2","204","red","0.5","0.5","0.5","w","",""
"animation","47","55709","0.0-5.0-2.21","63d41088860131e49a85cfac","bdp_lott","Fri Mar 24 2023 19:12:09 GMT-0400 (Eastern Daylight Time)","259687","green","red","","","","","","","","","","204","","","","","","[{""stimulus"":""img/red_lw/1.jpg"",""time"":52},{""stimulus"":""img/red_lw/2.jpg"",""time"":114},{""stimulus"":""img/red_lw/3.jpg"",""time"":151},{""stimulus"":""img/red_lw/4.jpg"",""time"":201},{""stimulus"":""img/red_lw/5.jpg"",""time"":253},{""stimulus"":""img/red_lw/6.jpg"",""time"":315},{""stimulus"":""img/red_lw/7.jpg"",""time"":363},{""stimulus"":""img/red_lw/8.jpg"",""time"":409},{""stimulus"":""img/red_lw/9.jpg"",""time"":455},{""stimulus"":""img/red_lw/10.jpg"",""time"":501},{""stimulus"":""img/red_lw/11.jpg"",""time"":551}]","[]"
"image-keyboard-response","48","56180","0.0-5.0-1.22","63d41088860131e49a85cfac","bdp_lott","Fri Mar 24 2023 19:12:09 GMT-0400 (Eastern Daylight Time)","259687","green","red","","470","","","","choice","","img/red_lw/choose11.jpg","1","203","green","0.5","0.5","0.5","l","",""
"animation","49","56782","0.0-5.0-2.22","63d41088860131e49a85cfac","bdp_lott","Fri Mar 24 2023 19:12:09 GMT-0400 (Eastern Daylight Time)","259687","green","red","","","","","","","","","","203","","","","","","[{""stimulus"":""img/green_lw/1.jpg"",""time"":51},{""stimulus"":""img/green_lw/2.jpg"",""time"":105},{""stimulus"":""img/green_lw/3.jpg"",""time"":151},{""stimulus"":""img/green_lw/4.jpg"",""time"":215},{""stimulus"":""img/green_lw/5.jpg"",""time"":262},{""stimulus"":""img/green_lw/6.jpg"",""time"":301},{""stimulus"":""img/green_lw/7.jpg"",""time"":350},{""stimulus"":""img/green_lw/8.jpg"",""time"":400},{""stimulus"":""img/green_lw/9.jpg"",""time"":452},{""stimulus"":""img/green_lw/10.jpg"",""time"":501},{""stimulus"":""img/green_lw/11.jpg"",""time"":560}]","[]"
"image-keyboard-response","50","57215","0.0-5.0-1.23","63d41088860131e49a85cfac","bdp_lott","Fri Mar 24 2023 19:12:09 GMT-0400 (Eastern Daylight Time)","259687","green","red","","433","","","","choice","","img/green_lw/choose11.jpg","2","202","red","0.5","0.5","0.5","w","",""
"animation","51","57817","0.0-5.0-2.23","63d41088860131e49a85cfac","bdp_lott","Fri Mar 24 2023 19:12:09 GMT-0400 (Eastern Daylight Time)","259687","green","red","","","","","","","","","","202","","","","","","[{""stimulus"":""img/red_lw/1.jpg"",""time"":55},{""stimulus"":""img/red_lw/2.jpg"",""time"":101},{""stimulus"":""img/red_lw/3.jpg"",""time"":151},{""stimulus"":""img/red_lw/4.jpg"",""time"":201},{""stimulus"":""img/red_lw/5.jpg"",""time"":251},{""stimulus"":""img/red_lw/6.jpg"",""time"":301},{""stimulus"":""img/red_lw/7.jpg"",""time"":351},{""stimulus"":""img/red_lw/8.jpg"",""time"":401},{""stimulus"":""img/red_lw/9.jpg"",""time"":451},{""stimulus"":""img/red_lw/10.jpg"",""time"":505},{""stimulus"":""img/red_lw/11.jpg"",""time"":553}]","[]"
"image-keyboard-response","52","58530","0.0-5.0-1.24","63d41088860131e49a85cfac","bdp_lott","Fri Mar 24 2023 19:12:09 GMT-0400 (Eastern Daylight Time)","259687","green","red","","713","","","","choice","","img/red_lw/choose11.jpg","2","201","red","0.5","0.5","0.5","w","",""
"animation","53","59131","0.0-5.0-2.24","63d41088860131e49a85cfac","bdp_lott","Fri Mar 24 2023 19:12:09 GMT-0400 (Eastern Daylight Time)","259687","green","red","","","","","","","","","","201","","","","","","[{""stimulus"":""img/red_lw/1.jpg"",""time"":58},{""stimulus"":""img/red_lw/2.jpg"",""time"":104},{""stimulus"":""img/red_lw/3.jpg"",""time"":151},{""stimulus"":""img/red_lw/4.jpg"",""time"":202},{""stimulus"":""img/red_lw/5.jpg"",""time"":260},{""stimulus"":""img/red_lw/6.jpg"",""time"":301},{""stimulus"":""img/red_lw/7.jpg"",""time"":353},{""stimulus"":""img/red_lw/8.jpg"",""time"":402},{""stimulus"":""img/red_lw/9.jpg"",""time"":451},{""stimulus"":""img/red_lw/10.jpg"",""time"":502},{""stimulus"":""img/red_lw/11.jpg"",""time"":555}]","[]"
"image-keyboard-response","54","59815","0.0-5.0-1.25","63d41088860131e49a85cfac","bdp_lott","Fri Mar 24 2023 19:12:09 GMT-0400 (Eastern Daylight Time)","259687","green","red","","682","","","","choice","","img/red_lw/choose11.jpg","1","200","green","0.5","0.5","0.5","l","",""
"animation","55","60425","0.0-5.0-2.25","63d41088860131e49a85cfac","bdp_lott","Fri Mar 24 2023 19:12:09 GMT-0400 (Eastern Daylight Time)","259687","green","red","","","","","","","","","","200","","","","","","[{""stimulus"":""img/green_lw/1.jpg"",""time"":52},{""stimulus"":""img/green_lw/2.jpg"",""time"":111},{""stimulus"":""img/green_lw/3.jpg"",""time"":154},{""stimulus"":""img/green_lw/4.jpg"",""time"":201},{""stimulus"":""img/green_lw/5.jpg"",""time"":251},{""stimulus"":""img/green_lw/6.jpg"",""time"":301},{""stimulus"":""img/green_lw/7.jpg"",""time"":351},{""stimulus"":""img/green_lw/8.jpg"",""time"":402},{""stimulus"":""img/green_lw/9.jpg"",""time"":451},{""stimulus"":""img/green_lw/10.jpg"",""time"":515},{""stimulus"":""img/green_lw/11.jpg"",""time"":563}]","[]"
"image-keyboard-response","56","60889","0.0-5.0-1.26","63d41088860131e49a85cfac","bdp_lott","Fri Mar 24 2023 19:12:09 GMT-0400 (Eastern Daylight Time)","259687","green","red","","462","","","","choice","","img/green_lw/choose11.jpg","2","199","red","0.5","0.5","0.5","w","",""
"animation","57","61489","0.0-5.0-2.26","63d41088860131e49a85cfac","bdp_lott","Fri Mar 24 2023 19:12:09 GMT-0400 (Eastern Daylight Time)","259687","green","red","","","","","","","","","","199","","","","","","[{""stimulus"":""img/red_lw/1.jpg"",""time"":61},{""stimulus"":""img/red_lw/2.jpg"",""time"":108},{""stimulus"":""img/red_lw/3.jpg"",""time"":150},{""stimulus"":""img/red_lw/4.jpg"",""time"":201},{""stimulus"":""img/red_lw/5.jpg"",""time"":262},{""stimulus"":""img/red_lw/6.jpg"",""time"":308},{""stimulus"":""img/red_lw/7.jpg"",""time"":354},{""stimulus"":""img/red_lw/8.jpg"",""time"":415},{""stimulus"":""img/red_lw/9.jpg"",""time"":461},{""stimulus"":""img/red_lw/10.jpg"",""time"":508},{""stimulus"":""img/red_lw/11.jpg"",""time"":555}]","[]"
"image-keyboard-response","58","61959","0.0-5.0-1.27","63d41088860131e49a85cfac","bdp_lott","Fri Mar 24 2023 19:12:09 GMT-0400 (Eastern Daylight Time)","259687","green","red","","468","","","","choice","","img/red_lw/choose11.jpg","1","198","green","0.5","0.5","0.5","w","",""
"animation","59","62560","0.0-5.0-2.27","63d41088860131e49a85cfac","bdp_lott","Fri Mar 24 2023 19:12:09 GMT-0400 (Eastern Daylight Time)","259687","green","red","","","","","","","","","","198","","","","","","[{""stimulus"":""img/green_ww/1.jpg"",""time"":57},{""stimulus"":""img/green_ww/2.jpg"",""time"":105},{""stimulus"":""img/green_ww/3.jpg"",""time"":153},{""stimulus"":""img/green_ww/4.jpg"",""time"":200},{""stimulus"":""img/green_ww/5.jpg"",""time"":263},{""stimulus"":""img/green_ww/6.jpg"",""time"":311},{""stimulus"":""img/green_ww/7.jpg"",""time"":359},{""stimulus"":""img/green_ww/8.jpg"",""time"":400},{""stimulus"":""img/green_ww/9.jpg"",""time"":452},{""stimulus"":""img/green_ww/10.jpg"",""time"":513},{""stimulus"":""img/green_ww/11.jpg"",""time"":559}]","[]"
"image-keyboard-response","60","63407","0.0-5.0-1.28","63d41088860131e49a85cfac","bdp_lott","Fri Mar 24 2023 19:12:09 GMT-0400 (Eastern Daylight Time)","259687","green","red","","846","","","","choice","","img/green_ww/choose11.jpg","1","197","green","0.5","0.5","0.5","w","",""
"animation","61","64007","0.0-5.0-2.28","63d41088860131e49a85cfac","bdp_lott","Fri Mar 24 2023 19:12:09 GMT-0400 (Eastern Daylight Time)","259687","green","red","","","","","","","","","","197","","","","","","[{""stimulus"":""img/green_ww/1.jpg"",""time"":50},{""stimulus"":""img/green_ww/2.jpg"",""time"":110},{""stimulus"":""img/green_ww/3.jpg"",""time"":151},{""stimulus"":""img/green_ww/4.jpg"",""time"":202},{""stimulus"":""img/green_ww/5.jpg"",""time"":264},{""stimulus"":""img/green_ww/6.jpg"",""time"":310},{""stimulus"":""img/green_ww/7.jpg"",""time"":357},{""stimulus"":""img/green_ww/8.jpg"",""time"":402},{""stimulus"":""img/green_ww/9.jpg"",""time"":451},{""stimulus"":""img/green_ww/10.jpg"",""time"":500},{""stimulus"":""img/green_ww/11.jpg"",""time"":559}]","[]"
"image-keyboard-response","62","64702","0.0-5.0-1.29","63d41088860131e49a85cfac","bdp_lott","Fri Mar 24 2023 19:12:09 GMT-0400 (Eastern Daylight Time)","259687","green","red","","693","","","","choice","","img/green_ww/choose11.jpg","2","196","red","0.5","0.5","0.5","l","",""
"animation","63","65307","0.0-5.0-2.29","63d41088860131e49a85cfac","bdp_lott","Fri Mar 24 2023 19:12:09 GMT-0400 (Eastern Daylight Time)","259687","green","red","","","","","","","","","","196","","","","","","[{""stimulus"":""img/red_wl/1.jpg"",""time"":53},{""stimulus"":""img/red_wl/2.jpg"",""time"":114},{""stimulus"":""img/red_wl/3.jpg"",""time"":161},{""stimulus"":""img/red_wl/4.jpg"",""time"":209},{""stimulus"":""img/red_wl/5.jpg"",""time"":257},{""stimulus"":""img/red_wl/6.jpg"",""time"":300},{""stimulus"":""img/red_wl/7.jpg"",""time"":353},{""stimulus"":""img/red_wl/8.jpg"",""time"":401},{""stimulus"":""img/red_wl/9.jpg"",""time"":450},{""stimulus"":""img/red_wl/10.jpg"",""time"":500},{""stimulus"":""img/red_wl/11.jpg"",""time"":558}]","[]"
"image-keyboard-response","64","66012","0.0-5.0-1.30","63d41088860131e49a85cfac","bdp_lott","Fri Mar 24 2023 19:12:09 GMT-0400 (Eastern Daylight Time)","259687","green","red","","704","","","","choice","","img/red_wl/choose11.jpg","1","195","green","0.5","0.5","0.5","l","",""
"animation","65","66613","0.0-5.0-2.30","63d41088860131e49a85cfac","bdp_lott","Fri Mar 24 2023 19:12:09 GMT-0400 (Eastern Daylight Time)","259687","green","red","","","","","","","","","","195","","","","","","[{""stimulus"":""img/green_ll/1.jpg"",""time"":51},{""stimulus"":""img/green_ll/2.jpg"",""time"":107},{""stimulus"":""img/green_ll/3.jpg"",""time"":151},{""stimulus"":""img/green_ll/4.jpg"",""time"":201},{""stimulus"":""img/green_ll/5.jpg"",""time"":251},{""stimulus"":""img/green_ll/6.jpg"",""time"":309},{""stimulus"":""img/green_ll/7.jpg"",""time"":355},{""stimulus"":""img/green_ll/8.jpg"",""time"":401},{""stimulus"":""img/green_ll/9.jpg"",""time"":464},{""stimulus"":""img/green_ll/10.jpg"",""time"":509},{""stimulus"":""img/green_ll/11.jpg"",""time"":555}]","[]"
"image-keyboard-response","66","67177","0.0-5.0-1.31","63d41088860131e49a85cfac","bdp_lott","Fri Mar 24 2023 19:12:09 GMT-0400 (Eastern Daylight Time)","259687","green","red","","562","","","","choice","","img/green_ll/choose11.jpg","2","194","red","0.5","0.5","0.5","w","",""
"animation","67","67779","0.0-5.0-2.31","63d41088860131e49a85cfac","bdp_lott","Fri Mar 24 2023 19:12:09 GMT-0400 (Eastern Daylight Time)","259687","green","red","","","","","","","","","","194","","","","","","[{""stimulus"":""img/red_lw/1.jpg"",""time"":56},{""stimulus"":""img/red_lw/2.jpg"",""time"":101},{""stimulus"":""img/red_lw/3.jpg"",""time"":162},{""stimulus"":""img/red_lw/4.jpg"",""time"":201},{""stimulus"":""img/red_lw/5.jpg"",""time"":254},{""stimulus"":""img/red_lw/6.jpg"",""time"":316},{""stimulus"":""img/red_lw/7.jpg"",""time"":352},{""stimulus"":""img/red_lw/8.jpg"",""time"":402},{""stimulus"":""img/red_lw/9.jpg"",""time"":452},{""stimulus"":""img/red_lw/10.jpg"",""time"":502},{""stimulus"":""img/red_lw/11.jpg"",""time"":552}]","[]"
"image-keyboard-response","68","68663","0.0-5.0-1.32","63d41088860131e49a85cfac","bdp_lott","Fri Mar 24 2023 19:12:09 GMT-0400 (Eastern Daylight Time)","259687","green","red","","884","","","","choice","","img/red_lw/choose11.jpg","1","193","green","0.5","0.5","0.5","w","",""
"animation","69","69264","0.0-5.0-2.32","63d41088860131e49a85cfac","bdp_lott","Fri Mar 24 2023 19:12:09 GMT-0400 (Eastern Daylight Time)","259687","green","red","","","","","","","","","","193","","","","","","[{""stimulus"":""img/green_ww/1.jpg"",""time"":56},{""stimulus"":""img/green_ww/2.jpg"",""time"":104},{""stimulus"":""img/green_ww/3.jpg"",""time"":152},{""stimulus"":""img/green_ww/4.jpg"",""time"":213},{""stimulus"":""img/green_ww/5.jpg"",""time"":260},{""stimulus"":""img/green_ww/6.jpg"",""time"":307},{""stimulus"":""img/green_ww/7.jpg"",""time"":353},{""stimulus"":""img/green_ww/8.jpg"",""time"":401},{""stimulus"":""img/green_ww/9.jpg"",""time"":451},{""stimulus"":""img/green_ww/10.jpg"",""time"":501},{""stimulus"":""img/green_ww/11.jpg"",""time"":552}]","[]"
"image-keyboard-response","70","70007","0.0-5.0-1.33","63d41088860131e49a85cfac","bdp_lott","Fri Mar 24 2023 19:12:09 GMT-0400 (Eastern Daylight Time)","259687","green","red","","742","","","","choice","","img/green_ww/choose11.jpg","2","192","red","0.5","0.5","0.5","l","",""
"animation","71","70616","0.0-5.0-2.33","63d41088860131e49a85cfac","bdp_lott","Fri Mar 24 2023 19:12:09 GMT-0400 (Eastern Daylight Time)","259687","green","red","","","","","","","","","","192","","","","","","[{""stimulus"":""img/red_wl/1.jpg"",""time"":55},{""stimulus"":""img/red_wl/2.jpg"",""time"":100},{""stimulus"":""img/red_wl/3.jpg"",""time"":151},{""stimulus"":""img/red_wl/4.jpg"",""time"":202},{""stimulus"":""img/red_wl/5.jpg"",""time"":263},{""stimulus"":""img/red_wl/6.jpg"",""time"":300},{""stimulus"":""img/red_wl/7.jpg"",""time"":359},{""stimulus"":""img/red_wl/8.jpg"",""time"":407},{""stimulus"":""img/red_wl/9.jpg"",""time"":450},{""stimulus"":""img/red_wl/10.jpg"",""time"":516},{""stimulus"":""img/red_wl/11.jpg"",""time"":562}]","[]"
"image-keyboard-response","72","71156","0.0-5.0-1.34","63d41088860131e49a85cfac","bdp_lott","Fri Mar 24 2023 19:12:09 GMT-0400 (Eastern Daylight Time)","259687","green","red","","540","","","","choice","","img/red_wl/choose11.jpg","2","191","red","0.5","0.5","0.5","l","",""
"animation","73","71763","0.0-5.0-2.34","63d41088860131e49a85cfac","bdp_lott","Fri Mar 24 2023 19:12:09 GMT-0400 (Eastern Daylight Time)","259687","green","red","","","","","","","","","","191","","","","","","[{""stimulus"":""img/red_wl/1.jpg"",""time"":50},{""stimulus"":""img/red_wl/2.jpg"",""time"":101},{""stimulus"":""img/red_wl/3.jpg"",""time"":150},{""stimulus"":""img/red_wl/4.jpg"",""time"":204},{""stimulus"":""img/red_wl/5.jpg"",""time"":251},{""stimulus"":""img/red_wl/6.jpg"",""time"":312},{""stimulus"":""img/red_wl/7.jpg"",""time"":351},{""stimulus"":""img/red_wl/8.jpg"",""time"":401},{""stimulus"":""img/red_wl/9.jpg"",""time"":451},{""stimulus"":""img/red_wl/10.jpg"",""time"":514},{""stimulus"":""img/red_wl/11.jpg"",""time"":560}]","[]"
"image-keyboard-response","74","72262","0.0-5.0-1.35","63d41088860131e49a85cfac","bdp_lott","Fri Mar 24 2023 19:12:09 GMT-0400 (Eastern Daylight Time)","259687","green","red","","498","","","","choice","","img/red_wl/choose11.jpg","1","190","green","0.5","0.5","0.5","l","",""
"animation","75","72863","0.0-5.0-2.35","63d41088860131e49a85cfac","bdp_lott","Fri Mar 24 2023 19:12:09 GMT-0400 (Eastern Daylight Time)","259687","green","red","","","","","","","","","","190","","","","","","[{""stimulus"":""img/green_ll/1.jpg"",""time"":57},{""stimulus"":""img/green_ll/2.jpg"",""time"":105},{""stimulus"":""img/green_ll/3.jpg"",""time"":153},{""stimulus"":""img/green_ll/4.jpg"",""time"":214},{""stimulus"":""img/green_ll/5.jpg"",""time"":260},{""stimulus"":""img/green_ll/6.jpg"",""time"":306},{""stimulus"":""img/green_ll/7.jpg"",""time"":351},{""stimulus"":""img/green_ll/8.jpg"",""time"":401},{""stimulus"":""img/green_ll/9.jpg"",""time"":461},{""stimulus"":""img/green_ll/10.jpg"",""time"":507},{""stimulus"":""img/green_ll/11.jpg"",""time"":550}]","[]"
"image-keyboard-response","76","73392","0.0-5.0-1.36","63d41088860131e49a85cfac","bdp_lott","Fri Mar 24 2023 19:12:09 GMT-0400 (Eastern Daylight Time)","259687","green","red","","527","","","","choice","","img/green_ll/choose11.jpg","1","189","green","0.5","0.5","0.5","w","",""
"animation","77","73999","0.0-5.0-2.36","63d41088860131e49a85cfac","bdp_lott","Fri Mar 24 2023 19:12:09 GMT-0400 (Eastern Daylight Time)","259687","green","red","","","","","","","","","","189","","","","","","[{""stimulus"":""img/green_wl/1.jpg"",""time"":51},{""stimulus"":""img/green_wl/2.jpg"",""time"":110},{""stimulus"":""img/green_wl/3.jpg"",""time"":151},{""stimulus"":""img/green_wl/4.jpg"",""time"":205},{""stimulus"":""img/green_wl/5.jpg"",""time"":253},{""stimulus"":""img/green_wl/6.jpg"",""time"":301},{""stimulus"":""img/green_wl/7.jpg"",""time"":360},{""stimulus"":""img/green_wl/8.jpg"",""time"":406},{""stimulus"":""img/green_wl/9.jpg"",""time"":451},{""stimulus"":""img/green_wl/10.jpg"",""time"":500},{""stimulus"":""img/green_wl/11.jpg"",""time"":551}]","[]"
"image-keyboard-response","78","74643","0.0-5.0-1.37","63d41088860131e49a85cfac","bdp_lott","Fri Mar 24 2023 19:12:09 GMT-0400 (Eastern Daylight Time)","259687","green","red","","643","","","","choice","","img/green_wl/choose11.jpg","2","188","red","0.5","0.5","0.5","w","",""
"animation","79","75244","0.0-5.0-2.37","63d41088860131e49a85cfac","bdp_lott","Fri Mar 24 2023 19:12:09 GMT-0400 (Eastern Daylight Time)","259687","green","red","","","","","","","","","","188","","","","","","[{""stimulus"":""img/red_ww/1.jpg"",""time"":59},{""stimulus"":""img/red_ww/2.jpg"",""time"":105},{""stimulus"":""img/red_ww/3.jpg"",""time"":153},{""stimulus"":""img/red_ww/4.jpg"",""time"":201},{""stimulus"":""img/red_ww/5.jpg"",""time"":251},{""stimulus"":""img/red_ww/6.jpg"",""time"":300},{""stimulus"":""img/red_ww/7.jpg"",""time"":351},{""stimulus"":""img/red_ww/8.jpg"",""time"":401},{""stimulus"":""img/red_ww/9.jpg"",""time"":462},{""stimulus"":""img/red_ww/10.jpg"",""time"":508},{""stimulus"":""img/red_ww/11.jpg"",""time"":556}]","[]"
"image-keyboard-response","80","75921","0.0-5.0-1.38","63d41088860131e49a85cfac","bdp_lott","Fri Mar 24 2023 19:12:09 GMT-0400 (Eastern Daylight Time)","259687","green","red","","677","","","","choice","","img/red_ww/choose11.jpg","2","187","red","0.5","0.5","0.5","l","",""
"animation","81","76522","0.0-5.0-2.38","63d41088860131e49a85cfac","bdp_lott","Fri Mar 24 2023 19:12:09 GMT-0400 (Eastern Daylight Time)","259687","green","red","","","","","","","","","","187","","","","","","[{""stimulus"":""img/red_wl/1.jpg"",""time"":50},{""stimulus"":""img/red_wl/2.jpg"",""time"":104},{""stimulus"":""img/red_wl/3.jpg"",""time"":164},{""stimulus"":""img/red_wl/4.jpg"",""time"":200},{""stimulus"":""img/red_wl/5.jpg"",""time"":258},{""stimulus"":""img/red_wl/6.jpg"",""time"":301},{""stimulus"":""img/red_wl/7.jpg"",""time"":350},{""stimulus"":""img/red_wl/8.jpg"",""time"":401},{""stimulus"":""img/red_wl/9.jpg"",""time"":461},{""stimulus"":""img/red_wl/10.jpg"",""time"":500},{""stimulus"":""img/red_wl/11.jpg"",""time"":557}]","[]"
"image-keyboard-response","82","77025","0.0-5.0-1.39","63d41088860131e49a85cfac","bdp_lott","Fri Mar 24 2023 19:12:09 GMT-0400 (Eastern Daylight Time)","259687","green","red","","502","","","","choice","","img/red_wl/choose11.jpg","1","186","green","0.5","0.5","0.5","l","",""
"animation","83","77641","0.0-5.0-2.39","63d41088860131e49a85cfac","bdp_lott","Fri Mar 24 2023 19:12:09 GMT-0400 (Eastern Daylight Time)","259687","green","red","","","","","","","","","","186","","","","","","[{""stimulus"":""img/green_ll/1.jpg"",""time"":60},{""stimulus"":""img/green_ll/2.jpg"",""time"":106},{""stimulus"":""img/green_ll/3.jpg"",""time"":153},{""stimulus"":""img/green_ll/4.jpg"",""time"":200},{""stimulus"":""img/green_ll/5.jpg"",""time"":261},{""stimulus"":""img/green_ll/6.jpg"",""time"":301},{""stimulus"":""img/green_ll/7.jpg"",""time"":351},{""stimulus"":""img/green_ll/8.jpg"",""time"":401},{""stimulus"":""img/green_ll/9.jpg"",""time"":462},{""stimulus"":""img/green_ll/10.jpg"",""time"":500},{""stimulus"":""img/green_ll/11.jpg"",""time"":551}]","[]"
"image-keyboard-response","84","78193","0.0-5.0-1.40","63d41088860131e49a85cfac","bdp_lott","Fri Mar 24 2023 19:12:09 GMT-0400 (Eastern Daylight Time)","259687","green","red","","551","","","","choice","","img/green_ll/choose11.jpg","1","185","green","0.5","0.5","0.5","l","",""
"animation","85","78794","0.0-5.0-2.40","63d41088860131e49a85cfac","bdp_lott","Fri Mar 24 2023 19:12:09 GMT-0400 (Eastern Daylight Time)","259687","green","red","","","","","","","","","","185","","","","","","[{""stimulus"":""img/green_ll/1.jpg"",""time"":63},{""stimulus"":""img/green_ll/2.jpg"",""time"":109},{""stimulus"":""img/green_ll/3.jpg"",""time"":156},{""stimulus"":""img/green_ll/4.jpg"",""time"":200},{""stimulus"":""img/green_ll/5.jpg"",""time"":264},{""stimulus"":""img/green_ll/6.jpg"",""time"":311},{""stimulus"":""img/green_ll/7.jpg"",""time"":357},{""stimulus"":""img/green_ll/8.jpg"",""time"":403},{""stimulus"":""img/green_ll/9.jpg"",""time"":451},{""stimulus"":""img/green_ll/10.jpg"",""time"":512},{""stimulus"":""img/green_ll/11.jpg"",""time"":559}]","[]"
"image-keyboard-response","86","79412","0.0-5.0-1.41","63d41088860131e49a85cfac","bdp_lott","Fri Mar 24 2023 19:12:09 GMT-0400 (Eastern Daylight Time)","259687","green","red","","617","","","","choice","","img/green_ll/choose11.jpg","2","184","red","0.5","0.5","0.5","l","",""
"animation","87","80012","0.0-5.0-2.41","63d41088860131e49a85cfac","bdp_lott","Fri Mar 24 2023 19:12:09 GMT-0400 (Eastern Daylight Time)","259687","green","red","","","","","","","","","","184","","","","","","[{""stimulus"":""img/red_ll/1.jpg"",""time"":53},{""stimulus"":""img/red_ll/2.jpg"",""time"":115},{""stimulus"":""img/red_ll/3.jpg"",""time"":150},{""stimulus"":""img/red_ll/4.jpg"",""time"":209},{""stimulus"":""img/red_ll/5.jpg"",""time"":251},{""stimulus"":""img/red_ll/6.jpg"",""time"":301},{""stimulus"":""img/red_ll/7.jpg"",""time"":363},{""stimulus"":""img/red_ll/8.jpg"",""time"":411},{""stimulus"":""img/red_ll/9.jpg"",""time"":459},{""stimulus"":""img/red_ll/10.jpg"",""time"":506},{""stimulus"":""img/red_ll/11.jpg"",""time"":551}]","[]"
"image-keyboard-response","88","80554","0.0-5.0-1.42","63d41088860131e49a85cfac","bdp_lott","Fri Mar 24 2023 19:12:09 GMT-0400 (Eastern Daylight Time)","259687","green","red","","541","","","","choice","","img/red_ll/choose11.jpg","2","183","red","0.5","0.5","0.5","l","",""
"animation","89","81170","0.0-5.0-2.42","63d41088860131e49a85cfac","bdp_lott","Fri Mar 24 2023 19:12:09 GMT-0400 (Eastern Daylight Time)","259687","green","red","","","","","","","","","","183","","","","","","[{""stimulus"":""img/red_ll/1.jpg"",""time"":50},{""stimulus"":""img/red_ll/2.jpg"",""time"":116},{""stimulus"":""img/red_ll/3.jpg"",""time"":151},{""stimulus"":""img/red_ll/4.jpg"",""time"":201},{""stimulus"":""img/red_ll/5.jpg"",""time"":251},{""stimulus"":""img/red_ll/6.jpg"",""time"":305},{""stimulus"":""img/red_ll/7.jpg"",""time"":351},{""stimulus"":""img/red_ll/8.jpg"",""time"":413},{""stimulus"":""img/red_ll/9.jpg"",""time"":451},{""stimulus"":""img/red_ll/10.jpg"",""time"":500},{""stimulus"":""img/red_ll/11.jpg"",""time"":551}]","[]"
"image-keyboard-response","90","81609","0.0-5.0-1.43","63d41088860131e49a85cfac","bdp_lott","Fri Mar 24 2023 19:12:09 GMT-0400 (Eastern Daylight Time)","259687","green","red","","438","","","","choice","","img/red_ll/choose11.jpg","1","182","green","0.5","0.5","0.5","l","",""
"animation","91","82223","0.0-5.0-2.43","63d41088860131e49a85cfac","bdp_lott","Fri Mar 24 2023 19:12:09 GMT-0400 (Eastern Daylight Time)","259687","green","red","","","","","","","","","","182","","","","","","[{""stimulus"":""img/green_ll/1.jpg"",""time"":51},{""stimulus"":""img/green_ll/2.jpg"",""time"":110},{""stimulus"":""img/green_ll/3.jpg"",""time"":156},{""stimulus"":""img/green_ll/4.jpg"",""time"":201},{""stimulus"":""img/green_ll/5.jpg"",""time"":251},{""stimulus"":""img/green_ll/6.jpg"",""time"":301},{""stimulus"":""img/green_ll/7.jpg"",""time"":358},{""stimulus"":""img/green_ll/8.jpg"",""time"":406},{""stimulus"":""img/green_ll/9.jpg"",""time"":451},{""stimulus"":""img/green_ll/10.jpg"",""time"":502},{""stimulus"":""img/green_ll/11.jpg"",""time"":566}]","[]"
"image-keyboard-response","92","82734","0.0-5.0-1.44","63d41088860131e49a85cfac","bdp_lott","Fri Mar 24 2023 19:12:09 GMT-0400 (Eastern Daylight Time)","259687","green","red","","511","","","","choice","","img/green_ll/choose11.jpg","1","181","green","0.5","0.5","0.5","l","",""
"animation","93","83344","0.0-5.0-2.44","63d41088860131e49a85cfac","bdp_lott","Fri Mar 24 2023 19:12:09 GMT-0400 (Eastern Daylight Time)","259687","green","red","","","","","","","","","","181","","","","","","[{""stimulus"":""img/green_ll/1.jpg"",""time"":51},{""stimulus"":""img/green_ll/2.jpg"",""time"":100},{""stimulus"":""img/green_ll/3.jpg"",""time"":159},{""stimulus"":""img/green_ll/4.jpg"",""time"":206},{""stimulus"":""img/green_ll/5.jpg"",""time"":252},{""stimulus"":""img/green_ll/6.jpg"",""time"":313},{""stimulus"":""img/green_ll/7.jpg"",""time"":350},{""stimulus"":""img/green_ll/8.jpg"",""time"":400},{""stimulus"":""img/green_ll/9.jpg"",""time"":454},{""stimulus"":""img/green_ll/10.jpg"",""time"":501},{""stimulus"":""img/green_ll/11.jpg"",""time"":563}]","[]"
"image-keyboard-response","94","83810","0.0-5.0-1.45","63d41088860131e49a85cfac","bdp_lott","Fri Mar 24 2023 19:12:09 GMT-0400 (Eastern Daylight Time)","259687","green","red","","466","","","","choice","","img/green_ll/choose11.jpg","2","180","red","0.5","0.5","0.5","l","",""
"animation","95","84426","0.0-5.0-2.45","63d41088860131e49a85cfac","bdp_lott","Fri Mar 24 2023 19:12:09 GMT-0400 (Eastern Daylight Time)","259687","green","red","","","","","","","","","","180","","","","","","[{""stimulus"":""img/red_ll/1.jpg"",""time"":56},{""stimulus"":""img/red_ll/2.jpg"",""time"":101},{""stimulus"":""img/red_ll/3.jpg"",""time"":151},{""stimulus"":""img/red_ll/4.jpg"",""time"":211},{""stimulus"":""img/red_ll/5.jpg"",""time"":250},{""stimulus"":""img/red_ll/6.jpg"",""time"":303},{""stimulus"":""img/red_ll/7.jpg"",""time"":365},{""stimulus"":""img/red_ll/8.jpg"",""time"":401},{""stimulus"":""img/red_ll/9.jpg"",""time"":460},{""stimulus"":""img/red_ll/10.jpg"",""time"":505},{""stimulus"":""img/red_ll/11.jpg"",""time"":552}]","[]"
"image-keyboard-response","96","84874","0.0-5.0-1.46","63d41088860131e49a85cfac","bdp_lott","Fri Mar 24 2023 19:12:09 GMT-0400 (Eastern Daylight Time)","259687","green","red","","448","","","","choice","","img/red_ll/choose11.jpg","2","179","red","0.5","0.5","0.5","w","",""
"animation","97","85475","0.0-5.0-2.46","63d41088860131e49a85cfac","bdp_lott","Fri Mar 24 2023 19:12:09 GMT-0400 (Eastern Daylight Time)","259687","green","red","","","","","","","","","","179","","","","","","[{""stimulus"":""img/red_lw/1.jpg"",""time"":51},{""stimulus"":""img/red_lw/2.jpg"",""time"":112},{""stimulus"":""img/red_lw/3.jpg"",""time"":159},{""stimulus"":""img/red_lw/4.jpg"",""time"":204},{""stimulus"":""img/red_lw/5.jpg"",""time"":251},{""stimulus"":""img/red_lw/6.jpg"",""time"":300},{""stimulus"":""img/red_lw/7.jpg"",""time"":350},{""stimulus"":""img/red_lw/8.jpg"",""time"":401},{""stimulus"":""img/red_lw/9.jpg"",""time"":451},{""stimulus"":""img/red_lw/10.jpg"",""time"":515},{""stimulus"":""img/red_lw/11.jpg"",""time"":552}]","[]"
"image-keyboard-response","98","85996","0.0-5.0-1.47","63d41088860131e49a85cfac","bdp_lott","Fri Mar 24 2023 19:12:09 GMT-0400 (Eastern Daylight Time)","259687","green","red","","520","","","","choice","","img/red_lw/choose11.jpg","1","178","green","0.5","0.5","0.5","w","",""
"animation","99","86601","0.0-5.0-2.47","63d41088860131e49a85cfac","bdp_lott","Fri Mar 24 2023 19:12:09 GMT-0400 (Eastern Daylight Time)","259687","green","red","","","","","","","","","","178","","","","","","[{""stimulus"":""img/green_ww/1.jpg"",""time"":57},{""stimulus"":""img/green_ww/2.jpg"",""time"":100},{""stimulus"":""img/green_ww/3.jpg"",""time"":164},{""stimulus"":""img/green_ww/4.jpg"",""time"":200},{""stimulus"":""img/green_ww/5.jpg"",""time"":259},{""stimulus"":""img/green_ww/6.jpg"",""time"":306},{""stimulus"":""img/green_ww/7.jpg"",""time"":355},{""stimulus"":""img/green_ww/8.jpg"",""time"":402},{""stimulus"":""img/green_ww/9.jpg"",""time"":450},{""stimulus"":""img/green_ww/10.jpg"",""time"":512},{""stimulus"":""img/green_ww/11.jpg"",""time"":558}]","[]"
"image-keyboard-response","100","87145","0.0-5.0-1.48","63d41088860131e49a85cfac","bdp_lott","Fri Mar 24 2023 19:12:09 GMT-0400 (Eastern Daylight Time)","259687","green","red","","544","","","","choice","","img/green_ww/choose11.jpg","1","177","green","0.5","0.5","0.5","l","",""
"animation","101","87750","0.0-5.0-2.48","63d41088860131e49a85cfac","bdp_lott","Fri Mar 24 2023 19:12:09 GMT-0400 (Eastern Daylight Time)","259687","green","red","","","","","","","","","","177","","","","","","[{""stimulus"":""img/green_lw/1.jpg"",""time"":50},{""stimulus"":""img/green_lw/2.jpg"",""time"":100},{""stimulus"":""img/green_lw/3.jpg"",""time"":150},{""stimulus"":""img/green_lw/4.jpg"",""time"":201},{""stimulus"":""img/green_lw/5.jpg"",""time"":263},{""stimulus"":""img/green_lw/6.jpg"",""time"":301},{""stimulus"":""img/green_lw/7.jpg"",""time"":351},{""stimulus"":""img/green_lw/8.jpg"",""time"":401},{""stimulus"":""img/green_lw/9.jpg"",""time"":451},{""stimulus"":""img/green_lw/10.jpg"",""time"":512},{""stimulus"":""img/green_lw/11.jpg"",""time"":558}]","[]"
"image-keyboard-response","102","88227","0.0-5.0-1.49","63d41088860131e49a85cfac","bdp_lott","Fri Mar 24 2023 19:12:09 GMT-0400 (Eastern Daylight Time)","259687","green","red","","477","","","","choice","","img/green_lw/choose11.jpg","2","176","red","0.5","0.5","0.5","w","",""
"animation","103","88829","0.0-5.0-2.49","63d41088860131e49a85cfac","bdp_lott","Fri Mar 24 2023 19:12:09 GMT-0400 (Eastern Daylight Time)","259687","green","red","","","","","","","","","","176","","","","","","[{""stimulus"":""img/red_lw/1.jpg"",""time"":65},{""stimulus"":""img/red_lw/2.jpg"",""time"":101},{""stimulus"":""img/red_lw/3.jpg"",""time"":150},{""stimulus"":""img/red_lw/4.jpg"",""time"":201},{""stimulus"":""img/red_lw/5.jpg"",""time"":252},{""stimulus"":""img/red_lw/6.jpg"",""time"":316},{""stimulus"":""img/red_lw/7.jpg"",""time"":351},{""stimulus"":""img/red_lw/8.jpg"",""time"":401},{""stimulus"":""img/red_lw/9.jpg"",""time"":451},{""stimulus"":""img/red_lw/10.jpg"",""time"":501},{""stimulus"":""img/red_lw/11.jpg"",""time"":550}]","[]"
"image-keyboard-response","104","89401","0.0-5.0-1.50","63d41088860131e49a85cfac","bdp_lott","Fri Mar 24 2023 19:12:09 GMT-0400 (Eastern Daylight Time)","259687","green","red","","571","","","","choice","","img/red_lw/choose11.jpg","2","175","red","0.5","0.5","0.5","w","",""
"animation","105","90011","0.0-5.0-2.50","63d41088860131e49a85cfac","bdp_lott","Fri Mar 24 2023 19:12:09 GMT-0400 (Eastern Daylight Time)","259687","green","red","","","","","","","","","","175","","","","","","[{""stimulus"":""img/red_lw/1.jpg"",""time"":62},{""stimulus"":""img/red_lw/2.jpg"",""time"":100},{""stimulus"":""img/red_lw/3.jpg"",""time"":156},{""stimulus"":""img/red_lw/4.jpg"",""time"":202},{""stimulus"":""img/red_lw/5.jpg"",""time"":264},{""stimulus"":""img/red_lw/6.jpg"",""time"":311},{""stimulus"":""img/red_lw/7.jpg"",""time"":358},{""stimulus"":""img/red_lw/8.jpg"",""time"":406},{""stimulus"":""img/red_lw/9.jpg"",""time"":450},{""stimulus"":""img/red_lw/10.jpg"",""time"":500},{""stimulus"":""img/red_lw/11.jpg"",""time"":563}]","[]"
"image-keyboard-response","106","90494","0.0-5.0-1.51","63d41088860131e49a85cfac","bdp_lott","Fri Mar 24 2023 19:12:09 GMT-0400 (Eastern Daylight Time)","259687","green","red","","482","","","","choice","","img/red_lw/choose11.jpg","2","174","red","0.5","0.5","0.5","l","",""
"animation","107","91096","0.0-5.0-2.51","63d41088860131e49a85cfac","bdp_lott","Fri Mar 24 2023 19:12:09 GMT-0400 (Eastern Daylight Time)","259687","green","red","","","","","","","","","","174","","","","","","[{""stimulus"":""img/red_ll/1.jpg"",""time"":50},{""stimulus"":""img/red_ll/2.jpg"",""time"":107},{""stimulus"":""img/red_ll/3.jpg"",""time"":153},{""stimulus"":""img/red_ll/4.jpg"",""time"":214},{""stimulus"":""img/red_ll/5.jpg"",""time"":261},{""stimulus"":""img/red_ll/6.jpg"",""time"":306},{""stimulus"":""img/red_ll/7.jpg"",""time"":353},{""stimulus"":""img/red_ll/8.jpg"",""time"":400},{""stimulus"":""img/red_ll/9.jpg"",""time"":451},{""stimulus"":""img/red_ll/10.jpg"",""time"":507},{""stimulus"":""img/red_ll/11.jpg"",""time"":551}]","[]"
"image-keyboard-response","108","91513","0.0-5.0-1.52","63d41088860131e49a85cfac","bdp_lott","Fri Mar 24 2023 19:12:09 GMT-0400 (Eastern Daylight Time)","259687","green","red","","417","","","","choice","","img/red_ll/choose11.jpg","1","173","green","0.5","0.5","0.5","w","",""
"animation","109","92127","0.0-5.0-2.52","63d41088860131e49a85cfac","bdp_lott","Fri Mar 24 2023 19:12:09 GMT-0400 (Eastern Daylight Time)","259687","green","red","","","","","","","","","","173","","","","","","[{""stimulus"":""img/green_wl/1.jpg"",""time"":53},{""stimulus"":""img/green_wl/2.jpg"",""time"":101},{""stimulus"":""img/green_wl/3.jpg"",""time"":163},{""stimulus"":""img/green_wl/4.jpg"",""time"":208},{""stimulus"":""img/green_wl/5.jpg"",""time"":250},{""stimulus"":""img/green_wl/6.jpg"",""time"":300},{""stimulus"":""img/green_wl/7.jpg"",""time"":350},{""stimulus"":""img/green_wl/8.jpg"",""time"":400},{""stimulus"":""img/green_wl/9.jpg"",""time"":450},{""stimulus"":""img/green_wl/10.jpg"",""time"":500},{""stimulus"":""img/green_wl/11.jpg"",""time"":551}]","[]"
"image-keyboard-response","110","92658","0.0-5.0-1.53","63d41088860131e49a85cfac","bdp_lott","Fri Mar 24 2023 19:12:09 GMT-0400 (Eastern Daylight Time)","259687","green","red","","530","","","","choice","","img/green_wl/choose11.jpg","1","172","green","0.5","0.5","0.5","l","",""
"animation","111","93259","0.0-5.0-2.53","63d41088860131e49a85cfac","bdp_lott","Fri Mar 24 2023 19:12:09 GMT-0400 (Eastern Daylight Time)","259687","green","red","","","","","","","","","","172","","","","","","[{""stimulus"":""img/green_ll/1.jpg"",""time"":54},{""stimulus"":""img/green_ll/2.jpg"",""time"":115},{""stimulus"":""img/green_ll/3.jpg"",""time"":162},{""stimulus"":""img/green_ll/4.jpg"",""time"":207},{""stimulus"":""img/green_ll/5.jpg"",""time"":255},{""stimulus"":""img/green_ll/6.jpg"",""time"":301},{""stimulus"":""img/green_ll/7.jpg"",""time"":351},{""stimulus"":""img/green_ll/8.jpg"",""time"":400},{""stimulus"":""img/green_ll/9.jpg"",""time"":455},{""stimulus"":""img/green_ll/10.jpg"",""time"":500},{""stimulus"":""img/green_ll/11.jpg"",""time"":562}]","[]"
"image-keyboard-response","112","93787","0.0-5.0-1.54","63d41088860131e49a85cfac","bdp_lott","Fri Mar 24 2023 19:12:09 GMT-0400 (Eastern Daylight Time)","259687","green","red","","528","","","","choice","","img/green_ll/choose11.jpg","1","171","green","0.5","0.5","0.5","w","",""
"animation","113","94391","0.0-5.0-2.54","63d41088860131e49a85cfac","bdp_lott","Fri Mar 24 2023 19:12:09 GMT-0400 (Eastern Daylight Time)","259687","green","red","","","","","","","","","","171","","","","","","[{""stimulus"":""img/green_wl/1.jpg"",""time"":51},{""stimulus"":""img/green_wl/2.jpg"",""time"":100},{""stimulus"":""img/green_wl/3.jpg"",""time"":163},{""stimulus"":""img/green_wl/4.jpg"",""time"":211},{""stimulus"":""img/green_wl/5.jpg"",""time"":259},{""stimulus"":""img/green_wl/6.jpg"",""time"":307},{""stimulus"":""img/green_wl/7.jpg"",""time"":355},{""stimulus"":""img/green_wl/8.jpg"",""time"":403},{""stimulus"":""img/green_wl/9.jpg"",""time"":450},{""stimulus"":""img/green_wl/10.jpg"",""time"":511},{""stimulus"":""img/green_wl/11.jpg"",""time"":557}]","[]"
"image-keyboard-response","114","94885","0.0-5.0-1.55","63d41088860131e49a85cfac","bdp_lott","Fri Mar 24 2023 19:12:09 GMT-0400 (Eastern Daylight Time)","259687","green","red","","494","","","","choice","","img/green_wl/choose11.jpg","2","170","red","0.5","0.5","0.5","w","",""
"animation","115","95498","0.0-5.0-2.55","63d41088860131e49a85cfac","bdp_lott","Fri Mar 24 2023 19:12:09 GMT-0400 (Eastern Daylight Time)","259687","green","red","","","","","","","","","","170","","","","","","[{""stimulus"":""img/red_ww/1.jpg"",""time"":64},{""stimulus"":""img/red_ww/2.jpg"",""time"":111},{""stimulus"":""img/red_ww/3.jpg"",""time"":157},{""stimulus"":""img/red_ww/4.jpg"",""time"":204},{""stimulus"":""img/red_ww/5.jpg"",""time"":265},{""stimulus"":""img/red_ww/6.jpg"",""time"":313},{""stimulus"":""img/red_ww/7.jpg"",""time"":351},{""stimulus"":""img/red_ww/8.jpg"",""time"":400},{""stimulus"":""img/red_ww/9.jpg"",""time"":457},{""stimulus"":""img/red_ww/10.jpg"",""time"":504},{""stimulus"":""img/red_ww/11.jpg"",""time"":550}]","[]"
"image-keyboard-response","116","96010","0.0-5.0-1.56","63d41088860131e49a85cfac","bdp_lott","Fri Mar 24 2023 19:12:09 GMT-0400 (Eastern Daylight Time)","259687","green","red","","512","","","","choice","","img/red_ww/choose11.jpg","2","169","red","0.5","0.5","0.5","w","",""
"animation","117","96616","0.0-5.0-2.56","63d41088860131e49a85cfac","bdp_lott","Fri Mar 24 2023 19:12:09 GMT-0400 (Eastern Daylight Time)","259687","green","red","","","","","","","","","","169","","","","","","[{""stimulus"":""img/red_ww/1.jpg"",""time"":62},{""stimulus"":""img/red_ww/2.jpg"",""time"":109},{""stimulus"":""img/red_ww/3.jpg"",""time"":150},{""stimulus"":""img/red_ww/4.jpg"",""time"":202},{""stimulus"":""img/red_ww/5.jpg"",""time"":263},{""stimulus"":""img/red_ww/6.jpg"",""time"":309},{""stimulus"":""img/red_ww/7.jpg"",""time"":350},{""stimulus"":""img/red_ww/8.jpg"",""time"":403},{""stimulus"":""img/red_ww/9.jpg"",""time"":451},{""stimulus"":""img/red_ww/10.jpg"",""time"":513},{""stimulus"":""img/red_ww/11.jpg"",""time"":552}]","[]"
"image-keyboard-response","118","97163","0.0-5.0-1.57","63d41088860131e49a85cfac","bdp_lott","Fri Mar 24 2023 19:12:09 GMT-0400 (Eastern Daylight Time)","259687","green","red","","546","","","","choice","","img/red_ww/choose11.jpg","1","168","green","0.5","0.5","0.5","l","",""
"animation","119","97774","0.0-5.0-2.57","63d41088860131e49a85cfac","bdp_lott","Fri Mar 24 2023 19:12:09 GMT-0400 (Eastern Daylight Time)","259687","green","red","","","","","","","","","","168","","","","","","[{""stimulus"":""img/green_lw/1.jpg"",""time"":52},{""stimulus"":""img/green_lw/2.jpg"",""time"":115},{""stimulus"":""img/green_lw/3.jpg"",""time"":151},{""stimulus"":""img/green_lw/4.jpg"",""time"":202},{""stimulus"":""img/green_lw/5.jpg"",""time"":256},{""stimulus"":""img/green_lw/6.jpg"",""time"":303},{""stimulus"":""img/green_lw/7.jpg"",""time"":364},{""stimulus"":""img/green_lw/8.jpg"",""time"":411},{""stimulus"":""img/green_lw/9.jpg"",""time"":452},{""stimulus"":""img/green_lw/10.jpg"",""time"":501},{""stimulus"":""img/green_lw/11.jpg"",""time"":551}]","[]"
"image-keyboard-response","120","98224","0.0-5.0-1.58","63d41088860131e49a85cfac","bdp_lott","Fri Mar 24 2023 19:12:09 GMT-0400 (Eastern Daylight Time)","259687","green","red","","449","","","","choice","","img/green_lw/choose11.jpg","1","167","green","0.5","0.5","0.5","l","",""
"animation","121","98825","0.0-5.0-2.58","63d41088860131e49a85cfac","bdp_lott","Fri Mar 24 2023 19:12:09 GMT-0400 (Eastern Daylight Time)","259687","green","red","","","","","","","","","","167","","","","","","[{""stimulus"":""img/green_lw/1.jpg"",""time"":51},{""stimulus"":""img/green_lw/2.jpg"",""time"":110},{""stimulus"":""img/green_lw/3.jpg"",""time"":158},{""stimulus"":""img/green_lw/4.jpg"",""time"":200},{""stimulus"":""img/green_lw/5.jpg"",""time"":252},{""stimulus"":""img/green_lw/6.jpg"",""time"":300},{""stimulus"":""img/green_lw/7.jpg"",""time"":350},{""stimulus"":""img/green_lw/8.jpg"",""time"":406},{""stimulus"":""img/green_lw/9.jpg"",""time"":453},{""stimulus"":""img/green_lw/10.jpg"",""time"":514},{""stimulus"":""img/green_lw/11.jpg"",""time"":550}]","[]"
"image-keyboard-response","122","99355","0.0-5.0-1.59","63d41088860131e49a85cfac","bdp_lott","Fri Mar 24 2023 19:12:09 GMT-0400 (Eastern Daylight Time)","259687","green","red","","530","","","","choice","","img/green_lw/choose11.jpg","2","166","red","0.5","0.5","0.5","l","",""
"animation","123","99968","0.0-5.0-2.59","63d41088860131e49a85cfac","bdp_lott","Fri Mar 24 2023 19:12:09 GMT-0400 (Eastern Daylight Time)","259687","green","red","","","","","","","","","","166","","","","","","[{""stimulus"":""img/red_ll/1.jpg"",""time"":58},{""stimulus"":""img/red_ll/2.jpg"",""time"":104},{""stimulus"":""img/red_ll/3.jpg"",""time"":151},{""stimulus"":""img/red_ll/4.jpg"",""time"":212},{""stimulus"":""img/red_ll/5.jpg"",""time"":251},{""stimulus"":""img/red_ll/6.jpg"",""time"":305},{""stimulus"":""img/red_ll/7.jpg"",""time"":352},{""stimulus"":""img/red_ll/8.jpg"",""time"":413},{""stimulus"":""img/red_ll/9.jpg"",""time"":459},{""stimulus"":""img/red_ll/10.jpg"",""time"":500},{""stimulus"":""img/red_ll/11.jpg"",""time"":550}]","[]"
"image-keyboard-response","124","100413","0.0-5.0-1.60","63d41088860131e49a85cfac","bdp_lott","Fri Mar 24 2023 19:12:09 GMT-0400 (Eastern Daylight Time)","259687","green","red","","444","","","","choice","","img/red_ll/choose11.jpg","2","165","red","0.5","0.5","0.5","w","",""
"animation","125","101014","0.0-5.0-2.60","63d41088860131e49a85cfac","bdp_lott","Fri Mar 24 2023 19:12:09 GMT-0400 (Eastern Daylight Time)","259687","green","red","","","","","","","","","","165","","","","","","[{""stimulus"":""img/red_lw/1.jpg"",""time"":64},{""stimulus"":""img/red_lw/2.jpg"",""time"":110},{""stimulus"":""img/red_lw/3.jpg"",""time"":155},{""stimulus"":""img/red_lw/4.jpg"",""time"":200},{""stimulus"":""img/red_lw/5.jpg"",""time"":264},{""stimulus"":""img/red_lw/6.jpg"",""time"":310},{""stimulus"":""img/red_lw/7.jpg"",""time"":350},{""stimulus"":""img/red_lw/8.jpg"",""time"":403},{""stimulus"":""img/red_lw/9.jpg"",""time"":450},{""stimulus"":""img/red_lw/10.jpg"",""time"":500},{""stimulus"":""img/red_lw/11.jpg"",""time"":561}]","[]"
"image-keyboard-response","126","101544","0.0-5.0-1.61","63d41088860131e49a85cfac","bdp_lott","Fri Mar 24 2023 19:12:09 GMT-0400 (Eastern Daylight Time)","259687","green","red","","529","","","","choice","","img/red_lw/choose11.jpg","2","164","red","0.5","0.5","0.5","l","",""
"animation","127","102144","0.0-5.0-2.61","63d41088860131e49a85cfac","bdp_lott","Fri Mar 24 2023 19:12:09 GMT-0400 (Eastern Daylight Time)","259687","green","red","","","","","","","","","","164","","","","","","[{""stimulus"":""img/red_ll/1.jpg"",""time"":55},{""stimulus"":""img/red_ll/2.jpg"",""time"":103},{""stimulus"":""img/red_ll/3.jpg"",""time"":151},{""stimulus"":""img/red_ll/4.jpg"",""time"":201},{""stimulus"":""img/red_ll/5.jpg"",""time"":259},{""stimulus"":""img/red_ll/6.jpg"",""time"":305},{""stimulus"":""img/red_ll/7.jpg"",""time"":351},{""stimulus"":""img/red_ll/8.jpg"",""time"":413},{""stimulus"":""img/red_ll/9.jpg"",""time"":451},{""stimulus"":""img/red_ll/10.jpg"",""time"":501},{""stimulus"":""img/red_ll/11.jpg"",""time"":551}]","[]"
"image-keyboard-response","128","102621","0.0-5.0-1.62","63d41088860131e49a85cfac","bdp_lott","Fri Mar 24 2023 19:12:09 GMT-0400 (Eastern Daylight Time)","259687","green","red","","476","","","","choice","","img/red_ll/choose11.jpg","2","163","red","0.5","0.5","0.5","l","",""
"animation","129","103229","0.0-5.0-2.62","63d41088860131e49a85cfac","bdp_lott","Fri Mar 24 2023 19:12:09 GMT-0400 (Eastern Daylight Time)","259687","green","red","","","","","","","","","","163","","","","","","[{""stimulus"":""img/red_ll/1.jpg"",""time"":51},{""stimulus"":""img/red_ll/2.jpg"",""time"":100},{""stimulus"":""img/red_ll/3.jpg"",""time"":155},{""stimulus"":""img/red_ll/4.jpg"",""time"":201},{""stimulus"":""img/red_ll/5.jpg"",""time"":263},{""stimulus"":""img/red_ll/6.jpg"",""time"":310},{""stimulus"":""img/red_ll/7.jpg"",""time"":356},{""stimulus"":""img/red_ll/8.jpg"",""time"":403},{""stimulus"":""img/red_ll/9.jpg"",""time"":450},{""stimulus"":""img/red_ll/10.jpg"",""time"":513},{""stimulus"":""img/red_ll/11.jpg"",""time"":550}]","[]"
"image-keyboard-response","130","103643","0.0-5.0-1.63","63d41088860131e49a85cfac","bdp_lott","Fri Mar 24 2023 19:12:09 GMT-0400 (Eastern Daylight Time)","259687","green","red","","413","","","","choice","","img/red_ll/choose11.jpg","2","162","red","0.5","0.5","0.5","l","",""
"animation","131","104245","0.0-5.0-2.63","63d41088860131e49a85cfac","bdp_lott","Fri Mar 24 2023 19:12:09 GMT-0400 (Eastern Daylight Time)","259687","green","red","","","","","","","","","","162","","","","","","[{""stimulus"":""img/red_ll/1.jpg"",""time"":64},{""stimulus"":""img/red_ll/2.jpg"",""time"":110},{""stimulus"":""img/red_ll/3.jpg"",""time"":157},{""stimulus"":""img/red_ll/4.jpg"",""time"":202},{""stimulus"":""img/red_ll/5.jpg"",""time"":265},{""stimulus"":""img/red_ll/6.jpg"",""time"":301},{""stimulus"":""img/red_ll/7.jpg"",""time"":352},{""stimulus"":""img/red_ll/8.jpg"",""time"":402},{""stimulus"":""img/red_ll/9.jpg"",""time"":452},{""stimulus"":""img/red_ll/10.jpg"",""time"":502},{""stimulus"":""img/red_ll/11.jpg"",""time"":551}]","[]"
"image-keyboard-response","132","104707","0.0-5.0-1.64","63d41088860131e49a85cfac","bdp_lott","Fri Mar 24 2023 19:12:09 GMT-0400 (Eastern Daylight Time)","259687","green","red","","461","","","","choice","","img/red_ll/choose11.jpg","2","161","red","0.5","0.5","0.5","l","",""
"animation","133","105308","0.0-5.0-2.64","63d41088860131e49a85cfac","bdp_lott","Fri Mar 24 2023 19:12:09 GMT-0400 (Eastern Daylight Time)","259687","green","red","","","","","","","","","","161","","","","","","[{""stimulus"":""img/red_ll/1.jpg"",""time"":60},{""stimulus"":""img/red_ll/2.jpg"",""time"":108},{""stimulus"":""img/red_ll/3.jpg"",""time"":154},{""stimulus"":""img/red_ll/4.jpg"",""time"":202},{""stimulus"":""img/red_ll/5.jpg"",""time"":251},{""stimulus"":""img/red_ll/6.jpg"",""time"":301},{""stimulus"":""img/red_ll/7.jpg"",""time"":351},{""stimulus"":""img/red_ll/8.jpg"",""time"":401},{""stimulus"":""img/red_ll/9.jpg"",""time"":451},{""stimulus"":""img/red_ll/10.jpg"",""time"":500},{""stimulus"":""img/red_ll/11.jpg"",""time"":551}]","[]"
"image-keyboard-response","134","105789","0.0-5.0-1.65","63d41088860131e49a85cfac","bdp_lott","Fri Mar 24 2023 19:12:09 GMT-0400 (Eastern Daylight Time)","259687","green","red","","480","","","","choice","","img/red_ll/choose11.jpg","1","160","green","0.5","0.5","0.5","l","",""
"animation","135","106390","0.0-5.0-2.65","63d41088860131e49a85cfac","bdp_lott","Fri Mar 24 2023 19:12:09 GMT-0400 (Eastern Daylight Time)","259687","green","red","","","","","","","","","","160","","","","","","[{""stimulus"":""img/green_ll/1.jpg"",""time"":50},{""stimulus"":""img/green_ll/2.jpg"",""time"":101},{""stimulus"":""img/green_ll/3.jpg"",""time"":162},{""stimulus"":""img/green_ll/4.jpg"",""time"":200},{""stimulus"":""img/green_ll/5.jpg"",""time"":250},{""stimulus"":""img/green_ll/6.jpg"",""time"":303},{""stimulus"":""img/green_ll/7.jpg"",""time"":364},{""stimulus"":""img/green_ll/8.jpg"",""time"":410},{""stimulus"":""img/green_ll/9.jpg"",""time"":456},{""stimulus"":""img/green_ll/10.jpg"",""time"":502},{""stimulus"":""img/green_ll/11.jpg"",""time"":564}]","[]"
"image-keyboard-response","136","106882","0.0-5.0-1.66","63d41088860131e49a85cfac","bdp_lott","Fri Mar 24 2023 19:12:09 GMT-0400 (Eastern Daylight Time)","259687","green","red","","491","","","","choice","","img/green_ll/choose11.jpg","1","159","green","0.5","0.5","0.5","w","",""
"animation","137","107483","0.0-5.0-2.66","63d41088860131e49a85cfac","bdp_lott","Fri Mar 24 2023 19:12:09 GMT-0400 (Eastern Daylight Time)","259687","green","red","","","","","","","","","","159","","","","","","[{""stimulus"":""img/green_wl/1.jpg"",""time"":61},{""stimulus"":""img/green_wl/2.jpg"",""time"":108},{""stimulus"":""img/green_wl/3.jpg"",""time"":154},{""stimulus"":""img/green_wl/4.jpg"",""time"":201},{""stimulus"":""img/green_wl/5.jpg"",""time"":262},{""stimulus"":""img/green_wl/6.jpg"",""time"":308},{""stimulus"":""img/green_wl/7.jpg"",""time"":351},{""stimulus"":""img/green_wl/8.jpg"",""time"":401},{""stimulus"":""img/green_wl/9.jpg"",""time"":451},{""stimulus"":""img/green_wl/10.jpg"",""time"":501},{""stimulus"":""img/green_wl/11.jpg"",""time"":551}]","[]"
"image-keyboard-response","138","108058","0.0-5.0-1.67","63d41088860131e49a85cfac","bdp_lott","Fri Mar 24 2023 19:12:09 GMT-0400 (Eastern Daylight Time)","259687","green","red","","575","","","","choice","","img/green_wl/choose11.jpg","1","158","green","0.5","0.5","0.5","w","",""
"animation","139","108672","0.0-5.0-2.67","63d41088860131e49a85cfac","bdp_lott","Fri Mar 24 2023 19:12:09 GMT-0400 (Eastern Daylight Time)","259687","green","red","","","","","","","","","","158","","","","","","[{""stimulus"":""img/green_wl/1.jpg"",""time"":53},{""stimulus"":""img/green_wl/2.jpg"",""time"":100},{""stimulus"":""img/green_wl/3.jpg"",""time"":162},{""stimulus"":""img/green_wl/4.jpg"",""time"":201},{""stimulus"":""img/green_wl/5.jpg"",""time"":251},{""stimulus"":""img/green_wl/6.jpg"",""time"":305},{""stimulus"":""img/green_wl/7.jpg"",""time"":351},{""stimulus"":""img/green_wl/8.jpg"",""time"":400},{""stimulus"":""img/green_wl/9.jpg"",""time"":460},{""stimulus"":""img/green_wl/10.jpg"",""time"":506},{""stimulus"":""img/green_wl/11.jpg"",""time"":551}]","[]"
"image-keyboard-response","140","109183","0.0-5.0-1.68","63d41088860131e49a85cfac","bdp_lott","Fri Mar 24 2023 19:12:09 GMT-0400 (Eastern Daylight Time)","259687","green","red","","511","","","","choice","","img/green_wl/choose11.jpg","1","157","green","0.5","0.5","0.5","w","",""
"animation","141","109798","0.0-5.0-2.68","63d41088860131e49a85cfac","bdp_lott","Fri Mar 24 2023 19:12:09 GMT-0400 (Eastern Daylight Time)","259687","green","red","","","","","","","","","","157","","","","","","[{""stimulus"":""img/green_wl/1.jpg"",""time"":55},{""stimulus"":""img/green_wl/2.jpg"",""time"":101},{""stimulus"":""img/green_wl/3.jpg"",""time"":162},{""stimulus"":""img/green_wl/4.jpg"",""time"":201},{""stimulus"":""img/green_wl/5.jpg"",""time"":256},{""stimulus"":""img/green_wl/6.jpg"",""time"":303},{""stimulus"":""img/green_wl/7.jpg"",""time"":351},{""stimulus"":""img/green_wl/8.jpg"",""time"":414},{""stimulus"":""img/green_wl/9.jpg"",""time"":461},{""stimulus"":""img/green_wl/10.jpg"",""time"":507},{""stimulus"":""img/green_wl/11.jpg"",""time"":550}]","[]"
"image-keyboard-response","142","110272","0.0-5.0-1.69","63d41088860131e49a85cfac","bdp_lott","Fri Mar 24 2023 19:12:09 GMT-0400 (Eastern Daylight Time)","259687","green","red","","473","","","","choice","","img/green_wl/choose11.jpg","1","156","green","0.5","0.5","0.5","l","",""
"animation","143","110877","0.0-5.0-2.69","63d41088860131e49a85cfac","bdp_lott","Fri Mar 24 2023 19:12:09 GMT-0400 (Eastern Daylight Time)","259687","green","red","","","","","","","","","","156","","","","","","[{""stimulus"":""img/green_ll/1.jpg"",""time"":50},{""stimulus"":""img/green_ll/2.jpg"",""time"":110},{""stimulus"":""img/green_ll/3.jpg"",""time"":157},{""stimulus"":""img/green_ll/4.jpg"",""time"":203},{""stimulus"":""img/green_ll/5.jpg"",""time"":250},{""stimulus"":""img/green_ll/6.jpg"",""time"":300},{""stimulus"":""img/green_ll/7.jpg"",""time"":357},{""stimulus"":""img/green_ll/8.jpg"",""time"":404},{""stimulus"":""img/green_ll/9.jpg"",""time"":465},{""stimulus"":""img/green_ll/10.jpg"",""time"":500},{""stimulus"":""img/green_ll/11.jpg"",""time"":550}]","[]"
"image-keyboard-response","144","111361","0.0-5.0-1.70","63d41088860131e49a85cfac","bdp_lott","Fri Mar 24 2023 19:12:09 GMT-0400 (Eastern Daylight Time)","259687","green","red","","483","","","","choice","","img/green_ll/choose11.jpg","1","155","green","0.5","0.5","0.5","l","",""
"animation","145","111967","0.0-5.0-2.70","63d41088860131e49a85cfac","bdp_lott","Fri Mar 24 2023 19:12:09 GMT-0400 (Eastern Daylight Time)","259687","green","red","","","","","","","","","","155","","","","","","[{""stimulus"":""img/green_ll/1.jpg"",""time"":51},{""stimulus"":""img/green_ll/2.jpg"",""time"":107},{""stimulus"":""img/green_ll/3.jpg"",""time"":153},{""stimulus"":""img/green_ll/4.jpg"",""time"":201},{""stimulus"":""img/green_ll/5.jpg"",""time"":263},{""stimulus"":""img/green_ll/6.jpg"",""time"":309},{""stimulus"":""img/green_ll/7.jpg"",""time"":355},{""stimulus"":""img/green_ll/8.jpg"",""time"":401},{""stimulus"":""img/green_ll/9.jpg"",""time"":463},{""stimulus"":""img/green_ll/10.jpg"",""time"":500},{""stimulus"":""img/green_ll/11.jpg"",""time"":557}]","[]"
"image-keyboard-response","146","112492","0.0-5.0-1.71","63d41088860131e49a85cfac","bdp_lott","Fri Mar 24 2023 19:12:09 GMT-0400 (Eastern Daylight Time)","259687","green","red","","524","","","","choice","","img/green_ll/choose11.jpg","1","154","green","0.5","0.5","0.5","l","",""
"animation","147","113115","0.0-5.0-2.71","63d41088860131e49a85cfac","bdp_lott","Fri Mar 24 2023 19:12:09 GMT-0400 (Eastern Daylight Time)","259687","green","red","","","","","","","","","","154","","","","","","[{""stimulus"":""img/green_ll/1.jpg"",""time"":51},{""stimulus"":""img/green_ll/2.jpg"",""time"":114},{""stimulus"":""img/green_ll/3.jpg"",""time"":160},{""stimulus"":""img/green_ll/4.jpg"",""time"":201},{""stimulus"":""img/green_ll/5.jpg"",""time"":255},{""stimulus"":""img/green_ll/6.jpg"",""time"":301},{""stimulus"":""img/green_ll/7.jpg"",""time"":365},{""stimulus"":""img/green_ll/8.jpg"",""time"":401},{""stimulus"":""img/green_ll/9.jpg"",""time"":457},{""stimulus"":""img/green_ll/10.jpg"",""time"":505},{""stimulus"":""img/green_ll/11.jpg"",""time"":566}]","[]"
"image-keyboard-response","148","113571","0.0-5.0-1.72","63d41088860131e49a85cfac","bdp_lott","Fri Mar 24 2023 19:12:09 GMT-0400 (Eastern Daylight Time)","259687","green","red","","455","","","","choice","","img/green_ll/choose11.jpg","2","153","red","0.5","0.5","0.5","w","",""
"animation","149","114172","0.0-5.0-2.72","63d41088860131e49a85cfac","bdp_lott","Fri Mar 24 2023 19:12:09 GMT-0400 (Eastern Daylight Time)","259687","green","red","","","","","","","","","","153","","","","","","[{""stimulus"":""img/red_lw/1.jpg"",""time"":61},{""stimulus"":""img/red_lw/2.jpg"",""time"":108},{""stimulus"":""img/red_lw/3.jpg"",""time"":151},{""stimulus"":""img/red_lw/4.jpg"",""time"":203},{""stimulus"":""img/red_lw/5.jpg"",""time"":251},{""stimulus"":""img/red_lw/6.jpg"",""time"":315},{""stimulus"":""img/red_lw/7.jpg"",""time"":363},{""stimulus"":""img/red_lw/8.jpg"",""time"":400},{""stimulus"":""img/red_lw/9.jpg"",""time"":459},{""stimulus"":""img/red_lw/10.jpg"",""time"":506},{""stimulus"":""img/red_lw/11.jpg"",""time"":554}]","[]"
"image-keyboard-response","150","114601","0.0-5.0-1.73","63d41088860131e49a85cfac","bdp_lott","Fri Mar 24 2023 19:12:09 GMT-0400 (Eastern Daylight Time)","259687","green","red","","428","","","","choice","","img/red_lw/choose11.jpg","2","152","red","0.5","0.5","0.5","w","",""
"animation","151","115202","0.0-5.0-2.73","63d41088860131e49a85cfac","bdp_lott","Fri Mar 24 2023 19:12:09 GMT-0400 (Eastern Daylight Time)","259687","green","red","","","","","","","","","","152","","","","","","[{""stimulus"":""img/red_lw/1.jpg"",""time"":57},{""stimulus"":""img/red_lw/2.jpg"",""time"":103},{""stimulus"":""img/red_lw/3.jpg"",""time"":151},{""stimulus"":""img/red_lw/4.jpg"",""time"":208},{""stimulus"":""img/red_lw/5.jpg"",""time"":256},{""stimulus"":""img/red_lw/6.jpg"",""time"":302},{""stimulus"":""img/red_lw/7.jpg"",""time"":351},{""stimulus"":""img/red_lw/8.jpg"",""time"":410},{""stimulus"":""img/red_lw/9.jpg"",""time"":456},{""stimulus"":""img/red_lw/10.jpg"",""time"":502},{""stimulus"":""img/red_lw/11.jpg"",""time"":565}]","[]"
"image-keyboard-response","152","115643","0.0-5.0-1.74","63d41088860131e49a85cfac","bdp_lott","Fri Mar 24 2023 19:12:09 GMT-0400 (Eastern Daylight Time)","259687","green","red","","440","","","","choice","","img/red_lw/choose11.jpg","2","151","red","0.5","0.5","0.5","w","",""
"animation","153","116259","0.0-5.0-2.74","63d41088860131e49a85cfac","bdp_lott","Fri Mar 24 2023 19:12:09 GMT-0400 (Eastern Daylight Time)","259687","green","red","","","","","","","","","","151","","","","","","[{""stimulus"":""img/red_lw/1.jpg"",""time"":51},{""stimulus"":""img/red_lw/2.jpg"",""time"":115},{""stimulus"":""img/red_lw/3.jpg"",""time"":151},{""stimulus"":""img/red_lw/4.jpg"",""time"":201},{""stimulus"":""img/red_lw/5.jpg"",""time"":252},{""stimulus"":""img/red_lw/6.jpg"",""time"":302},{""stimulus"":""img/red_lw/7.jpg"",""time"":352},{""stimulus"":""img/red_lw/8.jpg"",""time"":400},{""stimulus"":""img/red_lw/9.jpg"",""time"":461},{""stimulus"":""img/red_lw/10.jpg"",""time"":507},{""stimulus"":""img/red_lw/11.jpg"",""time"":554}]","[]"
"image-keyboard-response","154","116640","0.0-5.0-1.75","63d41088860131e49a85cfac","bdp_lott","Fri Mar 24 2023 19:12:09 GMT-0400 (Eastern Daylight Time)","259687","green","red","","381","","","","choice","","img/red_lw/choose11.jpg","2","150","red","0.5","0.5","0.5","l","",""
"animation","155","117248","0.0-5.0-2.75","63d41088860131e49a85cfac","bdp_lott","Fri Mar 24 2023 19:12:09 GMT-0400 (Eastern Daylight Time)","259687","green","red","","","","","","","","","","150","","","","","","[{""stimulus"":""img/red_ll/1.jpg"",""time"":51},{""stimulus"":""img/red_ll/2.jpg"",""time"":100},{""stimulus"":""img/red_ll/3.jpg"",""time"":151},{""stimulus"":""img/red_ll/4.jpg"",""time"":206},{""stimulus"":""img/red_ll/5.jpg"",""time"":252},{""stimulus"":""img/red_ll/6.jpg"",""time"":301},{""stimulus"":""img/red_ll/7.jpg"",""time"":350},{""stimulus"":""img/red_ll/8.jpg"",""time"":400},{""stimulus"":""img/red_ll/9.jpg"",""time"":454},{""stimulus"":""img/red_ll/10.jpg"",""time"":500},{""stimulus"":""img/red_ll/11.jpg"",""time"":551}]","[]"
"image-keyboard-response","156","117664","0.0-5.0-1.76","63d41088860131e49a85cfac","bdp_lott","Fri Mar 24 2023 19:12:09 GMT-0400 (Eastern Daylight Time)","259687","green","red","","415","","","","choice","","img/red_ll/choose11.jpg","2","149","red","0.5","0.1","0.1","l","",""
"animation","157","118265","0.0-5.0-2.76","63d41088860131e49a85cfac","bdp_lott","Fri Mar 24 2023 19:12:09 GMT-0400 (Eastern Daylight Time)","259687","green","red","","","","","","","","","","149","","","","","","[{""stimulus"":""img/red_ll/1.jpg"",""time"":51},{""stimulus"":""img/red_ll/2.jpg"",""time"":100},{""stimulus"":""img/red_ll/3.jpg"",""time"":150},{""stimulus"":""img/red_ll/4.jpg"",""time"":212},{""stimulus"":""img/red_ll/5.jpg"",""time"":258},{""stimulus"":""img/red_ll/6.jpg"",""time"":304},{""stimulus"":""img/red_ll/7.jpg"",""time"":350},{""stimulus"":""img/red_ll/8.jpg"",""time"":400},{""stimulus"":""img/red_ll/9.jpg"",""time"":450},{""stimulus"":""img/red_ll/10.jpg"",""time"":500},{""stimulus"":""img/red_ll/11.jpg"",""time"":557}]","[]"
"image-keyboard-response","158","118657","0.0-5.0-1.77","63d41088860131e49a85cfac","bdp_lott","Fri Mar 24 2023 19:12:09 GMT-0400 (Eastern Daylight Time)","259687","green","red","","391","","","","choice","","img/red_ll/choose11.jpg","2","148","red","0.5","0.1","0.1","l","",""
"animation","159","119272","0.0-5.0-2.77","63d41088860131e49a85cfac","bdp_lott","Fri Mar 24 2023 19:12:09 GMT-0400 (Eastern Daylight Time)","259687","green","red","","","","","","","","","","148","","","","","","[{""stimulus"":""img/red_ll/1.jpg"",""time"":52},{""stimulus"":""img/red_ll/2.jpg"",""time"":104},{""stimulus"":""img/red_ll/3.jpg"",""time"":166},{""stimulus"":""img/red_ll/4.jpg"",""time"":201},{""stimulus"":""img/red_ll/5.jpg"",""time"":251},{""stimulus"":""img/red_ll/6.jpg"",""time"":305},{""stimulus"":""img/red_ll/7.jpg"",""time"":351},{""stimulus"":""img/red_ll/8.jpg"",""time"":414},{""stimulus"":""img/red_ll/9.jpg"",""time"":451},{""stimulus"":""img/red_ll/10.jpg"",""time"":507},{""stimulus"":""img/red_ll/11.jpg"",""time"":551}]","[]"
"image-keyboard-response","160","119620","0.0-5.0-1.78","63d41088860131e49a85cfac","bdp_lott","Fri Mar 24 2023 19:12:09 GMT-0400 (Eastern Daylight Time)","259687","green","red","","347","","","","choice","","img/red_ll/choose11.jpg","1","147","green","0.5","0.1","0.5","l","",""
"animation","161","120234","0.0-5.0-2.78","63d41088860131e49a85cfac","bdp_lott","Fri Mar 24 2023 19:12:09 GMT-0400 (Eastern Daylight Time)","259687","green","red","","","","","","","","","","147","","","","","","[{""stimulus"":""img/green_ll/1.jpg"",""time"":65},{""stimulus"":""img/green_ll/2.jpg"",""time"":111},{""stimulus"":""img/green_ll/3.jpg"",""time"":158},{""stimulus"":""img/green_ll/4.jpg"",""time"":200},{""stimulus"":""img/green_ll/5.jpg"",""time"":251},{""stimulus"":""img/green_ll/6.jpg"",""time"":315},{""stimulus"":""img/green_ll/7.jpg"",""time"":351},{""stimulus"":""img/green_ll/8.jpg"",""time"":400},{""stimulus"":""img/green_ll/9.jpg"",""time"":450},{""stimulus"":""img/green_ll/10.jpg"",""time"":500},{""stimulus"":""img/green_ll/11.jpg"",""time"":550}]","[]"
"image-keyboard-response","162","120632","0.0-5.0-1.79","63d41088860131e49a85cfac","bdp_lott","Fri Mar 24 2023 19:12:09 GMT-0400 (Eastern Daylight Time)","259687","green","red","","397","","","","choice","","img/green_ll/choose11.jpg","1","146","green","0.5","0.1","0.5","w","",""
"animation","163","121237","0.0-5.0-2.79","63d41088860131e49a85cfac","bdp_lott","Fri Mar 24 2023 19:12:09 GMT-0400 (Eastern Daylight Time)","259687","green","red","","","","","","","","","","146","","","","","","[{""stimulus"":""img/green_wl/1.jpg"",""time"":55},{""stimulus"":""img/green_wl/2.jpg"",""time"":103},{""stimulus"":""img/green_wl/3.jpg"",""time"":151},{""stimulus"":""img/green_wl/4.jpg"",""time"":214},{""stimulus"":""img/green_wl/5.jpg"",""time"":262},{""stimulus"":""img/green_wl/6.jpg"",""time"":301},{""stimulus"":""img/green_wl/7.jpg"",""time"":356},{""stimulus"":""img/green_wl/8.jpg"",""time"":401},{""stimulus"":""img/green_wl/9.jpg"",""time"":451},{""stimulus"":""img/green_wl/10.jpg"",""time"":511},{""stimulus"":""img/green_wl/11.jpg"",""time"":557}]","[]"
"image-keyboard-response","164","121720","0.0-5.0-1.80","63d41088860131e49a85cfac","bdp_lott","Fri Mar 24 2023 19:12:09 GMT-0400 (Eastern Daylight Time)","259687","green","red","","483","","","","choice","","img/green_wl/choose11.jpg","1","145","green","0.5","0.1","0.5","l","",""
"animation","165","122321","0.0-5.0-2.80","63d41088860131e49a85cfac","bdp_lott","Fri Mar 24 2023 19:12:09 GMT-0400 (Eastern Daylight Time)","259687","green","red","","","","","","","","","","145","","","","","","[{""stimulus"":""img/green_ll/1.jpg"",""time"":54},{""stimulus"":""img/green_ll/2.jpg"",""time"":101},{""stimulus"":""img/green_ll/3.jpg"",""time"":151},{""stimulus"":""img/green_ll/4.jpg"",""time"":200},{""stimulus"":""img/green_ll/5.jpg"",""time"":250},{""stimulus"":""img/green_ll/6.jpg"",""time"":302},{""stimulus"":""img/green_ll/7.jpg"",""time"":363},{""stimulus"":""img/green_ll/8.jpg"",""time"":400},{""stimulus"":""img/green_ll/9.jpg"",""time"":457},{""stimulus"":""img/green_ll/10.jpg"",""time"":500},{""stimulus"":""img/green_ll/11.jpg"",""time"":550}]","[]"
"image-keyboard-response","166","122777","0.0-5.0-1.81","63d41088860131e49a85cfac","bdp_lott","Fri Mar 24 2023 19:12:09 GMT-0400 (Eastern Daylight Time)","259687","green","red","","455","","","","choice","","img/green_ll/choose11.jpg","1","144","green","0.5","0.1","0.5","l","",""
"animation","167","123379","0.0-5.0-2.81","63d41088860131e49a85cfac","bdp_lott","Fri Mar 24 2023 19:12:09 GMT-0400 (Eastern Daylight Time)","259687","green","red","","","","","","","","","","144","","","","","","[{""stimulus"":""img/green_ll/1.jpg"",""time"":55},{""stimulus"":""img/green_ll/2.jpg"",""time"":103},{""stimulus"":""img/green_ll/3.jpg"",""time"":163},{""stimulus"":""img/green_ll/4.jpg"",""time"":201},{""stimulus"":""img/green_ll/5.jpg"",""time"":255},{""stimulus"":""img/green_ll/6.jpg"",""time"":301},{""stimulus"":""img/green_ll/7.jpg"",""time"":350},{""stimulus"":""img/green_ll/8.jpg"",""time"":400},{""stimulus"":""img/green_ll/9.jpg"",""time"":451},{""stimulus"":""img/green_ll/10.jpg"",""time"":503},{""stimulus"":""img/green_ll/11.jpg"",""time"":566}]","[]"
"image-keyboard-response","168","123809","0.0-5.0-1.82","63d41088860131e49a85cfac","bdp_lott","Fri Mar 24 2023 19:12:09 GMT-0400 (Eastern Daylight Time)","259687","green","red","","429","","","","choice","","img/green_ll/choose11.jpg","1","143","green","0.5","0.1","0.5","l","",""
"animation","169","124410","0.0-5.0-2.82","63d41088860131e49a85cfac","bdp_lott","Fri Mar 24 2023 19:12:09 GMT-0400 (Eastern Daylight Time)","259687","green","red","","","","","","","","","","143","","","","","","[{""stimulus"":""img/green_ll/1.jpg"",""time"":58},{""stimulus"":""img/green_ll/2.jpg"",""time"":104},{""stimulus"":""img/green_ll/3.jpg"",""time"":165},{""stimulus"":""img/green_ll/4.jpg"",""time"":203},{""stimulus"":""img/green_ll/5.jpg"",""time"":250},{""stimulus"":""img/green_ll/6.jpg"",""time"":305},{""stimulus"":""img/green_ll/7.jpg"",""time"":351},{""stimulus"":""img/green_ll/8.jpg"",""time"":401},{""stimulus"":""img/green_ll/9.jpg"",""time"":461},{""stimulus"":""img/green_ll/10.jpg"",""time"":500},{""stimulus"":""img/green_ll/11.jpg"",""time"":550}]","[]"
"image-keyboard-response","170","124865","0.0-5.0-1.83","63d41088860131e49a85cfac","bdp_lott","Fri Mar 24 2023 19:12:09 GMT-0400 (Eastern Daylight Time)","259687","green","red","","454","","","","choice","","img/green_ll/choose11.jpg","1","142","green","0.5","0.1","0.5","w","",""
"animation","171","125472","0.0-5.0-2.83","63d41088860131e49a85cfac","bdp_lott","Fri Mar 24 2023 19:12:09 GMT-0400 (Eastern Daylight Time)","259687","green","red","","","","","","","","","","142","","","","","","[{""stimulus"":""img/green_wl/1.jpg"",""time"":61},{""stimulus"":""img/green_wl/2.jpg"",""time"":109},{""stimulus"":""img/green_wl/3.jpg"",""time"":156},{""stimulus"":""img/green_wl/4.jpg"",""time"":200},{""stimulus"":""img/green_wl/5.jpg"",""time"":264},{""stimulus"":""img/green_wl/6.jpg"",""time"":300},{""stimulus"":""img/green_wl/7.jpg"",""time"":350},{""stimulus"":""img/green_wl/8.jpg"",""time"":403},{""stimulus"":""img/green_wl/9.jpg"",""time"":451},{""stimulus"":""img/green_wl/10.jpg"",""time"":512},{""stimulus"":""img/green_wl/11.jpg"",""time"":558}]","[]"
"image-keyboard-response","172","125879","0.0-5.0-1.84","63d41088860131e49a85cfac","bdp_lott","Fri Mar 24 2023 19:12:09 GMT-0400 (Eastern Daylight Time)","259687","green","red","","407","","","","choice","","img/green_wl/choose11.jpg","2","141","red","0.5","0.1","0.1","l","",""
"animation","173","126480","0.0-5.0-2.84","63d41088860131e49a85cfac","bdp_lott","Fri Mar 24 2023 19:12:09 GMT-0400 (Eastern Daylight Time)","259687","green","red","","","","","","","","","","141","","","","","","[{""stimulus"":""img/red_wl/1.jpg"",""time"":56},{""stimulus"":""img/red_wl/2.jpg"",""time"":104},{""stimulus"":""img/red_wl/3.jpg"",""time"":152},{""stimulus"":""img/red_wl/4.jpg"",""time"":201},{""stimulus"":""img/red_wl/5.jpg"",""time"":263},{""stimulus"":""img/red_wl/6.jpg"",""time"":301},{""stimulus"":""img/red_wl/7.jpg"",""time"":355},{""stimulus"":""img/red_wl/8.jpg"",""time"":417},{""stimulus"":""img/red_wl/9.jpg"",""time"":463},{""stimulus"":""img/red_wl/10.jpg"",""time"":510},{""stimulus"":""img/red_wl/11.jpg"",""time"":551}]","[]"
"image-keyboard-response","174","126869","0.0-5.0-1.85","63d41088860131e49a85cfac","bdp_lott","Fri Mar 24 2023 19:12:09 GMT-0400 (Eastern Daylight Time)","259687","green","red","","388","","","","choice","","img/red_wl/choose11.jpg","2","140","red","0.5","0.1","0.1","l","",""
"animation","175","127478","0.0-5.0-2.85","63d41088860131e49a85cfac","bdp_lott","Fri Mar 24 2023 19:12:09 GMT-0400 (Eastern Daylight Time)","259687","green","red","","","","","","","","","","140","","","","","","[{""stimulus"":""img/red_wl/1.jpg"",""time"":65},{""stimulus"":""img/red_wl/2.jpg"",""time"":111},{""stimulus"":""img/red_wl/3.jpg"",""time"":158},{""stimulus"":""img/red_wl/4.jpg"",""time"":204},{""stimulus"":""img/red_wl/5.jpg"",""time"":250},{""stimulus"":""img/red_wl/6.jpg"",""time"":313},{""stimulus"":""img/red_wl/7.jpg"",""time"":360},{""stimulus"":""img/red_wl/8.jpg"",""time"":401},{""stimulus"":""img/red_wl/9.jpg"",""time"":450},{""stimulus"":""img/red_wl/10.jpg"",""time"":501},{""stimulus"":""img/red_wl/11.jpg"",""time"":561}]","[]"
"image-keyboard-response","176","127858","0.0-5.0-1.86","63d41088860131e49a85cfac","bdp_lott","Fri Mar 24 2023 19:12:09 GMT-0400 (Eastern Daylight Time)","259687","green","red","","380","","","","choice","","img/red_wl/choose11.jpg","1","139","green","0.5","0.1","0.5","w","",""
"animation","177","128464","0.0-5.0-2.86","63d41088860131e49a85cfac","bdp_lott","Fri Mar 24 2023 19:12:09 GMT-0400 (Eastern Daylight Time)","259687","green","red","","","","","","","","","","139","","","","","","[{""stimulus"":""img/green_wl/1.jpg"",""time"":52},{""stimulus"":""img/green_wl/2.jpg"",""time"":112},{""stimulus"":""img/green_wl/3.jpg"",""time"":158},{""stimulus"":""img/green_wl/4.jpg"",""time"":201},{""stimulus"":""img/green_wl/5.jpg"",""time"":266},{""stimulus"":""img/green_wl/6.jpg"",""time"":312},{""stimulus"":""img/green_wl/7.jpg"",""time"":358},{""stimulus"":""img/green_wl/8.jpg"",""time"":401},{""stimulus"":""img/green_wl/9.jpg"",""time"":451},{""stimulus"":""img/green_wl/10.jpg"",""time"":513},{""stimulus"":""img/green_wl/11.jpg"",""time"":559}]","[]"
"image-keyboard-response","178","128902","0.0-5.0-1.87","63d41088860131e49a85cfac","bdp_lott","Fri Mar 24 2023 19:12:09 GMT-0400 (Eastern Daylight Time)","259687","green","red","","437","","","","choice","","img/green_wl/choose11.jpg","1","138","green","0.5","0.1","0.5","l","",""
"animation","179","129515","0.0-5.0-2.87","63d41088860131e49a85cfac","bdp_lott","Fri Mar 24 2023 19:12:09 GMT-0400 (Eastern Daylight Time)","259687","green","red","","","","","","","","","","138","","","","","","[{""stimulus"":""img/green_ll/1.jpg"",""time"":51},{""stimulus"":""img/green_ll/2.jpg"",""time"":111},{""stimulus"":""img/green_ll/3.jpg"",""time"":158},{""stimulus"":""img/green_ll/4.jpg"",""time"":201},{""stimulus"":""img/green_ll/5.jpg"",""time"":253},{""stimulus"":""img/green_ll/6.jpg"",""time"":315},{""stimulus"":""img/green_ll/7.jpg"",""time"":363},{""stimulus"":""img/green_ll/8.jpg"",""time"":416},{""stimulus"":""img/green_ll/9.jpg"",""time"":458},{""stimulus"":""img/green_ll/10.jpg"",""time"":500},{""stimulus"":""img/green_ll/11.jpg"",""time"":550}]","[]"
"image-keyboard-response","180","129894","0.0-5.0-1.88","63d41088860131e49a85cfac","bdp_lott","Fri Mar 24 2023 19:12:09 GMT-0400 (Eastern Daylight Time)","259687","green","red","","379","","","","choice","","img/green_ll/choose11.jpg","1","137","green","0.5","0.1","0.5","w","",""
"animation","181","130495","0.0-5.0-2.88","63d41088860131e49a85cfac","bdp_lott","Fri Mar 24 2023 19:12:09 GMT-0400 (Eastern Daylight Time)","259687","green","red","","","","","","","","","","137","","","","","","[{""stimulus"":""img/green_wl/1.jpg"",""time"":56},{""stimulus"":""img/green_wl/2.jpg"",""time"":104},{""stimulus"":""img/green_wl/3.jpg"",""time"":151},{""stimulus"":""img/green_wl/4.jpg"",""time"":212},{""stimulus"":""img/green_wl/5.jpg"",""time"":251},{""stimulus"":""img/green_wl/6.jpg"",""time"":304},{""stimulus"":""img/green_wl/7.jpg"",""time"":365},{""stimulus"":""img/green_wl/8.jpg"",""time"":401},{""stimulus"":""img/green_wl/9.jpg"",""time"":450},{""stimulus"":""img/green_wl/10.jpg"",""time"":501},{""stimulus"":""img/green_wl/11.jpg"",""time"":551}]","[]"
"image-keyboard-response","182","131040","0.0-5.0-1.89","63d41088860131e49a85cfac","bdp_lott","Fri Mar 24 2023 19:12:09 GMT-0400 (Eastern Daylight Time)","259687","green","red","","544","","","","choice","","img/green_wl/choose11.jpg","1","136","green","0.5","0.1","0.5","l","",""
"animation","183","131641","0.0-5.0-2.89","63d41088860131e49a85cfac","bdp_lott","Fri Mar 24 2023 19:12:09 GMT-0400 (Eastern Daylight Time)","259687","green","red","","","","","","","","","","136","","","","","","[{""stimulus"":""img/green_ll/1.jpg"",""time"":62},{""stimulus"":""img/green_ll/2.jpg"",""time"":110},{""stimulus"":""img/green_ll/3.jpg"",""time"":158},{""stimulus"":""img/green_ll/4.jpg"",""time"":206},{""stimulus"":""img/green_ll/5.jpg"",""time"":254},{""stimulus"":""img/green_ll/6.jpg"",""time"":300},{""stimulus"":""img/green_ll/7.jpg"",""time"":351},{""stimulus"":""img/green_ll/8.jpg"",""time"":414},{""stimulus"":""img/green_ll/9.jpg"",""time"":450},{""stimulus"":""img/green_ll/10.jpg"",""time"":500},{""stimulus"":""img/green_ll/11.jpg"",""time"":558}]","[]"
"image-keyboard-response","184","132040","0.0-5.0-1.90","63d41088860131e49a85cfac","bdp_lott","Fri Mar 24 2023 19:12:09 GMT-0400 (Eastern Daylight Time)","259687","green","red","","398","","","","choice","","img/green_ll/choose11.jpg","1","135","green","0.5","0.1","0.5","w","",""
"animation","185","132642","0.0-5.0-2.90","63d41088860131e49a85cfac","bdp_lott","Fri Mar 24 2023 19:12:09 GMT-0400 (Eastern Daylight Time)","259687","green","red","","","","","","","","","","135","","","","","","[{""stimulus"":""img/green_wl/1.jpg"",""time"":51},{""stimulus"":""img/green_wl/2.jpg"",""time"":100},{""stimulus"":""img/green_wl/3.jpg"",""time"":168},{""stimulus"":""img/green_wl/4.jpg"",""time"":200},{""stimulus"":""img/green_wl/5.jpg"",""time"":258},{""stimulus"":""img/green_wl/6.jpg"",""time"":306},{""stimulus"":""img/green_wl/7.jpg"",""time"":352},{""stimulus"":""img/green_wl/8.jpg"",""time"":400},{""stimulus"":""img/green_wl/9.jpg"",""time"":461},{""stimulus"":""img/green_wl/10.jpg"",""time"":508},{""stimulus"":""img/green_wl/11.jpg"",""time"":556}]","[]"
"image-keyboard-response","186","133184","0.0-5.0-1.91","63d41088860131e49a85cfac","bdp_lott","Fri Mar 24 2023 19:12:09 GMT-0400 (Eastern Daylight Time)","259687","green","red","","541","","","","choice","","img/green_wl/choose11.jpg","1","134","green","0.5","0.1","0.5","w","",""
"animation","187","133786","0.0-5.0-2.91","63d41088860131e49a85cfac","bdp_lott","Fri Mar 24 2023 19:12:09 GMT-0400 (Eastern Daylight Time)","259687","green","red","","","","","","","","","","134","","","","","","[{""stimulus"":""img/green_wl/1.jpg"",""time"":63},{""stimulus"":""img/green_wl/2.jpg"",""time"":101},{""stimulus"":""img/green_wl/3.jpg"",""time"":151},{""stimulus"":""img/green_wl/4.jpg"",""time"":216},{""stimulus"":""img/green_wl/5.jpg"",""time"":262},{""stimulus"":""img/green_wl/6.jpg"",""time"":308},{""stimulus"":""img/green_wl/7.jpg"",""time"":354},{""stimulus"":""img/green_wl/8.jpg"",""time"":415},{""stimulus"":""img/green_wl/9.jpg"",""time"":450},{""stimulus"":""img/green_wl/10.jpg"",""time"":509},{""stimulus"":""img/green_wl/11.jpg"",""time"":556}]","[]"
"image-keyboard-response","188","134228","0.0-5.0-1.92","63d41088860131e49a85cfac","bdp_lott","Fri Mar 24 2023 19:12:09 GMT-0400 (Eastern Daylight Time)","259687","green","red","","442","","","","choice","","img/green_wl/choose11.jpg","1","133","green","0.5","0.1","0.5","w","",""
"animation","189","134829","0.0-5.0-2.92","63d41088860131e49a85cfac","bdp_lott","Fri Mar 24 2023 19:12:09 GMT-0400 (Eastern Daylight Time)","259687","green","red","","","","","","","","","","133","","","","","","[{""stimulus"":""img/green_wl/1.jpg"",""time"":52},{""stimulus"":""img/green_wl/2.jpg"",""time"":101},{""stimulus"":""img/green_wl/3.jpg"",""time"":151},{""stimulus"":""img/green_wl/4.jpg"",""time"":205},{""stimulus"":""img/green_wl/5.jpg"",""time"":252},{""stimulus"":""img/green_wl/6.jpg"",""time"":316},{""stimulus"":""img/green_wl/7.jpg"",""time"":351},{""stimulus"":""img/green_wl/8.jpg"",""time"":401},{""stimulus"":""img/green_wl/9.jpg"",""time"":459},{""stimulus"":""img/green_wl/10.jpg"",""time"":501},{""stimulus"":""img/green_wl/11.jpg"",""time"":551}]","[]"
"image-keyboard-response","190","135207","0.0-5.0-1.93","63d41088860131e49a85cfac","bdp_lott","Fri Mar 24 2023 19:12:09 GMT-0400 (Eastern Daylight Time)","259687","green","red","","376","","","","choice","","img/green_wl/choose11.jpg","2","132","red","0.5","0.1","0.1","l","",""
"animation","191","135809","0.0-5.0-2.93","63d41088860131e49a85cfac","bdp_lott","Fri Mar 24 2023 19:12:09 GMT-0400 (Eastern Daylight Time)","259687","green","red","","","","","","","","","","132","","","","","","[{""stimulus"":""img/red_wl/1.jpg"",""time"":56},{""stimulus"":""img/red_wl/2.jpg"",""time"":104},{""stimulus"":""img/red_wl/3.jpg"",""time"":151},{""stimulus"":""img/red_wl/4.jpg"",""time"":213},{""stimulus"":""img/red_wl/5.jpg"",""time"":251},{""stimulus"":""img/red_wl/6.jpg"",""time"":301},{""stimulus"":""img/red_wl/7.jpg"",""time"":351},{""stimulus"":""img/red_wl/8.jpg"",""time"":416},{""stimulus"":""img/red_wl/9.jpg"",""time"":451},{""stimulus"":""img/red_wl/10.jpg"",""time"":509},{""stimulus"":""img/red_wl/11.jpg"",""time"":556}]","[]"
