"trial_type","trial_index","time_elapsed","internal_node_id","subject_id","task","startTime","totalTime","fairMachine","unfairMachine","view_history","rt","event","trial","time","trialtype","success","stimulus","key_press","roundsLeft","chosen","pFairMachWin","pUnfairMachWin","pTrialWin","outcome","animation_sequence","responses","numBlurs"
"pavlovia","0","9","0.0-0.0","63e711bb284d2bc894a057a6","bdp_lott","Sat Mar 25 2023 21:16:07 GMT-0500 (Central Daylight Time)","452038","red","green","","","","","","","","","","","","","","","","","",""
"instructions","1","5447","0.0-1.0","63e711bb284d2bc894a057a6","bdp_lott","Sat Mar 25 2023 21:16:07 GMT-0500 (Central Daylight Time)","452038","red","green","[{""page_index"":0,""viewing_time"":5436}]","5436","","","","","","","","","","","","","","","",""
"","","","","63e711bb284d2bc894a057a6","bdp_lott","Sat Mar 25 2023 21:16:07 GMT-0500 (Central Daylight Time)","452038","red","green","","","fullscreenenter","2","7818","fullscreenenter","","","","","","","","","","","",""
"fullscreen","2","8827","0.0-2.0","63e711bb284d2bc894a057a6","bdp_lott","Sat Mar 25 2023 21:16:07 GMT-0500 (Central Daylight Time)","452038","red","green","","","","","","","true","","","","","","","","","","",""
"instructions","3","94670","0.0-4.0","63e711bb284d2bc894a057a6","bdp_lott","Sat Mar 25 2023 21:16:07 GMT-0500 (Central Daylight Time)","452038","red","green","[{""page_index"":0,""viewing_time"":85840}]","85841","","","","","","","","","","","","","","","",""
"image-keyboard-response","4","99142","0.0-5.0-1.0","63e711bb284d2bc894a057a6","bdp_lott","Sat Mar 25 2023 21:16:07 GMT-0500 (Central Daylight Time)","452038","red","green","","4469","","","","choice","","img/red_ll/initchoose11.jpg","1","225","green","0.5","0.5","0.5","w","","",""
"animation","5","99750","0.0-5.0-2.0","63e711bb284d2bc894a057a6","bdp_lott","Sat Mar 25 2023 21:16:07 GMT-0500 (Central Daylight Time)","452038","red","green","","","","","","","","","","225","","","","","","[{""stimulus"":""img/green_wl/1.jpg"",""time"":55},{""stimulus"":""img/green_wl/2.jpg"",""time"":103},{""stimulus"":""img/green_wl/3.jpg"",""time"":153},{""stimulus"":""img/green_wl/4.jpg"",""time"":206},{""stimulus"":""img/green_wl/5.jpg"",""time"":255},{""stimulus"":""img/green_wl/6.jpg"",""time"":303},{""stimulus"":""img/green_wl/7.jpg"",""time"":359},{""stimulus"":""img/green_wl/8.jpg"",""time"":408},{""stimulus"":""img/green_wl/9.jpg"",""time"":455},{""stimulus"":""img/green_wl/10.jpg"",""time"":503},{""stimulus"":""img/green_wl/11.jpg"",""time"":559}]","[]",""
"","","","","63e711bb284d2bc894a057a6","bdp_lott","Sat Mar 25 2023 21:16:07 GMT-0500 (Central Daylight Time)","452038","red","green","","","fullscreenexit","6","101276","fullscreenexit","","","","","","","","","","","",""
"","","","","63e711bb284d2bc894a057a6","bdp_lott","Sat Mar 25 2023 21:16:07 GMT-0500 (Central Daylight Time)","452038","red","green","","","blur","6","104756","blurevent","","","","","","","","","","","","1"
"","","","","63e711bb284d2bc894a057a6","bdp_lott","Sat Mar 25 2023 21:16:07 GMT-0500 (Central Daylight Time)","452038","red","green","","","focus","6","107539","focusevent","","","","","","","","","","","",""
"image-keyboard-response","6","109373","0.0-5.0-1.1","63e711bb284d2bc894a057a6","bdp_lott","Sat Mar 25 2023 21:16:07 GMT-0500 (Central Daylight Time)","452038","red","green","","9620","blur","6","104756","choice","","img/green_wl/choose11.jpg","2","224","red","0.5","0.5","0.5","w","","","1"
"animation","7","109981","0.0-5.0-2.1","63e711bb284d2bc894a057a6","bdp_lott","Sat Mar 25 2023 21:16:07 GMT-0500 (Central Daylight Time)","452038","red","green","","","blur","6","104756","","","","","224","","","","","","[{""stimulus"":""img/red_ww/1.jpg"",""time"":57},{""stimulus"":""img/red_ww/2.jpg"",""time"":104},{""stimulus"":""img/red_ww/3.jpg"",""time"":152},{""stimulus"":""img/red_ww/4.jpg"",""time"":208},{""stimulus"":""img/red_ww/5.jpg"",""time"":256},{""stimulus"":""img/red_ww/6.jpg"",""time"":304},{""stimulus"":""img/red_ww/7.jpg"",""time"":352},{""stimulus"":""img/red_ww/8.jpg"",""time"":408},{""stimulus"":""img/red_ww/9.jpg"",""time"":456},{""stimulus"":""img/red_ww/10.jpg"",""time"":504},{""stimulus"":""img/red_ww/11.jpg"",""time"":553}]","[]","1"
"image-keyboard-response","8","121277","0.0-5.0-0.2-0.2","63e711bb284d2bc894a057a6","bdp_lott","Sat Mar 25 2023 21:16:07 GMT-0500 (Central Daylight Time)","452038","red","green","","11294","","","","blurwarn","","","49","","","","","","","","","1"
"image-keyboard-response","9","123253","0.0-5.0-1.2","63e711bb284d2bc894a057a6","bdp_lott","Sat Mar 25 2023 21:16:07 GMT-0500 (Central Daylight Time)","452038","red","green","","1719","","","","choice","","img/red_ww/choose11.jpg","1","223","green","0.5","0.5","0.5","w","","",""
"animation","10","123861","0.0-5.0-2.2","63e711bb284d2bc894a057a6","bdp_lott","Sat Mar 25 2023 21:16:07 GMT-0500 (Central Daylight Time)","452038","red","green","","","","","","","","","","223","","","","","","[{""stimulus"":""img/green_ww/1.jpg"",""time"":57},{""stimulus"":""img/green_ww/2.jpg"",""time"":104},{""stimulus"":""img/green_ww/3.jpg"",""time"":153},{""stimulus"":""img/green_ww/4.jpg"",""time"":208},{""stimulus"":""img/green_ww/5.jpg"",""time"":256},{""stimulus"":""img/green_ww/6.jpg"",""time"":305},{""stimulus"":""img/green_ww/7.jpg"",""time"":353},{""stimulus"":""img/green_ww/8.jpg"",""time"":409},{""stimulus"":""img/green_ww/9.jpg"",""time"":456},{""stimulus"":""img/green_ww/10.jpg"",""time"":505},{""stimulus"":""img/green_ww/11.jpg"",""time"":552}]","[]",""
"image-keyboard-response","11","125701","0.0-5.0-1.3","63e711bb284d2bc894a057a6","bdp_lott","Sat Mar 25 2023 21:16:07 GMT-0500 (Central Daylight Time)","452038","red","green","","1839","","","","choice","","img/green_ww/choose11.jpg","2","222","red","0.5","0.5","0.5","l","","",""
"animation","12","126309","0.0-5.0-2.3","63e711bb284d2bc894a057a6","bdp_lott","Sat Mar 25 2023 21:16:07 GMT-0500 (Central Daylight Time)","452038","red","green","","","","","","","","","","222","","","","","","[{""stimulus"":""img/red_wl/1.jpg"",""time"":57},{""stimulus"":""img/red_wl/2.jpg"",""time"":105},{""stimulus"":""img/red_wl/3.jpg"",""time"":152},{""stimulus"":""img/red_wl/4.jpg"",""time"":209},{""stimulus"":""img/red_wl/5.jpg"",""time"":257},{""stimulus"":""img/red_wl/6.jpg"",""time"":304},{""stimulus"":""img/red_wl/7.jpg"",""time"":352},{""stimulus"":""img/red_wl/8.jpg"",""time"":408},{""stimulus"":""img/red_wl/9.jpg"",""time"":456},{""stimulus"":""img/red_wl/10.jpg"",""time"":505},{""stimulus"":""img/red_wl/11.jpg"",""time"":552}]","[]",""
"image-keyboard-response","13","127733","0.0-5.0-1.4","63e711bb284d2bc894a057a6","bdp_lott","Sat Mar 25 2023 21:16:07 GMT-0500 (Central Daylight Time)","452038","red","green","","1423","","","","choice","","img/red_wl/choose11.jpg","1","221","green","0.5","0.5","0.5","w","","",""
"animation","14","128342","0.0-5.0-2.4","63e711bb284d2bc894a057a6","bdp_lott","Sat Mar 25 2023 21:16:07 GMT-0500 (Central Daylight Time)","452038","red","green","","","","","","","","","","221","","","","","","[{""stimulus"":""img/green_wl/1.jpg"",""time"":56},{""stimulus"":""img/green_wl/2.jpg"",""time"":104},{""stimulus"":""img/green_wl/3.jpg"",""time"":153},{""stimulus"":""img/green_wl/4.jpg"",""time"":209},{""stimulus"":""img/green_wl/5.jpg"",""time"":257},{""stimulus"":""img/green_wl/6.jpg"",""time"":304},{""stimulus"":""img/green_wl/7.jpg"",""time"":352},{""stimulus"":""img/green_wl/8.jpg"",""time"":409},{""stimulus"":""img/green_wl/9.jpg"",""time"":456},{""stimulus"":""img/green_wl/10.jpg"",""time"":505},{""stimulus"":""img/green_wl/11.jpg"",""time"":553}]","[]",""
"image-keyboard-response","15","130437","0.0-5.0-1.5","63e711bb284d2bc894a057a6","bdp_lott","Sat Mar 25 2023 21:16:07 GMT-0500 (Central Daylight Time)","452038","red","green","","2094","","","","choice","","img/green_wl/choose11.jpg","1","220","green","0.5","0.5","0.5","l","","",""
"animation","16","131045","0.0-5.0-2.5","63e711bb284d2bc894a057a6","bdp_lott","Sat Mar 25 2023 21:16:07 GMT-0500 (Central Daylight Time)","452038","red","green","","","","","","","","","","220","","","","","","[{""stimulus"":""img/green_ll/1.jpg"",""time"":57},{""stimulus"":""img/green_ll/2.jpg"",""time"":104},{""stimulus"":""img/green_ll/3.jpg"",""time"":152},{""stimulus"":""img/green_ll/4.jpg"",""time"":209},{""stimulus"":""img/green_ll/5.jpg"",""time"":256},{""stimulus"":""img/green_ll/6.jpg"",""time"":304},{""stimulus"":""img/green_ll/7.jpg"",""time"":352},{""stimulus"":""img/green_ll/8.jpg"",""time"":408},{""stimulus"":""img/green_ll/9.jpg"",""time"":457},{""stimulus"":""img/green_ll/10.jpg"",""time"":505},{""stimulus"":""img/green_ll/11.jpg"",""time"":553}]","[]",""
"image-keyboard-response","17","132173","0.0-5.0-1.6","63e711bb284d2bc894a057a6","bdp_lott","Sat Mar 25 2023 21:16:07 GMT-0500 (Central Daylight Time)","452038","red","green","","1127","","","","choice","","img/green_ll/choose11.jpg","2","219","red","0.5","0.5","0.5","l","","",""
"animation","18","132781","0.0-5.0-2.6","63e711bb284d2bc894a057a6","bdp_lott","Sat Mar 25 2023 21:16:07 GMT-0500 (Central Daylight Time)","452038","red","green","","","","","","","","","","219","","","","","","[{""stimulus"":""img/red_ll/1.jpg"",""time"":56},{""stimulus"":""img/red_ll/2.jpg"",""time"":104},{""stimulus"":""img/red_ll/3.jpg"",""time"":153},{""stimulus"":""img/red_ll/4.jpg"",""time"":209},{""stimulus"":""img/red_ll/5.jpg"",""time"":257},{""stimulus"":""img/red_ll/6.jpg"",""time"":305},{""stimulus"":""img/red_ll/7.jpg"",""time"":353},{""stimulus"":""img/red_ll/8.jpg"",""time"":409},{""stimulus"":""img/red_ll/9.jpg"",""time"":457},{""stimulus"":""img/red_ll/10.jpg"",""time"":505},{""stimulus"":""img/red_ll/11.jpg"",""time"":553}]","[]",""
"image-keyboard-response","19","133957","0.0-5.0-1.7","63e711bb284d2bc894a057a6","bdp_lott","Sat Mar 25 2023 21:16:07 GMT-0500 (Central Daylight Time)","452038","red","green","","1174","","","","choice","","img/red_ll/choose11.jpg","1","218","green","0.5","0.5","0.5","w","","",""
"animation","20","134565","0.0-5.0-2.7","63e711bb284d2bc894a057a6","bdp_lott","Sat Mar 25 2023 21:16:07 GMT-0500 (Central Daylight Time)","452038","red","green","","","","","","","","","","218","","","","","","[{""stimulus"":""img/green_wl/1.jpg"",""time"":56},{""stimulus"":""img/green_wl/2.jpg"",""time"":104},{""stimulus"":""img/green_wl/3.jpg"",""time"":152},{""stimulus"":""img/green_wl/4.jpg"",""time"":209},{""stimulus"":""img/green_wl/5.jpg"",""time"":256},{""stimulus"":""img/green_wl/6.jpg"",""time"":304},{""stimulus"":""img/green_wl/7.jpg"",""time"":353},{""stimulus"":""img/green_wl/8.jpg"",""time"":408},{""stimulus"":""img/green_wl/9.jpg"",""time"":457},{""stimulus"":""img/green_wl/10.jpg"",""time"":504},{""stimulus"":""img/green_wl/11.jpg"",""time"":552}]","[]",""
"image-keyboard-response","21","135661","0.0-5.0-1.8","63e711bb284d2bc894a057a6","bdp_lott","Sat Mar 25 2023 21:16:07 GMT-0500 (Central Daylight Time)","452038","red","green","","1095","","","","choice","","img/green_wl/choose11.jpg","2","217","red","0.5","0.5","0.5","l","","",""
"animation","22","136269","0.0-5.0-2.8","63e711bb284d2bc894a057a6","bdp_lott","Sat Mar 25 2023 21:16:07 GMT-0500 (Central Daylight Time)","452038","red","green","","","","","","","","","","217","","","","","","[{""stimulus"":""img/red_wl/1.jpg"",""time"":57},{""stimulus"":""img/red_wl/2.jpg"",""time"":105},{""stimulus"":""img/red_wl/3.jpg"",""time"":152},{""stimulus"":""img/red_wl/4.jpg"",""time"":209},{""stimulus"":""img/red_wl/5.jpg"",""time"":256},{""stimulus"":""img/red_wl/6.jpg"",""time"":305},{""stimulus"":""img/red_wl/7.jpg"",""time"":352},{""stimulus"":""img/red_wl/8.jpg"",""time"":409},{""stimulus"":""img/red_wl/9.jpg"",""time"":456},{""stimulus"":""img/red_wl/10.jpg"",""time"":504},{""stimulus"":""img/red_wl/11.jpg"",""time"":552}]","[]",""
"image-keyboard-response","23","137165","0.0-5.0-1.9","63e711bb284d2bc894a057a6","bdp_lott","Sat Mar 25 2023 21:16:07 GMT-0500 (Central Daylight Time)","452038","red","green","","895","","","","choice","","img/red_wl/choose11.jpg","1","216","green","0.5","0.5","0.5","w","","",""
"animation","24","137774","0.0-5.0-2.9","63e711bb284d2bc894a057a6","bdp_lott","Sat Mar 25 2023 21:16:07 GMT-0500 (Central Daylight Time)","452038","red","green","","","","","","","","","","216","","","","","","[{""stimulus"":""img/green_wl/1.jpg"",""time"":57},{""stimulus"":""img/green_wl/2.jpg"",""time"":104},{""stimulus"":""img/green_wl/3.jpg"",""time"":152},{""stimulus"":""img/green_wl/4.jpg"",""time"":208},{""stimulus"":""img/green_wl/5.jpg"",""time"":256},{""stimulus"":""img/green_wl/6.jpg"",""time"":305},{""stimulus"":""img/green_wl/7.jpg"",""time"":353},{""stimulus"":""img/green_wl/8.jpg"",""time"":408},{""stimulus"":""img/green_wl/9.jpg"",""time"":457},{""stimulus"":""img/green_wl/10.jpg"",""time"":504},{""stimulus"":""img/green_wl/11.jpg"",""time"":552}]","[]",""
"image-keyboard-response","25","138949","0.0-5.0-1.10","63e711bb284d2bc894a057a6","bdp_lott","Sat Mar 25 2023 21:16:07 GMT-0500 (Central Daylight Time)","452038","red","green","","1174","","","","choice","","img/green_wl/choose11.jpg","1","215","green","0.5","0.5","0.5","w","","",""
"animation","26","139557","0.0-5.0-2.10","63e711bb284d2bc894a057a6","bdp_lott","Sat Mar 25 2023 21:16:07 GMT-0500 (Central Daylight Time)","452038","red","green","","","","","","","","","","215","","","","","","[{""stimulus"":""img/green_wl/1.jpg"",""time"":56},{""stimulus"":""img/green_wl/2.jpg"",""time"":104},{""stimulus"":""img/green_wl/3.jpg"",""time"":152},{""stimulus"":""img/green_wl/4.jpg"",""time"":208},{""stimulus"":""img/green_wl/5.jpg"",""time"":257},{""stimulus"":""img/green_wl/6.jpg"",""time"":305},{""stimulus"":""img/green_wl/7.jpg"",""time"":353},{""stimulus"":""img/green_wl/8.jpg"",""time"":400},{""stimulus"":""img/green_wl/9.jpg"",""time"":456},{""stimulus"":""img/green_wl/10.jpg"",""time"":505},{""stimulus"":""img/green_wl/11.jpg"",""time"":553}]","[]",""
"image-keyboard-response","27","140869","0.0-5.0-1.11","63e711bb284d2bc894a057a6","bdp_lott","Sat Mar 25 2023 21:16:07 GMT-0500 (Central Daylight Time)","452038","red","green","","1311","","","","choice","","img/green_wl/choose11.jpg","1","214","green","0.5","0.5","0.5","w","","",""
"animation","28","141477","0.0-5.0-2.11","63e711bb284d2bc894a057a6","bdp_lott","Sat Mar 25 2023 21:16:07 GMT-0500 (Central Daylight Time)","452038","red","green","","","","","","","","","","214","","","","","","[{""stimulus"":""img/green_wl/1.jpg"",""time"":56},{""stimulus"":""img/green_wl/2.jpg"",""time"":105},{""stimulus"":""img/green_wl/3.jpg"",""time"":152},{""stimulus"":""img/green_wl/4.jpg"",""time"":208},{""stimulus"":""img/green_wl/5.jpg"",""time"":256},{""stimulus"":""img/green_wl/6.jpg"",""time"":305},{""stimulus"":""img/green_wl/7.jpg"",""time"":353},{""stimulus"":""img/green_wl/8.jpg"",""time"":408},{""stimulus"":""img/green_wl/9.jpg"",""time"":457},{""stimulus"":""img/green_wl/10.jpg"",""time"":504},{""stimulus"":""img/green_wl/11.jpg"",""time"":552}]","[]",""
"image-keyboard-response","29","142741","0.0-5.0-1.12","63e711bb284d2bc894a057a6","bdp_lott","Sat Mar 25 2023 21:16:07 GMT-0500 (Central Daylight Time)","452038","red","green","","1263","","","","choice","","img/green_wl/choose11.jpg","1","213","green","0.5","0.5","0.5","w","","",""
"animation","30","143349","0.0-5.0-2.12","63e711bb284d2bc894a057a6","bdp_lott","Sat Mar 25 2023 21:16:07 GMT-0500 (Central Daylight Time)","452038","red","green","","","","","","","","","","213","","","","","","[{""stimulus"":""img/green_wl/1.jpg"",""time"":57},{""stimulus"":""img/green_wl/2.jpg"",""time"":104},{""stimulus"":""img/green_wl/3.jpg"",""time"":153},{""stimulus"":""img/green_wl/4.jpg"",""time"":209},{""stimulus"":""img/green_wl/5.jpg"",""time"":256},{""stimulus"":""img/green_wl/6.jpg"",""time"":305},{""stimulus"":""img/green_wl/7.jpg"",""time"":353},{""stimulus"":""img/green_wl/8.jpg"",""time"":408},{""stimulus"":""img/green_wl/9.jpg"",""time"":456},{""stimulus"":""img/green_wl/10.jpg"",""time"":505},{""stimulus"":""img/green_wl/11.jpg"",""time"":552}]","[]",""
"image-keyboard-response","31","144485","0.0-5.0-1.13","63e711bb284d2bc894a057a6","bdp_lott","Sat Mar 25 2023 21:16:07 GMT-0500 (Central Daylight Time)","452038","red","green","","1135","","","","choice","","img/green_wl/choose11.jpg","1","212","green","0.5","0.5","0.5","l","","",""
"animation","32","145094","0.0-5.0-2.13","63e711bb284d2bc894a057a6","bdp_lott","Sat Mar 25 2023 21:16:07 GMT-0500 (Central Daylight Time)","452038","red","green","","","","","","","","","","212","","","","","","[{""stimulus"":""img/green_ll/1.jpg"",""time"":57},{""stimulus"":""img/green_ll/2.jpg"",""time"":105},{""stimulus"":""img/green_ll/3.jpg"",""time"":153},{""stimulus"":""img/green_ll/4.jpg"",""time"":208},{""stimulus"":""img/green_ll/5.jpg"",""time"":256},{""stimulus"":""img/green_ll/6.jpg"",""time"":305},{""stimulus"":""img/green_ll/7.jpg"",""time"":353},{""stimulus"":""img/green_ll/8.jpg"",""time"":408},{""stimulus"":""img/green_ll/9.jpg"",""time"":457},{""stimulus"":""img/green_ll/10.jpg"",""time"":505},{""stimulus"":""img/green_ll/11.jpg"",""time"":552}]","[]",""
"image-keyboard-response","33","145972","0.0-5.0-1.14","63e711bb284d2bc894a057a6","bdp_lott","Sat Mar 25 2023 21:16:07 GMT-0500 (Central Daylight Time)","452038","red","green","","878","","","","choice","","img/green_ll/choose11.jpg","2","211","red","0.5","0.5","0.5","w","","",""
"animation","34","146581","0.0-5.0-2.14","63e711bb284d2bc894a057a6","bdp_lott","Sat Mar 25 2023 21:16:07 GMT-0500 (Central Daylight Time)","452038","red","green","","","","","","","","","","211","","","","","","[{""stimulus"":""img/red_lw/1.jpg"",""time"":57},{""stimulus"":""img/red_lw/2.jpg"",""time"":104},{""stimulus"":""img/red_lw/3.jpg"",""time"":153},{""stimulus"":""img/red_lw/4.jpg"",""time"":209},{""stimulus"":""img/red_lw/5.jpg"",""time"":257},{""stimulus"":""img/red_lw/6.jpg"",""time"":304},{""stimulus"":""img/red_lw/7.jpg"",""time"":352},{""stimulus"":""img/red_lw/8.jpg"",""time"":409},{""stimulus"":""img/red_lw/9.jpg"",""time"":457},{""stimulus"":""img/red_lw/10.jpg"",""time"":504},{""stimulus"":""img/red_lw/11.jpg"",""time"":552}]","[]",""
"image-keyboard-response","35","147620","0.0-5.0-1.15","63e711bb284d2bc894a057a6","bdp_lott","Sat Mar 25 2023 21:16:07 GMT-0500 (Central Daylight Time)","452038","red","green","","1038","","","","choice","","img/red_lw/choose11.jpg","2","210","red","0.5","0.5","0.5","w","","",""
"animation","36","148229","0.0-5.0-2.15","63e711bb284d2bc894a057a6","bdp_lott","Sat Mar 25 2023 21:16:07 GMT-0500 (Central Daylight Time)","452038","red","green","","","","","","","","","","210","","","","","","[{""stimulus"":""img/red_lw/1.jpg"",""time"":56},{""stimulus"":""img/red_lw/2.jpg"",""time"":104},{""stimulus"":""img/red_lw/3.jpg"",""time"":152},{""stimulus"":""img/red_lw/4.jpg"",""time"":209},{""stimulus"":""img/red_lw/5.jpg"",""time"":256},{""stimulus"":""img/red_lw/6.jpg"",""time"":304},{""stimulus"":""img/red_lw/7.jpg"",""time"":352},{""stimulus"":""img/red_lw/8.jpg"",""time"":408},{""stimulus"":""img/red_lw/9.jpg"",""time"":457},{""stimulus"":""img/red_lw/10.jpg"",""time"":504},{""stimulus"":""img/red_lw/11.jpg"",""time"":552}]","[]",""
"image-keyboard-response","37","149340","0.0-5.0-1.16","63e711bb284d2bc894a057a6","bdp_lott","Sat Mar 25 2023 21:16:07 GMT-0500 (Central Daylight Time)","452038","red","green","","1111","","","","choice","","img/red_lw/choose11.jpg","2","209","red","0.5","0.5","0.5","l","","",""
"animation","38","149950","0.0-5.0-2.16","63e711bb284d2bc894a057a6","bdp_lott","Sat Mar 25 2023 21:16:07 GMT-0500 (Central Daylight Time)","452038","red","green","","","","","","","","","","209","","","","","","[{""stimulus"":""img/red_ll/1.jpg"",""time"":56},{""stimulus"":""img/red_ll/2.jpg"",""time"":105},{""stimulus"":""img/red_ll/3.jpg"",""time"":152},{""stimulus"":""img/red_ll/4.jpg"",""time"":208},{""stimulus"":""img/red_ll/5.jpg"",""time"":257},{""stimulus"":""img/red_ll/6.jpg"",""time"":304},{""stimulus"":""img/red_ll/7.jpg"",""time"":352},{""stimulus"":""img/red_ll/8.jpg"",""time"":408},{""stimulus"":""img/red_ll/9.jpg"",""time"":456},{""stimulus"":""img/red_ll/10.jpg"",""time"":505},{""stimulus"":""img/red_ll/11.jpg"",""time"":553}]","[]",""
"image-keyboard-response","39","150733","0.0-5.0-1.17","63e711bb284d2bc894a057a6","bdp_lott","Sat Mar 25 2023 21:16:07 GMT-0500 (Central Daylight Time)","452038","red","green","","782","","","","choice","","img/red_ll/choose11.jpg","1","208","green","0.5","0.5","0.5","w","","",""
"animation","40","151342","0.0-5.0-2.17","63e711bb284d2bc894a057a6","bdp_lott","Sat Mar 25 2023 21:16:07 GMT-0500 (Central Daylight Time)","452038","red","green","","","","","","","","","","208","","","","","","[{""stimulus"":""img/green_wl/1.jpg"",""time"":57},{""stimulus"":""img/green_wl/2.jpg"",""time"":105},{""stimulus"":""img/green_wl/3.jpg"",""time"":152},{""stimulus"":""img/green_wl/4.jpg"",""time"":208},{""stimulus"":""img/green_wl/5.jpg"",""time"":257},{""stimulus"":""img/green_wl/6.jpg"",""time"":304},{""stimulus"":""img/green_wl/7.jpg"",""time"":352},{""stimulus"":""img/green_wl/8.jpg"",""time"":409},{""stimulus"":""img/green_wl/9.jpg"",""time"":457},{""stimulus"":""img/green_wl/10.jpg"",""time"":504},{""stimulus"":""img/green_wl/11.jpg"",""time"":553}]","[]",""
"image-keyboard-response","41","152404","0.0-5.0-1.18","63e711bb284d2bc894a057a6","bdp_lott","Sat Mar 25 2023 21:16:07 GMT-0500 (Central Daylight Time)","452038","red","green","","1062","","","","choice","","img/green_wl/choose11.jpg","1","207","green","0.5","0.5","0.5","l","","",""
"animation","42","153013","0.0-5.0-2.18","63e711bb284d2bc894a057a6","bdp_lott","Sat Mar 25 2023 21:16:07 GMT-0500 (Central Daylight Time)","452038","red","green","","","","","","","","","","207","","","","","","[{""stimulus"":""img/green_ll/1.jpg"",""time"":56},{""stimulus"":""img/green_ll/2.jpg"",""time"":104},{""stimulus"":""img/green_ll/3.jpg"",""time"":153},{""stimulus"":""img/green_ll/4.jpg"",""time"":209},{""stimulus"":""img/green_ll/5.jpg"",""time"":256},{""stimulus"":""img/green_ll/6.jpg"",""time"":304},{""stimulus"":""img/green_ll/7.jpg"",""time"":352},{""stimulus"":""img/green_ll/8.jpg"",""time"":408},{""stimulus"":""img/green_ll/9.jpg"",""time"":457},{""stimulus"":""img/green_ll/10.jpg"",""time"":505},{""stimulus"":""img/green_ll/11.jpg"",""time"":552}]","[]",""
"image-keyboard-response","43","153797","0.0-5.0-1.19","63e711bb284d2bc894a057a6","bdp_lott","Sat Mar 25 2023 21:16:07 GMT-0500 (Central Daylight Time)","452038","red","green","","783","","","","choice","","img/green_ll/choose11.jpg","2","206","red","0.5","0.5","0.5","w","","",""
"animation","44","154405","0.0-5.0-2.19","63e711bb284d2bc894a057a6","bdp_lott","Sat Mar 25 2023 21:16:07 GMT-0500 (Central Daylight Time)","452038","red","green","","","","","","","","","","206","","","","","","[{""stimulus"":""img/red_lw/1.jpg"",""time"":57},{""stimulus"":""img/red_lw/2.jpg"",""time"":105},{""stimulus"":""img/red_lw/3.jpg"",""time"":153},{""stimulus"":""img/red_lw/4.jpg"",""time"":209},{""stimulus"":""img/red_lw/5.jpg"",""time"":257},{""stimulus"":""img/red_lw/6.jpg"",""time"":304},{""stimulus"":""img/red_lw/7.jpg"",""time"":353},{""stimulus"":""img/red_lw/8.jpg"",""time"":408},{""stimulus"":""img/red_lw/9.jpg"",""time"":456},{""stimulus"":""img/red_lw/10.jpg"",""time"":505},{""stimulus"":""img/red_lw/11.jpg"",""time"":552}]","[]",""
"image-keyboard-response","45","155349","0.0-5.0-1.20","63e711bb284d2bc894a057a6","bdp_lott","Sat Mar 25 2023 21:16:07 GMT-0500 (Central Daylight Time)","452038","red","green","","943","","","","choice","","img/red_lw/choose11.jpg","2","205","red","0.5","0.5","0.5","l","","",""
"animation","46","155959","0.0-5.0-2.20","63e711bb284d2bc894a057a6","bdp_lott","Sat Mar 25 2023 21:16:07 GMT-0500 (Central Daylight Time)","452038","red","green","","","","","","","","","","205","","","","","","[{""stimulus"":""img/red_ll/1.jpg"",""time"":57},{""stimulus"":""img/red_ll/2.jpg"",""time"":105},{""stimulus"":""img/red_ll/3.jpg"",""time"":153},{""stimulus"":""img/red_ll/4.jpg"",""time"":210},{""stimulus"":""img/red_ll/5.jpg"",""time"":257},{""stimulus"":""img/red_ll/6.jpg"",""time"":306},{""stimulus"":""img/red_ll/7.jpg"",""time"":354},{""stimulus"":""img/red_ll/8.jpg"",""time"":409},{""stimulus"":""img/red_ll/9.jpg"",""time"":457},{""stimulus"":""img/red_ll/10.jpg"",""time"":505},{""stimulus"":""img/red_ll/11.jpg"",""time"":553}]","[]",""
"image-keyboard-response","47","156957","0.0-5.0-1.21","63e711bb284d2bc894a057a6","bdp_lott","Sat Mar 25 2023 21:16:07 GMT-0500 (Central Daylight Time)","452038","red","green","","997","","","","choice","","img/red_ll/choose11.jpg","2","204","red","0.5","0.5","0.5","w","","",""
"animation","48","157566","0.0-5.0-2.21","63e711bb284d2bc894a057a6","bdp_lott","Sat Mar 25 2023 21:16:07 GMT-0500 (Central Daylight Time)","452038","red","green","","","","","","","","","","204","","","","","","[{""stimulus"":""img/red_lw/1.jpg"",""time"":56},{""stimulus"":""img/red_lw/2.jpg"",""time"":105},{""stimulus"":""img/red_lw/3.jpg"",""time"":152},{""stimulus"":""img/red_lw/4.jpg"",""time"":208},{""stimulus"":""img/red_lw/5.jpg"",""time"":256},{""stimulus"":""img/red_lw/6.jpg"",""time"":305},{""stimulus"":""img/red_lw/7.jpg"",""time"":352},{""stimulus"":""img/red_lw/8.jpg"",""time"":409},{""stimulus"":""img/red_lw/9.jpg"",""time"":456},{""stimulus"":""img/red_lw/10.jpg"",""time"":504},{""stimulus"":""img/red_lw/11.jpg"",""time"":552}]","[]",""
"image-keyboard-response","49","158501","0.0-5.0-1.22","63e711bb284d2bc894a057a6","bdp_lott","Sat Mar 25 2023 21:16:07 GMT-0500 (Central Daylight Time)","452038","red","green","","934","","","","choice","","img/red_lw/choose11.jpg","2","203","red","0.5","0.5","0.5","w","","",""
"animation","50","159110","0.0-5.0-2.22","63e711bb284d2bc894a057a6","bdp_lott","Sat Mar 25 2023 21:16:07 GMT-0500 (Central Daylight Time)","452038","red","green","","","","","","","","","","203","","","","","","[{""stimulus"":""img/red_lw/1.jpg"",""time"":56},{""stimulus"":""img/red_lw/2.jpg"",""time"":104},{""stimulus"":""img/red_lw/3.jpg"",""time"":151},{""stimulus"":""img/red_lw/4.jpg"",""time"":209},{""stimulus"":""img/red_lw/5.jpg"",""time"":256},{""stimulus"":""img/red_lw/6.jpg"",""time"":304},{""stimulus"":""img/red_lw/7.jpg"",""time"":352},{""stimulus"":""img/red_lw/8.jpg"",""time"":400},{""stimulus"":""img/red_lw/9.jpg"",""time"":457},{""stimulus"":""img/red_lw/10.jpg"",""time"":504},{""stimulus"":""img/red_lw/11.jpg"",""time"":553}]","[]",""
"image-keyboard-response","51","160070","0.0-5.0-1.23","63e711bb284d2bc894a057a6","bdp_lott","Sat Mar 25 2023 21:16:07 GMT-0500 (Central Daylight Time)","452038","red","green","","959","","","","choice","","img/red_lw/choose11.jpg","2","202","red","0.5","0.5","0.5","l","","",""
"animation","52","160678","0.0-5.0-2.23","63e711bb284d2bc894a057a6","bdp_lott","Sat Mar 25 2023 21:16:07 GMT-0500 (Central Daylight Time)","452038","red","green","","","","","","","","","","202","","","","","","[{""stimulus"":""img/red_ll/1.jpg"",""time"":56},{""stimulus"":""img/red_ll/2.jpg"",""time"":105},{""stimulus"":""img/red_ll/3.jpg"",""time"":152},{""stimulus"":""img/red_ll/4.jpg"",""time"":208},{""stimulus"":""img/red_ll/5.jpg"",""time"":256},{""stimulus"":""img/red_ll/6.jpg"",""time"":305},{""stimulus"":""img/red_ll/7.jpg"",""time"":352},{""stimulus"":""img/red_ll/8.jpg"",""time"":409},{""stimulus"":""img/red_ll/9.jpg"",""time"":456},{""stimulus"":""img/red_ll/10.jpg"",""time"":504},{""stimulus"":""img/red_ll/11.jpg"",""time"":552}]","[]",""
"image-keyboard-response","53","161749","0.0-5.0-1.24","63e711bb284d2bc894a057a6","bdp_lott","Sat Mar 25 2023 21:16:07 GMT-0500 (Central Daylight Time)","452038","red","green","","1070","","","","choice","","img/red_ll/choose11.jpg","2","201","red","0.5","0.5","0.5","l","","",""
"animation","54","162357","0.0-5.0-2.24","63e711bb284d2bc894a057a6","bdp_lott","Sat Mar 25 2023 21:16:07 GMT-0500 (Central Daylight Time)","452038","red","green","","","","","","","","","","201","","","","","","[{""stimulus"":""img/red_ll/1.jpg"",""time"":57},{""stimulus"":""img/red_ll/2.jpg"",""time"":104},{""stimulus"":""img/red_ll/3.jpg"",""time"":153},{""stimulus"":""img/red_ll/4.jpg"",""time"":208},{""stimulus"":""img/red_ll/5.jpg"",""time"":257},{""stimulus"":""img/red_ll/6.jpg"",""time"":304},{""stimulus"":""img/red_ll/7.jpg"",""time"":352},{""stimulus"":""img/red_ll/8.jpg"",""time"":408},{""stimulus"":""img/red_ll/9.jpg"",""time"":457},{""stimulus"":""img/red_ll/10.jpg"",""time"":504},{""stimulus"":""img/red_ll/11.jpg"",""time"":553}]","[]",""
"image-keyboard-response","55","162989","0.0-5.0-1.25","63e711bb284d2bc894a057a6","bdp_lott","Sat Mar 25 2023 21:16:07 GMT-0500 (Central Daylight Time)","452038","red","green","","631","","","","choice","","img/red_ll/choose11.jpg","1","200","green","0.5","0.5","0.5","w","","",""
"animation","56","163597","0.0-5.0-2.25","63e711bb284d2bc894a057a6","bdp_lott","Sat Mar 25 2023 21:16:07 GMT-0500 (Central Daylight Time)","452038","red","green","","","","","","","","","","200","","","","","","[{""stimulus"":""img/green_wl/1.jpg"",""time"":56},{""stimulus"":""img/green_wl/2.jpg"",""time"":104},{""stimulus"":""img/green_wl/3.jpg"",""time"":152},{""stimulus"":""img/green_wl/4.jpg"",""time"":208},{""stimulus"":""img/green_wl/5.jpg"",""time"":257},{""stimulus"":""img/green_wl/6.jpg"",""time"":305},{""stimulus"":""img/green_wl/7.jpg"",""time"":352},{""stimulus"":""img/green_wl/8.jpg"",""time"":408},{""stimulus"":""img/green_wl/9.jpg"",""time"":456},{""stimulus"":""img/green_wl/10.jpg"",""time"":504},{""stimulus"":""img/green_wl/11.jpg"",""time"":552}]","[]",""
"image-keyboard-response","57","164526","0.0-5.0-1.26","63e711bb284d2bc894a057a6","bdp_lott","Sat Mar 25 2023 21:16:07 GMT-0500 (Central Daylight Time)","452038","red","green","","928","","","","choice","","img/green_wl/choose11.jpg","1","199","green","0.5","0.5","0.5","l","","",""
"animation","58","165133","0.0-5.0-2.26","63e711bb284d2bc894a057a6","bdp_lott","Sat Mar 25 2023 21:16:07 GMT-0500 (Central Daylight Time)","452038","red","green","","","","","","","","","","199","","","","","","[{""stimulus"":""img/green_ll/1.jpg"",""time"":56},{""stimulus"":""img/green_ll/2.jpg"",""time"":105},{""stimulus"":""img/green_ll/3.jpg"",""time"":152},{""stimulus"":""img/green_ll/4.jpg"",""time"":209},{""stimulus"":""img/green_ll/5.jpg"",""time"":256},{""stimulus"":""img/green_ll/6.jpg"",""time"":304},{""stimulus"":""img/green_ll/7.jpg"",""time"":352},{""stimulus"":""img/green_ll/8.jpg"",""time"":409},{""stimulus"":""img/green_ll/9.jpg"",""time"":456},{""stimulus"":""img/green_ll/10.jpg"",""time"":504},{""stimulus"":""img/green_ll/11.jpg"",""time"":552}]","[]",""
"image-keyboard-response","59","165981","0.0-5.0-1.27","63e711bb284d2bc894a057a6","bdp_lott","Sat Mar 25 2023 21:16:07 GMT-0500 (Central Daylight Time)","452038","red","green","","847","","","","choice","","img/green_ll/choose11.jpg","1","198","green","0.5","0.5","0.5","w","","",""
"animation","60","166590","0.0-5.0-2.27","63e711bb284d2bc894a057a6","bdp_lott","Sat Mar 25 2023 21:16:07 GMT-0500 (Central Daylight Time)","452038","red","green","","","","","","","","","","198","","","","","","[{""stimulus"":""img/green_wl/1.jpg"",""time"":57},{""stimulus"":""img/green_wl/2.jpg"",""time"":105},{""stimulus"":""img/green_wl/3.jpg"",""time"":154},{""stimulus"":""img/green_wl/4.jpg"",""time"":209},{""stimulus"":""img/green_wl/5.jpg"",""time"":258},{""stimulus"":""img/green_wl/6.jpg"",""time"":305},{""stimulus"":""img/green_wl/7.jpg"",""time"":353},{""stimulus"":""img/green_wl/8.jpg"",""time"":409},{""stimulus"":""img/green_wl/9.jpg"",""time"":457},{""stimulus"":""img/green_wl/10.jpg"",""time"":505},{""stimulus"":""img/green_wl/11.jpg"",""time"":553}]","[]",""
"image-keyboard-response","61","167502","0.0-5.0-1.28","63e711bb284d2bc894a057a6","bdp_lott","Sat Mar 25 2023 21:16:07 GMT-0500 (Central Daylight Time)","452038","red","green","","911","","","","choice","","img/green_wl/choose11.jpg","1","197","green","0.5","0.5","0.5","l","","",""
"animation","62","168110","0.0-5.0-2.28","63e711bb284d2bc894a057a6","bdp_lott","Sat Mar 25 2023 21:16:07 GMT-0500 (Central Daylight Time)","452038","red","green","","","","","","","","","","197","","","","","","[{""stimulus"":""img/green_ll/1.jpg"",""time"":56},{""stimulus"":""img/green_ll/2.jpg"",""time"":104},{""stimulus"":""img/green_ll/3.jpg"",""time"":152},{""stimulus"":""img/green_ll/4.jpg"",""time"":209},{""stimulus"":""img/green_ll/5.jpg"",""time"":257},{""stimulus"":""img/green_ll/6.jpg"",""time"":305},{""stimulus"":""img/green_ll/7.jpg"",""time"":352},{""stimulus"":""img/green_ll/8.jpg"",""time"":408},{""stimulus"":""img/green_ll/9.jpg"",""time"":457},{""stimulus"":""img/green_ll/10.jpg"",""time"":504},{""stimulus"":""img/green_ll/11.jpg"",""time"":553}]","[]",""
"image-keyboard-response","63","169165","0.0-5.0-1.29","63e711bb284d2bc894a057a6","bdp_lott","Sat Mar 25 2023 21:16:07 GMT-0500 (Central Daylight Time)","452038","red","green","","1054","","","","choice","","img/green_ll/choose11.jpg","1","196","green","0.5","0.5","0.5","w","","",""
"animation","64","169774","0.0-5.0-2.29","63e711bb284d2bc894a057a6","bdp_lott","Sat Mar 25 2023 21:16:07 GMT-0500 (Central Daylight Time)","452038","red","green","","","","","","","","","","196","","","","","","[{""stimulus"":""img/green_wl/1.jpg"",""time"":57},{""stimulus"":""img/green_wl/2.jpg"",""time"":104},{""stimulus"":""img/green_wl/3.jpg"",""time"":152},{""stimulus"":""img/green_wl/4.jpg"",""time"":208},{""stimulus"":""img/green_wl/5.jpg"",""time"":256},{""stimulus"":""img/green_wl/6.jpg"",""time"":304},{""stimulus"":""img/green_wl/7.jpg"",""time"":353},{""stimulus"":""img/green_wl/8.jpg"",""time"":408},{""stimulus"":""img/green_wl/9.jpg"",""time"":456},{""stimulus"":""img/green_wl/10.jpg"",""time"":505},{""stimulus"":""img/green_wl/11.jpg"",""time"":553}]","[]",""
"image-keyboard-response","65","170933","0.0-5.0-1.30","63e711bb284d2bc894a057a6","bdp_lott","Sat Mar 25 2023 21:16:07 GMT-0500 (Central Daylight Time)","452038","red","green","","1158","","","","choice","","img/green_wl/choose11.jpg","1","195","green","0.5","0.5","0.5","l","","",""
"animation","66","171542","0.0-5.0-2.30","63e711bb284d2bc894a057a6","bdp_lott","Sat Mar 25 2023 21:16:07 GMT-0500 (Central Daylight Time)","452038","red","green","","","","","","","","","","195","","","","","","[{""stimulus"":""img/green_ll/1.jpg"",""time"":56},{""stimulus"":""img/green_ll/2.jpg"",""time"":104},{""stimulus"":""img/green_ll/3.jpg"",""time"":152},{""stimulus"":""img/green_ll/4.jpg"",""time"":208},{""stimulus"":""img/green_ll/5.jpg"",""time"":257},{""stimulus"":""img/green_ll/6.jpg"",""time"":304},{""stimulus"":""img/green_ll/7.jpg"",""time"":353},{""stimulus"":""img/green_ll/8.jpg"",""time"":408},{""stimulus"":""img/green_ll/9.jpg"",""time"":456},{""stimulus"":""img/green_ll/10.jpg"",""time"":504},{""stimulus"":""img/green_ll/11.jpg"",""time"":552}]","[]",""
"image-keyboard-response","67","172493","0.0-5.0-1.31","63e711bb284d2bc894a057a6","bdp_lott","Sat Mar 25 2023 21:16:07 GMT-0500 (Central Daylight Time)","452038","red","green","","950","","","","choice","","img/green_ll/choose11.jpg","1","194","green","0.5","0.5","0.5","w","","",""
"animation","68","173103","0.0-5.0-2.31","63e711bb284d2bc894a057a6","bdp_lott","Sat Mar 25 2023 21:16:07 GMT-0500 (Central Daylight Time)","452038","red","green","","","","","","","","","","194","","","","","","[{""stimulus"":""img/green_wl/1.jpg"",""time"":57},{""stimulus"":""img/green_wl/2.jpg"",""time"":104},{""stimulus"":""img/green_wl/3.jpg"",""time"":152},{""stimulus"":""img/green_wl/4.jpg"",""time"":208},{""stimulus"":""img/green_wl/5.jpg"",""time"":257},{""stimulus"":""img/green_wl/6.jpg"",""time"":304},{""stimulus"":""img/green_wl/7.jpg"",""time"":353},{""stimulus"":""img/green_wl/8.jpg"",""time"":408},{""stimulus"":""img/green_wl/9.jpg"",""time"":456},{""stimulus"":""img/green_wl/10.jpg"",""time"":504},{""stimulus"":""img/green_wl/11.jpg"",""time"":552}]","[]",""
"image-keyboard-response","69","174029","0.0-5.0-1.32","63e711bb284d2bc894a057a6","bdp_lott","Sat Mar 25 2023 21:16:07 GMT-0500 (Central Daylight Time)","452038","red","green","","926","","","","choice","","img/green_wl/choose11.jpg","1","193","green","0.5","0.5","0.5","w","","",""
"animation","70","174637","0.0-5.0-2.32","63e711bb284d2bc894a057a6","bdp_lott","Sat Mar 25 2023 21:16:07 GMT-0500 (Central Daylight Time)","452038","red","green","","","","","","","","","","193","","","","","","[{""stimulus"":""img/green_wl/1.jpg"",""time"":58},{""stimulus"":""img/green_wl/2.jpg"",""time"":106},{""stimulus"":""img/green_wl/3.jpg"",""time"":153},{""stimulus"":""img/green_wl/4.jpg"",""time"":210},{""stimulus"":""img/green_wl/5.jpg"",""time"":257},{""stimulus"":""img/green_wl/6.jpg"",""time"":306},{""stimulus"":""img/green_wl/7.jpg"",""time"":353},{""stimulus"":""img/green_wl/8.jpg"",""time"":409},{""stimulus"":""img/green_wl/9.jpg"",""time"":457},{""stimulus"":""img/green_wl/10.jpg"",""time"":505},{""stimulus"":""img/green_wl/11.jpg"",""time"":553}]","[]",""
"image-keyboard-response","71","175670","0.0-5.0-1.33","63e711bb284d2bc894a057a6","bdp_lott","Sat Mar 25 2023 21:16:07 GMT-0500 (Central Daylight Time)","452038","red","green","","1032","","","","choice","","img/green_wl/choose11.jpg","1","192","green","0.5","0.5","0.5","w","","",""
"animation","72","176278","0.0-5.0-2.33","63e711bb284d2bc894a057a6","bdp_lott","Sat Mar 25 2023 21:16:07 GMT-0500 (Central Daylight Time)","452038","red","green","","","","","","","","","","192","","","","","","[{""stimulus"":""img/green_wl/1.jpg"",""time"":57},{""stimulus"":""img/green_wl/2.jpg"",""time"":105},{""stimulus"":""img/green_wl/3.jpg"",""time"":152},{""stimulus"":""img/green_wl/4.jpg"",""time"":209},{""stimulus"":""img/green_wl/5.jpg"",""time"":256},{""stimulus"":""img/green_wl/6.jpg"",""time"":305},{""stimulus"":""img/green_wl/7.jpg"",""time"":353},{""stimulus"":""img/green_wl/8.jpg"",""time"":408},{""stimulus"":""img/green_wl/9.jpg"",""time"":456},{""stimulus"":""img/green_wl/10.jpg"",""time"":504},{""stimulus"":""img/green_wl/11.jpg"",""time"":552}]","[]",""
"image-keyboard-response","73","177301","0.0-5.0-1.34","63e711bb284d2bc894a057a6","bdp_lott","Sat Mar 25 2023 21:16:07 GMT-0500 (Central Daylight Time)","452038","red","green","","1022","","","","choice","","img/green_wl/choose11.jpg","1","191","green","0.5","0.5","0.5","w","","",""
"animation","74","177910","0.0-5.0-2.34","63e711bb284d2bc894a057a6","bdp_lott","Sat Mar 25 2023 21:16:07 GMT-0500 (Central Daylight Time)","452038","red","green","","","","","","","","","","191","","","","","","[{""stimulus"":""img/green_wl/1.jpg"",""time"":56},{""stimulus"":""img/green_wl/2.jpg"",""time"":105},{""stimulus"":""img/green_wl/3.jpg"",""time"":152},{""stimulus"":""img/green_wl/4.jpg"",""time"":208},{""stimulus"":""img/green_wl/5.jpg"",""time"":257},{""stimulus"":""img/green_wl/6.jpg"",""time"":305},{""stimulus"":""img/green_wl/7.jpg"",""time"":352},{""stimulus"":""img/green_wl/8.jpg"",""time"":408},{""stimulus"":""img/green_wl/9.jpg"",""time"":456},{""stimulus"":""img/green_wl/10.jpg"",""time"":504},{""stimulus"":""img/green_wl/11.jpg"",""time"":552}]","[]",""
"image-keyboard-response","75","178933","0.0-5.0-1.35","63e711bb284d2bc894a057a6","bdp_lott","Sat Mar 25 2023 21:16:07 GMT-0500 (Central Daylight Time)","452038","red","green","","1022","","","","choice","","img/green_wl/choose11.jpg","1","190","green","0.5","0.5","0.5","l","","",""
"animation","76","179542","0.0-5.0-2.35","63e711bb284d2bc894a057a6","bdp_lott","Sat Mar 25 2023 21:16:07 GMT-0500 (Central Daylight Time)","452038","red","green","","","","","","","","","","190","","","","","","[{""stimulus"":""img/green_ll/1.jpg"",""time"":57},{""stimulus"":""img/green_ll/2.jpg"",""time"":105},{""stimulus"":""img/green_ll/3.jpg"",""time"":153},{""stimulus"":""img/green_ll/4.jpg"",""time"":209},{""stimulus"":""img/green_ll/5.jpg"",""time"":257},{""stimulus"":""img/green_ll/6.jpg"",""time"":306},{""stimulus"":""img/green_ll/7.jpg"",""time"":353},{""stimulus"":""img/green_ll/8.jpg"",""time"":409},{""stimulus"":""img/green_ll/9.jpg"",""time"":457},{""stimulus"":""img/green_ll/10.jpg"",""time"":505},{""stimulus"":""img/green_ll/11.jpg"",""time"":554}]","[]",""
"image-keyboard-response","77","180501","0.0-5.0-1.36","63e711bb284d2bc894a057a6","bdp_lott","Sat Mar 25 2023 21:16:07 GMT-0500 (Central Daylight Time)","452038","red","green","","958","","","","choice","","img/green_ll/choose11.jpg","1","189","green","0.5","0.5","0.5","l","","",""
"animation","78","181110","0.0-5.0-2.36","63e711bb284d2bc894a057a6","bdp_lott","Sat Mar 25 2023 21:16:07 GMT-0500 (Central Daylight Time)","452038","red","green","","","","","","","","","","189","","","","","","[{""stimulus"":""img/green_ll/1.jpg"",""time"":57},{""stimulus"":""img/green_ll/2.jpg"",""time"":105},{""stimulus"":""img/green_ll/3.jpg"",""time"":152},{""stimulus"":""img/green_ll/4.jpg"",""time"":209},{""stimulus"":""img/green_ll/5.jpg"",""time"":256},{""stimulus"":""img/green_ll/6.jpg"",""time"":304},{""stimulus"":""img/green_ll/7.jpg"",""time"":353},{""stimulus"":""img/green_ll/8.jpg"",""time"":408},{""stimulus"":""img/green_ll/9.jpg"",""time"":456},{""stimulus"":""img/green_ll/10.jpg"",""time"":504},{""stimulus"":""img/green_ll/11.jpg"",""time"":552}]","[]",""
"image-keyboard-response","79","182013","0.0-5.0-1.37","63e711bb284d2bc894a057a6","bdp_lott","Sat Mar 25 2023 21:16:07 GMT-0500 (Central Daylight Time)","452038","red","green","","902","","","","choice","","img/green_ll/choose11.jpg","2","188","red","0.5","0.5","0.5","w","","",""
"animation","80","182622","0.0-5.0-2.37","63e711bb284d2bc894a057a6","bdp_lott","Sat Mar 25 2023 21:16:07 GMT-0500 (Central Daylight Time)","452038","red","green","","","","","","","","","","188","","","","","","[{""stimulus"":""img/red_lw/1.jpg"",""time"":57},{""stimulus"":""img/red_lw/2.jpg"",""time"":105},{""stimulus"":""img/red_lw/3.jpg"",""time"":152},{""stimulus"":""img/red_lw/4.jpg"",""time"":208},{""stimulus"":""img/red_lw/5.jpg"",""time"":256},{""stimulus"":""img/red_lw/6.jpg"",""time"":304},{""stimulus"":""img/red_lw/7.jpg"",""time"":352},{""stimulus"":""img/red_lw/8.jpg"",""time"":408},{""stimulus"":""img/red_lw/9.jpg"",""time"":456},{""stimulus"":""img/red_lw/10.jpg"",""time"":504},{""stimulus"":""img/red_lw/11.jpg"",""time"":552}]","[]",""
"image-keyboard-response","81","183573","0.0-5.0-1.38","63e711bb284d2bc894a057a6","bdp_lott","Sat Mar 25 2023 21:16:07 GMT-0500 (Central Daylight Time)","452038","red","green","","950","","","","choice","","img/red_lw/choose11.jpg","2","187","red","0.5","0.5","0.5","w","","",""
"animation","82","184182","0.0-5.0-2.38","63e711bb284d2bc894a057a6","bdp_lott","Sat Mar 25 2023 21:16:07 GMT-0500 (Central Daylight Time)","452038","red","green","","","","","","","","","","187","","","","","","[{""stimulus"":""img/red_lw/1.jpg"",""time"":57},{""stimulus"":""img/red_lw/2.jpg"",""time"":106},{""stimulus"":""img/red_lw/3.jpg"",""time"":153},{""stimulus"":""img/red_lw/4.jpg"",""time"":209},{""stimulus"":""img/red_lw/5.jpg"",""time"":257},{""stimulus"":""img/red_lw/6.jpg"",""time"":305},{""stimulus"":""img/red_lw/7.jpg"",""time"":354},{""stimulus"":""img/red_lw/8.jpg"",""time"":409},{""stimulus"":""img/red_lw/9.jpg"",""time"":457},{""stimulus"":""img/red_lw/10.jpg"",""time"":505},{""stimulus"":""img/red_lw/11.jpg"",""time"":553}]","[]",""
"image-keyboard-response","83","185101","0.0-5.0-1.39","63e711bb284d2bc894a057a6","bdp_lott","Sat Mar 25 2023 21:16:07 GMT-0500 (Central Daylight Time)","452038","red","green","","918","","","","choice","","img/red_lw/choose11.jpg","2","186","red","0.5","0.5","0.5","w","","",""
"animation","84","185710","0.0-5.0-2.39","63e711bb284d2bc894a057a6","bdp_lott","Sat Mar 25 2023 21:16:07 GMT-0500 (Central Daylight Time)","452038","red","green","","","","","","","","","","186","","","","","","[{""stimulus"":""img/red_lw/1.jpg"",""time"":57},{""stimulus"":""img/red_lw/2.jpg"",""time"":105},{""stimulus"":""img/red_lw/3.jpg"",""time"":152},{""stimulus"":""img/red_lw/4.jpg"",""time"":208},{""stimulus"":""img/red_lw/5.jpg"",""time"":256},{""stimulus"":""img/red_lw/6.jpg"",""time"":304},{""stimulus"":""img/red_lw/7.jpg"",""time"":352},{""stimulus"":""img/red_lw/8.jpg"",""time"":408},{""stimulus"":""img/red_lw/9.jpg"",""time"":457},{""stimulus"":""img/red_lw/10.jpg"",""time"":504},{""stimulus"":""img/red_lw/11.jpg"",""time"":554}]","[]",""
"image-keyboard-response","85","186590","0.0-5.0-1.40","63e711bb284d2bc894a057a6","bdp_lott","Sat Mar 25 2023 21:16:07 GMT-0500 (Central Daylight Time)","452038","red","green","","879","","","","choice","","img/red_lw/choose11.jpg","2","185","red","0.5","0.5","0.5","w","","",""
"animation","86","187197","0.0-5.0-2.40","63e711bb284d2bc894a057a6","bdp_lott","Sat Mar 25 2023 21:16:07 GMT-0500 (Central Daylight Time)","452038","red","green","","","","","","","","","","185","","","","","","[{""stimulus"":""img/red_lw/1.jpg"",""time"":56},{""stimulus"":""img/red_lw/2.jpg"",""time"":104},{""stimulus"":""img/red_lw/3.jpg"",""time"":153},{""stimulus"":""img/red_lw/4.jpg"",""time"":208},{""stimulus"":""img/red_lw/5.jpg"",""time"":256},{""stimulus"":""img/red_lw/6.jpg"",""time"":305},{""stimulus"":""img/red_lw/7.jpg"",""time"":352},{""stimulus"":""img/red_lw/8.jpg"",""time"":408},{""stimulus"":""img/red_lw/9.jpg"",""time"":457},{""stimulus"":""img/red_lw/10.jpg"",""time"":504},{""stimulus"":""img/red_lw/11.jpg"",""time"":552}]","[]",""
"image-keyboard-response","87","188014","0.0-5.0-1.41","63e711bb284d2bc894a057a6","bdp_lott","Sat Mar 25 2023 21:16:07 GMT-0500 (Central Daylight Time)","452038","red","green","","816","","","","choice","","img/red_lw/choose11.jpg","2","184","red","0.5","0.5","0.5","l","","",""
"animation","88","188621","0.0-5.0-2.41","63e711bb284d2bc894a057a6","bdp_lott","Sat Mar 25 2023 21:16:07 GMT-0500 (Central Daylight Time)","452038","red","green","","","","","","","","","","184","","","","","","[{""stimulus"":""img/red_ll/1.jpg"",""time"":56},{""stimulus"":""img/red_ll/2.jpg"",""time"":105},{""stimulus"":""img/red_ll/3.jpg"",""time"":151},{""stimulus"":""img/red_ll/4.jpg"",""time"":208},{""stimulus"":""img/red_ll/5.jpg"",""time"":256},{""stimulus"":""img/red_ll/6.jpg"",""time"":304},{""stimulus"":""img/red_ll/7.jpg"",""time"":352},{""stimulus"":""img/red_ll/8.jpg"",""time"":409},{""stimulus"":""img/red_ll/9.jpg"",""time"":456},{""stimulus"":""img/red_ll/10.jpg"",""time"":504},{""stimulus"":""img/red_ll/11.jpg"",""time"":552}]","[]",""
"image-keyboard-response","89","189509","0.0-5.0-1.42","63e711bb284d2bc894a057a6","bdp_lott","Sat Mar 25 2023 21:16:07 GMT-0500 (Central Daylight Time)","452038","red","green","","887","","","","choice","","img/red_ll/choose11.jpg","2","183","red","0.5","0.5","0.5","w","","",""
"animation","90","190118","0.0-5.0-2.42","63e711bb284d2bc894a057a6","bdp_lott","Sat Mar 25 2023 21:16:07 GMT-0500 (Central Daylight Time)","452038","red","green","","","","","","","","","","183","","","","","","[{""stimulus"":""img/red_lw/1.jpg"",""time"":56},{""stimulus"":""img/red_lw/2.jpg"",""time"":104},{""stimulus"":""img/red_lw/3.jpg"",""time"":152},{""stimulus"":""img/red_lw/4.jpg"",""time"":209},{""stimulus"":""img/red_lw/5.jpg"",""time"":256},{""stimulus"":""img/red_lw/6.jpg"",""time"":305},{""stimulus"":""img/red_lw/7.jpg"",""time"":352},{""stimulus"":""img/red_lw/8.jpg"",""time"":408},{""stimulus"":""img/red_lw/9.jpg"",""time"":456},{""stimulus"":""img/red_lw/10.jpg"",""time"":504},{""stimulus"":""img/red_lw/11.jpg"",""time"":553}]","[]",""
"image-keyboard-response","91","190869","0.0-5.0-1.43","63e711bb284d2bc894a057a6","bdp_lott","Sat Mar 25 2023 21:16:07 GMT-0500 (Central Daylight Time)","452038","red","green","","750","","","","choice","","img/red_lw/choose11.jpg","2","182","red","0.5","0.5","0.5","l","","",""
"animation","92","191477","0.0-5.0-2.43","63e711bb284d2bc894a057a6","bdp_lott","Sat Mar 25 2023 21:16:07 GMT-0500 (Central Daylight Time)","452038","red","green","","","","","","","","","","182","","","","","","[{""stimulus"":""img/red_ll/1.jpg"",""time"":57},{""stimulus"":""img/red_ll/2.jpg"",""time"":105},{""stimulus"":""img/red_ll/3.jpg"",""time"":153},{""stimulus"":""img/red_ll/4.jpg"",""time"":209},{""stimulus"":""img/red_ll/5.jpg"",""time"":257},{""stimulus"":""img/red_ll/6.jpg"",""time"":305},{""stimulus"":""img/red_ll/7.jpg"",""time"":353},{""stimulus"":""img/red_ll/8.jpg"",""time"":409},{""stimulus"":""img/red_ll/9.jpg"",""time"":457},{""stimulus"":""img/red_ll/10.jpg"",""time"":506},{""stimulus"":""img/red_ll/11.jpg"",""time"":553}]","[]",""
"image-keyboard-response","93","192365","0.0-5.0-1.44","63e711bb284d2bc894a057a6","bdp_lott","Sat Mar 25 2023 21:16:07 GMT-0500 (Central Daylight Time)","452038","red","green","","887","","","","choice","","img/red_ll/choose11.jpg","2","181","red","0.5","0.5","0.5","w","","",""
"animation","94","192973","0.0-5.0-2.44","63e711bb284d2bc894a057a6","bdp_lott","Sat Mar 25 2023 21:16:07 GMT-0500 (Central Daylight Time)","452038","red","green","","","","","","","","","","181","","","","","","[{""stimulus"":""img/red_lw/1.jpg"",""time"":58},{""stimulus"":""img/red_lw/2.jpg"",""time"":105},{""stimulus"":""img/red_lw/3.jpg"",""time"":151},{""stimulus"":""img/red_lw/4.jpg"",""time"":209},{""stimulus"":""img/red_lw/5.jpg"",""time"":256},{""stimulus"":""img/red_lw/6.jpg"",""time"":305},{""stimulus"":""img/red_lw/7.jpg"",""time"":353},{""stimulus"":""img/red_lw/8.jpg"",""time"":408},{""stimulus"":""img/red_lw/9.jpg"",""time"":457},{""stimulus"":""img/red_lw/10.jpg"",""time"":504},{""stimulus"":""img/red_lw/11.jpg"",""time"":553}]","[]",""
"image-keyboard-response","95","193773","0.0-5.0-1.45","63e711bb284d2bc894a057a6","bdp_lott","Sat Mar 25 2023 21:16:07 GMT-0500 (Central Daylight Time)","452038","red","green","","799","","","","choice","","img/red_lw/choose11.jpg","2","180","red","0.5","0.5","0.5","w","","",""
"animation","96","194382","0.0-5.0-2.45","63e711bb284d2bc894a057a6","bdp_lott","Sat Mar 25 2023 21:16:07 GMT-0500 (Central Daylight Time)","452038","red","green","","","","","","","","","","180","","","","","","[{""stimulus"":""img/red_lw/1.jpg"",""time"":56},{""stimulus"":""img/red_lw/2.jpg"",""time"":104},{""stimulus"":""img/red_lw/3.jpg"",""time"":152},{""stimulus"":""img/red_lw/4.jpg"",""time"":208},{""stimulus"":""img/red_lw/5.jpg"",""time"":257},{""stimulus"":""img/red_lw/6.jpg"",""time"":304},{""stimulus"":""img/red_lw/7.jpg"",""time"":352},{""stimulus"":""img/red_lw/8.jpg"",""time"":408},{""stimulus"":""img/red_lw/9.jpg"",""time"":457},{""stimulus"":""img/red_lw/10.jpg"",""time"":504},{""stimulus"":""img/red_lw/11.jpg"",""time"":553}]","[]",""
"image-keyboard-response","97","195269","0.0-5.0-1.46","63e711bb284d2bc894a057a6","bdp_lott","Sat Mar 25 2023 21:16:07 GMT-0500 (Central Daylight Time)","452038","red","green","","886","","","","choice","","img/red_lw/choose11.jpg","2","179","red","0.5","0.5","0.5","l","","",""
"animation","98","195879","0.0-5.0-2.46","63e711bb284d2bc894a057a6","bdp_lott","Sat Mar 25 2023 21:16:07 GMT-0500 (Central Daylight Time)","452038","red","green","","","","","","","","","","179","","","","","","[{""stimulus"":""img/red_ll/1.jpg"",""time"":56},{""stimulus"":""img/red_ll/2.jpg"",""time"":104},{""stimulus"":""img/red_ll/3.jpg"",""time"":153},{""stimulus"":""img/red_ll/4.jpg"",""time"":208},{""stimulus"":""img/red_ll/5.jpg"",""time"":256},{""stimulus"":""img/red_ll/6.jpg"",""time"":304},{""stimulus"":""img/red_ll/7.jpg"",""time"":352},{""stimulus"":""img/red_ll/8.jpg"",""time"":409},{""stimulus"":""img/red_ll/9.jpg"",""time"":456},{""stimulus"":""img/red_ll/10.jpg"",""time"":505},{""stimulus"":""img/red_ll/11.jpg"",""time"":552}]","[]",""
"image-keyboard-response","99","196758","0.0-5.0-1.47","63e711bb284d2bc894a057a6","bdp_lott","Sat Mar 25 2023 21:16:07 GMT-0500 (Central Daylight Time)","452038","red","green","","879","","","","choice","","img/red_ll/choose11.jpg","2","178","red","0.5","0.5","0.5","w","","",""
"animation","100","197366","0.0-5.0-2.47","63e711bb284d2bc894a057a6","bdp_lott","Sat Mar 25 2023 21:16:07 GMT-0500 (Central Daylight Time)","452038","red","green","","","","","","","","","","178","","","","","","[{""stimulus"":""img/red_lw/1.jpg"",""time"":57},{""stimulus"":""img/red_lw/2.jpg"",""time"":105},{""stimulus"":""img/red_lw/3.jpg"",""time"":153},{""stimulus"":""img/red_lw/4.jpg"",""time"":209},{""stimulus"":""img/red_lw/5.jpg"",""time"":256},{""stimulus"":""img/red_lw/6.jpg"",""time"":304},{""stimulus"":""img/red_lw/7.jpg"",""time"":352},{""stimulus"":""img/red_lw/8.jpg"",""time"":408},{""stimulus"":""img/red_lw/9.jpg"",""time"":456},{""stimulus"":""img/red_lw/10.jpg"",""time"":504},{""stimulus"":""img/red_lw/11.jpg"",""time"":552}]","[]",""
"image-keyboard-response","101","198182","0.0-5.0-1.48","63e711bb284d2bc894a057a6","bdp_lott","Sat Mar 25 2023 21:16:07 GMT-0500 (Central Daylight Time)","452038","red","green","","815","","","","choice","","img/red_lw/choose11.jpg","2","177","red","0.5","0.5","0.5","l","","",""
"animation","102","198790","0.0-5.0-2.48","63e711bb284d2bc894a057a6","bdp_lott","Sat Mar 25 2023 21:16:07 GMT-0500 (Central Daylight Time)","452038","red","green","","","","","","","","","","177","","","","","","[{""stimulus"":""img/red_ll/1.jpg"",""time"":56},{""stimulus"":""img/red_ll/2.jpg"",""time"":104},{""stimulus"":""img/red_ll/3.jpg"",""time"":153},{""stimulus"":""img/red_ll/4.jpg"",""time"":209},{""stimulus"":""img/red_ll/5.jpg"",""time"":256},{""stimulus"":""img/red_ll/6.jpg"",""time"":304},{""stimulus"":""img/red_ll/7.jpg"",""time"":352},{""stimulus"":""img/red_ll/8.jpg"",""time"":408},{""stimulus"":""img/red_ll/9.jpg"",""time"":456},{""stimulus"":""img/red_ll/10.jpg"",""time"":504},{""stimulus"":""img/red_ll/11.jpg"",""time"":552}]","[]",""
"image-keyboard-response","103","199757","0.0-5.0-1.49","63e711bb284d2bc894a057a6","bdp_lott","Sat Mar 25 2023 21:16:07 GMT-0500 (Central Daylight Time)","452038","red","green","","966","","","","choice","","img/red_ll/choose11.jpg","2","176","red","0.5","0.5","0.5","l","","",""
"animation","104","200366","0.0-5.0-2.49","63e711bb284d2bc894a057a6","bdp_lott","Sat Mar 25 2023 21:16:07 GMT-0500 (Central Daylight Time)","452038","red","green","","","","","","","","","","176","","","","","","[{""stimulus"":""img/red_ll/1.jpg"",""time"":56},{""stimulus"":""img/red_ll/2.jpg"",""time"":104},{""stimulus"":""img/red_ll/3.jpg"",""time"":151},{""stimulus"":""img/red_ll/4.jpg"",""time"":208},{""stimulus"":""img/red_ll/5.jpg"",""time"":256},{""stimulus"":""img/red_ll/6.jpg"",""time"":304},{""stimulus"":""img/red_ll/7.jpg"",""time"":352},{""stimulus"":""img/red_ll/8.jpg"",""time"":408},{""stimulus"":""img/red_ll/9.jpg"",""time"":457},{""stimulus"":""img/red_ll/10.jpg"",""time"":505},{""stimulus"":""img/red_ll/11.jpg"",""time"":552}]","[]",""
"image-keyboard-response","105","201022","0.0-5.0-1.50","63e711bb284d2bc894a057a6","bdp_lott","Sat Mar 25 2023 21:16:07 GMT-0500 (Central Daylight Time)","452038","red","green","","655","","","","choice","","img/red_ll/choose11.jpg","1","175","green","0.5","0.5","0.5","w","","",""
"animation","106","201630","0.0-5.0-2.50","63e711bb284d2bc894a057a6","bdp_lott","Sat Mar 25 2023 21:16:07 GMT-0500 (Central Daylight Time)","452038","red","green","","","","","","","","","","175","","","","","","[{""stimulus"":""img/green_wl/1.jpg"",""time"":57},{""stimulus"":""img/green_wl/2.jpg"",""time"":104},{""stimulus"":""img/green_wl/3.jpg"",""time"":152},{""stimulus"":""img/green_wl/4.jpg"",""time"":208},{""stimulus"":""img/green_wl/5.jpg"",""time"":256},{""stimulus"":""img/green_wl/6.jpg"",""time"":304},{""stimulus"":""img/green_wl/7.jpg"",""time"":352},{""stimulus"":""img/green_wl/8.jpg"",""time"":408},{""stimulus"":""img/green_wl/9.jpg"",""time"":456},{""stimulus"":""img/green_wl/10.jpg"",""time"":505},{""stimulus"":""img/green_wl/11.jpg"",""time"":552}]","[]",""
"image-keyboard-response","107","202373","0.0-5.0-1.51","63e711bb284d2bc894a057a6","bdp_lott","Sat Mar 25 2023 21:16:07 GMT-0500 (Central Daylight Time)","452038","red","green","","742","","","","choice","","img/green_wl/choose11.jpg","1","174","green","0.5","0.5","0.5","w","","",""
"animation","108","202982","0.0-5.0-2.51","63e711bb284d2bc894a057a6","bdp_lott","Sat Mar 25 2023 21:16:07 GMT-0500 (Central Daylight Time)","452038","red","green","","","","","","","","","","174","","","","","","[{""stimulus"":""img/green_wl/1.jpg"",""time"":57},{""stimulus"":""img/green_wl/2.jpg"",""time"":105},{""stimulus"":""img/green_wl/3.jpg"",""time"":153},{""stimulus"":""img/green_wl/4.jpg"",""time"":209},{""stimulus"":""img/green_wl/5.jpg"",""time"":257},{""stimulus"":""img/green_wl/6.jpg"",""time"":306},{""stimulus"":""img/green_wl/7.jpg"",""time"":353},{""stimulus"":""img/green_wl/8.jpg"",""time"":409},{""stimulus"":""img/green_wl/9.jpg"",""time"":457},{""stimulus"":""img/green_wl/10.jpg"",""time"":505},{""stimulus"":""img/green_wl/11.jpg"",""time"":553}]","[]",""
"image-keyboard-response","109","203749","0.0-5.0-1.52","63e711bb284d2bc894a057a6","bdp_lott","Sat Mar 25 2023 21:16:07 GMT-0500 (Central Daylight Time)","452038","red","green","","766","","","","choice","","img/green_wl/choose11.jpg","1","173","green","0.5","0.5","0.5","l","","",""
"animation","110","204358","0.0-5.0-2.52","63e711bb284d2bc894a057a6","bdp_lott","Sat Mar 25 2023 21:16:07 GMT-0500 (Central Daylight Time)","452038","red","green","","","","","","","","","","173","","","","","","[{""stimulus"":""img/green_ll/1.jpg"",""time"":58},{""stimulus"":""img/green_ll/2.jpg"",""time"":106},{""stimulus"":""img/green_ll/3.jpg"",""time"":154},{""stimulus"":""img/green_ll/4.jpg"",""time"":209},{""stimulus"":""img/green_ll/5.jpg"",""time"":257},{""stimulus"":""img/green_ll/6.jpg"",""time"":305},{""stimulus"":""img/green_ll/7.jpg"",""time"":353},{""stimulus"":""img/green_ll/8.jpg"",""time"":409},{""stimulus"":""img/green_ll/9.jpg"",""time"":457},{""stimulus"":""img/green_ll/10.jpg"",""time"":506},{""stimulus"":""img/green_ll/11.jpg"",""time"":553}]","[]",""
"image-keyboard-response","111","205245","0.0-5.0-1.53","63e711bb284d2bc894a057a6","bdp_lott","Sat Mar 25 2023 21:16:07 GMT-0500 (Central Daylight Time)","452038","red","green","","886","","","","choice","","img/green_ll/choose11.jpg","1","172","green","0.5","0.5","0.5","w","","",""
"animation","112","205854","0.0-5.0-2.53","63e711bb284d2bc894a057a6","bdp_lott","Sat Mar 25 2023 21:16:07 GMT-0500 (Central Daylight Time)","452038","red","green","","","","","","","","","","172","","","","","","[{""stimulus"":""img/green_wl/1.jpg"",""time"":57},{""stimulus"":""img/green_wl/2.jpg"",""time"":104},{""stimulus"":""img/green_wl/3.jpg"",""time"":152},{""stimulus"":""img/green_wl/4.jpg"",""time"":208},{""stimulus"":""img/green_wl/5.jpg"",""time"":256},{""stimulus"":""img/green_wl/6.jpg"",""time"":304},{""stimulus"":""img/green_wl/7.jpg"",""time"":352},{""stimulus"":""img/green_wl/8.jpg"",""time"":408},{""stimulus"":""img/green_wl/9.jpg"",""time"":456},{""stimulus"":""img/green_wl/10.jpg"",""time"":504},{""stimulus"":""img/green_wl/11.jpg"",""time"":552}]","[]",""
"image-keyboard-response","113","206685","0.0-5.0-1.54","63e711bb284d2bc894a057a6","bdp_lott","Sat Mar 25 2023 21:16:07 GMT-0500 (Central Daylight Time)","452038","red","green","","830","","","","choice","","img/green_wl/choose11.jpg","1","171","green","0.5","0.5","0.5","l","","",""
"animation","114","207294","0.0-5.0-2.54","63e711bb284d2bc894a057a6","bdp_lott","Sat Mar 25 2023 21:16:07 GMT-0500 (Central Daylight Time)","452038","red","green","","","","","","","","","","171","","","","","","[{""stimulus"":""img/green_ll/1.jpg"",""time"":56},{""stimulus"":""img/green_ll/2.jpg"",""time"":105},{""stimulus"":""img/green_ll/3.jpg"",""time"":152},{""stimulus"":""img/green_ll/4.jpg"",""time"":209},{""stimulus"":""img/green_ll/5.jpg"",""time"":257},{""stimulus"":""img/green_ll/6.jpg"",""time"":304},{""stimulus"":""img/green_ll/7.jpg"",""time"":353},{""stimulus"":""img/green_ll/8.jpg"",""time"":408},{""stimulus"":""img/green_ll/9.jpg"",""time"":456},{""stimulus"":""img/green_ll/10.jpg"",""time"":504},{""stimulus"":""img/green_ll/11.jpg"",""time"":552}]","[]",""
"image-keyboard-response","115","208231","0.0-5.0-1.55","63e711bb284d2bc894a057a6","bdp_lott","Sat Mar 25 2023 21:16:07 GMT-0500 (Central Daylight Time)","452038","red","green","","936","","","","choice","","img/green_ll/choose11.jpg","1","170","green","0.5","0.5","0.5","w","","",""
"animation","116","208838","0.0-5.0-2.55","63e711bb284d2bc894a057a6","bdp_lott","Sat Mar 25 2023 21:16:07 GMT-0500 (Central Daylight Time)","452038","red","green","","","","","","","","","","170","","","","","","[{""stimulus"":""img/green_wl/1.jpg"",""time"":55},{""stimulus"":""img/green_wl/2.jpg"",""time"":103},{""stimulus"":""img/green_wl/3.jpg"",""time"":151},{""stimulus"":""img/green_wl/4.jpg"",""time"":207},{""stimulus"":""img/green_wl/5.jpg"",""time"":255},{""stimulus"":""img/green_wl/6.jpg"",""time"":303},{""stimulus"":""img/green_wl/7.jpg"",""time"":351},{""stimulus"":""img/green_wl/8.jpg"",""time"":407},{""stimulus"":""img/green_wl/9.jpg"",""time"":455},{""stimulus"":""img/green_wl/10.jpg"",""time"":503},{""stimulus"":""img/green_wl/11.jpg"",""time"":551}]","[]",""
"image-keyboard-response","117","209701","0.0-5.0-1.56","63e711bb284d2bc894a057a6","bdp_lott","Sat Mar 25 2023 21:16:07 GMT-0500 (Central Daylight Time)","452038","red","green","","862","","","","choice","","img/green_wl/choose11.jpg","1","169","green","0.5","0.5","0.5","w","","",""
"animation","118","210310","0.0-5.0-2.56","63e711bb284d2bc894a057a6","bdp_lott","Sat Mar 25 2023 21:16:07 GMT-0500 (Central Daylight Time)","452038","red","green","","","","","","","","","","169","","","","","","[{""stimulus"":""img/green_wl/1.jpg"",""time"":56},{""stimulus"":""img/green_wl/2.jpg"",""time"":104},{""stimulus"":""img/green_wl/3.jpg"",""time"":152},{""stimulus"":""img/green_wl/4.jpg"",""time"":209},{""stimulus"":""img/green_wl/5.jpg"",""time"":256},{""stimulus"":""img/green_wl/6.jpg"",""time"":304},{""stimulus"":""img/green_wl/7.jpg"",""time"":352},{""stimulus"":""img/green_wl/8.jpg"",""time"":408},{""stimulus"":""img/green_wl/9.jpg"",""time"":456},{""stimulus"":""img/green_wl/10.jpg"",""time"":504},{""stimulus"":""img/green_wl/11.jpg"",""time"":552}]","[]",""
"image-keyboard-response","119","211221","0.0-5.0-1.57","63e711bb284d2bc894a057a6","bdp_lott","Sat Mar 25 2023 21:16:07 GMT-0500 (Central Daylight Time)","452038","red","green","","910","","","","choice","","img/green_wl/choose11.jpg","1","168","green","0.5","0.5","0.5","w","","",""
"animation","120","211830","0.0-5.0-2.57","63e711bb284d2bc894a057a6","bdp_lott","Sat Mar 25 2023 21:16:07 GMT-0500 (Central Daylight Time)","452038","red","green","","","","","","","","","","168","","","","","","[{""stimulus"":""img/green_wl/1.jpg"",""time"":58},{""stimulus"":""img/green_wl/2.jpg"",""time"":106},{""stimulus"":""img/green_wl/3.jpg"",""time"":153},{""stimulus"":""img/green_wl/4.jpg"",""time"":209},{""stimulus"":""img/green_wl/5.jpg"",""time"":257},{""stimulus"":""img/green_wl/6.jpg"",""time"":305},{""stimulus"":""img/green_wl/7.jpg"",""time"":353},{""stimulus"":""img/green_wl/8.jpg"",""time"":409},{""stimulus"":""img/green_wl/9.jpg"",""time"":457},{""stimulus"":""img/green_wl/10.jpg"",""time"":505},{""stimulus"":""img/green_wl/11.jpg"",""time"":553}]","[]",""
"image-keyboard-response","121","212934","0.0-5.0-1.58","63e711bb284d2bc894a057a6","bdp_lott","Sat Mar 25 2023 21:16:07 GMT-0500 (Central Daylight Time)","452038","red","green","","1104","","","","choice","","img/green_wl/choose11.jpg","1","167","green","0.5","0.5","0.5","w","","",""
"animation","122","213541","0.0-5.0-2.58","63e711bb284d2bc894a057a6","bdp_lott","Sat Mar 25 2023 21:16:07 GMT-0500 (Central Daylight Time)","452038","red","green","","","","","","","","","","167","","","","","","[{""stimulus"":""img/green_wl/1.jpg"",""time"":56},{""stimulus"":""img/green_wl/2.jpg"",""time"":104},{""stimulus"":""img/green_wl/3.jpg"",""time"":152},{""stimulus"":""img/green_wl/4.jpg"",""time"":208},{""stimulus"":""img/green_wl/5.jpg"",""time"":256},{""stimulus"":""img/green_wl/6.jpg"",""time"":304},{""stimulus"":""img/green_wl/7.jpg"",""time"":352},{""stimulus"":""img/green_wl/8.jpg"",""time"":408},{""stimulus"":""img/green_wl/9.jpg"",""time"":456},{""stimulus"":""img/green_wl/10.jpg"",""time"":504},{""stimulus"":""img/green_wl/11.jpg"",""time"":552}]","[]",""
"image-keyboard-response","123","214357","0.0-5.0-1.59","63e711bb284d2bc894a057a6","bdp_lott","Sat Mar 25 2023 21:16:07 GMT-0500 (Central Daylight Time)","452038","red","green","","815","","","","choice","","img/green_wl/choose11.jpg","1","166","green","0.5","0.5","0.5","w","","",""
"animation","124","214967","0.0-5.0-2.59","63e711bb284d2bc894a057a6","bdp_lott","Sat Mar 25 2023 21:16:07 GMT-0500 (Central Daylight Time)","452038","red","green","","","","","","","","","","166","","","","","","[{""stimulus"":""img/green_wl/1.jpg"",""time"":57},{""stimulus"":""img/green_wl/2.jpg"",""time"":104},{""stimulus"":""img/green_wl/3.jpg"",""time"":152},{""stimulus"":""img/green_wl/4.jpg"",""time"":208},{""stimulus"":""img/green_wl/5.jpg"",""time"":256},{""stimulus"":""img/green_wl/6.jpg"",""time"":304},{""stimulus"":""img/green_wl/7.jpg"",""time"":352},{""stimulus"":""img/green_wl/8.jpg"",""time"":408},{""stimulus"":""img/green_wl/9.jpg"",""time"":457},{""stimulus"":""img/green_wl/10.jpg"",""time"":504},{""stimulus"":""img/green_wl/11.jpg"",""time"":552}]","[]",""
"image-keyboard-response","125","215629","0.0-5.0-1.60","63e711bb284d2bc894a057a6","bdp_lott","Sat Mar 25 2023 21:16:07 GMT-0500 (Central Daylight Time)","452038","red","green","","661","","","","choice","","img/green_wl/choose11.jpg","1","165","green","0.5","0.5","0.5","l","","",""
"animation","126","216238","0.0-5.0-2.60","63e711bb284d2bc894a057a6","bdp_lott","Sat Mar 25 2023 21:16:07 GMT-0500 (Central Daylight Time)","452038","red","green","","","","","","","","","","165","","","","","","[{""stimulus"":""img/green_ll/1.jpg"",""time"":58},{""stimulus"":""img/green_ll/2.jpg"",""time"":106},{""stimulus"":""img/green_ll/3.jpg"",""time"":152},{""stimulus"":""img/green_ll/4.jpg"",""time"":209},{""stimulus"":""img/green_ll/5.jpg"",""time"":257},{""stimulus"":""img/green_ll/6.jpg"",""time"":305},{""stimulus"":""img/green_ll/7.jpg"",""time"":352},{""stimulus"":""img/green_ll/8.jpg"",""time"":408},{""stimulus"":""img/green_ll/9.jpg"",""time"":456},{""stimulus"":""img/green_ll/10.jpg"",""time"":504},{""stimulus"":""img/green_ll/11.jpg"",""time"":553}]","[]",""
"image-keyboard-response","127","217141","0.0-5.0-1.61","63e711bb284d2bc894a057a6","bdp_lott","Sat Mar 25 2023 21:16:07 GMT-0500 (Central Daylight Time)","452038","red","green","","902","","","","choice","","img/green_ll/choose11.jpg","2","164","red","0.5","0.5","0.5","l","","",""
"animation","128","217749","0.0-5.0-2.61","63e711bb284d2bc894a057a6","bdp_lott","Sat Mar 25 2023 21:16:07 GMT-0500 (Central Daylight Time)","452038","red","green","","","","","","","","","","164","","","","","","[{""stimulus"":""img/red_ll/1.jpg"",""time"":57},{""stimulus"":""img/red_ll/2.jpg"",""time"":105},{""stimulus"":""img/red_ll/3.jpg"",""time"":154},{""stimulus"":""img/red_ll/4.jpg"",""time"":209},{""stimulus"":""img/red_ll/5.jpg"",""time"":257},{""stimulus"":""img/red_ll/6.jpg"",""time"":305},{""stimulus"":""img/red_ll/7.jpg"",""time"":353},{""stimulus"":""img/red_ll/8.jpg"",""time"":409},{""stimulus"":""img/red_ll/9.jpg"",""time"":457},{""stimulus"":""img/red_ll/10.jpg"",""time"":505},{""stimulus"":""img/red_ll/11.jpg"",""time"":552}]","[]",""
"image-keyboard-response","129","218534","0.0-5.0-1.62","63e711bb284d2bc894a057a6","bdp_lott","Sat Mar 25 2023 21:16:07 GMT-0500 (Central Daylight Time)","452038","red","green","","784","","","","choice","","img/red_ll/choose11.jpg","2","163","red","0.5","0.5","0.5","l","","",""
"animation","130","219141","0.0-5.0-2.62","63e711bb284d2bc894a057a6","bdp_lott","Sat Mar 25 2023 21:16:07 GMT-0500 (Central Daylight Time)","452038","red","green","","","","","","","","","","163","","","","","","[{""stimulus"":""img/red_ll/1.jpg"",""time"":56},{""stimulus"":""img/red_ll/2.jpg"",""time"":104},{""stimulus"":""img/red_ll/3.jpg"",""time"":152},{""stimulus"":""img/red_ll/4.jpg"",""time"":207},{""stimulus"":""img/red_ll/5.jpg"",""time"":256},{""stimulus"":""img/red_ll/6.jpg"",""time"":304},{""stimulus"":""img/red_ll/7.jpg"",""time"":352},{""stimulus"":""img/red_ll/8.jpg"",""time"":408},{""stimulus"":""img/red_ll/9.jpg"",""time"":456},{""stimulus"":""img/red_ll/10.jpg"",""time"":504},{""stimulus"":""img/red_ll/11.jpg"",""time"":552}]","[]",""
"image-keyboard-response","131","220165","0.0-5.0-1.63","63e711bb284d2bc894a057a6","bdp_lott","Sat Mar 25 2023 21:16:07 GMT-0500 (Central Daylight Time)","452038","red","green","","1023","","","","choice","","img/red_ll/choose11.jpg","2","162","red","0.5","0.5","0.5","w","","",""
"animation","132","220773","0.0-5.0-2.63","63e711bb284d2bc894a057a6","bdp_lott","Sat Mar 25 2023 21:16:07 GMT-0500 (Central Daylight Time)","452038","red","green","","","","","","","","","","162","","","","","","[{""stimulus"":""img/red_lw/1.jpg"",""time"":57},{""stimulus"":""img/red_lw/2.jpg"",""time"":105},{""stimulus"":""img/red_lw/3.jpg"",""time"":153},{""stimulus"":""img/red_lw/4.jpg"",""time"":209},{""stimulus"":""img/red_lw/5.jpg"",""time"":257},{""stimulus"":""img/red_lw/6.jpg"",""time"":305},{""stimulus"":""img/red_lw/7.jpg"",""time"":353},{""stimulus"":""img/red_lw/8.jpg"",""time"":409},{""stimulus"":""img/red_lw/9.jpg"",""time"":457},{""stimulus"":""img/red_lw/10.jpg"",""time"":505},{""stimulus"":""img/red_lw/11.jpg"",""time"":553}]","[]",""
"image-keyboard-response","133","221693","0.0-5.0-1.64","63e711bb284d2bc894a057a6","bdp_lott","Sat Mar 25 2023 21:16:07 GMT-0500 (Central Daylight Time)","452038","red","green","","919","","","","choice","","img/red_lw/choose11.jpg","2","161","red","0.5","0.5","0.5","l","","",""
"animation","134","222301","0.0-5.0-2.64","63e711bb284d2bc894a057a6","bdp_lott","Sat Mar 25 2023 21:16:07 GMT-0500 (Central Daylight Time)","452038","red","green","","","","","","","","","","161","","","","","","[{""stimulus"":""img/red_ll/1.jpg"",""time"":57},{""stimulus"":""img/red_ll/2.jpg"",""time"":105},{""stimulus"":""img/red_ll/3.jpg"",""time"":153},{""stimulus"":""img/red_ll/4.jpg"",""time"":209},{""stimulus"":""img/red_ll/5.jpg"",""time"":256},{""stimulus"":""img/red_ll/6.jpg"",""time"":304},{""stimulus"":""img/red_ll/7.jpg"",""time"":353},{""stimulus"":""img/red_ll/8.jpg"",""time"":409},{""stimulus"":""img/red_ll/9.jpg"",""time"":457},{""stimulus"":""img/red_ll/10.jpg"",""time"":504},{""stimulus"":""img/red_ll/11.jpg"",""time"":553}]","[]",""
"image-keyboard-response","135","223461","0.0-5.0-1.65","63e711bb284d2bc894a057a6","bdp_lott","Sat Mar 25 2023 21:16:07 GMT-0500 (Central Daylight Time)","452038","red","green","","1159","","","","choice","","img/red_ll/choose11.jpg","1","160","green","0.5","0.5","0.5","l","","",""
"animation","136","224070","0.0-5.0-2.65","63e711bb284d2bc894a057a6","bdp_lott","Sat Mar 25 2023 21:16:07 GMT-0500 (Central Daylight Time)","452038","red","green","","","","","","","","","","160","","","","","","[{""stimulus"":""img/green_ll/1.jpg"",""time"":57},{""stimulus"":""img/green_ll/2.jpg"",""time"":105},{""stimulus"":""img/green_ll/3.jpg"",""time"":153},{""stimulus"":""img/green_ll/4.jpg"",""time"":208},{""stimulus"":""img/green_ll/5.jpg"",""time"":257},{""stimulus"":""img/green_ll/6.jpg"",""time"":305},{""stimulus"":""img/green_ll/7.jpg"",""time"":352},{""stimulus"":""img/green_ll/8.jpg"",""time"":408},{""stimulus"":""img/green_ll/9.jpg"",""time"":457},{""stimulus"":""img/green_ll/10.jpg"",""time"":505},{""stimulus"":""img/green_ll/11.jpg"",""time"":553}]","[]",""
"image-keyboard-response","137","224869","0.0-5.0-1.66","63e711bb284d2bc894a057a6","bdp_lott","Sat Mar 25 2023 21:16:07 GMT-0500 (Central Daylight Time)","452038","red","green","","798","","","","choice","","img/green_ll/choose11.jpg","1","159","green","0.5","0.5","0.5","l","","",""
"animation","138","225477","0.0-5.0-2.66","63e711bb284d2bc894a057a6","bdp_lott","Sat Mar 25 2023 21:16:07 GMT-0500 (Central Daylight Time)","452038","red","green","","","","","","","","","","159","","","","","","[{""stimulus"":""img/green_ll/1.jpg"",""time"":57},{""stimulus"":""img/green_ll/2.jpg"",""time"":105},{""stimulus"":""img/green_ll/3.jpg"",""time"":153},{""stimulus"":""img/green_ll/4.jpg"",""time"":209},{""stimulus"":""img/green_ll/5.jpg"",""time"":257},{""stimulus"":""img/green_ll/6.jpg"",""time"":305},{""stimulus"":""img/green_ll/7.jpg"",""time"":352},{""stimulus"":""img/green_ll/8.jpg"",""time"":408},{""stimulus"":""img/green_ll/9.jpg"",""time"":457},{""stimulus"":""img/green_ll/10.jpg"",""time"":505},{""stimulus"":""img/green_ll/11.jpg"",""time"":552}]","[]",""
"image-keyboard-response","139","226397","0.0-5.0-1.67","63e711bb284d2bc894a057a6","bdp_lott","Sat Mar 25 2023 21:16:07 GMT-0500 (Central Daylight Time)","452038","red","green","","918","","","","choice","","img/green_ll/choose11.jpg","1","158","green","0.5","0.5","0.5","l","","",""
"animation","140","227005","0.0-5.0-2.67","63e711bb284d2bc894a057a6","bdp_lott","Sat Mar 25 2023 21:16:07 GMT-0500 (Central Daylight Time)","452038","red","green","","","","","","","","","","158","","","","","","[{""stimulus"":""img/green_ll/1.jpg"",""time"":56},{""stimulus"":""img/green_ll/2.jpg"",""time"":104},{""stimulus"":""img/green_ll/3.jpg"",""time"":152},{""stimulus"":""img/green_ll/4.jpg"",""time"":208},{""stimulus"":""img/green_ll/5.jpg"",""time"":256},{""stimulus"":""img/green_ll/6.jpg"",""time"":304},{""stimulus"":""img/green_ll/7.jpg"",""time"":352},{""stimulus"":""img/green_ll/8.jpg"",""time"":408},{""stimulus"":""img/green_ll/9.jpg"",""time"":456},{""stimulus"":""img/green_ll/10.jpg"",""time"":504},{""stimulus"":""img/green_ll/11.jpg"",""time"":552}]","[]",""
"image-keyboard-response","141","227885","0.0-5.0-1.68","63e711bb284d2bc894a057a6","bdp_lott","Sat Mar 25 2023 21:16:07 GMT-0500 (Central Daylight Time)","452038","red","green","","879","","","","choice","","img/green_ll/choose11.jpg","1","157","green","0.5","0.5","0.5","l","","",""
"animation","142","228493","0.0-5.0-2.68","63e711bb284d2bc894a057a6","bdp_lott","Sat Mar 25 2023 21:16:07 GMT-0500 (Central Daylight Time)","452038","red","green","","","","","","","","","","157","","","","","","[{""stimulus"":""img/green_ll/1.jpg"",""time"":57},{""stimulus"":""img/green_ll/2.jpg"",""time"":105},{""stimulus"":""img/green_ll/3.jpg"",""time"":152},{""stimulus"":""img/green_ll/4.jpg"",""time"":209},{""stimulus"":""img/green_ll/5.jpg"",""time"":256},{""stimulus"":""img/green_ll/6.jpg"",""time"":305},{""stimulus"":""img/green_ll/7.jpg"",""time"":353},{""stimulus"":""img/green_ll/8.jpg"",""time"":408},{""stimulus"":""img/green_ll/9.jpg"",""time"":457},{""stimulus"":""img/green_ll/10.jpg"",""time"":505},{""stimulus"":""img/green_ll/11.jpg"",""time"":553}]","[]",""
"image-keyboard-response","143","229293","0.0-5.0-1.69","63e711bb284d2bc894a057a6","bdp_lott","Sat Mar 25 2023 21:16:07 GMT-0500 (Central Daylight Time)","452038","red","green","","799","","","","choice","","img/green_ll/choose11.jpg","1","156","green","0.5","0.5","0.5","w","","",""
"animation","144","229901","0.0-5.0-2.69","63e711bb284d2bc894a057a6","bdp_lott","Sat Mar 25 2023 21:16:07 GMT-0500 (Central Daylight Time)","452038","red","green","","","","","","","","","","156","","","","","","[{""stimulus"":""img/green_wl/1.jpg"",""time"":57},{""stimulus"":""img/green_wl/2.jpg"",""time"":105},{""stimulus"":""img/green_wl/3.jpg"",""time"":152},{""stimulus"":""img/green_wl/4.jpg"",""time"":207},{""stimulus"":""img/green_wl/5.jpg"",""time"":255},{""stimulus"":""img/green_wl/6.jpg"",""time"":304},{""stimulus"":""img/green_wl/7.jpg"",""time"":352},{""stimulus"":""img/green_wl/8.jpg"",""time"":408},{""stimulus"":""img/green_wl/9.jpg"",""time"":456},{""stimulus"":""img/green_wl/10.jpg"",""time"":504},{""stimulus"":""img/green_wl/11.jpg"",""time"":553}]","[]",""
"image-keyboard-response","145","230789","0.0-5.0-1.70","63e711bb284d2bc894a057a6","bdp_lott","Sat Mar 25 2023 21:16:07 GMT-0500 (Central Daylight Time)","452038","red","green","","886","","","","choice","","img/green_wl/choose11.jpg","1","155","green","0.5","0.5","0.5","l","","",""
"animation","146","231397","0.0-5.0-2.70","63e711bb284d2bc894a057a6","bdp_lott","Sat Mar 25 2023 21:16:07 GMT-0500 (Central Daylight Time)","452038","red","green","","","","","","","","","","155","","","","","","[{""stimulus"":""img/green_ll/1.jpg"",""time"":57},{""stimulus"":""img/green_ll/2.jpg"",""time"":106},{""stimulus"":""img/green_ll/3.jpg"",""time"":153},{""stimulus"":""img/green_ll/4.jpg"",""time"":208},{""stimulus"":""img/green_ll/5.jpg"",""time"":257},{""stimulus"":""img/green_ll/6.jpg"",""time"":304},{""stimulus"":""img/green_ll/7.jpg"",""time"":353},{""stimulus"":""img/green_ll/8.jpg"",""time"":409},{""stimulus"":""img/green_ll/9.jpg"",""time"":457},{""stimulus"":""img/green_ll/10.jpg"",""time"":505},{""stimulus"":""img/green_ll/11.jpg"",""time"":552}]","[]",""
"image-keyboard-response","147","232565","0.0-5.0-1.71","63e711bb284d2bc894a057a6","bdp_lott","Sat Mar 25 2023 21:16:07 GMT-0500 (Central Daylight Time)","452038","red","green","","1166","","","","choice","","img/green_ll/choose11.jpg","1","154","green","0.5","0.5","0.5","l","","",""
"animation","148","233174","0.0-5.0-2.71","63e711bb284d2bc894a057a6","bdp_lott","Sat Mar 25 2023 21:16:07 GMT-0500 (Central Daylight Time)","452038","red","green","","","","","","","","","","154","","","","","","[{""stimulus"":""img/green_ll/1.jpg"",""time"":57},{""stimulus"":""img/green_ll/2.jpg"",""time"":104},{""stimulus"":""img/green_ll/3.jpg"",""time"":153},{""stimulus"":""img/green_ll/4.jpg"",""time"":209},{""stimulus"":""img/green_ll/5.jpg"",""time"":257},{""stimulus"":""img/green_ll/6.jpg"",""time"":305},{""stimulus"":""img/green_ll/7.jpg"",""time"":352},{""stimulus"":""img/green_ll/8.jpg"",""time"":409},{""stimulus"":""img/green_ll/9.jpg"",""time"":457},{""stimulus"":""img/green_ll/10.jpg"",""time"":504},{""stimulus"":""img/green_ll/11.jpg"",""time"":553}]","[]",""
"image-keyboard-response","149","233877","0.0-5.0-1.72","63e711bb284d2bc894a057a6","bdp_lott","Sat Mar 25 2023 21:16:07 GMT-0500 (Central Daylight Time)","452038","red","green","","702","","","","choice","","img/green_ll/choose11.jpg","2","153","red","0.5","0.5","0.5","w","","",""
"animation","150","234485","0.0-5.0-2.72","63e711bb284d2bc894a057a6","bdp_lott","Sat Mar 25 2023 21:16:07 GMT-0500 (Central Daylight Time)","452038","red","green","","","","","","","","","","153","","","","","","[{""stimulus"":""img/red_lw/1.jpg"",""time"":56},{""stimulus"":""img/red_lw/2.jpg"",""time"":104},{""stimulus"":""img/red_lw/3.jpg"",""time"":152},{""stimulus"":""img/red_lw/4.jpg"",""time"":208},{""stimulus"":""img/red_lw/5.jpg"",""time"":256},{""stimulus"":""img/red_lw/6.jpg"",""time"":303},{""stimulus"":""img/red_lw/7.jpg"",""time"":352},{""stimulus"":""img/red_lw/8.jpg"",""time"":408},{""stimulus"":""img/red_lw/9.jpg"",""time"":457},{""stimulus"":""img/red_lw/10.jpg"",""time"":504},{""stimulus"":""img/red_lw/11.jpg"",""time"":552}]","[]",""
"image-keyboard-response","151","235381","0.0-5.0-1.73","63e711bb284d2bc894a057a6","bdp_lott","Sat Mar 25 2023 21:16:07 GMT-0500 (Central Daylight Time)","452038","red","green","","895","","","","choice","","img/red_lw/choose11.jpg","2","152","red","0.5","0.5","0.5","l","","",""
"animation","152","235989","0.0-5.0-2.73","63e711bb284d2bc894a057a6","bdp_lott","Sat Mar 25 2023 21:16:07 GMT-0500 (Central Daylight Time)","452038","red","green","","","","","","","","","","152","","","","","","[{""stimulus"":""img/red_ll/1.jpg"",""time"":57},{""stimulus"":""img/red_ll/2.jpg"",""time"":105},{""stimulus"":""img/red_ll/3.jpg"",""time"":153},{""stimulus"":""img/red_ll/4.jpg"",""time"":209},{""stimulus"":""img/red_ll/5.jpg"",""time"":257},{""stimulus"":""img/red_ll/6.jpg"",""time"":305},{""stimulus"":""img/red_ll/7.jpg"",""time"":353},{""stimulus"":""img/red_ll/8.jpg"",""time"":409},{""stimulus"":""img/red_ll/9.jpg"",""time"":457},{""stimulus"":""img/red_ll/10.jpg"",""time"":504},{""stimulus"":""img/red_ll/11.jpg"",""time"":553}]","[]",""
"image-keyboard-response","153","236989","0.0-5.0-1.74","63e711bb284d2bc894a057a6","bdp_lott","Sat Mar 25 2023 21:16:07 GMT-0500 (Central Daylight Time)","452038","red","green","","998","","","","choice","","img/red_ll/choose11.jpg","2","151","red","0.5","0.5","0.5","w","","",""
"animation","154","237598","0.0-5.0-2.74","63e711bb284d2bc894a057a6","bdp_lott","Sat Mar 25 2023 21:16:07 GMT-0500 (Central Daylight Time)","452038","red","green","","","","","","","","","","151","","","","","","[{""stimulus"":""img/red_lw/1.jpg"",""time"":57},{""stimulus"":""img/red_lw/2.jpg"",""time"":103},{""stimulus"":""img/red_lw/3.jpg"",""time"":152},{""stimulus"":""img/red_lw/4.jpg"",""time"":207},{""stimulus"":""img/red_lw/5.jpg"",""time"":256},{""stimulus"":""img/red_lw/6.jpg"",""time"":304},{""stimulus"":""img/red_lw/7.jpg"",""time"":351},{""stimulus"":""img/red_lw/8.jpg"",""time"":409},{""stimulus"":""img/red_lw/9.jpg"",""time"":456},{""stimulus"":""img/red_lw/10.jpg"",""time"":504},{""stimulus"":""img/red_lw/11.jpg"",""time"":552}]","[]",""
"image-keyboard-response","155","238541","0.0-5.0-1.75","63e711bb284d2bc894a057a6","bdp_lott","Sat Mar 25 2023 21:16:07 GMT-0500 (Central Daylight Time)","452038","red","green","","942","","","","choice","","img/red_lw/choose11.jpg","2","150","red","0.5","0.5","0.5","w","","",""
"animation","156","239149","0.0-5.0-2.75","63e711bb284d2bc894a057a6","bdp_lott","Sat Mar 25 2023 21:16:07 GMT-0500 (Central Daylight Time)","452038","red","green","","","","","","","","","","150","","","","","","[{""stimulus"":""img/red_lw/1.jpg"",""time"":57},{""stimulus"":""img/red_lw/2.jpg"",""time"":105},{""stimulus"":""img/red_lw/3.jpg"",""time"":152},{""stimulus"":""img/red_lw/4.jpg"",""time"":208},{""stimulus"":""img/red_lw/5.jpg"",""time"":257},{""stimulus"":""img/red_lw/6.jpg"",""time"":305},{""stimulus"":""img/red_lw/7.jpg"",""time"":352},{""stimulus"":""img/red_lw/8.jpg"",""time"":409},{""stimulus"":""img/red_lw/9.jpg"",""time"":457},{""stimulus"":""img/red_lw/10.jpg"",""time"":506},{""stimulus"":""img/red_lw/11.jpg"",""time"":552}]","[]",""
"image-keyboard-response","157","240045","0.0-5.0-1.76","63e711bb284d2bc894a057a6","bdp_lott","Sat Mar 25 2023 21:16:07 GMT-0500 (Central Daylight Time)","452038","red","green","","895","","","","choice","","img/red_lw/choose11.jpg","2","149","red","0.5","0.1","0.5","l","","",""
"animation","158","240654","0.0-5.0-2.76","63e711bb284d2bc894a057a6","bdp_lott","Sat Mar 25 2023 21:16:07 GMT-0500 (Central Daylight Time)","452038","red","green","","","","","","","","","","149","","","","","","[{""stimulus"":""img/red_ll/1.jpg"",""time"":56},{""stimulus"":""img/red_ll/2.jpg"",""time"":104},{""stimulus"":""img/red_ll/3.jpg"",""time"":153},{""stimulus"":""img/red_ll/4.jpg"",""time"":208},{""stimulus"":""img/red_ll/5.jpg"",""time"":257},{""stimulus"":""img/red_ll/6.jpg"",""time"":304},{""stimulus"":""img/red_ll/7.jpg"",""time"":352},{""stimulus"":""img/red_ll/8.jpg"",""time"":408},{""stimulus"":""img/red_ll/9.jpg"",""time"":456},{""stimulus"":""img/red_ll/10.jpg"",""time"":504},{""stimulus"":""img/red_ll/11.jpg"",""time"":552}]","[]",""
"image-keyboard-response","159","241709","0.0-5.0-1.77","63e711bb284d2bc894a057a6","bdp_lott","Sat Mar 25 2023 21:16:07 GMT-0500 (Central Daylight Time)","452038","red","green","","1054","","","","choice","","img/red_ll/choose11.jpg","1","148","green","0.5","0.1","0.1","l","","",""
"animation","160","242317","0.0-5.0-2.77","63e711bb284d2bc894a057a6","bdp_lott","Sat Mar 25 2023 21:16:07 GMT-0500 (Central Daylight Time)","452038","red","green","","","","","","","","","","148","","","","","","[{""stimulus"":""img/green_ll/1.jpg"",""time"":57},{""stimulus"":""img/green_ll/2.jpg"",""time"":105},{""stimulus"":""img/green_ll/3.jpg"",""time"":152},{""stimulus"":""img/green_ll/4.jpg"",""time"":208},{""stimulus"":""img/green_ll/5.jpg"",""time"":257},{""stimulus"":""img/green_ll/6.jpg"",""time"":305},{""stimulus"":""img/green_ll/7.jpg"",""time"":352},{""stimulus"":""img/green_ll/8.jpg"",""time"":409},{""stimulus"":""img/green_ll/9.jpg"",""time"":458},{""stimulus"":""img/green_ll/10.jpg"",""time"":504},{""stimulus"":""img/green_ll/11.jpg"",""time"":552}]","[]",""
"image-keyboard-response","161","243317","0.0-5.0-1.78","63e711bb284d2bc894a057a6","bdp_lott","Sat Mar 25 2023 21:16:07 GMT-0500 (Central Daylight Time)","452038","red","green","","998","","","","choice","","img/green_ll/choose11.jpg","1","147","green","0.5","0.1","0.1","w","","",""
"animation","162","243925","0.0-5.0-2.78","63e711bb284d2bc894a057a6","bdp_lott","Sat Mar 25 2023 21:16:07 GMT-0500 (Central Daylight Time)","452038","red","green","","","","","","","","","","147","","","","","","[{""stimulus"":""img/green_wl/1.jpg"",""time"":57},{""stimulus"":""img/green_wl/2.jpg"",""time"":105},{""stimulus"":""img/green_wl/3.jpg"",""time"":152},{""stimulus"":""img/green_wl/4.jpg"",""time"":209},{""stimulus"":""img/green_wl/5.jpg"",""time"":257},{""stimulus"":""img/green_wl/6.jpg"",""time"":305},{""stimulus"":""img/green_wl/7.jpg"",""time"":353},{""stimulus"":""img/green_wl/8.jpg"",""time"":409},{""stimulus"":""img/green_wl/9.jpg"",""time"":456},{""stimulus"":""img/green_wl/10.jpg"",""time"":505},{""stimulus"":""img/green_wl/11.jpg"",""time"":552}]","[]",""
"image-keyboard-response","163","244853","0.0-5.0-1.79","63e711bb284d2bc894a057a6","bdp_lott","Sat Mar 25 2023 21:16:07 GMT-0500 (Central Daylight Time)","452038","red","green","","926","","","","choice","","img/green_wl/choose11.jpg","1","146","green","0.5","0.1","0.1","l","","",""
"animation","164","245463","0.0-5.0-2.79","63e711bb284d2bc894a057a6","bdp_lott","Sat Mar 25 2023 21:16:07 GMT-0500 (Central Daylight Time)","452038","red","green","","","","","","","","","","146","","","","","","[{""stimulus"":""img/green_ll/1.jpg"",""time"":58},{""stimulus"":""img/green_ll/2.jpg"",""time"":104},{""stimulus"":""img/green_ll/3.jpg"",""time"":154},{""stimulus"":""img/green_ll/4.jpg"",""time"":210},{""stimulus"":""img/green_ll/5.jpg"",""time"":258},{""stimulus"":""img/green_ll/6.jpg"",""time"":304},{""stimulus"":""img/green_ll/7.jpg"",""time"":352},{""stimulus"":""img/green_ll/8.jpg"",""time"":409},{""stimulus"":""img/green_ll/9.jpg"",""time"":456},{""stimulus"":""img/green_ll/10.jpg"",""time"":505},{""stimulus"":""img/green_ll/11.jpg"",""time"":553}]","[]",""
"image-keyboard-response","165","246389","0.0-5.0-1.80","63e711bb284d2bc894a057a6","bdp_lott","Sat Mar 25 2023 21:16:07 GMT-0500 (Central Daylight Time)","452038","red","green","","925","","","","choice","","img/green_ll/choose11.jpg","2","145","red","0.5","0.1","0.5","w","","",""
"animation","166","246997","0.0-5.0-2.80","63e711bb284d2bc894a057a6","bdp_lott","Sat Mar 25 2023 21:16:07 GMT-0500 (Central Daylight Time)","452038","red","green","","","","","","","","","","145","","","","","","[{""stimulus"":""img/red_lw/1.jpg"",""time"":57},{""stimulus"":""img/red_lw/2.jpg"",""time"":105},{""stimulus"":""img/red_lw/3.jpg"",""time"":152},{""stimulus"":""img/red_lw/4.jpg"",""time"":209},{""stimulus"":""img/red_lw/5.jpg"",""time"":257},{""stimulus"":""img/red_lw/6.jpg"",""time"":305},{""stimulus"":""img/red_lw/7.jpg"",""time"":353},{""stimulus"":""img/red_lw/8.jpg"",""time"":408},{""stimulus"":""img/red_lw/9.jpg"",""time"":457},{""stimulus"":""img/red_lw/10.jpg"",""time"":505},{""stimulus"":""img/red_lw/11.jpg"",""time"":553}]","[]",""
"image-keyboard-response","167","248069","0.0-5.0-1.81","63e711bb284d2bc894a057a6","bdp_lott","Sat Mar 25 2023 21:16:07 GMT-0500 (Central Daylight Time)","452038","red","green","","1071","","","","choice","","img/red_lw/choose11.jpg","2","144","red","0.5","0.1","0.5","l","","",""
"animation","168","248677","0.0-5.0-2.81","63e711bb284d2bc894a057a6","bdp_lott","Sat Mar 25 2023 21:16:07 GMT-0500 (Central Daylight Time)","452038","red","green","","","","","","","","","","144","","","","","","[{""stimulus"":""img/red_ll/1.jpg"",""time"":56},{""stimulus"":""img/red_ll/2.jpg"",""time"":104},{""stimulus"":""img/red_ll/3.jpg"",""time"":151},{""stimulus"":""img/red_ll/4.jpg"",""time"":208},{""stimulus"":""img/red_ll/5.jpg"",""time"":256},{""stimulus"":""img/red_ll/6.jpg"",""time"":304},{""stimulus"":""img/red_ll/7.jpg"",""time"":351},{""stimulus"":""img/red_ll/8.jpg"",""time"":408},{""stimulus"":""img/red_ll/9.jpg"",""time"":457},{""stimulus"":""img/red_ll/10.jpg"",""time"":503},{""stimulus"":""img/red_ll/11.jpg"",""time"":552}]","[]",""
"image-keyboard-response","169","253302","0.0-5.0-1.82","63e711bb284d2bc894a057a6","bdp_lott","Sat Mar 25 2023 21:16:07 GMT-0500 (Central Daylight Time)","452038","red","green","","4624","","","","choice","","img/red_ll/choose11.jpg","1","143","green","0.5","0.1","0.1","l","","",""
"animation","170","253909","0.0-5.0-2.82","63e711bb284d2bc894a057a6","bdp_lott","Sat Mar 25 2023 21:16:07 GMT-0500 (Central Daylight Time)","452038","red","green","","","","","","","","","","143","","","","","","[{""stimulus"":""img/green_ll/1.jpg"",""time"":54},{""stimulus"":""img/green_ll/2.jpg"",""time"":103},{""stimulus"":""img/green_ll/3.jpg"",""time"":159},{""stimulus"":""img/green_ll/4.jpg"",""time"":206},{""stimulus"":""img/green_ll/5.jpg"",""time"":254},{""stimulus"":""img/green_ll/6.jpg"",""time"":302},{""stimulus"":""img/green_ll/7.jpg"",""time"":359},{""stimulus"":""img/green_ll/8.jpg"",""time"":407},{""stimulus"":""img/green_ll/9.jpg"",""time"":455},{""stimulus"":""img/green_ll/10.jpg"",""time"":503},{""stimulus"":""img/green_ll/11.jpg"",""time"":558}]","[]",""
"image-keyboard-response","171","255269","0.0-5.0-1.83","63e711bb284d2bc894a057a6","bdp_lott","Sat Mar 25 2023 21:16:07 GMT-0500 (Central Daylight Time)","452038","red","green","","1359","","","","choice","","img/green_ll/choose11.jpg","2","142","red","0.5","0.1","0.5","w","","",""
"animation","172","255878","0.0-5.0-2.83","63e711bb284d2bc894a057a6","bdp_lott","Sat Mar 25 2023 21:16:07 GMT-0500 (Central Daylight Time)","452038","red","green","","","","","","","","","","142","","","","","","[{""stimulus"":""img/red_lw/1.jpg"",""time"":57},{""stimulus"":""img/red_lw/2.jpg"",""time"":105},{""stimulus"":""img/red_lw/3.jpg"",""time"":152},{""stimulus"":""img/red_lw/4.jpg"",""time"":209},{""stimulus"":""img/red_lw/5.jpg"",""time"":257},{""stimulus"":""img/red_lw/6.jpg"",""time"":304},{""stimulus"":""img/red_lw/7.jpg"",""time"":353},{""stimulus"":""img/red_lw/8.jpg"",""time"":409},{""stimulus"":""img/red_lw/9.jpg"",""time"":456},{""stimulus"":""img/red_lw/10.jpg"",""time"":504},{""stimulus"":""img/red_lw/11.jpg"",""time"":553}]","[]",""
"image-keyboard-response","173","257045","0.0-5.0-1.84","63e711bb284d2bc894a057a6","bdp_lott","Sat Mar 25 2023 21:16:07 GMT-0500 (Central Daylight Time)","452038","red","green","","1166","","","","choice","","img/red_lw/choose11.jpg","2","141","red","0.5","0.1","0.5","w","","",""
"animation","174","257654","0.0-5.0-2.84","63e711bb284d2bc894a057a6","bdp_lott","Sat Mar 25 2023 21:16:07 GMT-0500 (Central Daylight Time)","452038","red","green","","","","","","","","","","141","","","","","","[{""stimulus"":""img/red_lw/1.jpg"",""time"":58},{""stimulus"":""img/red_lw/2.jpg"",""time"":104},{""stimulus"":""img/red_lw/3.jpg"",""time"":153},{""stimulus"":""img/red_lw/4.jpg"",""time"":208},{""stimulus"":""img/red_lw/5.jpg"",""time"":257},{""stimulus"":""img/red_lw/6.jpg"",""time"":305},{""stimulus"":""img/red_lw/7.jpg"",""time"":352},{""stimulus"":""img/red_lw/8.jpg"",""time"":408},{""stimulus"":""img/red_lw/9.jpg"",""time"":457},{""stimulus"":""img/red_lw/10.jpg"",""time"":505},{""stimulus"":""img/red_lw/11.jpg"",""time"":554}]","[]",""
"image-keyboard-response","175","258861","0.0-5.0-1.85","63e711bb284d2bc894a057a6","bdp_lott","Sat Mar 25 2023 21:16:07 GMT-0500 (Central Daylight Time)","452038","red","green","","1206","","","","choice","","img/red_lw/choose11.jpg","2","140","red","0.5","0.1","0.5","l","","",""
"animation","176","259470","0.0-5.0-2.85","63e711bb284d2bc894a057a6","bdp_lott","Sat Mar 25 2023 21:16:07 GMT-0500 (Central Daylight Time)","452038","red","green","","","","","","","","","","140","","","","","","[{""stimulus"":""img/red_ll/1.jpg"",""time"":57},{""stimulus"":""img/red_ll/2.jpg"",""time"":105},{""stimulus"":""img/red_ll/3.jpg"",""time"":153},{""stimulus"":""img/red_ll/4.jpg"",""time"":209},{""stimulus"":""img/red_ll/5.jpg"",""time"":257},{""stimulus"":""img/red_ll/6.jpg"",""time"":305},{""stimulus"":""img/red_ll/7.jpg"",""time"":353},{""stimulus"":""img/red_ll/8.jpg"",""time"":408},{""stimulus"":""img/red_ll/9.jpg"",""time"":457},{""stimulus"":""img/red_ll/10.jpg"",""time"":504},{""stimulus"":""img/red_ll/11.jpg"",""time"":552}]","[]",""
"image-keyboard-response","177","261661","0.0-5.0-1.86","63e711bb284d2bc894a057a6","bdp_lott","Sat Mar 25 2023 21:16:07 GMT-0500 (Central Daylight Time)","452038","red","green","","2190","","","","choice","","img/red_ll/choose11.jpg","2","139","red","0.5","0.1","0.5","l","","",""
"animation","178","262269","0.0-5.0-2.86","63e711bb284d2bc894a057a6","bdp_lott","Sat Mar 25 2023 21:16:07 GMT-0500 (Central Daylight Time)","452038","red","green","","","","","","","","","","139","","","","","","[{""stimulus"":""img/red_ll/1.jpg"",""time"":57},{""stimulus"":""img/red_ll/2.jpg"",""time"":105},{""stimulus"":""img/red_ll/3.jpg"",""time"":153},{""stimulus"":""img/red_ll/4.jpg"",""time"":209},{""stimulus"":""img/red_ll/5.jpg"",""time"":257},{""stimulus"":""img/red_ll/6.jpg"",""time"":304},{""stimulus"":""img/red_ll/7.jpg"",""time"":352},{""stimulus"":""img/red_ll/8.jpg"",""time"":409},{""stimulus"":""img/red_ll/9.jpg"",""time"":457},{""stimulus"":""img/red_ll/10.jpg"",""time"":504},{""stimulus"":""img/red_ll/11.jpg"",""time"":552}]","[]",""
"image-keyboard-response","179","263349","0.0-5.0-1.87","63e711bb284d2bc894a057a6","bdp_lott","Sat Mar 25 2023 21:16:07 GMT-0500 (Central Daylight Time)","452038","red","green","","1078","","","","choice","","img/red_ll/choose11.jpg","2","138","red","0.5","0.1","0.5","w","","",""
"animation","180","263957","0.0-5.0-2.87","63e711bb284d2bc894a057a6","bdp_lott","Sat Mar 25 2023 21:16:07 GMT-0500 (Central Daylight Time)","452038","red","green","","","","","","","","","","138","","","","","","[{""stimulus"":""img/red_lw/1.jpg"",""time"":56},{""stimulus"":""img/red_lw/2.jpg"",""time"":103},{""stimulus"":""img/red_lw/3.jpg"",""time"":151},{""stimulus"":""img/red_lw/4.jpg"",""time"":207},{""stimulus"":""img/red_lw/5.jpg"",""time"":255},{""stimulus"":""img/red_lw/6.jpg"",""time"":304},{""stimulus"":""img/red_lw/7.jpg"",""time"":351},{""stimulus"":""img/red_lw/8.jpg"",""time"":407},{""stimulus"":""img/red_lw/9.jpg"",""time"":455},{""stimulus"":""img/red_lw/10.jpg"",""time"":504},{""stimulus"":""img/red_lw/11.jpg"",""time"":552}]","[]",""
"image-keyboard-response","181","265157","0.0-5.0-1.88","63e711bb284d2bc894a057a6","bdp_lott","Sat Mar 25 2023 21:16:07 GMT-0500 (Central Daylight Time)","452038","red","green","","1199","","","","choice","","img/red_lw/choose11.jpg","2","137","red","0.5","0.1","0.5","l","","",""
"animation","182","265766","0.0-5.0-2.88","63e711bb284d2bc894a057a6","bdp_lott","Sat Mar 25 2023 21:16:07 GMT-0500 (Central Daylight Time)","452038","red","green","","","","","","","","","","137","","","","","","[{""stimulus"":""img/red_ll/1.jpg"",""time"":56},{""stimulus"":""img/red_ll/2.jpg"",""time"":103},{""stimulus"":""img/red_ll/3.jpg"",""time"":151},{""stimulus"":""img/red_ll/4.jpg"",""time"":208},{""stimulus"":""img/red_ll/5.jpg"",""time"":255},{""stimulus"":""img/red_ll/6.jpg"",""time"":305},{""stimulus"":""img/red_ll/7.jpg"",""time"":352},{""stimulus"":""img/red_ll/8.jpg"",""time"":408},{""stimulus"":""img/red_ll/9.jpg"",""time"":456},{""stimulus"":""img/red_ll/10.jpg"",""time"":503},{""stimulus"":""img/red_ll/11.jpg"",""time"":551}]","[]",""
"image-keyboard-response","183","267469","0.0-5.0-1.89","63e711bb284d2bc894a057a6","bdp_lott","Sat Mar 25 2023 21:16:07 GMT-0500 (Central Daylight Time)","452038","red","green","","1701","","","","choice","","img/red_ll/choose11.jpg","1","136","green","0.5","0.1","0.1","l","","",""
"animation","184","268079","0.0-5.0-2.89","63e711bb284d2bc894a057a6","bdp_lott","Sat Mar 25 2023 21:16:07 GMT-0500 (Central Daylight Time)","452038","red","green","","","","","","","","","","136","","","","","","[{""stimulus"":""img/green_ll/1.jpg"",""time"":56},{""stimulus"":""img/green_ll/2.jpg"",""time"":104},{""stimulus"":""img/green_ll/3.jpg"",""time"":152},{""stimulus"":""img/green_ll/4.jpg"",""time"":207},{""stimulus"":""img/green_ll/5.jpg"",""time"":256},{""stimulus"":""img/green_ll/6.jpg"",""time"":305},{""stimulus"":""img/green_ll/7.jpg"",""time"":352},{""stimulus"":""img/green_ll/8.jpg"",""time"":407},{""stimulus"":""img/green_ll/9.jpg"",""time"":455},{""stimulus"":""img/green_ll/10.jpg"",""time"":504},{""stimulus"":""img/green_ll/11.jpg"",""time"":552}]","[]",""
"image-keyboard-response","185","269029","0.0-5.0-1.90","63e711bb284d2bc894a057a6","bdp_lott","Sat Mar 25 2023 21:16:07 GMT-0500 (Central Daylight Time)","452038","red","green","","949","","","","choice","","img/green_ll/choose11.jpg","1","135","green","0.5","0.1","0.1","l","","",""
"animation","186","269637","0.0-5.0-2.90","63e711bb284d2bc894a057a6","bdp_lott","Sat Mar 25 2023 21:16:07 GMT-0500 (Central Daylight Time)","452038","red","green","","","","","","","","","","135","","","","","","[{""stimulus"":""img/green_ll/1.jpg"",""time"":56},{""stimulus"":""img/green_ll/2.jpg"",""time"":104},{""stimulus"":""img/green_ll/3.jpg"",""time"":153},{""stimulus"":""img/green_ll/4.jpg"",""time"":208},{""stimulus"":""img/green_ll/5.jpg"",""time"":256},{""stimulus"":""img/green_ll/6.jpg"",""time"":304},{""stimulus"":""img/green_ll/7.jpg"",""time"":352},{""stimulus"":""img/green_ll/8.jpg"",""time"":407},{""stimulus"":""img/green_ll/9.jpg"",""time"":456},{""stimulus"":""img/green_ll/10.jpg"",""time"":504},{""stimulus"":""img/green_ll/11.jpg"",""time"":552}]","[]",""
"image-keyboard-response","187","270269","0.0-5.0-1.91","63e711bb284d2bc894a057a6","bdp_lott","Sat Mar 25 2023 21:16:07 GMT-0500 (Central Daylight Time)","452038","red","green","","630","","","","choice","","img/green_ll/choose11.jpg","2","134","red","0.5","0.1","0.5","w","","",""
"animation","188","270877","0.0-5.0-2.91","63e711bb284d2bc894a057a6","bdp_lott","Sat Mar 25 2023 21:16:07 GMT-0500 (Central Daylight Time)","452038","red","green","","","","","","","","","","134","","","","","","[{""stimulus"":""img/red_lw/1.jpg"",""time"":56},{""stimulus"":""img/red_lw/2.jpg"",""time"":104},{""stimulus"":""img/red_lw/3.jpg"",""time"":151},{""stimulus"":""img/red_lw/4.jpg"",""time"":208},{""stimulus"":""img/red_lw/5.jpg"",""time"":255},{""stimulus"":""img/red_lw/6.jpg"",""time"":303},{""stimulus"":""img/red_lw/7.jpg"",""time"":351},{""stimulus"":""img/red_lw/8.jpg"",""time"":408},{""stimulus"":""img/red_lw/9.jpg"",""time"":455},{""stimulus"":""img/red_lw/10.jpg"",""time"":504},{""stimulus"":""img/red_lw/11.jpg"",""time"":551}]","[]",""
"image-keyboard-response","189","271797","0.0-5.0-1.92","63e711bb284d2bc894a057a6","bdp_lott","Sat Mar 25 2023 21:16:07 GMT-0500 (Central Daylight Time)","452038","red","green","","918","","","","choice","","img/red_lw/choose11.jpg","2","133","red","0.5","0.1","0.5","l","","",""
