"event","trial","time","trialtype","subject_id","task","startTime","totalTime","fairMachine","unfairMachine","trial_type","trial_index","time_elapsed","internal_node_id","view_history","rt","success","stimulus","key_press","roundsLeft","chosen","pFairMachWin","pUnfairMachWin","pTrialWin","outcome","animation_sequence","responses"
"focus","0","0","focusevent","63d43dc4b4b7a0e426a381cd","bdp_lott","Sun Mar 26 2023 17:11:14 GMT-0700 (Pacific Daylight Time)","299117","green","red","","","","","","","","","","","","","","","","",""
"","","","","63d43dc4b4b7a0e426a381cd","bdp_lott","Sun Mar 26 2023 17:11:14 GMT-0700 (Pacific Daylight Time)","299117","green","red","pavlovia","0","9","0.0-0.0","","","","","","","","","","","","",""
"","","","","63d43dc4b4b7a0e426a381cd","bdp_lott","Sun Mar 26 2023 17:11:14 GMT-0700 (Pacific Daylight Time)","299117","green","red","instructions","1","2704","0.0-1.0","[{""page_index"":0,""viewing_time"":2695}]","2695","","","","","","","","","","",""
"fullscreenexit","2","4148","fullscreenexit","63d43dc4b4b7a0e426a381cd","bdp_lott","Sun Mar 26 2023 17:11:14 GMT-0700 (Pacific Daylight Time)","299117","green","red","","","","","","","","","","","","","","","","",""
"","","","","63d43dc4b4b7a0e426a381cd","bdp_lott","Sun Mar 26 2023 17:11:14 GMT-0700 (Pacific Daylight Time)","299117","green","red","fullscreen","2","4934","0.0-2.0","","","true","","","","","","","","","",""
"","","","fullscreenfail","63d43dc4b4b7a0e426a381cd","bdp_lott","Sun Mar 26 2023 17:11:14 GMT-0700 (Pacific Daylight Time)","299117","green","red","image-keyboard-response","3","7031","0.0-3.0-0.0","","2093","","","32","","","","","","","",""
"","","","","63d43dc4b4b7a0e426a381cd","bdp_lott","Sun Mar 26 2023 17:11:14 GMT-0700 (Pacific Daylight Time)","299117","green","red","instructions","4","25301","0.0-4.0","[{""page_index"":0,""viewing_time"":18018}]","18019","","","","","","","","","","",""
"","","","choice","63d43dc4b4b7a0e426a381cd","bdp_lott","Sun Mar 26 2023 17:11:14 GMT-0700 (Pacific Daylight Time)","299117","green","red","image-keyboard-response","5","28098","0.0-5.0-1.0","","2796","","img/red_ll/initchoose11.jpg","2","225","red","0.5","0.5","0.5","w","",""
"","","","","63d43dc4b4b7a0e426a381cd","bdp_lott","Sun Mar 26 2023 17:11:14 GMT-0700 (Pacific Daylight Time)","299117","green","red","animation","6","28708","0.0-5.0-2.0","","","","","","225","","","","","","[{""stimulus"":""img/red_lw/1.jpg"",""time"":52},{""stimulus"":""img/red_lw/2.jpg"",""time"":101},{""stimulus"":""img/red_lw/3.jpg"",""time"":153},{""stimulus"":""img/red_lw/4.jpg"",""time"":203},{""stimulus"":""img/red_lw/5.jpg"",""time"":254},{""stimulus"":""img/red_lw/6.jpg"",""time"":305},{""stimulus"":""img/red_lw/7.jpg"",""time"":355},{""stimulus"":""img/red_lw/8.jpg"",""time"":406},{""stimulus"":""img/red_lw/9.jpg"",""time"":457},{""stimulus"":""img/red_lw/10.jpg"",""time"":508},{""stimulus"":""img/red_lw/11.jpg"",""time"":558}]","[]"
"","","","choice","63d43dc4b4b7a0e426a381cd","bdp_lott","Sun Mar 26 2023 17:11:14 GMT-0700 (Pacific Daylight Time)","299117","green","red","image-keyboard-response","7","30506","0.0-5.0-1.1","","1797","","img/red_lw/choose11.jpg","2","224","red","0.5","0.5","0.5","w","",""
"","","","","63d43dc4b4b7a0e426a381cd","bdp_lott","Sun Mar 26 2023 17:11:14 GMT-0700 (Pacific Daylight Time)","299117","green","red","animation","8","31116","0.0-5.0-2.1","","","","","","224","","","","","","[{""stimulus"":""img/red_lw/1.jpg"",""time"":52},{""stimulus"":""img/red_lw/2.jpg"",""time"":103},{""stimulus"":""img/red_lw/3.jpg"",""time"":154},{""stimulus"":""img/red_lw/4.jpg"",""time"":205},{""stimulus"":""img/red_lw/5.jpg"",""time"":256},{""stimulus"":""img/red_lw/6.jpg"",""time"":307},{""stimulus"":""img/red_lw/7.jpg"",""time"":358},{""stimulus"":""img/red_lw/8.jpg"",""time"":408},{""stimulus"":""img/red_lw/9.jpg"",""time"":458},{""stimulus"":""img/red_lw/10.jpg"",""time"":508},{""stimulus"":""img/red_lw/11.jpg"",""time"":559}]","[]"
"","","","choice","63d43dc4b4b7a0e426a381cd","bdp_lott","Sun Mar 26 2023 17:11:14 GMT-0700 (Pacific Daylight Time)","299117","green","red","image-keyboard-response","9","32269","0.0-5.0-1.2","","1152","","img/red_lw/choose11.jpg","2","223","red","0.5","0.5","0.5","l","",""
"","","","","63d43dc4b4b7a0e426a381cd","bdp_lott","Sun Mar 26 2023 17:11:14 GMT-0700 (Pacific Daylight Time)","299117","green","red","animation","10","32883","0.0-5.0-2.2","","","","","","223","","","","","","[{""stimulus"":""img/red_ll/1.jpg"",""time"":53},{""stimulus"":""img/red_ll/2.jpg"",""time"":102},{""stimulus"":""img/red_ll/3.jpg"",""time"":153},{""stimulus"":""img/red_ll/4.jpg"",""time"":205},{""stimulus"":""img/red_ll/5.jpg"",""time"":255},{""stimulus"":""img/red_ll/6.jpg"",""time"":306},{""stimulus"":""img/red_ll/7.jpg"",""time"":358},{""stimulus"":""img/red_ll/8.jpg"",""time"":409},{""stimulus"":""img/red_ll/9.jpg"",""time"":459},{""stimulus"":""img/red_ll/10.jpg"",""time"":510},{""stimulus"":""img/red_ll/11.jpg"",""time"":561}]","[]"
"","","","choice","63d43dc4b4b7a0e426a381cd","bdp_lott","Sun Mar 26 2023 17:11:14 GMT-0700 (Pacific Daylight Time)","299117","green","red","image-keyboard-response","11","34249","0.0-5.0-1.3","","1364","","img/red_ll/choose11.jpg","1","222","green","0.5","0.5","0.5","w","",""
"","","","","63d43dc4b4b7a0e426a381cd","bdp_lott","Sun Mar 26 2023 17:11:14 GMT-0700 (Pacific Daylight Time)","299117","green","red","animation","12","34863","0.0-5.0-2.3","","","","","","222","","","","","","[{""stimulus"":""img/green_wl/1.jpg"",""time"":52},{""stimulus"":""img/green_wl/2.jpg"",""time"":102},{""stimulus"":""img/green_wl/3.jpg"",""time"":153},{""stimulus"":""img/green_wl/4.jpg"",""time"":205},{""stimulus"":""img/green_wl/5.jpg"",""time"":257},{""stimulus"":""img/green_wl/6.jpg"",""time"":305},{""stimulus"":""img/green_wl/7.jpg"",""time"":357},{""stimulus"":""img/green_wl/8.jpg"",""time"":408},{""stimulus"":""img/green_wl/9.jpg"",""time"":459},{""stimulus"":""img/green_wl/10.jpg"",""time"":511},{""stimulus"":""img/green_wl/11.jpg"",""time"":563}]","[]"
"","","","choice","63d43dc4b4b7a0e426a381cd","bdp_lott","Sun Mar 26 2023 17:11:14 GMT-0700 (Pacific Daylight Time)","299117","green","red","image-keyboard-response","13","36103","0.0-5.0-1.4","","1239","","img/green_wl/choose11.jpg","1","221","green","0.5","0.5","0.5","w","",""
"","","","","63d43dc4b4b7a0e426a381cd","bdp_lott","Sun Mar 26 2023 17:11:14 GMT-0700 (Pacific Daylight Time)","299117","green","red","animation","14","36713","0.0-5.0-2.4","","","","","","221","","","","","","[{""stimulus"":""img/green_wl/1.jpg"",""time"":52},{""stimulus"":""img/green_wl/2.jpg"",""time"":103},{""stimulus"":""img/green_wl/3.jpg"",""time"":154},{""stimulus"":""img/green_wl/4.jpg"",""time"":206},{""stimulus"":""img/green_wl/5.jpg"",""time"":257},{""stimulus"":""img/green_wl/6.jpg"",""time"":306},{""stimulus"":""img/green_wl/7.jpg"",""time"":359},{""stimulus"":""img/green_wl/8.jpg"",""time"":410},{""stimulus"":""img/green_wl/9.jpg"",""time"":459},{""stimulus"":""img/green_wl/10.jpg"",""time"":510},{""stimulus"":""img/green_wl/11.jpg"",""time"":560}]","[]"
"","","","choice","63d43dc4b4b7a0e426a381cd","bdp_lott","Sun Mar 26 2023 17:11:14 GMT-0700 (Pacific Daylight Time)","299117","green","red","image-keyboard-response","15","37675","0.0-5.0-1.5","","961","","img/green_wl/choose11.jpg","1","220","green","0.5","0.5","0.5","w","",""
"","","","","63d43dc4b4b7a0e426a381cd","bdp_lott","Sun Mar 26 2023 17:11:14 GMT-0700 (Pacific Daylight Time)","299117","green","red","animation","16","38289","0.0-5.0-2.5","","","","","","220","","","","","","[{""stimulus"":""img/green_wl/1.jpg"",""time"":51},{""stimulus"":""img/green_wl/2.jpg"",""time"":101},{""stimulus"":""img/green_wl/3.jpg"",""time"":153},{""stimulus"":""img/green_wl/4.jpg"",""time"":205},{""stimulus"":""img/green_wl/5.jpg"",""time"":257},{""stimulus"":""img/green_wl/6.jpg"",""time"":307},{""stimulus"":""img/green_wl/7.jpg"",""time"":358},{""stimulus"":""img/green_wl/8.jpg"",""time"":409},{""stimulus"":""img/green_wl/9.jpg"",""time"":461},{""stimulus"":""img/green_wl/10.jpg"",""time"":511},{""stimulus"":""img/green_wl/11.jpg"",""time"":563}]","[]"
"","","","choice","63d43dc4b4b7a0e426a381cd","bdp_lott","Sun Mar 26 2023 17:11:14 GMT-0700 (Pacific Daylight Time)","299117","green","red","image-keyboard-response","17","39176","0.0-5.0-1.6","","887","","img/green_wl/choose11.jpg","1","219","green","0.5","0.5","0.5","w","",""
"","","","","63d43dc4b4b7a0e426a381cd","bdp_lott","Sun Mar 26 2023 17:11:14 GMT-0700 (Pacific Daylight Time)","299117","green","red","animation","18","39790","0.0-5.0-2.6","","","","","","219","","","","","","[{""stimulus"":""img/green_wl/1.jpg"",""time"":52},{""stimulus"":""img/green_wl/2.jpg"",""time"":103},{""stimulus"":""img/green_wl/3.jpg"",""time"":153},{""stimulus"":""img/green_wl/4.jpg"",""time"":205},{""stimulus"":""img/green_wl/5.jpg"",""time"":257},{""stimulus"":""img/green_wl/6.jpg"",""time"":308},{""stimulus"":""img/green_wl/7.jpg"",""time"":359},{""stimulus"":""img/green_wl/8.jpg"",""time"":412},{""stimulus"":""img/green_wl/9.jpg"",""time"":462},{""stimulus"":""img/green_wl/10.jpg"",""time"":513},{""stimulus"":""img/green_wl/11.jpg"",""time"":563}]","[]"
"","","","choice","63d43dc4b4b7a0e426a381cd","bdp_lott","Sun Mar 26 2023 17:11:14 GMT-0700 (Pacific Daylight Time)","299117","green","red","image-keyboard-response","19","40574","0.0-5.0-1.7","","782","","img/green_wl/choose11.jpg","1","218","green","0.5","0.5","0.5","l","",""
"","","","","63d43dc4b4b7a0e426a381cd","bdp_lott","Sun Mar 26 2023 17:11:14 GMT-0700 (Pacific Daylight Time)","299117","green","red","animation","20","41187","0.0-5.0-2.7","","","","","","218","","","","","","[{""stimulus"":""img/green_ll/1.jpg"",""time"":50},{""stimulus"":""img/green_ll/2.jpg"",""time"":101},{""stimulus"":""img/green_ll/3.jpg"",""time"":151},{""stimulus"":""img/green_ll/4.jpg"",""time"":202},{""stimulus"":""img/green_ll/5.jpg"",""time"":254},{""stimulus"":""img/green_ll/6.jpg"",""time"":304},{""stimulus"":""img/green_ll/7.jpg"",""time"":355},{""stimulus"":""img/green_ll/8.jpg"",""time"":407},{""stimulus"":""img/green_ll/9.jpg"",""time"":458},{""stimulus"":""img/green_ll/10.jpg"",""time"":509},{""stimulus"":""img/green_ll/11.jpg"",""time"":560}]","[]"
"","","","choice","63d43dc4b4b7a0e426a381cd","bdp_lott","Sun Mar 26 2023 17:11:14 GMT-0700 (Pacific Daylight Time)","299117","green","red","image-keyboard-response","21","42450","0.0-5.0-1.8","","1263","","img/green_ll/choose11.jpg","2","217","red","0.5","0.5","0.5","l","",""
"","","","","63d43dc4b4b7a0e426a381cd","bdp_lott","Sun Mar 26 2023 17:11:14 GMT-0700 (Pacific Daylight Time)","299117","green","red","animation","22","43057","0.0-5.0-2.8","","","","","","217","","","","","","[{""stimulus"":""img/red_ll/1.jpg"",""time"":52},{""stimulus"":""img/red_ll/2.jpg"",""time"":102},{""stimulus"":""img/red_ll/3.jpg"",""time"":154},{""stimulus"":""img/red_ll/4.jpg"",""time"":204},{""stimulus"":""img/red_ll/5.jpg"",""time"":254},{""stimulus"":""img/red_ll/6.jpg"",""time"":304},{""stimulus"":""img/red_ll/7.jpg"",""time"":355},{""stimulus"":""img/red_ll/8.jpg"",""time"":404},{""stimulus"":""img/red_ll/9.jpg"",""time"":455},{""stimulus"":""img/red_ll/10.jpg"",""time"":505},{""stimulus"":""img/red_ll/11.jpg"",""time"":556}]","[]"
"","","","choice","63d43dc4b4b7a0e426a381cd","bdp_lott","Sun Mar 26 2023 17:11:14 GMT-0700 (Pacific Daylight Time)","299117","green","red","image-keyboard-response","23","44459","0.0-5.0-1.9","","1400","","img/red_ll/choose11.jpg","1","216","green","0.5","0.5","0.5","l","",""
"","","","","63d43dc4b4b7a0e426a381cd","bdp_lott","Sun Mar 26 2023 17:11:14 GMT-0700 (Pacific Daylight Time)","299117","green","red","animation","24","45071","0.0-5.0-2.9","","","","","","216","","","","","","[{""stimulus"":""img/green_ll/1.jpg"",""time"":51},{""stimulus"":""img/green_ll/2.jpg"",""time"":102},{""stimulus"":""img/green_ll/3.jpg"",""time"":153},{""stimulus"":""img/green_ll/4.jpg"",""time"":203},{""stimulus"":""img/green_ll/5.jpg"",""time"":253},{""stimulus"":""img/green_ll/6.jpg"",""time"":304},{""stimulus"":""img/green_ll/7.jpg"",""time"":355},{""stimulus"":""img/green_ll/8.jpg"",""time"":407},{""stimulus"":""img/green_ll/9.jpg"",""time"":457},{""stimulus"":""img/green_ll/10.jpg"",""time"":507},{""stimulus"":""img/green_ll/11.jpg"",""time"":558}]","[]"
"","","","choice","63d43dc4b4b7a0e426a381cd","bdp_lott","Sun Mar 26 2023 17:11:14 GMT-0700 (Pacific Daylight Time)","299117","green","red","image-keyboard-response","25","46108","0.0-5.0-1.10","","1036","","img/green_ll/choose11.jpg","2","215","red","0.5","0.5","0.5","w","",""
"","","","","63d43dc4b4b7a0e426a381cd","bdp_lott","Sun Mar 26 2023 17:11:14 GMT-0700 (Pacific Daylight Time)","299117","green","red","animation","26","46715","0.0-5.0-2.10","","","","","","215","","","","","","[{""stimulus"":""img/red_lw/1.jpg"",""time"":53},{""stimulus"":""img/red_lw/2.jpg"",""time"":102},{""stimulus"":""img/red_lw/3.jpg"",""time"":152},{""stimulus"":""img/red_lw/4.jpg"",""time"":202},{""stimulus"":""img/red_lw/5.jpg"",""time"":252},{""stimulus"":""img/red_lw/6.jpg"",""time"":304},{""stimulus"":""img/red_lw/7.jpg"",""time"":355},{""stimulus"":""img/red_lw/8.jpg"",""time"":405},{""stimulus"":""img/red_lw/9.jpg"",""time"":456},{""stimulus"":""img/red_lw/10.jpg"",""time"":507},{""stimulus"":""img/red_lw/11.jpg"",""time"":557}]","[]"
"","","","choice","63d43dc4b4b7a0e426a381cd","bdp_lott","Sun Mar 26 2023 17:11:14 GMT-0700 (Pacific Daylight Time)","299117","green","red","image-keyboard-response","27","47612","0.0-5.0-1.11","","896","","img/red_lw/choose11.jpg","2","214","red","0.5","0.5","0.5","w","",""
"","","","","63d43dc4b4b7a0e426a381cd","bdp_lott","Sun Mar 26 2023 17:11:14 GMT-0700 (Pacific Daylight Time)","299117","green","red","animation","28","48222","0.0-5.0-2.11","","","","","","214","","","","","","[{""stimulus"":""img/red_lw/1.jpg"",""time"":51},{""stimulus"":""img/red_lw/2.jpg"",""time"":101},{""stimulus"":""img/red_lw/3.jpg"",""time"":151},{""stimulus"":""img/red_lw/4.jpg"",""time"":202},{""stimulus"":""img/red_lw/5.jpg"",""time"":253},{""stimulus"":""img/red_lw/6.jpg"",""time"":304},{""stimulus"":""img/red_lw/7.jpg"",""time"":356},{""stimulus"":""img/red_lw/8.jpg"",""time"":407},{""stimulus"":""img/red_lw/9.jpg"",""time"":457},{""stimulus"":""img/red_lw/10.jpg"",""time"":509},{""stimulus"":""img/red_lw/11.jpg"",""time"":559}]","[]"
"","","","choice","63d43dc4b4b7a0e426a381cd","bdp_lott","Sun Mar 26 2023 17:11:14 GMT-0700 (Pacific Daylight Time)","299117","green","red","image-keyboard-response","29","48905","0.0-5.0-1.12","","682","","img/red_lw/choose11.jpg","2","213","red","0.5","0.5","0.5","l","",""
"","","","","63d43dc4b4b7a0e426a381cd","bdp_lott","Sun Mar 26 2023 17:11:14 GMT-0700 (Pacific Daylight Time)","299117","green","red","animation","30","49516","0.0-5.0-2.12","","","","","","213","","","","","","[{""stimulus"":""img/red_ll/1.jpg"",""time"":50},{""stimulus"":""img/red_ll/2.jpg"",""time"":100},{""stimulus"":""img/red_ll/3.jpg"",""time"":152},{""stimulus"":""img/red_ll/4.jpg"",""time"":203},{""stimulus"":""img/red_ll/5.jpg"",""time"":253},{""stimulus"":""img/red_ll/6.jpg"",""time"":303},{""stimulus"":""img/red_ll/7.jpg"",""time"":353},{""stimulus"":""img/red_ll/8.jpg"",""time"":405},{""stimulus"":""img/red_ll/9.jpg"",""time"":457},{""stimulus"":""img/red_ll/10.jpg"",""time"":507},{""stimulus"":""img/red_ll/11.jpg"",""time"":559}]","[]"
"","","","choice","63d43dc4b4b7a0e426a381cd","bdp_lott","Sun Mar 26 2023 17:11:14 GMT-0700 (Pacific Daylight Time)","299117","green","red","image-keyboard-response","31","50253","0.0-5.0-1.13","","737","","img/red_ll/choose11.jpg","1","212","green","0.5","0.5","0.5","w","",""
"","","","","63d43dc4b4b7a0e426a381cd","bdp_lott","Sun Mar 26 2023 17:11:14 GMT-0700 (Pacific Daylight Time)","299117","green","red","animation","32","50865","0.0-5.0-2.13","","","","","","212","","","","","","[{""stimulus"":""img/green_wl/1.jpg"",""time"":50},{""stimulus"":""img/green_wl/2.jpg"",""time"":101},{""stimulus"":""img/green_wl/3.jpg"",""time"":154},{""stimulus"":""img/green_wl/4.jpg"",""time"":204},{""stimulus"":""img/green_wl/5.jpg"",""time"":256},{""stimulus"":""img/green_wl/6.jpg"",""time"":306},{""stimulus"":""img/green_wl/7.jpg"",""time"":356},{""stimulus"":""img/green_wl/8.jpg"",""time"":408},{""stimulus"":""img/green_wl/9.jpg"",""time"":460},{""stimulus"":""img/green_wl/10.jpg"",""time"":511},{""stimulus"":""img/green_wl/11.jpg"",""time"":561}]","[]"
"","","","choice","63d43dc4b4b7a0e426a381cd","bdp_lott","Sun Mar 26 2023 17:11:14 GMT-0700 (Pacific Daylight Time)","299117","green","red","image-keyboard-response","33","51730","0.0-5.0-1.14","","864","","img/green_wl/choose11.jpg","1","211","green","0.5","0.5","0.5","w","",""
"","","","","63d43dc4b4b7a0e426a381cd","bdp_lott","Sun Mar 26 2023 17:11:14 GMT-0700 (Pacific Daylight Time)","299117","green","red","animation","34","52342","0.0-5.0-2.14","","","","","","211","","","","","","[{""stimulus"":""img/green_wl/1.jpg"",""time"":52},{""stimulus"":""img/green_wl/2.jpg"",""time"":101},{""stimulus"":""img/green_wl/3.jpg"",""time"":152},{""stimulus"":""img/green_wl/4.jpg"",""time"":204},{""stimulus"":""img/green_wl/5.jpg"",""time"":253},{""stimulus"":""img/green_wl/6.jpg"",""time"":306},{""stimulus"":""img/green_wl/7.jpg"",""time"":355},{""stimulus"":""img/green_wl/8.jpg"",""time"":406},{""stimulus"":""img/green_wl/9.jpg"",""time"":457},{""stimulus"":""img/green_wl/10.jpg"",""time"":509},{""stimulus"":""img/green_wl/11.jpg"",""time"":560}]","[]"
"","","","choice","63d43dc4b4b7a0e426a381cd","bdp_lott","Sun Mar 26 2023 17:11:14 GMT-0700 (Pacific Daylight Time)","299117","green","red","image-keyboard-response","35","52924","0.0-5.0-1.15","","581","","img/green_wl/choose11.jpg","1","210","green","0.5","0.5","0.5","l","",""
"","","","","63d43dc4b4b7a0e426a381cd","bdp_lott","Sun Mar 26 2023 17:11:14 GMT-0700 (Pacific Daylight Time)","299117","green","red","animation","36","53541","0.0-5.0-2.15","","","","","","210","","","","","","[{""stimulus"":""img/green_ll/1.jpg"",""time"":52},{""stimulus"":""img/green_ll/2.jpg"",""time"":104},{""stimulus"":""img/green_ll/3.jpg"",""time"":155},{""stimulus"":""img/green_ll/4.jpg"",""time"":206},{""stimulus"":""img/green_ll/5.jpg"",""time"":257},{""stimulus"":""img/green_ll/6.jpg"",""time"":307},{""stimulus"":""img/green_ll/7.jpg"",""time"":359},{""stimulus"":""img/green_ll/8.jpg"",""time"":410},{""stimulus"":""img/green_ll/9.jpg"",""time"":462},{""stimulus"":""img/green_ll/10.jpg"",""time"":514},{""stimulus"":""img/green_ll/11.jpg"",""time"":565}]","[]"
"","","","choice","63d43dc4b4b7a0e426a381cd","bdp_lott","Sun Mar 26 2023 17:11:14 GMT-0700 (Pacific Daylight Time)","299117","green","red","image-keyboard-response","37","54295","0.0-5.0-1.16","","753","","img/green_ll/choose11.jpg","2","209","red","0.5","0.5","0.5","l","",""
"","","","","63d43dc4b4b7a0e426a381cd","bdp_lott","Sun Mar 26 2023 17:11:14 GMT-0700 (Pacific Daylight Time)","299117","green","red","animation","38","54907","0.0-5.0-2.16","","","","","","209","","","","","","[{""stimulus"":""img/red_ll/1.jpg"",""time"":51},{""stimulus"":""img/red_ll/2.jpg"",""time"":101},{""stimulus"":""img/red_ll/3.jpg"",""time"":152},{""stimulus"":""img/red_ll/4.jpg"",""time"":203},{""stimulus"":""img/red_ll/5.jpg"",""time"":255},{""stimulus"":""img/red_ll/6.jpg"",""time"":307},{""stimulus"":""img/red_ll/7.jpg"",""time"":358},{""stimulus"":""img/red_ll/8.jpg"",""time"":408},{""stimulus"":""img/red_ll/9.jpg"",""time"":459},{""stimulus"":""img/red_ll/10.jpg"",""time"":510},{""stimulus"":""img/red_ll/11.jpg"",""time"":560}]","[]"
"","","","choice","63d43dc4b4b7a0e426a381cd","bdp_lott","Sun Mar 26 2023 17:11:14 GMT-0700 (Pacific Daylight Time)","299117","green","red","image-keyboard-response","39","55441","0.0-5.0-1.17","","533","","img/red_ll/choose11.jpg","2","208","red","0.5","0.5","0.5","w","",""
"","","","","63d43dc4b4b7a0e426a381cd","bdp_lott","Sun Mar 26 2023 17:11:14 GMT-0700 (Pacific Daylight Time)","299117","green","red","animation","40","56053","0.0-5.0-2.17","","","","","","208","","","","","","[{""stimulus"":""img/red_lw/1.jpg"",""time"":53},{""stimulus"":""img/red_lw/2.jpg"",""time"":103},{""stimulus"":""img/red_lw/3.jpg"",""time"":154},{""stimulus"":""img/red_lw/4.jpg"",""time"":206},{""stimulus"":""img/red_lw/5.jpg"",""time"":256},{""stimulus"":""img/red_lw/6.jpg"",""time"":308},{""stimulus"":""img/red_lw/7.jpg"",""time"":360},{""stimulus"":""img/red_lw/8.jpg"",""time"":411},{""stimulus"":""img/red_lw/9.jpg"",""time"":460},{""stimulus"":""img/red_lw/10.jpg"",""time"":510},{""stimulus"":""img/red_lw/11.jpg"",""time"":561}]","[]"
"","","","choice","63d43dc4b4b7a0e426a381cd","bdp_lott","Sun Mar 26 2023 17:11:14 GMT-0700 (Pacific Daylight Time)","299117","green","red","image-keyboard-response","41","56792","0.0-5.0-1.18","","737","","img/red_lw/choose11.jpg","2","207","red","0.5","0.5","0.5","w","",""
"","","","","63d43dc4b4b7a0e426a381cd","bdp_lott","Sun Mar 26 2023 17:11:14 GMT-0700 (Pacific Daylight Time)","299117","green","red","animation","42","57402","0.0-5.0-2.18","","","","","","207","","","","","","[{""stimulus"":""img/red_lw/1.jpg"",""time"":52},{""stimulus"":""img/red_lw/2.jpg"",""time"":102},{""stimulus"":""img/red_lw/3.jpg"",""time"":152},{""stimulus"":""img/red_lw/4.jpg"",""time"":204},{""stimulus"":""img/red_lw/5.jpg"",""time"":255},{""stimulus"":""img/red_lw/6.jpg"",""time"":307},{""stimulus"":""img/red_lw/7.jpg"",""time"":358},{""stimulus"":""img/red_lw/8.jpg"",""time"":408},{""stimulus"":""img/red_lw/9.jpg"",""time"":458},{""stimulus"":""img/red_lw/10.jpg"",""time"":509},{""stimulus"":""img/red_lw/11.jpg"",""time"":559}]","[]"
"","","","choice","63d43dc4b4b7a0e426a381cd","bdp_lott","Sun Mar 26 2023 17:11:14 GMT-0700 (Pacific Daylight Time)","299117","green","red","image-keyboard-response","43","57976","0.0-5.0-1.19","","572","","img/red_lw/choose11.jpg","2","206","red","0.5","0.5","0.5","l","",""
"","","","","63d43dc4b4b7a0e426a381cd","bdp_lott","Sun Mar 26 2023 17:11:14 GMT-0700 (Pacific Daylight Time)","299117","green","red","animation","44","58588","0.0-5.0-2.19","","","","","","206","","","","","","[{""stimulus"":""img/red_ll/1.jpg"",""time"":50},{""stimulus"":""img/red_ll/2.jpg"",""time"":101},{""stimulus"":""img/red_ll/3.jpg"",""time"":152},{""stimulus"":""img/red_ll/4.jpg"",""time"":202},{""stimulus"":""img/red_ll/5.jpg"",""time"":254},{""stimulus"":""img/red_ll/6.jpg"",""time"":306},{""stimulus"":""img/red_ll/7.jpg"",""time"":355},{""stimulus"":""img/red_ll/8.jpg"",""time"":407},{""stimulus"":""img/red_ll/9.jpg"",""time"":456},{""stimulus"":""img/red_ll/10.jpg"",""time"":508},{""stimulus"":""img/red_ll/11.jpg"",""time"":559}]","[]"
"","","","choice","63d43dc4b4b7a0e426a381cd","bdp_lott","Sun Mar 26 2023 17:11:14 GMT-0700 (Pacific Daylight Time)","299117","green","red","image-keyboard-response","45","59437","0.0-5.0-1.20","","848","","img/red_ll/choose11.jpg","1","205","green","0.5","0.5","0.5","w","",""
"","","","","63d43dc4b4b7a0e426a381cd","bdp_lott","Sun Mar 26 2023 17:11:14 GMT-0700 (Pacific Daylight Time)","299117","green","red","animation","46","60051","0.0-5.0-2.20","","","","","","205","","","","","","[{""stimulus"":""img/green_wl/1.jpg"",""time"":52},{""stimulus"":""img/green_wl/2.jpg"",""time"":102},{""stimulus"":""img/green_wl/3.jpg"",""time"":154},{""stimulus"":""img/green_wl/4.jpg"",""time"":206},{""stimulus"":""img/green_wl/5.jpg"",""time"":256},{""stimulus"":""img/green_wl/6.jpg"",""time"":308},{""stimulus"":""img/green_wl/7.jpg"",""time"":359},{""stimulus"":""img/green_wl/8.jpg"",""time"":410},{""stimulus"":""img/green_wl/9.jpg"",""time"":461},{""stimulus"":""img/green_wl/10.jpg"",""time"":513},{""stimulus"":""img/green_wl/11.jpg"",""time"":564}]","[]"
"","","","choice","63d43dc4b4b7a0e426a381cd","bdp_lott","Sun Mar 26 2023 17:11:14 GMT-0700 (Pacific Daylight Time)","299117","green","red","image-keyboard-response","47","60665","0.0-5.0-1.21","","614","","img/green_wl/choose11.jpg","1","204","green","0.5","0.5","0.5","w","",""
"","","","","63d43dc4b4b7a0e426a381cd","bdp_lott","Sun Mar 26 2023 17:11:14 GMT-0700 (Pacific Daylight Time)","299117","green","red","animation","48","61278","0.0-5.0-2.21","","","","","","204","","","","","","[{""stimulus"":""img/green_wl/1.jpg"",""time"":53},{""stimulus"":""img/green_wl/2.jpg"",""time"":103},{""stimulus"":""img/green_wl/3.jpg"",""time"":154},{""stimulus"":""img/green_wl/4.jpg"",""time"":205},{""stimulus"":""img/green_wl/5.jpg"",""time"":257},{""stimulus"":""img/green_wl/6.jpg"",""time"":309},{""stimulus"":""img/green_wl/7.jpg"",""time"":359},{""stimulus"":""img/green_wl/8.jpg"",""time"":410},{""stimulus"":""img/green_wl/9.jpg"",""time"":460},{""stimulus"":""img/green_wl/10.jpg"",""time"":510},{""stimulus"":""img/green_wl/11.jpg"",""time"":561}]","[]"
"","","","choice","63d43dc4b4b7a0e426a381cd","bdp_lott","Sun Mar 26 2023 17:11:14 GMT-0700 (Pacific Daylight Time)","299117","green","red","image-keyboard-response","49","61796","0.0-5.0-1.22","","518","","img/green_wl/choose11.jpg","1","203","green","0.5","0.5","0.5","w","",""
"","","","","63d43dc4b4b7a0e426a381cd","bdp_lott","Sun Mar 26 2023 17:11:14 GMT-0700 (Pacific Daylight Time)","299117","green","red","animation","50","62405","0.0-5.0-2.22","","","","","","203","","","","","","[{""stimulus"":""img/green_wl/1.jpg"",""time"":51},{""stimulus"":""img/green_wl/2.jpg"",""time"":102},{""stimulus"":""img/green_wl/3.jpg"",""time"":152},{""stimulus"":""img/green_wl/4.jpg"",""time"":202},{""stimulus"":""img/green_wl/5.jpg"",""time"":252},{""stimulus"":""img/green_wl/6.jpg"",""time"":303},{""stimulus"":""img/green_wl/7.jpg"",""time"":355},{""stimulus"":""img/green_wl/8.jpg"",""time"":405},{""stimulus"":""img/green_wl/9.jpg"",""time"":456},{""stimulus"":""img/green_wl/10.jpg"",""time"":508},{""stimulus"":""img/green_wl/11.jpg"",""time"":558}]","[]"
"","","","choice","63d43dc4b4b7a0e426a381cd","bdp_lott","Sun Mar 26 2023 17:11:14 GMT-0700 (Pacific Daylight Time)","299117","green","red","image-keyboard-response","51","62872","0.0-5.0-1.23","","466","","img/green_wl/choose11.jpg","1","202","green","0.5","0.5","0.5","l","",""
"","","","","63d43dc4b4b7a0e426a381cd","bdp_lott","Sun Mar 26 2023 17:11:14 GMT-0700 (Pacific Daylight Time)","299117","green","red","animation","52","63482","0.0-5.0-2.23","","","","","","202","","","","","","[{""stimulus"":""img/green_ll/1.jpg"",""time"":51},{""stimulus"":""img/green_ll/2.jpg"",""time"":101},{""stimulus"":""img/green_ll/3.jpg"",""time"":152},{""stimulus"":""img/green_ll/4.jpg"",""time"":203},{""stimulus"":""img/green_ll/5.jpg"",""time"":255},{""stimulus"":""img/green_ll/6.jpg"",""time"":305},{""stimulus"":""img/green_ll/7.jpg"",""time"":354},{""stimulus"":""img/green_ll/8.jpg"",""time"":405},{""stimulus"":""img/green_ll/9.jpg"",""time"":457},{""stimulus"":""img/green_ll/10.jpg"",""time"":509},{""stimulus"":""img/green_ll/11.jpg"",""time"":560}]","[]"
"","","","choice","63d43dc4b4b7a0e426a381cd","bdp_lott","Sun Mar 26 2023 17:11:14 GMT-0700 (Pacific Daylight Time)","299117","green","red","image-keyboard-response","53","64199","0.0-5.0-1.24","","716","","img/green_ll/choose11.jpg","2","201","red","0.5","0.5","0.5","l","",""
"","","","","63d43dc4b4b7a0e426a381cd","bdp_lott","Sun Mar 26 2023 17:11:14 GMT-0700 (Pacific Daylight Time)","299117","green","red","animation","54","64813","0.0-5.0-2.24","","","","","","201","","","","","","[{""stimulus"":""img/red_ll/1.jpg"",""time"":52},{""stimulus"":""img/red_ll/2.jpg"",""time"":102},{""stimulus"":""img/red_ll/3.jpg"",""time"":153},{""stimulus"":""img/red_ll/4.jpg"",""time"":203},{""stimulus"":""img/red_ll/5.jpg"",""time"":255},{""stimulus"":""img/red_ll/6.jpg"",""time"":306},{""stimulus"":""img/red_ll/7.jpg"",""time"":357},{""stimulus"":""img/red_ll/8.jpg"",""time"":409},{""stimulus"":""img/red_ll/9.jpg"",""time"":460},{""stimulus"":""img/red_ll/10.jpg"",""time"":510},{""stimulus"":""img/red_ll/11.jpg"",""time"":562}]","[]"
"","","","choice","63d43dc4b4b7a0e426a381cd","bdp_lott","Sun Mar 26 2023 17:11:14 GMT-0700 (Pacific Daylight Time)","299117","green","red","image-keyboard-response","55","65616","0.0-5.0-1.25","","802","","img/red_ll/choose11.jpg","2","200","red","0.5","0.5","0.5","l","",""
"","","","","63d43dc4b4b7a0e426a381cd","bdp_lott","Sun Mar 26 2023 17:11:14 GMT-0700 (Pacific Daylight Time)","299117","green","red","animation","56","66225","0.0-5.0-2.25","","","","","","200","","","","","","[{""stimulus"":""img/red_ll/1.jpg"",""time"":50},{""stimulus"":""img/red_ll/2.jpg"",""time"":100},{""stimulus"":""img/red_ll/3.jpg"",""time"":151},{""stimulus"":""img/red_ll/4.jpg"",""time"":202},{""stimulus"":""img/red_ll/5.jpg"",""time"":254},{""stimulus"":""img/red_ll/6.jpg"",""time"":306},{""stimulus"":""img/red_ll/7.jpg"",""time"":357},{""stimulus"":""img/red_ll/8.jpg"",""time"":407},{""stimulus"":""img/red_ll/9.jpg"",""time"":456},{""stimulus"":""img/red_ll/10.jpg"",""time"":507},{""stimulus"":""img/red_ll/11.jpg"",""time"":558}]","[]"
"","","","choice","63d43dc4b4b7a0e426a381cd","bdp_lott","Sun Mar 26 2023 17:11:14 GMT-0700 (Pacific Daylight Time)","299117","green","red","image-keyboard-response","57","66815","0.0-5.0-1.26","","587","","img/red_ll/choose11.jpg","1","199","green","0.5","0.5","0.5","w","",""
"","","","","63d43dc4b4b7a0e426a381cd","bdp_lott","Sun Mar 26 2023 17:11:14 GMT-0700 (Pacific Daylight Time)","299117","green","red","animation","58","67424","0.0-5.0-2.26","","","","","","199","","","","","","[{""stimulus"":""img/green_wl/1.jpg"",""time"":53},{""stimulus"":""img/green_wl/2.jpg"",""time"":104},{""stimulus"":""img/green_wl/3.jpg"",""time"":154},{""stimulus"":""img/green_wl/4.jpg"",""time"":205},{""stimulus"":""img/green_wl/5.jpg"",""time"":256},{""stimulus"":""img/green_wl/6.jpg"",""time"":307},{""stimulus"":""img/green_wl/7.jpg"",""time"":356},{""stimulus"":""img/green_wl/8.jpg"",""time"":406},{""stimulus"":""img/green_wl/9.jpg"",""time"":458},{""stimulus"":""img/green_wl/10.jpg"",""time"":507},{""stimulus"":""img/green_wl/11.jpg"",""time"":557}]","[]"
"","","","choice","63d43dc4b4b7a0e426a381cd","bdp_lott","Sun Mar 26 2023 17:11:14 GMT-0700 (Pacific Daylight Time)","299117","green","red","image-keyboard-response","59","68256","0.0-5.0-1.27","","829","","img/green_wl/choose11.jpg","1","198","green","0.5","0.5","0.5","w","",""
"","","","","63d43dc4b4b7a0e426a381cd","bdp_lott","Sun Mar 26 2023 17:11:14 GMT-0700 (Pacific Daylight Time)","299117","green","red","animation","60","68868","0.0-5.0-2.27","","","","","","198","","","","","","[{""stimulus"":""img/green_wl/1.jpg"",""time"":53},{""stimulus"":""img/green_wl/2.jpg"",""time"":102},{""stimulus"":""img/green_wl/3.jpg"",""time"":153},{""stimulus"":""img/green_wl/4.jpg"",""time"":203},{""stimulus"":""img/green_wl/5.jpg"",""time"":255},{""stimulus"":""img/green_wl/6.jpg"",""time"":304},{""stimulus"":""img/green_wl/7.jpg"",""time"":355},{""stimulus"":""img/green_wl/8.jpg"",""time"":407},{""stimulus"":""img/green_wl/9.jpg"",""time"":459},{""stimulus"":""img/green_wl/10.jpg"",""time"":509},{""stimulus"":""img/green_wl/11.jpg"",""time"":560}]","[]"
"","","","choice","63d43dc4b4b7a0e426a381cd","bdp_lott","Sun Mar 26 2023 17:11:14 GMT-0700 (Pacific Daylight Time)","299117","green","red","image-keyboard-response","61","69350","0.0-5.0-1.28","","480","","img/green_wl/choose11.jpg","1","197","green","0.5","0.5","0.5","w","",""
"","","","","63d43dc4b4b7a0e426a381cd","bdp_lott","Sun Mar 26 2023 17:11:14 GMT-0700 (Pacific Daylight Time)","299117","green","red","animation","62","69963","0.0-5.0-2.28","","","","","","197","","","","","","[{""stimulus"":""img/green_wl/1.jpg"",""time"":51},{""stimulus"":""img/green_wl/2.jpg"",""time"":102},{""stimulus"":""img/green_wl/3.jpg"",""time"":151},{""stimulus"":""img/green_wl/4.jpg"",""time"":202},{""stimulus"":""img/green_wl/5.jpg"",""time"":254},{""stimulus"":""img/green_wl/6.jpg"",""time"":305},{""stimulus"":""img/green_wl/7.jpg"",""time"":356},{""stimulus"":""img/green_wl/8.jpg"",""time"":407},{""stimulus"":""img/green_wl/9.jpg"",""time"":456},{""stimulus"":""img/green_wl/10.jpg"",""time"":509},{""stimulus"":""img/green_wl/11.jpg"",""time"":559}]","[]"
"","","","choice","63d43dc4b4b7a0e426a381cd","bdp_lott","Sun Mar 26 2023 17:11:14 GMT-0700 (Pacific Daylight Time)","299117","green","red","image-keyboard-response","63","70394","0.0-5.0-1.29","","431","","img/green_wl/choose11.jpg","1","196","green","0.5","0.5","0.5","l","",""
"","","","","63d43dc4b4b7a0e426a381cd","bdp_lott","Sun Mar 26 2023 17:11:14 GMT-0700 (Pacific Daylight Time)","299117","green","red","animation","64","71004","0.0-5.0-2.29","","","","","","196","","","","","","[{""stimulus"":""img/green_ll/1.jpg"",""time"":53},{""stimulus"":""img/green_ll/2.jpg"",""time"":102},{""stimulus"":""img/green_ll/3.jpg"",""time"":152},{""stimulus"":""img/green_ll/4.jpg"",""time"":203},{""stimulus"":""img/green_ll/5.jpg"",""time"":254},{""stimulus"":""img/green_ll/6.jpg"",""time"":305},{""stimulus"":""img/green_ll/7.jpg"",""time"":355},{""stimulus"":""img/green_ll/8.jpg"",""time"":407},{""stimulus"":""img/green_ll/9.jpg"",""time"":458},{""stimulus"":""img/green_ll/10.jpg"",""time"":508},{""stimulus"":""img/green_ll/11.jpg"",""time"":559}]","[]"
"","","","choice","63d43dc4b4b7a0e426a381cd","bdp_lott","Sun Mar 26 2023 17:11:14 GMT-0700 (Pacific Daylight Time)","299117","green","red","image-keyboard-response","65","71522","0.0-5.0-1.30","","516","","img/green_ll/choose11.jpg","2","195","red","0.5","0.5","0.5","l","",""
"","","","","63d43dc4b4b7a0e426a381cd","bdp_lott","Sun Mar 26 2023 17:11:14 GMT-0700 (Pacific Daylight Time)","299117","green","red","animation","66","72133","0.0-5.0-2.30","","","","","","195","","","","","","[{""stimulus"":""img/red_ll/1.jpg"",""time"":50},{""stimulus"":""img/red_ll/2.jpg"",""time"":100},{""stimulus"":""img/red_ll/3.jpg"",""time"":150},{""stimulus"":""img/red_ll/4.jpg"",""time"":201},{""stimulus"":""img/red_ll/5.jpg"",""time"":252},{""stimulus"":""img/red_ll/6.jpg"",""time"":303},{""stimulus"":""img/red_ll/7.jpg"",""time"":355},{""stimulus"":""img/red_ll/8.jpg"",""time"":405},{""stimulus"":""img/red_ll/9.jpg"",""time"":457},{""stimulus"":""img/red_ll/10.jpg"",""time"":509},{""stimulus"":""img/red_ll/11.jpg"",""time"":559}]","[]"
"","","","choice","63d43dc4b4b7a0e426a381cd","bdp_lott","Sun Mar 26 2023 17:11:14 GMT-0700 (Pacific Daylight Time)","299117","green","red","image-keyboard-response","67","72469","0.0-5.0-1.31","","336","","img/red_ll/choose11.jpg","2","194","red","0.5","0.5","0.5","w","",""
"","","","","63d43dc4b4b7a0e426a381cd","bdp_lott","Sun Mar 26 2023 17:11:14 GMT-0700 (Pacific Daylight Time)","299117","green","red","animation","68","73082","0.0-5.0-2.31","","","","","","194","","","","","","[{""stimulus"":""img/red_lw/1.jpg"",""time"":51},{""stimulus"":""img/red_lw/2.jpg"",""time"":102},{""stimulus"":""img/red_lw/3.jpg"",""time"":152},{""stimulus"":""img/red_lw/4.jpg"",""time"":202},{""stimulus"":""img/red_lw/5.jpg"",""time"":253},{""stimulus"":""img/red_lw/6.jpg"",""time"":303},{""stimulus"":""img/red_lw/7.jpg"",""time"":355},{""stimulus"":""img/red_lw/8.jpg"",""time"":405},{""stimulus"":""img/red_lw/9.jpg"",""time"":457},{""stimulus"":""img/red_lw/10.jpg"",""time"":509},{""stimulus"":""img/red_lw/11.jpg"",""time"":559}]","[]"
"","","","choice","63d43dc4b4b7a0e426a381cd","bdp_lott","Sun Mar 26 2023 17:11:14 GMT-0700 (Pacific Daylight Time)","299117","green","red","image-keyboard-response","69","73631","0.0-5.0-1.32","","548","","img/red_lw/choose11.jpg","2","193","red","0.5","0.5","0.5","l","",""
"","","","","63d43dc4b4b7a0e426a381cd","bdp_lott","Sun Mar 26 2023 17:11:14 GMT-0700 (Pacific Daylight Time)","299117","green","red","animation","70","74245","0.0-5.0-2.32","","","","","","193","","","","","","[{""stimulus"":""img/red_ll/1.jpg"",""time"":53},{""stimulus"":""img/red_ll/2.jpg"",""time"":103},{""stimulus"":""img/red_ll/3.jpg"",""time"":154},{""stimulus"":""img/red_ll/4.jpg"",""time"":204},{""stimulus"":""img/red_ll/5.jpg"",""time"":254},{""stimulus"":""img/red_ll/6.jpg"",""time"":304},{""stimulus"":""img/red_ll/7.jpg"",""time"":355},{""stimulus"":""img/red_ll/8.jpg"",""time"":407},{""stimulus"":""img/red_ll/9.jpg"",""time"":457},{""stimulus"":""img/red_ll/10.jpg"",""time"":510},{""stimulus"":""img/red_ll/11.jpg"",""time"":562}]","[]"
"","","","choice","63d43dc4b4b7a0e426a381cd","bdp_lott","Sun Mar 26 2023 17:11:14 GMT-0700 (Pacific Daylight Time)","299117","green","red","image-keyboard-response","71","74958","0.0-5.0-1.33","","712","","img/red_ll/choose11.jpg","2","192","red","0.5","0.5","0.5","w","",""
"","","","","63d43dc4b4b7a0e426a381cd","bdp_lott","Sun Mar 26 2023 17:11:14 GMT-0700 (Pacific Daylight Time)","299117","green","red","animation","72","75572","0.0-5.0-2.33","","","","","","192","","","","","","[{""stimulus"":""img/red_lw/1.jpg"",""time"":52},{""stimulus"":""img/red_lw/2.jpg"",""time"":103},{""stimulus"":""img/red_lw/3.jpg"",""time"":154},{""stimulus"":""img/red_lw/4.jpg"",""time"":204},{""stimulus"":""img/red_lw/5.jpg"",""time"":255},{""stimulus"":""img/red_lw/6.jpg"",""time"":307},{""stimulus"":""img/red_lw/7.jpg"",""time"":357},{""stimulus"":""img/red_lw/8.jpg"",""time"":410},{""stimulus"":""img/red_lw/9.jpg"",""time"":461},{""stimulus"":""img/red_lw/10.jpg"",""time"":512},{""stimulus"":""img/red_lw/11.jpg"",""time"":563}]","[]"
"","","","choice","63d43dc4b4b7a0e426a381cd","bdp_lott","Sun Mar 26 2023 17:11:14 GMT-0700 (Pacific Daylight Time)","299117","green","red","image-keyboard-response","73","76345","0.0-5.0-1.34","","771","","img/red_lw/choose11.jpg","2","191","red","0.5","0.5","0.5","w","",""
"","","","","63d43dc4b4b7a0e426a381cd","bdp_lott","Sun Mar 26 2023 17:11:14 GMT-0700 (Pacific Daylight Time)","299117","green","red","animation","74","76954","0.0-5.0-2.34","","","","","","191","","","","","","[{""stimulus"":""img/red_lw/1.jpg"",""time"":54},{""stimulus"":""img/red_lw/2.jpg"",""time"":104},{""stimulus"":""img/red_lw/3.jpg"",""time"":154},{""stimulus"":""img/red_lw/4.jpg"",""time"":204},{""stimulus"":""img/red_lw/5.jpg"",""time"":254},{""stimulus"":""img/red_lw/6.jpg"",""time"":304},{""stimulus"":""img/red_lw/7.jpg"",""time"":355},{""stimulus"":""img/red_lw/8.jpg"",""time"":406},{""stimulus"":""img/red_lw/9.jpg"",""time"":457},{""stimulus"":""img/red_lw/10.jpg"",""time"":508},{""stimulus"":""img/red_lw/11.jpg"",""time"":558}]","[]"
"","","","choice","63d43dc4b4b7a0e426a381cd","bdp_lott","Sun Mar 26 2023 17:11:14 GMT-0700 (Pacific Daylight Time)","299117","green","red","image-keyboard-response","75","77451","0.0-5.0-1.35","","495","","img/red_lw/choose11.jpg","2","190","red","0.5","0.5","0.5","w","",""
"","","","","63d43dc4b4b7a0e426a381cd","bdp_lott","Sun Mar 26 2023 17:11:14 GMT-0700 (Pacific Daylight Time)","299117","green","red","animation","76","78062","0.0-5.0-2.35","","","","","","190","","","","","","[{""stimulus"":""img/red_lw/1.jpg"",""time"":51},{""stimulus"":""img/red_lw/2.jpg"",""time"":102},{""stimulus"":""img/red_lw/3.jpg"",""time"":153},{""stimulus"":""img/red_lw/4.jpg"",""time"":203},{""stimulus"":""img/red_lw/5.jpg"",""time"":255},{""stimulus"":""img/red_lw/6.jpg"",""time"":305},{""stimulus"":""img/red_lw/7.jpg"",""time"":356},{""stimulus"":""img/red_lw/8.jpg"",""time"":408},{""stimulus"":""img/red_lw/9.jpg"",""time"":458},{""stimulus"":""img/red_lw/10.jpg"",""time"":508},{""stimulus"":""img/red_lw/11.jpg"",""time"":559}]","[]"
"","","","choice","63d43dc4b4b7a0e426a381cd","bdp_lott","Sun Mar 26 2023 17:11:14 GMT-0700 (Pacific Daylight Time)","299117","green","red","image-keyboard-response","77","78507","0.0-5.0-1.36","","444","","img/red_lw/choose11.jpg","2","189","red","0.5","0.5","0.5","l","",""
"","","","","63d43dc4b4b7a0e426a381cd","bdp_lott","Sun Mar 26 2023 17:11:14 GMT-0700 (Pacific Daylight Time)","299117","green","red","animation","78","79118","0.0-5.0-2.36","","","","","","189","","","","","","[{""stimulus"":""img/red_ll/1.jpg"",""time"":51},{""stimulus"":""img/red_ll/2.jpg"",""time"":101},{""stimulus"":""img/red_ll/3.jpg"",""time"":153},{""stimulus"":""img/red_ll/4.jpg"",""time"":205},{""stimulus"":""img/red_ll/5.jpg"",""time"":256},{""stimulus"":""img/red_ll/6.jpg"",""time"":307},{""stimulus"":""img/red_ll/7.jpg"",""time"":358},{""stimulus"":""img/red_ll/8.jpg"",""time"":409},{""stimulus"":""img/red_ll/9.jpg"",""time"":458},{""stimulus"":""img/red_ll/10.jpg"",""time"":508},{""stimulus"":""img/red_ll/11.jpg"",""time"":559}]","[]"
"","","","choice","63d43dc4b4b7a0e426a381cd","bdp_lott","Sun Mar 26 2023 17:11:14 GMT-0700 (Pacific Daylight Time)","299117","green","red","image-keyboard-response","79","79693","0.0-5.0-1.37","","574","","img/red_ll/choose11.jpg","1","188","green","0.5","0.5","0.5","l","",""
"","","","","63d43dc4b4b7a0e426a381cd","bdp_lott","Sun Mar 26 2023 17:11:14 GMT-0700 (Pacific Daylight Time)","299117","green","red","animation","80","80306","0.0-5.0-2.37","","","","","","188","","","","","","[{""stimulus"":""img/green_ll/1.jpg"",""time"":52},{""stimulus"":""img/green_ll/2.jpg"",""time"":102},{""stimulus"":""img/green_ll/3.jpg"",""time"":154},{""stimulus"":""img/green_ll/4.jpg"",""time"":205},{""stimulus"":""img/green_ll/5.jpg"",""time"":256},{""stimulus"":""img/green_ll/6.jpg"",""time"":308},{""stimulus"":""img/green_ll/7.jpg"",""time"":359},{""stimulus"":""img/green_ll/8.jpg"",""time"":410},{""stimulus"":""img/green_ll/9.jpg"",""time"":462},{""stimulus"":""img/green_ll/10.jpg"",""time"":512},{""stimulus"":""img/green_ll/11.jpg"",""time"":563}]","[]"
"","","","choice","63d43dc4b4b7a0e426a381cd","bdp_lott","Sun Mar 26 2023 17:11:14 GMT-0700 (Pacific Daylight Time)","299117","green","red","image-keyboard-response","81","80847","0.0-5.0-1.38","","538","","img/green_ll/choose11.jpg","1","187","green","0.5","0.5","0.5","l","",""
"","","","","63d43dc4b4b7a0e426a381cd","bdp_lott","Sun Mar 26 2023 17:11:14 GMT-0700 (Pacific Daylight Time)","299117","green","red","animation","82","81462","0.0-5.0-2.38","","","","","","187","","","","","","[{""stimulus"":""img/green_ll/1.jpg"",""time"":51},{""stimulus"":""img/green_ll/2.jpg"",""time"":103},{""stimulus"":""img/green_ll/3.jpg"",""time"":154},{""stimulus"":""img/green_ll/4.jpg"",""time"":204},{""stimulus"":""img/green_ll/5.jpg"",""time"":256},{""stimulus"":""img/green_ll/6.jpg"",""time"":307},{""stimulus"":""img/green_ll/7.jpg"",""time"":358},{""stimulus"":""img/green_ll/8.jpg"",""time"":409},{""stimulus"":""img/green_ll/9.jpg"",""time"":460},{""stimulus"":""img/green_ll/10.jpg"",""time"":511},{""stimulus"":""img/green_ll/11.jpg"",""time"":563}]","[]"
"","","","choice","63d43dc4b4b7a0e426a381cd","bdp_lott","Sun Mar 26 2023 17:11:14 GMT-0700 (Pacific Daylight Time)","299117","green","red","image-keyboard-response","83","81862","0.0-5.0-1.39","","399","","img/green_ll/choose11.jpg","1","186","green","0.5","0.5","0.5","l","",""
"","","","","63d43dc4b4b7a0e426a381cd","bdp_lott","Sun Mar 26 2023 17:11:14 GMT-0700 (Pacific Daylight Time)","299117","green","red","animation","84","82470","0.0-5.0-2.39","","","","","","186","","","","","","[{""stimulus"":""img/green_ll/1.jpg"",""time"":53},{""stimulus"":""img/green_ll/2.jpg"",""time"":103},{""stimulus"":""img/green_ll/3.jpg"",""time"":153},{""stimulus"":""img/green_ll/4.jpg"",""time"":203},{""stimulus"":""img/green_ll/5.jpg"",""time"":252},{""stimulus"":""img/green_ll/6.jpg"",""time"":302},{""stimulus"":""img/green_ll/7.jpg"",""time"":352},{""stimulus"":""img/green_ll/8.jpg"",""time"":402},{""stimulus"":""img/green_ll/9.jpg"",""time"":453},{""stimulus"":""img/green_ll/10.jpg"",""time"":505},{""stimulus"":""img/green_ll/11.jpg"",""time"":556}]","[]"
"","","","choice","63d43dc4b4b7a0e426a381cd","bdp_lott","Sun Mar 26 2023 17:11:14 GMT-0700 (Pacific Daylight Time)","299117","green","red","image-keyboard-response","85","83053","0.0-5.0-1.40","","582","","img/green_ll/choose11.jpg","1","185","green","0.5","0.5","0.5","l","",""
"","","","","63d43dc4b4b7a0e426a381cd","bdp_lott","Sun Mar 26 2023 17:11:14 GMT-0700 (Pacific Daylight Time)","299117","green","red","animation","86","83664","0.0-5.0-2.40","","","","","","185","","","","","","[{""stimulus"":""img/green_ll/1.jpg"",""time"":51},{""stimulus"":""img/green_ll/2.jpg"",""time"":102},{""stimulus"":""img/green_ll/3.jpg"",""time"":154},{""stimulus"":""img/green_ll/4.jpg"",""time"":205},{""stimulus"":""img/green_ll/5.jpg"",""time"":256},{""stimulus"":""img/green_ll/6.jpg"",""time"":307},{""stimulus"":""img/green_ll/7.jpg"",""time"":359},{""stimulus"":""img/green_ll/8.jpg"",""time"":408},{""stimulus"":""img/green_ll/9.jpg"",""time"":460},{""stimulus"":""img/green_ll/10.jpg"",""time"":512},{""stimulus"":""img/green_ll/11.jpg"",""time"":562}]","[]"
"","","","choice","63d43dc4b4b7a0e426a381cd","bdp_lott","Sun Mar 26 2023 17:11:14 GMT-0700 (Pacific Daylight Time)","299117","green","red","image-keyboard-response","87","84083","0.0-5.0-1.41","","416","","img/green_ll/choose11.jpg","2","184","red","0.5","0.5","0.5","l","",""
"","","","","63d43dc4b4b7a0e426a381cd","bdp_lott","Sun Mar 26 2023 17:11:14 GMT-0700 (Pacific Daylight Time)","299117","green","red","animation","88","84693","0.0-5.0-2.41","","","","","","184","","","","","","[{""stimulus"":""img/red_ll/1.jpg"",""time"":51},{""stimulus"":""img/red_ll/2.jpg"",""time"":103},{""stimulus"":""img/red_ll/3.jpg"",""time"":154},{""stimulus"":""img/red_ll/4.jpg"",""time"":205},{""stimulus"":""img/red_ll/5.jpg"",""time"":255},{""stimulus"":""img/red_ll/6.jpg"",""time"":306},{""stimulus"":""img/red_ll/7.jpg"",""time"":357},{""stimulus"":""img/red_ll/8.jpg"",""time"":407},{""stimulus"":""img/red_ll/9.jpg"",""time"":457},{""stimulus"":""img/red_ll/10.jpg"",""time"":509},{""stimulus"":""img/red_ll/11.jpg"",""time"":560}]","[]"
"","","","choice","63d43dc4b4b7a0e426a381cd","bdp_lott","Sun Mar 26 2023 17:11:14 GMT-0700 (Pacific Daylight Time)","299117","green","red","image-keyboard-response","89","85131","0.0-5.0-1.42","","437","","img/red_ll/choose11.jpg","2","183","red","0.5","0.5","0.5","l","",""
"","","","","63d43dc4b4b7a0e426a381cd","bdp_lott","Sun Mar 26 2023 17:11:14 GMT-0700 (Pacific Daylight Time)","299117","green","red","animation","90","85739","0.0-5.0-2.42","","","","","","183","","","","","","[{""stimulus"":""img/red_ll/1.jpg"",""time"":51},{""stimulus"":""img/red_ll/2.jpg"",""time"":101},{""stimulus"":""img/red_ll/3.jpg"",""time"":152},{""stimulus"":""img/red_ll/4.jpg"",""time"":203},{""stimulus"":""img/red_ll/5.jpg"",""time"":253},{""stimulus"":""img/red_ll/6.jpg"",""time"":304},{""stimulus"":""img/red_ll/7.jpg"",""time"":354},{""stimulus"":""img/red_ll/8.jpg"",""time"":405},{""stimulus"":""img/red_ll/9.jpg"",""time"":456},{""stimulus"":""img/red_ll/10.jpg"",""time"":507},{""stimulus"":""img/red_ll/11.jpg"",""time"":557}]","[]"
"","","","choice","63d43dc4b4b7a0e426a381cd","bdp_lott","Sun Mar 26 2023 17:11:14 GMT-0700 (Pacific Daylight Time)","299117","green","red","image-keyboard-response","91","86212","0.0-5.0-1.43","","472","","img/red_ll/choose11.jpg","2","182","red","0.5","0.5","0.5","w","",""
"","","","","63d43dc4b4b7a0e426a381cd","bdp_lott","Sun Mar 26 2023 17:11:14 GMT-0700 (Pacific Daylight Time)","299117","green","red","animation","92","86825","0.0-5.0-2.43","","","","","","182","","","","","","[{""stimulus"":""img/red_lw/1.jpg"",""time"":53},{""stimulus"":""img/red_lw/2.jpg"",""time"":104},{""stimulus"":""img/red_lw/3.jpg"",""time"":154},{""stimulus"":""img/red_lw/4.jpg"",""time"":204},{""stimulus"":""img/red_lw/5.jpg"",""time"":256},{""stimulus"":""img/red_lw/6.jpg"",""time"":307},{""stimulus"":""img/red_lw/7.jpg"",""time"":358},{""stimulus"":""img/red_lw/8.jpg"",""time"":409},{""stimulus"":""img/red_lw/9.jpg"",""time"":459},{""stimulus"":""img/red_lw/10.jpg"",""time"":511},{""stimulus"":""img/red_lw/11.jpg"",""time"":561}]","[]"
"","","","choice","63d43dc4b4b7a0e426a381cd","bdp_lott","Sun Mar 26 2023 17:11:14 GMT-0700 (Pacific Daylight Time)","299117","green","red","image-keyboard-response","93","87409","0.0-5.0-1.44","","583","","img/red_lw/choose11.jpg","2","181","red","0.5","0.5","0.5","l","",""
"","","","","63d43dc4b4b7a0e426a381cd","bdp_lott","Sun Mar 26 2023 17:11:14 GMT-0700 (Pacific Daylight Time)","299117","green","red","animation","94","88023","0.0-5.0-2.44","","","","","","181","","","","","","[{""stimulus"":""img/red_ll/1.jpg"",""time"":51},{""stimulus"":""img/red_ll/2.jpg"",""time"":102},{""stimulus"":""img/red_ll/3.jpg"",""time"":153},{""stimulus"":""img/red_ll/4.jpg"",""time"":205},{""stimulus"":""img/red_ll/5.jpg"",""time"":256},{""stimulus"":""img/red_ll/6.jpg"",""time"":307},{""stimulus"":""img/red_ll/7.jpg"",""time"":358},{""stimulus"":""img/red_ll/8.jpg"",""time"":409},{""stimulus"":""img/red_ll/9.jpg"",""time"":460},{""stimulus"":""img/red_ll/10.jpg"",""time"":511},{""stimulus"":""img/red_ll/11.jpg"",""time"":562}]","[]"
"","","","choice","63d43dc4b4b7a0e426a381cd","bdp_lott","Sun Mar 26 2023 17:11:14 GMT-0700 (Pacific Daylight Time)","299117","green","red","image-keyboard-response","95","88556","0.0-5.0-1.45","","532","","img/red_ll/choose11.jpg","1","180","green","0.5","0.5","0.5","w","",""
"","","","","63d43dc4b4b7a0e426a381cd","bdp_lott","Sun Mar 26 2023 17:11:14 GMT-0700 (Pacific Daylight Time)","299117","green","red","animation","96","89167","0.0-5.0-2.45","","","","","","180","","","","","","[{""stimulus"":""img/green_wl/1.jpg"",""time"":51},{""stimulus"":""img/green_wl/2.jpg"",""time"":101},{""stimulus"":""img/green_wl/3.jpg"",""time"":152},{""stimulus"":""img/green_wl/4.jpg"",""time"":203},{""stimulus"":""img/green_wl/5.jpg"",""time"":254},{""stimulus"":""img/green_wl/6.jpg"",""time"":304},{""stimulus"":""img/green_wl/7.jpg"",""time"":354},{""stimulus"":""img/green_wl/8.jpg"",""time"":405},{""stimulus"":""img/green_wl/9.jpg"",""time"":457},{""stimulus"":""img/green_wl/10.jpg"",""time"":509},{""stimulus"":""img/green_wl/11.jpg"",""time"":559}]","[]"
"","","","choice","63d43dc4b4b7a0e426a381cd","bdp_lott","Sun Mar 26 2023 17:11:14 GMT-0700 (Pacific Daylight Time)","299117","green","red","image-keyboard-response","97","89586","0.0-5.0-1.46","","418","","img/green_wl/choose11.jpg","1","179","green","0.5","0.5","0.5","l","",""
"","","","","63d43dc4b4b7a0e426a381cd","bdp_lott","Sun Mar 26 2023 17:11:14 GMT-0700 (Pacific Daylight Time)","299117","green","red","animation","98","90193","0.0-5.0-2.46","","","","","","179","","","","","","[{""stimulus"":""img/green_ll/1.jpg"",""time"":51},{""stimulus"":""img/green_ll/2.jpg"",""time"":101},{""stimulus"":""img/green_ll/3.jpg"",""time"":152},{""stimulus"":""img/green_ll/4.jpg"",""time"":202},{""stimulus"":""img/green_ll/5.jpg"",""time"":253},{""stimulus"":""img/green_ll/6.jpg"",""time"":303},{""stimulus"":""img/green_ll/7.jpg"",""time"":354},{""stimulus"":""img/green_ll/8.jpg"",""time"":405},{""stimulus"":""img/green_ll/9.jpg"",""time"":456},{""stimulus"":""img/green_ll/10.jpg"",""time"":506},{""stimulus"":""img/green_ll/11.jpg"",""time"":556}]","[]"
"","","","choice","63d43dc4b4b7a0e426a381cd","bdp_lott","Sun Mar 26 2023 17:11:14 GMT-0700 (Pacific Daylight Time)","299117","green","red","image-keyboard-response","99","90716","0.0-5.0-1.47","","523","","img/green_ll/choose11.jpg","2","178","red","0.5","0.5","0.5","l","",""
"","","","","63d43dc4b4b7a0e426a381cd","bdp_lott","Sun Mar 26 2023 17:11:14 GMT-0700 (Pacific Daylight Time)","299117","green","red","animation","100","91436","0.0-5.0-2.47","","","","","","178","","","","","","[{""stimulus"":""img/red_ll/1.jpg"",""time"":52},{""stimulus"":""img/red_ll/2.jpg"",""time"":102},{""stimulus"":""img/red_ll/3.jpg"",""time"":152},{""stimulus"":""img/red_ll/4.jpg"",""time"":204},{""stimulus"":""img/red_ll/5.jpg"",""time"":255},{""stimulus"":""img/red_ll/6.jpg"",""time"":307},{""stimulus"":""img/red_ll/7.jpg"",""time"":358},{""stimulus"":""img/red_ll/8.jpg"",""time"":409},{""stimulus"":""img/red_ll/9.jpg"",""time"":477},{""stimulus"":""img/red_ll/10.jpg"",""time"":597},{""stimulus"":""img/red_ll/11.jpg"",""time"":668}]","[]"
"","","","choice","63d43dc4b4b7a0e426a381cd","bdp_lott","Sun Mar 26 2023 17:11:14 GMT-0700 (Pacific Daylight Time)","299117","green","red","image-keyboard-response","101","91909","0.0-5.0-1.48","","472","","img/red_ll/choose11.jpg","2","177","red","0.5","0.5","0.5","l","",""
"","","","","63d43dc4b4b7a0e426a381cd","bdp_lott","Sun Mar 26 2023 17:11:14 GMT-0700 (Pacific Daylight Time)","299117","green","red","animation","102","92521","0.0-5.0-2.48","","","","","","177","","","","","","[{""stimulus"":""img/red_ll/1.jpg"",""time"":50},{""stimulus"":""img/red_ll/2.jpg"",""time"":100},{""stimulus"":""img/red_ll/3.jpg"",""time"":152},{""stimulus"":""img/red_ll/4.jpg"",""time"":204},{""stimulus"":""img/red_ll/5.jpg"",""time"":255},{""stimulus"":""img/red_ll/6.jpg"",""time"":306},{""stimulus"":""img/red_ll/7.jpg"",""time"":358},{""stimulus"":""img/red_ll/8.jpg"",""time"":407},{""stimulus"":""img/red_ll/9.jpg"",""time"":458},{""stimulus"":""img/red_ll/10.jpg"",""time"":510},{""stimulus"":""img/red_ll/11.jpg"",""time"":561}]","[]"
"","","","choice","63d43dc4b4b7a0e426a381cd","bdp_lott","Sun Mar 26 2023 17:11:14 GMT-0700 (Pacific Daylight Time)","299117","green","red","image-keyboard-response","103","93021","0.0-5.0-1.49","","499","","img/red_ll/choose11.jpg","2","176","red","0.5","0.5","0.5","w","",""
"","","","","63d43dc4b4b7a0e426a381cd","bdp_lott","Sun Mar 26 2023 17:11:14 GMT-0700 (Pacific Daylight Time)","299117","green","red","animation","104","93631","0.0-5.0-2.49","","","","","","176","","","","","","[{""stimulus"":""img/red_lw/1.jpg"",""time"":50},{""stimulus"":""img/red_lw/2.jpg"",""time"":100},{""stimulus"":""img/red_lw/3.jpg"",""time"":151},{""stimulus"":""img/red_lw/4.jpg"",""time"":202},{""stimulus"":""img/red_lw/5.jpg"",""time"":251},{""stimulus"":""img/red_lw/6.jpg"",""time"":302},{""stimulus"":""img/red_lw/7.jpg"",""time"":353},{""stimulus"":""img/red_lw/8.jpg"",""time"":404},{""stimulus"":""img/red_lw/9.jpg"",""time"":455},{""stimulus"":""img/red_lw/10.jpg"",""time"":506},{""stimulus"":""img/red_lw/11.jpg"",""time"":558}]","[]"
"","","","choice","63d43dc4b4b7a0e426a381cd","bdp_lott","Sun Mar 26 2023 17:11:14 GMT-0700 (Pacific Daylight Time)","299117","green","red","image-keyboard-response","105","94083","0.0-5.0-1.50","","451","","img/red_lw/choose11.jpg","2","175","red","0.5","0.5","0.5","w","",""
"","","","","63d43dc4b4b7a0e426a381cd","bdp_lott","Sun Mar 26 2023 17:11:14 GMT-0700 (Pacific Daylight Time)","299117","green","red","animation","106","94694","0.0-5.0-2.50","","","","","","175","","","","","","[{""stimulus"":""img/red_lw/1.jpg"",""time"":53},{""stimulus"":""img/red_lw/2.jpg"",""time"":103},{""stimulus"":""img/red_lw/3.jpg"",""time"":154},{""stimulus"":""img/red_lw/4.jpg"",""time"":205},{""stimulus"":""img/red_lw/5.jpg"",""time"":255},{""stimulus"":""img/red_lw/6.jpg"",""time"":306},{""stimulus"":""img/red_lw/7.jpg"",""time"":357},{""stimulus"":""img/red_lw/8.jpg"",""time"":408},{""stimulus"":""img/red_lw/9.jpg"",""time"":460},{""stimulus"":""img/red_lw/10.jpg"",""time"":509},{""stimulus"":""img/red_lw/11.jpg"",""time"":561}]","[]"
"","","","choice","63d43dc4b4b7a0e426a381cd","bdp_lott","Sun Mar 26 2023 17:11:14 GMT-0700 (Pacific Daylight Time)","299117","green","red","image-keyboard-response","107","95164","0.0-5.0-1.51","","469","","img/red_lw/choose11.jpg","2","174","red","0.5","0.5","0.5","w","",""
"","","","","63d43dc4b4b7a0e426a381cd","bdp_lott","Sun Mar 26 2023 17:11:14 GMT-0700 (Pacific Daylight Time)","299117","green","red","animation","108","95773","0.0-5.0-2.51","","","","","","174","","","","","","[{""stimulus"":""img/red_lw/1.jpg"",""time"":51},{""stimulus"":""img/red_lw/2.jpg"",""time"":102},{""stimulus"":""img/red_lw/3.jpg"",""time"":152},{""stimulus"":""img/red_lw/4.jpg"",""time"":202},{""stimulus"":""img/red_lw/5.jpg"",""time"":252},{""stimulus"":""img/red_lw/6.jpg"",""time"":304},{""stimulus"":""img/red_lw/7.jpg"",""time"":355},{""stimulus"":""img/red_lw/8.jpg"",""time"":406},{""stimulus"":""img/red_lw/9.jpg"",""time"":456},{""stimulus"":""img/red_lw/10.jpg"",""time"":507},{""stimulus"":""img/red_lw/11.jpg"",""time"":558}]","[]"
"","","","choice","63d43dc4b4b7a0e426a381cd","bdp_lott","Sun Mar 26 2023 17:11:14 GMT-0700 (Pacific Daylight Time)","299117","green","red","image-keyboard-response","109","96158","0.0-5.0-1.52","","384","","img/red_lw/choose11.jpg","2","173","red","0.5","0.5","0.5","l","",""
"","","","","63d43dc4b4b7a0e426a381cd","bdp_lott","Sun Mar 26 2023 17:11:14 GMT-0700 (Pacific Daylight Time)","299117","green","red","animation","110","96769","0.0-5.0-2.52","","","","","","173","","","","","","[{""stimulus"":""img/red_ll/1.jpg"",""time"":51},{""stimulus"":""img/red_ll/2.jpg"",""time"":102},{""stimulus"":""img/red_ll/3.jpg"",""time"":154},{""stimulus"":""img/red_ll/4.jpg"",""time"":205},{""stimulus"":""img/red_ll/5.jpg"",""time"":256},{""stimulus"":""img/red_ll/6.jpg"",""time"":308},{""stimulus"":""img/red_ll/7.jpg"",""time"":359},{""stimulus"":""img/red_ll/8.jpg"",""time"":409},{""stimulus"":""img/red_ll/9.jpg"",""time"":459},{""stimulus"":""img/red_ll/10.jpg"",""time"":511},{""stimulus"":""img/red_ll/11.jpg"",""time"":562}]","[]"
"","","","choice","63d43dc4b4b7a0e426a381cd","bdp_lott","Sun Mar 26 2023 17:11:14 GMT-0700 (Pacific Daylight Time)","299117","green","red","image-keyboard-response","111","97255","0.0-5.0-1.53","","484","","img/red_ll/choose11.jpg","1","172","green","0.5","0.5","0.5","l","",""
"","","","","63d43dc4b4b7a0e426a381cd","bdp_lott","Sun Mar 26 2023 17:11:14 GMT-0700 (Pacific Daylight Time)","299117","green","red","animation","112","97865","0.0-5.0-2.53","","","","","","172","","","","","","[{""stimulus"":""img/green_ll/1.jpg"",""time"":52},{""stimulus"":""img/green_ll/2.jpg"",""time"":101},{""stimulus"":""img/green_ll/3.jpg"",""time"":152},{""stimulus"":""img/green_ll/4.jpg"",""time"":203},{""stimulus"":""img/green_ll/5.jpg"",""time"":255},{""stimulus"":""img/green_ll/6.jpg"",""time"":306},{""stimulus"":""img/green_ll/7.jpg"",""time"":356},{""stimulus"":""img/green_ll/8.jpg"",""time"":407},{""stimulus"":""img/green_ll/9.jpg"",""time"":459},{""stimulus"":""img/green_ll/10.jpg"",""time"":510},{""stimulus"":""img/green_ll/11.jpg"",""time"":559}]","[]"
"","","","choice","63d43dc4b4b7a0e426a381cd","bdp_lott","Sun Mar 26 2023 17:11:14 GMT-0700 (Pacific Daylight Time)","299117","green","red","image-keyboard-response","113","98359","0.0-5.0-1.54","","494","","img/green_ll/choose11.jpg","1","171","green","0.5","0.5","0.5","l","",""
"","","","","63d43dc4b4b7a0e426a381cd","bdp_lott","Sun Mar 26 2023 17:11:14 GMT-0700 (Pacific Daylight Time)","299117","green","red","animation","114","98968","0.0-5.0-2.54","","","","","","171","","","","","","[{""stimulus"":""img/green_ll/1.jpg"",""time"":51},{""stimulus"":""img/green_ll/2.jpg"",""time"":102},{""stimulus"":""img/green_ll/3.jpg"",""time"":153},{""stimulus"":""img/green_ll/4.jpg"",""time"":203},{""stimulus"":""img/green_ll/5.jpg"",""time"":254},{""stimulus"":""img/green_ll/6.jpg"",""time"":304},{""stimulus"":""img/green_ll/7.jpg"",""time"":354},{""stimulus"":""img/green_ll/8.jpg"",""time"":406},{""stimulus"":""img/green_ll/9.jpg"",""time"":457},{""stimulus"":""img/green_ll/10.jpg"",""time"":506},{""stimulus"":""img/green_ll/11.jpg"",""time"":558}]","[]"
"","","","choice","63d43dc4b4b7a0e426a381cd","bdp_lott","Sun Mar 26 2023 17:11:14 GMT-0700 (Pacific Daylight Time)","299117","green","red","image-keyboard-response","115","99437","0.0-5.0-1.55","","467","","img/green_ll/choose11.jpg","1","170","green","0.5","0.5","0.5","w","",""
"","","","","63d43dc4b4b7a0e426a381cd","bdp_lott","Sun Mar 26 2023 17:11:14 GMT-0700 (Pacific Daylight Time)","299117","green","red","animation","116","100045","0.0-5.0-2.55","","","","","","170","","","","","","[{""stimulus"":""img/green_wl/1.jpg"",""time"":50},{""stimulus"":""img/green_wl/2.jpg"",""time"":100},{""stimulus"":""img/green_wl/3.jpg"",""time"":150},{""stimulus"":""img/green_wl/4.jpg"",""time"":201},{""stimulus"":""img/green_wl/5.jpg"",""time"":253},{""stimulus"":""img/green_wl/6.jpg"",""time"":304},{""stimulus"":""img/green_wl/7.jpg"",""time"":354},{""stimulus"":""img/green_wl/8.jpg"",""time"":404},{""stimulus"":""img/green_wl/9.jpg"",""time"":455},{""stimulus"":""img/green_wl/10.jpg"",""time"":505},{""stimulus"":""img/green_wl/11.jpg"",""time"":557}]","[]"
"","","","choice","63d43dc4b4b7a0e426a381cd","bdp_lott","Sun Mar 26 2023 17:11:14 GMT-0700 (Pacific Daylight Time)","299117","green","red","image-keyboard-response","117","100558","0.0-5.0-1.56","","513","","img/green_wl/choose11.jpg","1","169","green","0.5","0.5","0.5","l","",""
"","","","","63d43dc4b4b7a0e426a381cd","bdp_lott","Sun Mar 26 2023 17:11:14 GMT-0700 (Pacific Daylight Time)","299117","green","red","animation","118","101171","0.0-5.0-2.56","","","","","","169","","","","","","[{""stimulus"":""img/green_ll/1.jpg"",""time"":51},{""stimulus"":""img/green_ll/2.jpg"",""time"":101},{""stimulus"":""img/green_ll/3.jpg"",""time"":153},{""stimulus"":""img/green_ll/4.jpg"",""time"":204},{""stimulus"":""img/green_ll/5.jpg"",""time"":255},{""stimulus"":""img/green_ll/6.jpg"",""time"":306},{""stimulus"":""img/green_ll/7.jpg"",""time"":357},{""stimulus"":""img/green_ll/8.jpg"",""time"":410},{""stimulus"":""img/green_ll/9.jpg"",""time"":460},{""stimulus"":""img/green_ll/10.jpg"",""time"":511},{""stimulus"":""img/green_ll/11.jpg"",""time"":562}]","[]"
"","","","choice","63d43dc4b4b7a0e426a381cd","bdp_lott","Sun Mar 26 2023 17:11:14 GMT-0700 (Pacific Daylight Time)","299117","green","red","image-keyboard-response","119","101981","0.0-5.0-1.57","","809","","img/green_ll/choose11.jpg","1","168","green","0.5","0.5","0.5","l","",""
"","","","","63d43dc4b4b7a0e426a381cd","bdp_lott","Sun Mar 26 2023 17:11:14 GMT-0700 (Pacific Daylight Time)","299117","green","red","animation","120","102595","0.0-5.0-2.57","","","","","","168","","","","","","[{""stimulus"":""img/green_ll/1.jpg"",""time"":51},{""stimulus"":""img/green_ll/2.jpg"",""time"":101},{""stimulus"":""img/green_ll/3.jpg"",""time"":152},{""stimulus"":""img/green_ll/4.jpg"",""time"":203},{""stimulus"":""img/green_ll/5.jpg"",""time"":255},{""stimulus"":""img/green_ll/6.jpg"",""time"":306},{""stimulus"":""img/green_ll/7.jpg"",""time"":358},{""stimulus"":""img/green_ll/8.jpg"",""time"":409},{""stimulus"":""img/green_ll/9.jpg"",""time"":461},{""stimulus"":""img/green_ll/10.jpg"",""time"":511},{""stimulus"":""img/green_ll/11.jpg"",""time"":562}]","[]"
"","","","choice","63d43dc4b4b7a0e426a381cd","bdp_lott","Sun Mar 26 2023 17:11:14 GMT-0700 (Pacific Daylight Time)","299117","green","red","image-keyboard-response","121","103114","0.0-5.0-1.58","","519","","img/green_ll/choose11.jpg","2","167","red","0.5","0.5","0.5","l","",""
"","","","","63d43dc4b4b7a0e426a381cd","bdp_lott","Sun Mar 26 2023 17:11:14 GMT-0700 (Pacific Daylight Time)","299117","green","red","animation","122","103727","0.0-5.0-2.58","","","","","","167","","","","","","[{""stimulus"":""img/red_ll/1.jpg"",""time"":52},{""stimulus"":""img/red_ll/2.jpg"",""time"":103},{""stimulus"":""img/red_ll/3.jpg"",""time"":153},{""stimulus"":""img/red_ll/4.jpg"",""time"":204},{""stimulus"":""img/red_ll/5.jpg"",""time"":254},{""stimulus"":""img/red_ll/6.jpg"",""time"":307},{""stimulus"":""img/red_ll/7.jpg"",""time"":358},{""stimulus"":""img/red_ll/8.jpg"",""time"":409},{""stimulus"":""img/red_ll/9.jpg"",""time"":460},{""stimulus"":""img/red_ll/10.jpg"",""time"":511},{""stimulus"":""img/red_ll/11.jpg"",""time"":562}]","[]"
"","","","choice","63d43dc4b4b7a0e426a381cd","bdp_lott","Sun Mar 26 2023 17:11:14 GMT-0700 (Pacific Daylight Time)","299117","green","red","image-keyboard-response","123","104146","0.0-5.0-1.59","","417","","img/red_ll/choose11.jpg","2","166","red","0.5","0.5","0.5","w","",""
"","","","","63d43dc4b4b7a0e426a381cd","bdp_lott","Sun Mar 26 2023 17:11:14 GMT-0700 (Pacific Daylight Time)","299117","green","red","animation","124","104758","0.0-5.0-2.59","","","","","","166","","","","","","[{""stimulus"":""img/red_lw/1.jpg"",""time"":51},{""stimulus"":""img/red_lw/2.jpg"",""time"":101},{""stimulus"":""img/red_lw/3.jpg"",""time"":152},{""stimulus"":""img/red_lw/4.jpg"",""time"":204},{""stimulus"":""img/red_lw/5.jpg"",""time"":255},{""stimulus"":""img/red_lw/6.jpg"",""time"":305},{""stimulus"":""img/red_lw/7.jpg"",""time"":356},{""stimulus"":""img/red_lw/8.jpg"",""time"":407},{""stimulus"":""img/red_lw/9.jpg"",""time"":458},{""stimulus"":""img/red_lw/10.jpg"",""time"":509},{""stimulus"":""img/red_lw/11.jpg"",""time"":559}]","[]"
"","","","choice","63d43dc4b4b7a0e426a381cd","bdp_lott","Sun Mar 26 2023 17:11:14 GMT-0700 (Pacific Daylight Time)","299117","green","red","image-keyboard-response","125","105284","0.0-5.0-1.60","","526","","img/red_lw/choose11.jpg","2","165","red","0.5","0.5","0.5","w","",""
"","","","","63d43dc4b4b7a0e426a381cd","bdp_lott","Sun Mar 26 2023 17:11:14 GMT-0700 (Pacific Daylight Time)","299117","green","red","animation","126","105898","0.0-5.0-2.60","","","","","","165","","","","","","[{""stimulus"":""img/red_lw/1.jpg"",""time"":52},{""stimulus"":""img/red_lw/2.jpg"",""time"":102},{""stimulus"":""img/red_lw/3.jpg"",""time"":153},{""stimulus"":""img/red_lw/4.jpg"",""time"":205},{""stimulus"":""img/red_lw/5.jpg"",""time"":254},{""stimulus"":""img/red_lw/6.jpg"",""time"":306},{""stimulus"":""img/red_lw/7.jpg"",""time"":358},{""stimulus"":""img/red_lw/8.jpg"",""time"":409},{""stimulus"":""img/red_lw/9.jpg"",""time"":461},{""stimulus"":""img/red_lw/10.jpg"",""time"":510},{""stimulus"":""img/red_lw/11.jpg"",""time"":562}]","[]"
"","","","choice","63d43dc4b4b7a0e426a381cd","bdp_lott","Sun Mar 26 2023 17:11:14 GMT-0700 (Pacific Daylight Time)","299117","green","red","image-keyboard-response","127","106328","0.0-5.0-1.61","","429","","img/red_lw/choose11.jpg","2","164","red","0.5","0.5","0.5","w","",""
"","","","","63d43dc4b4b7a0e426a381cd","bdp_lott","Sun Mar 26 2023 17:11:14 GMT-0700 (Pacific Daylight Time)","299117","green","red","animation","128","106936","0.0-5.0-2.61","","","","","","164","","","","","","[{""stimulus"":""img/red_lw/1.jpg"",""time"":52},{""stimulus"":""img/red_lw/2.jpg"",""time"":102},{""stimulus"":""img/red_lw/3.jpg"",""time"":152},{""stimulus"":""img/red_lw/4.jpg"",""time"":203},{""stimulus"":""img/red_lw/5.jpg"",""time"":253},{""stimulus"":""img/red_lw/6.jpg"",""time"":304},{""stimulus"":""img/red_lw/7.jpg"",""time"":355},{""stimulus"":""img/red_lw/8.jpg"",""time"":406},{""stimulus"":""img/red_lw/9.jpg"",""time"":457},{""stimulus"":""img/red_lw/10.jpg"",""time"":507},{""stimulus"":""img/red_lw/11.jpg"",""time"":558}]","[]"
"","","","choice","63d43dc4b4b7a0e426a381cd","bdp_lott","Sun Mar 26 2023 17:11:14 GMT-0700 (Pacific Daylight Time)","299117","green","red","image-keyboard-response","129","107303","0.0-5.0-1.62","","367","","img/red_lw/choose11.jpg","2","163","red","0.5","0.5","0.5","w","",""
"","","","","63d43dc4b4b7a0e426a381cd","bdp_lott","Sun Mar 26 2023 17:11:14 GMT-0700 (Pacific Daylight Time)","299117","green","red","animation","130","107919","0.0-5.0-2.62","","","","","","163","","","","","","[{""stimulus"":""img/red_lw/1.jpg"",""time"":52},{""stimulus"":""img/red_lw/2.jpg"",""time"":104},{""stimulus"":""img/red_lw/3.jpg"",""time"":155},{""stimulus"":""img/red_lw/4.jpg"",""time"":206},{""stimulus"":""img/red_lw/5.jpg"",""time"":257},{""stimulus"":""img/red_lw/6.jpg"",""time"":309},{""stimulus"":""img/red_lw/7.jpg"",""time"":360},{""stimulus"":""img/red_lw/8.jpg"",""time"":412},{""stimulus"":""img/red_lw/9.jpg"",""time"":463},{""stimulus"":""img/red_lw/10.jpg"",""time"":514},{""stimulus"":""img/red_lw/11.jpg"",""time"":566}]","[]"
"","","","choice","63d43dc4b4b7a0e426a381cd","bdp_lott","Sun Mar 26 2023 17:11:14 GMT-0700 (Pacific Daylight Time)","299117","green","red","image-keyboard-response","131","108306","0.0-5.0-1.63","","386","","img/red_lw/choose11.jpg","2","162","red","0.5","0.5","0.5","l","",""
"","","","","63d43dc4b4b7a0e426a381cd","bdp_lott","Sun Mar 26 2023 17:11:14 GMT-0700 (Pacific Daylight Time)","299117","green","red","animation","132","108919","0.0-5.0-2.63","","","","","","162","","","","","","[{""stimulus"":""img/red_ll/1.jpg"",""time"":52},{""stimulus"":""img/red_ll/2.jpg"",""time"":104},{""stimulus"":""img/red_ll/3.jpg"",""time"":155},{""stimulus"":""img/red_ll/4.jpg"",""time"":207},{""stimulus"":""img/red_ll/5.jpg"",""time"":256},{""stimulus"":""img/red_ll/6.jpg"",""time"":307},{""stimulus"":""img/red_ll/7.jpg"",""time"":356},{""stimulus"":""img/red_ll/8.jpg"",""time"":407},{""stimulus"":""img/red_ll/9.jpg"",""time"":458},{""stimulus"":""img/red_ll/10.jpg"",""time"":510},{""stimulus"":""img/red_ll/11.jpg"",""time"":560}]","[]"
"","","","choice","63d43dc4b4b7a0e426a381cd","bdp_lott","Sun Mar 26 2023 17:11:14 GMT-0700 (Pacific Daylight Time)","299117","green","red","image-keyboard-response","133","109449","0.0-5.0-1.64","","530","","img/red_ll/choose11.jpg","1","161","green","0.5","0.5","0.5","l","",""
"","","","","63d43dc4b4b7a0e426a381cd","bdp_lott","Sun Mar 26 2023 17:11:14 GMT-0700 (Pacific Daylight Time)","299117","green","red","animation","134","110057","0.0-5.0-2.64","","","","","","161","","","","","","[{""stimulus"":""img/green_ll/1.jpg"",""time"":53},{""stimulus"":""img/green_ll/2.jpg"",""time"":103},{""stimulus"":""img/green_ll/3.jpg"",""time"":154},{""stimulus"":""img/green_ll/4.jpg"",""time"":204},{""stimulus"":""img/green_ll/5.jpg"",""time"":255},{""stimulus"":""img/green_ll/6.jpg"",""time"":305},{""stimulus"":""img/green_ll/7.jpg"",""time"":356},{""stimulus"":""img/green_ll/8.jpg"",""time"":406},{""stimulus"":""img/green_ll/9.jpg"",""time"":456},{""stimulus"":""img/green_ll/10.jpg"",""time"":506},{""stimulus"":""img/green_ll/11.jpg"",""time"":558}]","[]"
"","","","choice","63d43dc4b4b7a0e426a381cd","bdp_lott","Sun Mar 26 2023 17:11:14 GMT-0700 (Pacific Daylight Time)","299117","green","red","image-keyboard-response","135","110783","0.0-5.0-1.65","","725","","img/green_ll/choose11.jpg","1","160","green","0.5","0.5","0.5","l","",""
"","","","","63d43dc4b4b7a0e426a381cd","bdp_lott","Sun Mar 26 2023 17:11:14 GMT-0700 (Pacific Daylight Time)","299117","green","red","animation","136","111396","0.0-5.0-2.65","","","","","","160","","","","","","[{""stimulus"":""img/green_ll/1.jpg"",""time"":51},{""stimulus"":""img/green_ll/2.jpg"",""time"":101},{""stimulus"":""img/green_ll/3.jpg"",""time"":153},{""stimulus"":""img/green_ll/4.jpg"",""time"":205},{""stimulus"":""img/green_ll/5.jpg"",""time"":256},{""stimulus"":""img/green_ll/6.jpg"",""time"":305},{""stimulus"":""img/green_ll/7.jpg"",""time"":360},{""stimulus"":""img/green_ll/8.jpg"",""time"":410},{""stimulus"":""img/green_ll/9.jpg"",""time"":462},{""stimulus"":""img/green_ll/10.jpg"",""time"":512},{""stimulus"":""img/green_ll/11.jpg"",""time"":563}]","[]"
"","","","choice","63d43dc4b4b7a0e426a381cd","bdp_lott","Sun Mar 26 2023 17:11:14 GMT-0700 (Pacific Daylight Time)","299117","green","red","image-keyboard-response","137","112012","0.0-5.0-1.66","","615","","img/green_ll/choose11.jpg","1","159","green","0.5","0.5","0.5","l","",""
"","","","","63d43dc4b4b7a0e426a381cd","bdp_lott","Sun Mar 26 2023 17:11:14 GMT-0700 (Pacific Daylight Time)","299117","green","red","animation","138","112625","0.0-5.0-2.66","","","","","","159","","","","","","[{""stimulus"":""img/green_ll/1.jpg"",""time"":51},{""stimulus"":""img/green_ll/2.jpg"",""time"":102},{""stimulus"":""img/green_ll/3.jpg"",""time"":153},{""stimulus"":""img/green_ll/4.jpg"",""time"":204},{""stimulus"":""img/green_ll/5.jpg"",""time"":256},{""stimulus"":""img/green_ll/6.jpg"",""time"":307},{""stimulus"":""img/green_ll/7.jpg"",""time"":357},{""stimulus"":""img/green_ll/8.jpg"",""time"":408},{""stimulus"":""img/green_ll/9.jpg"",""time"":460},{""stimulus"":""img/green_ll/10.jpg"",""time"":511},{""stimulus"":""img/green_ll/11.jpg"",""time"":563}]","[]"
"","","","choice","63d43dc4b4b7a0e426a381cd","bdp_lott","Sun Mar 26 2023 17:11:14 GMT-0700 (Pacific Daylight Time)","299117","green","red","image-keyboard-response","139","113335","0.0-5.0-1.67","","709","","img/green_ll/choose11.jpg","1","158","green","0.5","0.5","0.5","l","",""
"","","","","63d43dc4b4b7a0e426a381cd","bdp_lott","Sun Mar 26 2023 17:11:14 GMT-0700 (Pacific Daylight Time)","299117","green","red","animation","140","113946","0.0-5.0-2.67","","","","","","158","","","","","","[{""stimulus"":""img/green_ll/1.jpg"",""time"":52},{""stimulus"":""img/green_ll/2.jpg"",""time"":101},{""stimulus"":""img/green_ll/3.jpg"",""time"":153},{""stimulus"":""img/green_ll/4.jpg"",""time"":202},{""stimulus"":""img/green_ll/5.jpg"",""time"":254},{""stimulus"":""img/green_ll/6.jpg"",""time"":304},{""stimulus"":""img/green_ll/7.jpg"",""time"":354},{""stimulus"":""img/green_ll/8.jpg"",""time"":407},{""stimulus"":""img/green_ll/9.jpg"",""time"":457},{""stimulus"":""img/green_ll/10.jpg"",""time"":508},{""stimulus"":""img/green_ll/11.jpg"",""time"":558}]","[]"
"","","","choice","63d43dc4b4b7a0e426a381cd","bdp_lott","Sun Mar 26 2023 17:11:14 GMT-0700 (Pacific Daylight Time)","299117","green","red","image-keyboard-response","141","114612","0.0-5.0-1.68","","665","","img/green_ll/choose11.jpg","2","157","red","0.5","0.5","0.5","l","",""
"","","","","63d43dc4b4b7a0e426a381cd","bdp_lott","Sun Mar 26 2023 17:11:14 GMT-0700 (Pacific Daylight Time)","299117","green","red","animation","142","115227","0.0-5.0-2.68","","","","","","157","","","","","","[{""stimulus"":""img/red_ll/1.jpg"",""time"":51},{""stimulus"":""img/red_ll/2.jpg"",""time"":102},{""stimulus"":""img/red_ll/3.jpg"",""time"":154},{""stimulus"":""img/red_ll/4.jpg"",""time"":205},{""stimulus"":""img/red_ll/5.jpg"",""time"":257},{""stimulus"":""img/red_ll/6.jpg"",""time"":307},{""stimulus"":""img/red_ll/7.jpg"",""time"":359},{""stimulus"":""img/red_ll/8.jpg"",""time"":411},{""stimulus"":""img/red_ll/9.jpg"",""time"":463},{""stimulus"":""img/red_ll/10.jpg"",""time"":512},{""stimulus"":""img/red_ll/11.jpg"",""time"":564}]","[]"
"","","","choice","63d43dc4b4b7a0e426a381cd","bdp_lott","Sun Mar 26 2023 17:11:14 GMT-0700 (Pacific Daylight Time)","299117","green","red","image-keyboard-response","143","115620","0.0-5.0-1.69","","391","","img/red_ll/choose11.jpg","2","156","red","0.5","0.5","0.5","w","",""
"","","","","63d43dc4b4b7a0e426a381cd","bdp_lott","Sun Mar 26 2023 17:11:14 GMT-0700 (Pacific Daylight Time)","299117","green","red","animation","144","116230","0.0-5.0-2.69","","","","","","156","","","","","","[{""stimulus"":""img/red_lw/1.jpg"",""time"":51},{""stimulus"":""img/red_lw/2.jpg"",""time"":102},{""stimulus"":""img/red_lw/3.jpg"",""time"":153},{""stimulus"":""img/red_lw/4.jpg"",""time"":204},{""stimulus"":""img/red_lw/5.jpg"",""time"":255},{""stimulus"":""img/red_lw/6.jpg"",""time"":305},{""stimulus"":""img/red_lw/7.jpg"",""time"":355},{""stimulus"":""img/red_lw/8.jpg"",""time"":406},{""stimulus"":""img/red_lw/9.jpg"",""time"":458},{""stimulus"":""img/red_lw/10.jpg"",""time"":509},{""stimulus"":""img/red_lw/11.jpg"",""time"":560}]","[]"
"","","","choice","63d43dc4b4b7a0e426a381cd","bdp_lott","Sun Mar 26 2023 17:11:14 GMT-0700 (Pacific Daylight Time)","299117","green","red","image-keyboard-response","145","116712","0.0-5.0-1.70","","480","","img/red_lw/choose11.jpg","2","155","red","0.5","0.5","0.5","w","",""
"","","","","63d43dc4b4b7a0e426a381cd","bdp_lott","Sun Mar 26 2023 17:11:14 GMT-0700 (Pacific Daylight Time)","299117","green","red","animation","146","117321","0.0-5.0-2.70","","","","","","155","","","","","","[{""stimulus"":""img/red_lw/1.jpg"",""time"":51},{""stimulus"":""img/red_lw/2.jpg"",""time"":101},{""stimulus"":""img/red_lw/3.jpg"",""time"":151},{""stimulus"":""img/red_lw/4.jpg"",""time"":201},{""stimulus"":""img/red_lw/5.jpg"",""time"":252},{""stimulus"":""img/red_lw/6.jpg"",""time"":303},{""stimulus"":""img/red_lw/7.jpg"",""time"":354},{""stimulus"":""img/red_lw/8.jpg"",""time"":405},{""stimulus"":""img/red_lw/9.jpg"",""time"":457},{""stimulus"":""img/red_lw/10.jpg"",""time"":506},{""stimulus"":""img/red_lw/11.jpg"",""time"":557}]","[]"
"","","","choice","63d43dc4b4b7a0e426a381cd","bdp_lott","Sun Mar 26 2023 17:11:14 GMT-0700 (Pacific Daylight Time)","299117","green","red","image-keyboard-response","147","117735","0.0-5.0-1.71","","413","","img/red_lw/choose11.jpg","2","154","red","0.5","0.5","0.5","l","",""
"","","","","63d43dc4b4b7a0e426a381cd","bdp_lott","Sun Mar 26 2023 17:11:14 GMT-0700 (Pacific Daylight Time)","299117","green","red","animation","148","118346","0.0-5.0-2.71","","","","","","154","","","","","","[{""stimulus"":""img/red_ll/1.jpg"",""time"":52},{""stimulus"":""img/red_ll/2.jpg"",""time"":102},{""stimulus"":""img/red_ll/3.jpg"",""time"":153},{""stimulus"":""img/red_ll/4.jpg"",""time"":205},{""stimulus"":""img/red_ll/5.jpg"",""time"":256},{""stimulus"":""img/red_ll/6.jpg"",""time"":306},{""stimulus"":""img/red_ll/7.jpg"",""time"":357},{""stimulus"":""img/red_ll/8.jpg"",""time"":407},{""stimulus"":""img/red_ll/9.jpg"",""time"":458},{""stimulus"":""img/red_ll/10.jpg"",""time"":508},{""stimulus"":""img/red_ll/11.jpg"",""time"":559}]","[]"
"","","","choice","63d43dc4b4b7a0e426a381cd","bdp_lott","Sun Mar 26 2023 17:11:14 GMT-0700 (Pacific Daylight Time)","299117","green","red","image-keyboard-response","149","118765","0.0-5.0-1.72","","418","","img/red_ll/choose11.jpg","2","153","red","0.5","0.5","0.5","w","",""
"","","","","63d43dc4b4b7a0e426a381cd","bdp_lott","Sun Mar 26 2023 17:11:14 GMT-0700 (Pacific Daylight Time)","299117","green","red","animation","150","119378","0.0-5.0-2.72","","","","","","153","","","","","","[{""stimulus"":""img/red_lw/1.jpg"",""time"":51},{""stimulus"":""img/red_lw/2.jpg"",""time"":103},{""stimulus"":""img/red_lw/3.jpg"",""time"":155},{""stimulus"":""img/red_lw/4.jpg"",""time"":206},{""stimulus"":""img/red_lw/5.jpg"",""time"":258},{""stimulus"":""img/red_lw/6.jpg"",""time"":308},{""stimulus"":""img/red_lw/7.jpg"",""time"":358},{""stimulus"":""img/red_lw/8.jpg"",""time"":408},{""stimulus"":""img/red_lw/9.jpg"",""time"":457},{""stimulus"":""img/red_lw/10.jpg"",""time"":508},{""stimulus"":""img/red_lw/11.jpg"",""time"":559}]","[]"
"","","","choice","63d43dc4b4b7a0e426a381cd","bdp_lott","Sun Mar 26 2023 17:11:14 GMT-0700 (Pacific Daylight Time)","299117","green","red","image-keyboard-response","151","119791","0.0-5.0-1.73","","411","","img/red_lw/choose11.jpg","2","152","red","0.5","0.5","0.5","w","",""
"","","","","63d43dc4b4b7a0e426a381cd","bdp_lott","Sun Mar 26 2023 17:11:14 GMT-0700 (Pacific Daylight Time)","299117","green","red","animation","152","120401","0.0-5.0-2.73","","","","","","152","","","","","","[{""stimulus"":""img/red_lw/1.jpg"",""time"":51},{""stimulus"":""img/red_lw/2.jpg"",""time"":102},{""stimulus"":""img/red_lw/3.jpg"",""time"":153},{""stimulus"":""img/red_lw/4.jpg"",""time"":204},{""stimulus"":""img/red_lw/5.jpg"",""time"":256},{""stimulus"":""img/red_lw/6.jpg"",""time"":306},{""stimulus"":""img/red_lw/7.jpg"",""time"":357},{""stimulus"":""img/red_lw/8.jpg"",""time"":408},{""stimulus"":""img/red_lw/9.jpg"",""time"":458},{""stimulus"":""img/red_lw/10.jpg"",""time"":509},{""stimulus"":""img/red_lw/11.jpg"",""time"":559}]","[]"
"","","","choice","63d43dc4b4b7a0e426a381cd","bdp_lott","Sun Mar 26 2023 17:11:14 GMT-0700 (Pacific Daylight Time)","299117","green","red","image-keyboard-response","153","120831","0.0-5.0-1.74","","429","","img/red_lw/choose11.jpg","2","151","red","0.5","0.5","0.5","l","",""
"","","","","63d43dc4b4b7a0e426a381cd","bdp_lott","Sun Mar 26 2023 17:11:14 GMT-0700 (Pacific Daylight Time)","299117","green","red","animation","154","121441","0.0-5.0-2.74","","","","","","151","","","","","","[{""stimulus"":""img/red_ll/1.jpg"",""time"":53},{""stimulus"":""img/red_ll/2.jpg"",""time"":103},{""stimulus"":""img/red_ll/3.jpg"",""time"":153},{""stimulus"":""img/red_ll/4.jpg"",""time"":202},{""stimulus"":""img/red_ll/5.jpg"",""time"":252},{""stimulus"":""img/red_ll/6.jpg"",""time"":303},{""stimulus"":""img/red_ll/7.jpg"",""time"":354},{""stimulus"":""img/red_ll/8.jpg"",""time"":406},{""stimulus"":""img/red_ll/9.jpg"",""time"":457},{""stimulus"":""img/red_ll/10.jpg"",""time"":507},{""stimulus"":""img/red_ll/11.jpg"",""time"":558}]","[]"
"","","","choice","63d43dc4b4b7a0e426a381cd","bdp_lott","Sun Mar 26 2023 17:11:14 GMT-0700 (Pacific Daylight Time)","299117","green","red","image-keyboard-response","155","121768","0.0-5.0-1.75","","325","","img/red_ll/choose11.jpg","2","150","red","0.5","0.5","0.5","l","",""
"","","","","63d43dc4b4b7a0e426a381cd","bdp_lott","Sun Mar 26 2023 17:11:14 GMT-0700 (Pacific Daylight Time)","299117","green","red","animation","156","122380","0.0-5.0-2.75","","","","","","150","","","","","","[{""stimulus"":""img/red_ll/1.jpg"",""time"":51},{""stimulus"":""img/red_ll/2.jpg"",""time"":102},{""stimulus"":""img/red_ll/3.jpg"",""time"":153},{""stimulus"":""img/red_ll/4.jpg"",""time"":204},{""stimulus"":""img/red_ll/5.jpg"",""time"":255},{""stimulus"":""img/red_ll/6.jpg"",""time"":306},{""stimulus"":""img/red_ll/7.jpg"",""time"":358},{""stimulus"":""img/red_ll/8.jpg"",""time"":409},{""stimulus"":""img/red_ll/9.jpg"",""time"":461},{""stimulus"":""img/red_ll/10.jpg"",""time"":511},{""stimulus"":""img/red_ll/11.jpg"",""time"":563}]","[]"
"","","","choice","63d43dc4b4b7a0e426a381cd","bdp_lott","Sun Mar 26 2023 17:11:14 GMT-0700 (Pacific Daylight Time)","299117","green","red","image-keyboard-response","157","122776","0.0-5.0-1.76","","396","","img/red_ll/choose11.jpg","2","149","red","0.5","0.1","0.1","l","",""
"","","","","63d43dc4b4b7a0e426a381cd","bdp_lott","Sun Mar 26 2023 17:11:14 GMT-0700 (Pacific Daylight Time)","299117","green","red","animation","158","123389","0.0-5.0-2.76","","","","","","149","","","","","","[{""stimulus"":""img/red_ll/1.jpg"",""time"":52},{""stimulus"":""img/red_ll/2.jpg"",""time"":101},{""stimulus"":""img/red_ll/3.jpg"",""time"":153},{""stimulus"":""img/red_ll/4.jpg"",""time"":205},{""stimulus"":""img/red_ll/5.jpg"",""time"":256},{""stimulus"":""img/red_ll/6.jpg"",""time"":307},{""stimulus"":""img/red_ll/7.jpg"",""time"":359},{""stimulus"":""img/red_ll/8.jpg"",""time"":409},{""stimulus"":""img/red_ll/9.jpg"",""time"":461},{""stimulus"":""img/red_ll/10.jpg"",""time"":512},{""stimulus"":""img/red_ll/11.jpg"",""time"":563}]","[]"
"","","","choice","63d43dc4b4b7a0e426a381cd","bdp_lott","Sun Mar 26 2023 17:11:14 GMT-0700 (Pacific Daylight Time)","299117","green","red","image-keyboard-response","159","123818","0.0-5.0-1.77","","429","","img/red_ll/choose11.jpg","2","148","red","0.5","0.1","0.1","l","",""
"","","","","63d43dc4b4b7a0e426a381cd","bdp_lott","Sun Mar 26 2023 17:11:14 GMT-0700 (Pacific Daylight Time)","299117","green","red","animation","160","124434","0.0-5.0-2.77","","","","","","148","","","","","","[{""stimulus"":""img/red_ll/1.jpg"",""time"":53},{""stimulus"":""img/red_ll/2.jpg"",""time"":102},{""stimulus"":""img/red_ll/3.jpg"",""time"":154},{""stimulus"":""img/red_ll/4.jpg"",""time"":205},{""stimulus"":""img/red_ll/5.jpg"",""time"":256},{""stimulus"":""img/red_ll/6.jpg"",""time"":307},{""stimulus"":""img/red_ll/7.jpg"",""time"":359},{""stimulus"":""img/red_ll/8.jpg"",""time"":410},{""stimulus"":""img/red_ll/9.jpg"",""time"":461},{""stimulus"":""img/red_ll/10.jpg"",""time"":513},{""stimulus"":""img/red_ll/11.jpg"",""time"":564}]","[]"
"","","","choice","63d43dc4b4b7a0e426a381cd","bdp_lott","Sun Mar 26 2023 17:11:14 GMT-0700 (Pacific Daylight Time)","299117","green","red","image-keyboard-response","161","124771","0.0-5.0-1.78","","335","","img/red_ll/choose11.jpg","1","147","green","0.5","0.1","0.5","w","",""
"","","","","63d43dc4b4b7a0e426a381cd","bdp_lott","Sun Mar 26 2023 17:11:14 GMT-0700 (Pacific Daylight Time)","299117","green","red","animation","162","125383","0.0-5.0-2.78","","","","","","147","","","","","","[{""stimulus"":""img/green_wl/1.jpg"",""time"":51},{""stimulus"":""img/green_wl/2.jpg"",""time"":101},{""stimulus"":""img/green_wl/3.jpg"",""time"":153},{""stimulus"":""img/green_wl/4.jpg"",""time"":203},{""stimulus"":""img/green_wl/5.jpg"",""time"":255},{""stimulus"":""img/green_wl/6.jpg"",""time"":305},{""stimulus"":""img/green_wl/7.jpg"",""time"":358},{""stimulus"":""img/green_wl/8.jpg"",""time"":408},{""stimulus"":""img/green_wl/9.jpg"",""time"":458},{""stimulus"":""img/green_wl/10.jpg"",""time"":510},{""stimulus"":""img/green_wl/11.jpg"",""time"":559}]","[]"
"","","","choice","63d43dc4b4b7a0e426a381cd","bdp_lott","Sun Mar 26 2023 17:11:14 GMT-0700 (Pacific Daylight Time)","299117","green","red","image-keyboard-response","163","125740","0.0-5.0-1.79","","357","","img/green_wl/choose11.jpg","1","146","green","0.5","0.1","0.5","w","",""
"","","","","63d43dc4b4b7a0e426a381cd","bdp_lott","Sun Mar 26 2023 17:11:14 GMT-0700 (Pacific Daylight Time)","299117","green","red","animation","164","126348","0.0-5.0-2.79","","","","","","146","","","","","","[{""stimulus"":""img/green_wl/1.jpg"",""time"":50},{""stimulus"":""img/green_wl/2.jpg"",""time"":100},{""stimulus"":""img/green_wl/3.jpg"",""time"":151},{""stimulus"":""img/green_wl/4.jpg"",""time"":201},{""stimulus"":""img/green_wl/5.jpg"",""time"":252},{""stimulus"":""img/green_wl/6.jpg"",""time"":302},{""stimulus"":""img/green_wl/7.jpg"",""time"":353},{""stimulus"":""img/green_wl/8.jpg"",""time"":404},{""stimulus"":""img/green_wl/9.jpg"",""time"":454},{""stimulus"":""img/green_wl/10.jpg"",""time"":504},{""stimulus"":""img/green_wl/11.jpg"",""time"":555}]","[]"
"","","","choice","63d43dc4b4b7a0e426a381cd","bdp_lott","Sun Mar 26 2023 17:11:14 GMT-0700 (Pacific Daylight Time)","299117","green","red","image-keyboard-response","165","126761","0.0-5.0-1.80","","412","","img/green_wl/choose11.jpg","1","145","green","0.5","0.1","0.5","l","",""
"","","","","63d43dc4b4b7a0e426a381cd","bdp_lott","Sun Mar 26 2023 17:11:14 GMT-0700 (Pacific Daylight Time)","299117","green","red","animation","166","127375","0.0-5.0-2.80","","","","","","145","","","","","","[{""stimulus"":""img/green_ll/1.jpg"",""time"":52},{""stimulus"":""img/green_ll/2.jpg"",""time"":102},{""stimulus"":""img/green_ll/3.jpg"",""time"":153},{""stimulus"":""img/green_ll/4.jpg"",""time"":202},{""stimulus"":""img/green_ll/5.jpg"",""time"":255},{""stimulus"":""img/green_ll/6.jpg"",""time"":306},{""stimulus"":""img/green_ll/7.jpg"",""time"":357},{""stimulus"":""img/green_ll/8.jpg"",""time"":409},{""stimulus"":""img/green_ll/9.jpg"",""time"":460},{""stimulus"":""img/green_ll/10.jpg"",""time"":510},{""stimulus"":""img/green_ll/11.jpg"",""time"":562}]","[]"
"","","","choice","63d43dc4b4b7a0e426a381cd","bdp_lott","Sun Mar 26 2023 17:11:14 GMT-0700 (Pacific Daylight Time)","299117","green","red","image-keyboard-response","167","127863","0.0-5.0-1.81","","488","","img/green_ll/choose11.jpg","2","144","red","0.5","0.1","0.1","l","",""
"","","","","63d43dc4b4b7a0e426a381cd","bdp_lott","Sun Mar 26 2023 17:11:14 GMT-0700 (Pacific Daylight Time)","299117","green","red","animation","168","128473","0.0-5.0-2.81","","","","","","144","","","","","","[{""stimulus"":""img/red_ll/1.jpg"",""time"":52},{""stimulus"":""img/red_ll/2.jpg"",""time"":102},{""stimulus"":""img/red_ll/3.jpg"",""time"":153},{""stimulus"":""img/red_ll/4.jpg"",""time"":204},{""stimulus"":""img/red_ll/5.jpg"",""time"":255},{""stimulus"":""img/red_ll/6.jpg"",""time"":306},{""stimulus"":""img/red_ll/7.jpg"",""time"":357},{""stimulus"":""img/red_ll/8.jpg"",""time"":408},{""stimulus"":""img/red_ll/9.jpg"",""time"":458},{""stimulus"":""img/red_ll/10.jpg"",""time"":509},{""stimulus"":""img/red_ll/11.jpg"",""time"":559}]","[]"
"","","","choice","63d43dc4b4b7a0e426a381cd","bdp_lott","Sun Mar 26 2023 17:11:14 GMT-0700 (Pacific Daylight Time)","299117","green","red","image-keyboard-response","169","129116","0.0-5.0-1.82","","642","","img/red_ll/choose11.jpg","1","143","green","0.5","0.1","0.5","w","",""
"","","","","63d43dc4b4b7a0e426a381cd","bdp_lott","Sun Mar 26 2023 17:11:14 GMT-0700 (Pacific Daylight Time)","299117","green","red","animation","170","129726","0.0-5.0-2.82","","","","","","143","","","","","","[{""stimulus"":""img/green_wl/1.jpg"",""time"":51},{""stimulus"":""img/green_wl/2.jpg"",""time"":102},{""stimulus"":""img/green_wl/3.jpg"",""time"":153},{""stimulus"":""img/green_wl/4.jpg"",""time"":205},{""stimulus"":""img/green_wl/5.jpg"",""time"":256},{""stimulus"":""img/green_wl/6.jpg"",""time"":306},{""stimulus"":""img/green_wl/7.jpg"",""time"":356},{""stimulus"":""img/green_wl/8.jpg"",""time"":407},{""stimulus"":""img/green_wl/9.jpg"",""time"":457},{""stimulus"":""img/green_wl/10.jpg"",""time"":509},{""stimulus"":""img/green_wl/11.jpg"",""time"":560}]","[]"
"","","","choice","63d43dc4b4b7a0e426a381cd","bdp_lott","Sun Mar 26 2023 17:11:14 GMT-0700 (Pacific Daylight Time)","299117","green","red","image-keyboard-response","171","130244","0.0-5.0-1.83","","518","","img/green_wl/choose11.jpg","1","142","green","0.5","0.1","0.5","l","",""
"","","","","63d43dc4b4b7a0e426a381cd","bdp_lott","Sun Mar 26 2023 17:11:14 GMT-0700 (Pacific Daylight Time)","299117","green","red","animation","172","130854","0.0-5.0-2.83","","","","","","142","","","","","","[{""stimulus"":""img/green_ll/1.jpg"",""time"":51},{""stimulus"":""img/green_ll/2.jpg"",""time"":101},{""stimulus"":""img/green_ll/3.jpg"",""time"":152},{""stimulus"":""img/green_ll/4.jpg"",""time"":204},{""stimulus"":""img/green_ll/5.jpg"",""time"":256},{""stimulus"":""img/green_ll/6.jpg"",""time"":306},{""stimulus"":""img/green_ll/7.jpg"",""time"":356},{""stimulus"":""img/green_ll/8.jpg"",""time"":407},{""stimulus"":""img/green_ll/9.jpg"",""time"":458},{""stimulus"":""img/green_ll/10.jpg"",""time"":507},{""stimulus"":""img/green_ll/11.jpg"",""time"":559}]","[]"
"","","","choice","63d43dc4b4b7a0e426a381cd","bdp_lott","Sun Mar 26 2023 17:11:14 GMT-0700 (Pacific Daylight Time)","299117","green","red","image-keyboard-response","173","131611","0.0-5.0-1.84","","755","","img/green_ll/choose11.jpg","2","141","red","0.5","0.1","0.1","w","",""
"","","","","63d43dc4b4b7a0e426a381cd","bdp_lott","Sun Mar 26 2023 17:11:14 GMT-0700 (Pacific Daylight Time)","299117","green","red","animation","174","132221","0.0-5.0-2.84","","","","","","141","","","","","","[{""stimulus"":""img/red_lw/1.jpg"",""time"":51},{""stimulus"":""img/red_lw/2.jpg"",""time"":102},{""stimulus"":""img/red_lw/3.jpg"",""time"":154},{""stimulus"":""img/red_lw/4.jpg"",""time"":203},{""stimulus"":""img/red_lw/5.jpg"",""time"":255},{""stimulus"":""img/red_lw/6.jpg"",""time"":305},{""stimulus"":""img/red_lw/7.jpg"",""time"":356},{""stimulus"":""img/red_lw/8.jpg"",""time"":407},{""stimulus"":""img/red_lw/9.jpg"",""time"":456},{""stimulus"":""img/red_lw/10.jpg"",""time"":509},{""stimulus"":""img/red_lw/11.jpg"",""time"":558}]","[]"
"","","","choice","63d43dc4b4b7a0e426a381cd","bdp_lott","Sun Mar 26 2023 17:11:14 GMT-0700 (Pacific Daylight Time)","299117","green","red","image-keyboard-response","175","132680","0.0-5.0-1.85","","457","","img/red_lw/choose11.jpg","2","140","red","0.5","0.1","0.1","l","",""
"","","","","63d43dc4b4b7a0e426a381cd","bdp_lott","Sun Mar 26 2023 17:11:14 GMT-0700 (Pacific Daylight Time)","299117","green","red","animation","176","133292","0.0-5.0-2.85","","","","","","140","","","","","","[{""stimulus"":""img/red_ll/1.jpg"",""time"":51},{""stimulus"":""img/red_ll/2.jpg"",""time"":100},{""stimulus"":""img/red_ll/3.jpg"",""time"":151},{""stimulus"":""img/red_ll/4.jpg"",""time"":202},{""stimulus"":""img/red_ll/5.jpg"",""time"":254},{""stimulus"":""img/red_ll/6.jpg"",""time"":305},{""stimulus"":""img/red_ll/7.jpg"",""time"":356},{""stimulus"":""img/red_ll/8.jpg"",""time"":406},{""stimulus"":""img/red_ll/9.jpg"",""time"":458},{""stimulus"":""img/red_ll/10.jpg"",""time"":508},{""stimulus"":""img/red_ll/11.jpg"",""time"":558}]","[]"
"","","","choice","63d43dc4b4b7a0e426a381cd","bdp_lott","Sun Mar 26 2023 17:11:14 GMT-0700 (Pacific Daylight Time)","299117","green","red","image-keyboard-response","177","133756","0.0-5.0-1.86","","463","","img/red_ll/choose11.jpg","2","139","red","0.5","0.1","0.1","l","",""
"","","","","63d43dc4b4b7a0e426a381cd","bdp_lott","Sun Mar 26 2023 17:11:14 GMT-0700 (Pacific Daylight Time)","299117","green","red","animation","178","134368","0.0-5.0-2.86","","","","","","139","","","","","","[{""stimulus"":""img/red_ll/1.jpg"",""time"":52},{""stimulus"":""img/red_ll/2.jpg"",""time"":104},{""stimulus"":""img/red_ll/3.jpg"",""time"":155},{""stimulus"":""img/red_ll/4.jpg"",""time"":205},{""stimulus"":""img/red_ll/5.jpg"",""time"":256},{""stimulus"":""img/red_ll/6.jpg"",""time"":305},{""stimulus"":""img/red_ll/7.jpg"",""time"":357},{""stimulus"":""img/red_ll/8.jpg"",""time"":406},{""stimulus"":""img/red_ll/9.jpg"",""time"":457},{""stimulus"":""img/red_ll/10.jpg"",""time"":509},{""stimulus"":""img/red_ll/11.jpg"",""time"":561}]","[]"
"","","","choice","63d43dc4b4b7a0e426a381cd","bdp_lott","Sun Mar 26 2023 17:11:14 GMT-0700 (Pacific Daylight Time)","299117","green","red","image-keyboard-response","179","135036","0.0-5.0-1.87","","668","","img/red_ll/choose11.jpg","1","138","green","0.5","0.1","0.5","l","",""
"","","","","63d43dc4b4b7a0e426a381cd","bdp_lott","Sun Mar 26 2023 17:11:14 GMT-0700 (Pacific Daylight Time)","299117","green","red","animation","180","135649","0.0-5.0-2.87","","","","","","138","","","","","","[{""stimulus"":""img/green_ll/1.jpg"",""time"":53},{""stimulus"":""img/green_ll/2.jpg"",""time"":105},{""stimulus"":""img/green_ll/3.jpg"",""time"":155},{""stimulus"":""img/green_ll/4.jpg"",""time"":207},{""stimulus"":""img/green_ll/5.jpg"",""time"":258},{""stimulus"":""img/green_ll/6.jpg"",""time"":309},{""stimulus"":""img/green_ll/7.jpg"",""time"":360},{""stimulus"":""img/green_ll/8.jpg"",""time"":410},{""stimulus"":""img/green_ll/9.jpg"",""time"":461},{""stimulus"":""img/green_ll/10.jpg"",""time"":512},{""stimulus"":""img/green_ll/11.jpg"",""time"":563}]","[]"
"","","","choice","63d43dc4b4b7a0e426a381cd","bdp_lott","Sun Mar 26 2023 17:11:14 GMT-0700 (Pacific Daylight Time)","299117","green","red","image-keyboard-response","181","136204","0.0-5.0-1.88","","555","","img/green_ll/choose11.jpg","1","137","green","0.5","0.1","0.5","l","",""
"","","","","63d43dc4b4b7a0e426a381cd","bdp_lott","Sun Mar 26 2023 17:11:14 GMT-0700 (Pacific Daylight Time)","299117","green","red","animation","182","136818","0.0-5.0-2.88","","","","","","137","","","","","","[{""stimulus"":""img/green_ll/1.jpg"",""time"":52},{""stimulus"":""img/green_ll/2.jpg"",""time"":102},{""stimulus"":""img/green_ll/3.jpg"",""time"":153},{""stimulus"":""img/green_ll/4.jpg"",""time"":204},{""stimulus"":""img/green_ll/5.jpg"",""time"":255},{""stimulus"":""img/green_ll/6.jpg"",""time"":306},{""stimulus"":""img/green_ll/7.jpg"",""time"":356},{""stimulus"":""img/green_ll/8.jpg"",""time"":408},{""stimulus"":""img/green_ll/9.jpg"",""time"":459},{""stimulus"":""img/green_ll/10.jpg"",""time"":509},{""stimulus"":""img/green_ll/11.jpg"",""time"":562}]","[]"
"","","","choice","63d43dc4b4b7a0e426a381cd","bdp_lott","Sun Mar 26 2023 17:11:14 GMT-0700 (Pacific Daylight Time)","299117","green","red","image-keyboard-response","183","137821","0.0-5.0-1.89","","1003","","img/green_ll/choose11.jpg","1","136","green","0.5","0.1","0.5","w","",""
"","","","","63d43dc4b4b7a0e426a381cd","bdp_lott","Sun Mar 26 2023 17:11:14 GMT-0700 (Pacific Daylight Time)","299117","green","red","animation","184","138435","0.0-5.0-2.89","","","","","","136","","","","","","[{""stimulus"":""img/green_wl/1.jpg"",""time"":51},{""stimulus"":""img/green_wl/2.jpg"",""time"":101},{""stimulus"":""img/green_wl/3.jpg"",""time"":154},{""stimulus"":""img/green_wl/4.jpg"",""time"":205},{""stimulus"":""img/green_wl/5.jpg"",""time"":255},{""stimulus"":""img/green_wl/6.jpg"",""time"":307},{""stimulus"":""img/green_wl/7.jpg"",""time"":358},{""stimulus"":""img/green_wl/8.jpg"",""time"":409},{""stimulus"":""img/green_wl/9.jpg"",""time"":460},{""stimulus"":""img/green_wl/10.jpg"",""time"":510},{""stimulus"":""img/green_wl/11.jpg"",""time"":562}]","[]"
"","","","choice","63d43dc4b4b7a0e426a381cd","bdp_lott","Sun Mar 26 2023 17:11:14 GMT-0700 (Pacific Daylight Time)","299117","green","red","image-keyboard-response","185","139068","0.0-5.0-1.90","","633","","img/green_wl/choose11.jpg","1","135","green","0.5","0.1","0.5","w","",""
"","","","","63d43dc4b4b7a0e426a381cd","bdp_lott","Sun Mar 26 2023 17:11:14 GMT-0700 (Pacific Daylight Time)","299117","green","red","animation","186","139681","0.0-5.0-2.90","","","","","","135","","","","","","[{""stimulus"":""img/green_wl/1.jpg"",""time"":51},{""stimulus"":""img/green_wl/2.jpg"",""time"":102},{""stimulus"":""img/green_wl/3.jpg"",""time"":152},{""stimulus"":""img/green_wl/4.jpg"",""time"":202},{""stimulus"":""img/green_wl/5.jpg"",""time"":254},{""stimulus"":""img/green_wl/6.jpg"",""time"":305},{""stimulus"":""img/green_wl/7.jpg"",""time"":357},{""stimulus"":""img/green_wl/8.jpg"",""time"":408},{""stimulus"":""img/green_wl/9.jpg"",""time"":460},{""stimulus"":""img/green_wl/10.jpg"",""time"":511},{""stimulus"":""img/green_wl/11.jpg"",""time"":563}]","[]"
"","","","choice","63d43dc4b4b7a0e426a381cd","bdp_lott","Sun Mar 26 2023 17:11:14 GMT-0700 (Pacific Daylight Time)","299117","green","red","image-keyboard-response","187","140495","0.0-5.0-1.91","","813","","img/green_wl/choose11.jpg","1","134","green","0.5","0.1","0.5","l","",""
"","","","","63d43dc4b4b7a0e426a381cd","bdp_lott","Sun Mar 26 2023 17:11:14 GMT-0700 (Pacific Daylight Time)","299117","green","red","animation","188","141106","0.0-5.0-2.91","","","","","","134","","","","","","[{""stimulus"":""img/green_ll/1.jpg"",""time"":52},{""stimulus"":""img/green_ll/2.jpg"",""time"":103},{""stimulus"":""img/green_ll/3.jpg"",""time"":153},{""stimulus"":""img/green_ll/4.jpg"",""time"":203},{""stimulus"":""img/green_ll/5.jpg"",""time"":254},{""stimulus"":""img/green_ll/6.jpg"",""time"":306},{""stimulus"":""img/green_ll/7.jpg"",""time"":357},{""stimulus"":""img/green_ll/8.jpg"",""time"":407},{""stimulus"":""img/green_ll/9.jpg"",""time"":459},{""stimulus"":""img/green_ll/10.jpg"",""time"":510},{""stimulus"":""img/green_ll/11.jpg"",""time"":561}]","[]"
"","","","choice","63d43dc4b4b7a0e426a381cd","bdp_lott","Sun Mar 26 2023 17:11:14 GMT-0700 (Pacific Daylight Time)","299117","green","red","image-keyboard-response","189","141722","0.0-5.0-1.92","","613","","img/green_ll/choose11.jpg","2","133","red","0.5","0.1","0.1","l","",""
"","","","","63d43dc4b4b7a0e426a381cd","bdp_lott","Sun Mar 26 2023 17:11:14 GMT-0700 (Pacific Daylight Time)","299117","green","red","animation","190","142330","0.0-5.0-2.92","","","","","","133","","","","","","[{""stimulus"":""img/red_ll/1.jpg"",""time"":52},{""stimulus"":""img/red_ll/2.jpg"",""time"":102},{""stimulus"":""img/red_ll/3.jpg"",""time"":152},{""stimulus"":""img/red_ll/4.jpg"",""time"":203},{""stimulus"":""img/red_ll/5.jpg"",""time"":254},{""stimulus"":""img/red_ll/6.jpg"",""time"":305},{""stimulus"":""img/red_ll/7.jpg"",""time"":357},{""stimulus"":""img/red_ll/8.jpg"",""time"":408},{""stimulus"":""img/red_ll/9.jpg"",""time"":458},{""stimulus"":""img/red_ll/10.jpg"",""time"":508},{""stimulus"":""img/red_ll/11.jpg"",""time"":558}]","[]"
"","","","choice","63d43dc4b4b7a0e426a381cd","bdp_lott","Sun Mar 26 2023 17:11:14 GMT-0700 (Pacific Daylight Time)","299117","green","red","image-keyboard-response","191","142726","0.0-5.0-1.93","","393","","img/red_ll/choose11.jpg","2","132","red","0.5","0.1","0.1","l","",""
