"trial_type","trial_index","time_elapsed","internal_node_id","subject_id","task","startTime","totalTime","fairMachine","unfairMachine","view_history","rt","event","trial","time","trialtype","success","stimulus","key_press","roundsLeft","chosen","pFairMachWin","pUnfairMachWin","pTrialWin","outcome","animation_sequence","responses"
"pavlovia","0","5","0.0-0.0","61282ca83be28773ac7c421f","bdp_lott","Mon Mar 27 2023 13:41:43 GMT-0400 (Eastern Daylight Time)","459537","green","red","","","","","","","","","","","","","","","","",""
"instructions","1","4822","0.0-1.0","61282ca83be28773ac7c421f","bdp_lott","Mon Mar 27 2023 13:41:43 GMT-0400 (Eastern Daylight Time)","459537","green","red","[{""page_index"":0,""viewing_time"":4816}]","4816","","","","","","","","","","","","","","",""
"","","","","61282ca83be28773ac7c421f","bdp_lott","Mon Mar 27 2023 13:41:43 GMT-0400 (Eastern Daylight Time)","459537","green","red","","","fullscreenenter","2","9755","fullscreenenter","","","","","","","","","","",""
"fullscreen","2","10744","0.0-2.0","61282ca83be28773ac7c421f","bdp_lott","Mon Mar 27 2023 13:41:43 GMT-0400 (Eastern Daylight Time)","459537","green","red","","","","","","","true","","","","","","","","","",""
"instructions","3","123333","0.0-4.0","61282ca83be28773ac7c421f","bdp_lott","Mon Mar 27 2023 13:41:43 GMT-0400 (Eastern Daylight Time)","459537","green","red","[{""page_index"":0,""viewing_time"":112586}]","112586","","","","","","","","","","","","","","",""
"image-keyboard-response","4","128912","0.0-5.0-1.0","61282ca83be28773ac7c421f","bdp_lott","Mon Mar 27 2023 13:41:43 GMT-0400 (Eastern Daylight Time)","459537","green","red","","5576","","","","choice","","img/red_ll/initchoose11.jpg","2","225","red","0.5","0.5","0.5","w","",""
"animation","5","129521","0.0-5.0-2.0","61282ca83be28773ac7c421f","bdp_lott","Mon Mar 27 2023 13:41:43 GMT-0400 (Eastern Daylight Time)","459537","green","red","","","","","","","","","","225","","","","","","[{""stimulus"":""img/red_lw/1.jpg"",""time"":56},{""stimulus"":""img/red_lw/2.jpg"",""time"":104},{""stimulus"":""img/red_lw/3.jpg"",""time"":152},{""stimulus"":""img/red_lw/4.jpg"",""time"":208},{""stimulus"":""img/red_lw/5.jpg"",""time"":256},{""stimulus"":""img/red_lw/6.jpg"",""time"":304},{""stimulus"":""img/red_lw/7.jpg"",""time"":352},{""stimulus"":""img/red_lw/8.jpg"",""time"":408},{""stimulus"":""img/red_lw/9.jpg"",""time"":456},{""stimulus"":""img/red_lw/10.jpg"",""time"":504},{""stimulus"":""img/red_lw/11.jpg"",""time"":552}]","[]"
"image-keyboard-response","6","132705","0.0-5.0-1.1","61282ca83be28773ac7c421f","bdp_lott","Mon Mar 27 2023 13:41:43 GMT-0400 (Eastern Daylight Time)","459537","green","red","","3183","","","","choice","","img/red_lw/choose11.jpg","2","224","red","0.5","0.5","0.5","w","",""
"animation","7","133313","0.0-5.0-2.1","61282ca83be28773ac7c421f","bdp_lott","Mon Mar 27 2023 13:41:43 GMT-0400 (Eastern Daylight Time)","459537","green","red","","","","","","","","","","224","","","","","","[{""stimulus"":""img/red_lw/1.jpg"",""time"":56},{""stimulus"":""img/red_lw/2.jpg"",""time"":104},{""stimulus"":""img/red_lw/3.jpg"",""time"":152},{""stimulus"":""img/red_lw/4.jpg"",""time"":208},{""stimulus"":""img/red_lw/5.jpg"",""time"":256},{""stimulus"":""img/red_lw/6.jpg"",""time"":304},{""stimulus"":""img/red_lw/7.jpg"",""time"":352},{""stimulus"":""img/red_lw/8.jpg"",""time"":408},{""stimulus"":""img/red_lw/9.jpg"",""time"":456},{""stimulus"":""img/red_lw/10.jpg"",""time"":504},{""stimulus"":""img/red_lw/11.jpg"",""time"":552}]","[]"
"image-keyboard-response","8","136174","0.0-5.0-1.2","61282ca83be28773ac7c421f","bdp_lott","Mon Mar 27 2023 13:41:43 GMT-0400 (Eastern Daylight Time)","459537","green","red","","2861","","","","choice","","img/red_lw/choose11.jpg","2","223","red","0.5","0.5","0.5","w","",""
"animation","9","136776","0.0-5.0-2.2","61282ca83be28773ac7c421f","bdp_lott","Mon Mar 27 2023 13:41:43 GMT-0400 (Eastern Daylight Time)","459537","green","red","","","","","","","","","","223","","","","","","[{""stimulus"":""img/red_lw/1.jpg"",""time"":59},{""stimulus"":""img/red_lw/2.jpg"",""time"":107},{""stimulus"":""img/red_lw/3.jpg"",""time"":155},{""stimulus"":""img/red_lw/4.jpg"",""time"":203},{""stimulus"":""img/red_lw/5.jpg"",""time"":259},{""stimulus"":""img/red_lw/6.jpg"",""time"":307},{""stimulus"":""img/red_lw/7.jpg"",""time"":355},{""stimulus"":""img/red_lw/8.jpg"",""time"":403},{""stimulus"":""img/red_lw/9.jpg"",""time"":459},{""stimulus"":""img/red_lw/10.jpg"",""time"":507},{""stimulus"":""img/red_lw/11.jpg"",""time"":555}]","[]"
"image-keyboard-response","10","139614","0.0-5.0-1.3","61282ca83be28773ac7c421f","bdp_lott","Mon Mar 27 2023 13:41:43 GMT-0400 (Eastern Daylight Time)","459537","green","red","","2837","","","","choice","","img/red_lw/choose11.jpg","2","222","red","0.5","0.5","0.5","w","",""
"animation","11","140216","0.0-5.0-2.3","61282ca83be28773ac7c421f","bdp_lott","Mon Mar 27 2023 13:41:43 GMT-0400 (Eastern Daylight Time)","459537","green","red","","","","","","","","","","222","","","","","","[{""stimulus"":""img/red_lw/1.jpg"",""time"":58},{""stimulus"":""img/red_lw/2.jpg"",""time"":106},{""stimulus"":""img/red_lw/3.jpg"",""time"":154},{""stimulus"":""img/red_lw/4.jpg"",""time"":202},{""stimulus"":""img/red_lw/5.jpg"",""time"":258},{""stimulus"":""img/red_lw/6.jpg"",""time"":306},{""stimulus"":""img/red_lw/7.jpg"",""time"":354},{""stimulus"":""img/red_lw/8.jpg"",""time"":401},{""stimulus"":""img/red_lw/9.jpg"",""time"":458},{""stimulus"":""img/red_lw/10.jpg"",""time"":506},{""stimulus"":""img/red_lw/11.jpg"",""time"":554}]","[]"
"image-keyboard-response","12","142280","0.0-5.0-1.4","61282ca83be28773ac7c421f","bdp_lott","Mon Mar 27 2023 13:41:43 GMT-0400 (Eastern Daylight Time)","459537","green","red","","2062","","","","choice","","img/red_lw/choose11.jpg","1","221","green","0.5","0.5","0.5","w","",""
"animation","13","142888","0.0-5.0-2.4","61282ca83be28773ac7c421f","bdp_lott","Mon Mar 27 2023 13:41:43 GMT-0400 (Eastern Daylight Time)","459537","green","red","","","","","","","","","","221","","","","","","[{""stimulus"":""img/green_ww/1.jpg"",""time"":56},{""stimulus"":""img/green_ww/2.jpg"",""time"":104},{""stimulus"":""img/green_ww/3.jpg"",""time"":152},{""stimulus"":""img/green_ww/4.jpg"",""time"":208},{""stimulus"":""img/green_ww/5.jpg"",""time"":256},{""stimulus"":""img/green_ww/6.jpg"",""time"":304},{""stimulus"":""img/green_ww/7.jpg"",""time"":352},{""stimulus"":""img/green_ww/8.jpg"",""time"":408},{""stimulus"":""img/green_ww/9.jpg"",""time"":456},{""stimulus"":""img/green_ww/10.jpg"",""time"":504},{""stimulus"":""img/green_ww/11.jpg"",""time"":552}]","[]"
"image-keyboard-response","14","145804","0.0-5.0-1.5","61282ca83be28773ac7c421f","bdp_lott","Mon Mar 27 2023 13:41:43 GMT-0400 (Eastern Daylight Time)","459537","green","red","","2915","","","","choice","","img/green_ww/choose11.jpg","1","220","green","0.5","0.5","0.5","w","",""
"animation","15","146408","0.0-5.0-2.5","61282ca83be28773ac7c421f","bdp_lott","Mon Mar 27 2023 13:41:43 GMT-0400 (Eastern Daylight Time)","459537","green","red","","","","","","","","","","220","","","","","","[{""stimulus"":""img/green_ww/1.jpg"",""time"":53},{""stimulus"":""img/green_ww/2.jpg"",""time"":109},{""stimulus"":""img/green_ww/3.jpg"",""time"":157},{""stimulus"":""img/green_ww/4.jpg"",""time"":205},{""stimulus"":""img/green_ww/5.jpg"",""time"":253},{""stimulus"":""img/green_ww/6.jpg"",""time"":309},{""stimulus"":""img/green_ww/7.jpg"",""time"":357},{""stimulus"":""img/green_ww/8.jpg"",""time"":405},{""stimulus"":""img/green_ww/9.jpg"",""time"":453},{""stimulus"":""img/green_ww/10.jpg"",""time"":508},{""stimulus"":""img/green_ww/11.jpg"",""time"":557}]","[]"
"image-keyboard-response","16","148636","0.0-5.0-1.6","61282ca83be28773ac7c421f","bdp_lott","Mon Mar 27 2023 13:41:43 GMT-0400 (Eastern Daylight Time)","459537","green","red","","2227","","","","choice","","img/green_ww/choose11.jpg","1","219","green","0.5","0.5","0.5","l","",""
"animation","17","149241","0.0-5.0-2.6","61282ca83be28773ac7c421f","bdp_lott","Mon Mar 27 2023 13:41:43 GMT-0400 (Eastern Daylight Time)","459537","green","red","","","","","","","","","","219","","","","","","[{""stimulus"":""img/green_lw/1.jpg"",""time"":53},{""stimulus"":""img/green_lw/2.jpg"",""time"":101},{""stimulus"":""img/green_lw/3.jpg"",""time"":157},{""stimulus"":""img/green_lw/4.jpg"",""time"":205},{""stimulus"":""img/green_lw/5.jpg"",""time"":253},{""stimulus"":""img/green_lw/6.jpg"",""time"":309},{""stimulus"":""img/green_lw/7.jpg"",""time"":357},{""stimulus"":""img/green_lw/8.jpg"",""time"":405},{""stimulus"":""img/green_lw/9.jpg"",""time"":453},{""stimulus"":""img/green_lw/10.jpg"",""time"":501},{""stimulus"":""img/green_lw/11.jpg"",""time"":557}]","[]"
"image-keyboard-response","18","151292","0.0-5.0-1.7","61282ca83be28773ac7c421f","bdp_lott","Mon Mar 27 2023 13:41:43 GMT-0400 (Eastern Daylight Time)","459537","green","red","","2049","","","","choice","","img/green_lw/choose11.jpg","2","218","red","0.5","0.5","0.5","l","",""
"animation","19","151897","0.0-5.0-2.7","61282ca83be28773ac7c421f","bdp_lott","Mon Mar 27 2023 13:41:43 GMT-0400 (Eastern Daylight Time)","459537","green","red","","","","","","","","","","218","","","","","","[{""stimulus"":""img/red_ll/1.jpg"",""time"":53},{""stimulus"":""img/red_ll/2.jpg"",""time"":101},{""stimulus"":""img/red_ll/3.jpg"",""time"":157},{""stimulus"":""img/red_ll/4.jpg"",""time"":205},{""stimulus"":""img/red_ll/5.jpg"",""time"":253},{""stimulus"":""img/red_ll/6.jpg"",""time"":301},{""stimulus"":""img/red_ll/7.jpg"",""time"":357},{""stimulus"":""img/red_ll/8.jpg"",""time"":405},{""stimulus"":""img/red_ll/9.jpg"",""time"":453},{""stimulus"":""img/red_ll/10.jpg"",""time"":501},{""stimulus"":""img/red_ll/11.jpg"",""time"":557}]","[]"
"image-keyboard-response","20","154373","0.0-5.0-1.8","61282ca83be28773ac7c421f","bdp_lott","Mon Mar 27 2023 13:41:43 GMT-0400 (Eastern Daylight Time)","459537","green","red","","2476","","","","choice","","img/red_ll/choose11.jpg","2","217","red","0.5","0.5","0.5","l","",""
"animation","21","154977","0.0-5.0-2.8","61282ca83be28773ac7c421f","bdp_lott","Mon Mar 27 2023 13:41:43 GMT-0400 (Eastern Daylight Time)","459537","green","red","","","","","","","","","","217","","","","","","[{""stimulus"":""img/red_ll/1.jpg"",""time"":52},{""stimulus"":""img/red_ll/2.jpg"",""time"":108},{""stimulus"":""img/red_ll/3.jpg"",""time"":156},{""stimulus"":""img/red_ll/4.jpg"",""time"":204},{""stimulus"":""img/red_ll/5.jpg"",""time"":252},{""stimulus"":""img/red_ll/6.jpg"",""time"":308},{""stimulus"":""img/red_ll/7.jpg"",""time"":356},{""stimulus"":""img/red_ll/8.jpg"",""time"":404},{""stimulus"":""img/red_ll/9.jpg"",""time"":452},{""stimulus"":""img/red_ll/10.jpg"",""time"":508},{""stimulus"":""img/red_ll/11.jpg"",""time"":556}]","[]"
"image-keyboard-response","22","156222","0.0-5.0-1.9","61282ca83be28773ac7c421f","bdp_lott","Mon Mar 27 2023 13:41:43 GMT-0400 (Eastern Daylight Time)","459537","green","red","","1245","","","","choice","","img/red_ll/choose11.jpg","1","216","green","0.5","0.5","0.5","l","",""
"animation","23","156824","0.0-5.0-2.9","61282ca83be28773ac7c421f","bdp_lott","Mon Mar 27 2023 13:41:43 GMT-0400 (Eastern Daylight Time)","459537","green","red","","","","","","","","","","216","","","","","","[{""stimulus"":""img/green_ll/1.jpg"",""time"":59},{""stimulus"":""img/green_ll/2.jpg"",""time"":104},{""stimulus"":""img/green_ll/3.jpg"",""time"":155},{""stimulus"":""img/green_ll/4.jpg"",""time"":203},{""stimulus"":""img/green_ll/5.jpg"",""time"":259},{""stimulus"":""img/green_ll/6.jpg"",""time"":307},{""stimulus"":""img/green_ll/7.jpg"",""time"":355},{""stimulus"":""img/green_ll/8.jpg"",""time"":403},{""stimulus"":""img/green_ll/9.jpg"",""time"":459},{""stimulus"":""img/green_ll/10.jpg"",""time"":507},{""stimulus"":""img/green_ll/11.jpg"",""time"":555}]","[]"
"image-keyboard-response","24","158417","0.0-5.0-1.10","61282ca83be28773ac7c421f","bdp_lott","Mon Mar 27 2023 13:41:43 GMT-0400 (Eastern Daylight Time)","459537","green","red","","1592","","","","choice","","img/green_ll/choose11.jpg","1","215","green","0.5","0.5","0.5","w","",""
"animation","25","159024","0.0-5.0-2.10","61282ca83be28773ac7c421f","bdp_lott","Mon Mar 27 2023 13:41:43 GMT-0400 (Eastern Daylight Time)","459537","green","red","","","","","","","","","","215","","","","","","[{""stimulus"":""img/green_wl/1.jpg"",""time"":56},{""stimulus"":""img/green_wl/2.jpg"",""time"":104},{""stimulus"":""img/green_wl/3.jpg"",""time"":152},{""stimulus"":""img/green_wl/4.jpg"",""time"":208},{""stimulus"":""img/green_wl/5.jpg"",""time"":256},{""stimulus"":""img/green_wl/6.jpg"",""time"":304},{""stimulus"":""img/green_wl/7.jpg"",""time"":352},{""stimulus"":""img/green_wl/8.jpg"",""time"":408},{""stimulus"":""img/green_wl/9.jpg"",""time"":456},{""stimulus"":""img/green_wl/10.jpg"",""time"":504},{""stimulus"":""img/green_wl/11.jpg"",""time"":552}]","[]"
"image-keyboard-response","26","160542","0.0-5.0-1.11","61282ca83be28773ac7c421f","bdp_lott","Mon Mar 27 2023 13:41:43 GMT-0400 (Eastern Daylight Time)","459537","green","red","","1516","","","","choice","","img/green_wl/choose11.jpg","2","214","red","0.5","0.5","0.5","l","",""
"animation","27","161144","0.0-5.0-2.11","61282ca83be28773ac7c421f","bdp_lott","Mon Mar 27 2023 13:41:43 GMT-0400 (Eastern Daylight Time)","459537","green","red","","","","","","","","","","214","","","","","","[{""stimulus"":""img/red_wl/1.jpg"",""time"":58},{""stimulus"":""img/red_wl/2.jpg"",""time"":102},{""stimulus"":""img/red_wl/3.jpg"",""time"":154},{""stimulus"":""img/red_wl/4.jpg"",""time"":202},{""stimulus"":""img/red_wl/5.jpg"",""time"":258},{""stimulus"":""img/red_wl/6.jpg"",""time"":306},{""stimulus"":""img/red_wl/7.jpg"",""time"":354},{""stimulus"":""img/red_wl/8.jpg"",""time"":402},{""stimulus"":""img/red_wl/9.jpg"",""time"":458},{""stimulus"":""img/red_wl/10.jpg"",""time"":506},{""stimulus"":""img/red_wl/11.jpg"",""time"":554}]","[]"
"image-keyboard-response","28","161997","0.0-5.0-1.12","61282ca83be28773ac7c421f","bdp_lott","Mon Mar 27 2023 13:41:43 GMT-0400 (Eastern Daylight Time)","459537","green","red","","852","","","","choice","","img/red_wl/choose11.jpg","1","213","green","0.5","0.5","0.5","l","",""
"animation","29","162600","0.0-5.0-2.12","61282ca83be28773ac7c421f","bdp_lott","Mon Mar 27 2023 13:41:43 GMT-0400 (Eastern Daylight Time)","459537","green","red","","","","","","","","","","213","","","","","","[{""stimulus"":""img/green_ll/1.jpg"",""time"":52},{""stimulus"":""img/green_ll/2.jpg"",""time"":108},{""stimulus"":""img/green_ll/3.jpg"",""time"":156},{""stimulus"":""img/green_ll/4.jpg"",""time"":204},{""stimulus"":""img/green_ll/5.jpg"",""time"":252},{""stimulus"":""img/green_ll/6.jpg"",""time"":308},{""stimulus"":""img/green_ll/7.jpg"",""time"":356},{""stimulus"":""img/green_ll/8.jpg"",""time"":404},{""stimulus"":""img/green_ll/9.jpg"",""time"":452},{""stimulus"":""img/green_ll/10.jpg"",""time"":508},{""stimulus"":""img/green_ll/11.jpg"",""time"":556}]","[]"
"image-keyboard-response","30","164961","0.0-5.0-1.13","61282ca83be28773ac7c421f","bdp_lott","Mon Mar 27 2023 13:41:43 GMT-0400 (Eastern Daylight Time)","459537","green","red","","2360","","","","choice","","img/green_ll/choose11.jpg","2","212","red","0.5","0.5","0.5","l","",""
"animation","31","165569","0.0-5.0-2.13","61282ca83be28773ac7c421f","bdp_lott","Mon Mar 27 2023 13:41:43 GMT-0400 (Eastern Daylight Time)","459537","green","red","","","","","","","","","","212","","","","","","[{""stimulus"":""img/red_ll/1.jpg"",""time"":56},{""stimulus"":""img/red_ll/2.jpg"",""time"":104},{""stimulus"":""img/red_ll/3.jpg"",""time"":152},{""stimulus"":""img/red_ll/4.jpg"",""time"":205},{""stimulus"":""img/red_ll/5.jpg"",""time"":256},{""stimulus"":""img/red_ll/6.jpg"",""time"":304},{""stimulus"":""img/red_ll/7.jpg"",""time"":352},{""stimulus"":""img/red_ll/8.jpg"",""time"":408},{""stimulus"":""img/red_ll/9.jpg"",""time"":456},{""stimulus"":""img/red_ll/10.jpg"",""time"":504},{""stimulus"":""img/red_ll/11.jpg"",""time"":552}]","[]"
"image-keyboard-response","32","167323","0.0-5.0-1.14","61282ca83be28773ac7c421f","bdp_lott","Mon Mar 27 2023 13:41:43 GMT-0400 (Eastern Daylight Time)","459537","green","red","","1754","","","","choice","","img/red_ll/choose11.jpg","1","211","green","0.5","0.5","0.5","l","",""
"animation","33","167928","0.0-5.0-2.14","61282ca83be28773ac7c421f","bdp_lott","Mon Mar 27 2023 13:41:43 GMT-0400 (Eastern Daylight Time)","459537","green","red","","","","","","","","","","211","","","","","","[{""stimulus"":""img/green_ll/1.jpg"",""time"":54},{""stimulus"":""img/green_ll/2.jpg"",""time"":102},{""stimulus"":""img/green_ll/3.jpg"",""time"":158},{""stimulus"":""img/green_ll/4.jpg"",""time"":206},{""stimulus"":""img/green_ll/5.jpg"",""time"":254},{""stimulus"":""img/green_ll/6.jpg"",""time"":302},{""stimulus"":""img/green_ll/7.jpg"",""time"":358},{""stimulus"":""img/green_ll/8.jpg"",""time"":406},{""stimulus"":""img/green_ll/9.jpg"",""time"":454},{""stimulus"":""img/green_ll/10.jpg"",""time"":502},{""stimulus"":""img/green_ll/11.jpg"",""time"":558}]","[]"
"image-keyboard-response","34","169217","0.0-5.0-1.15","61282ca83be28773ac7c421f","bdp_lott","Mon Mar 27 2023 13:41:43 GMT-0400 (Eastern Daylight Time)","459537","green","red","","1287","","","","choice","","img/green_ll/choose11.jpg","2","210","red","0.5","0.5","0.5","w","",""
"animation","35","169825","0.0-5.0-2.15","61282ca83be28773ac7c421f","bdp_lott","Mon Mar 27 2023 13:41:43 GMT-0400 (Eastern Daylight Time)","459537","green","red","","","","","","","","","","210","","","","","","[{""stimulus"":""img/red_lw/1.jpg"",""time"":56},{""stimulus"":""img/red_lw/2.jpg"",""time"":104},{""stimulus"":""img/red_lw/3.jpg"",""time"":152},{""stimulus"":""img/red_lw/4.jpg"",""time"":208},{""stimulus"":""img/red_lw/5.jpg"",""time"":256},{""stimulus"":""img/red_lw/6.jpg"",""time"":304},{""stimulus"":""img/red_lw/7.jpg"",""time"":352},{""stimulus"":""img/red_lw/8.jpg"",""time"":408},{""stimulus"":""img/red_lw/9.jpg"",""time"":456},{""stimulus"":""img/red_lw/10.jpg"",""time"":504},{""stimulus"":""img/red_lw/11.jpg"",""time"":552}]","[]"
"image-keyboard-response","36","170927","0.0-5.0-1.16","61282ca83be28773ac7c421f","bdp_lott","Mon Mar 27 2023 13:41:43 GMT-0400 (Eastern Daylight Time)","459537","green","red","","1102","","","","choice","","img/red_lw/choose11.jpg","2","209","red","0.5","0.5","0.5","l","",""
"animation","37","171528","0.0-5.0-2.16","61282ca83be28773ac7c421f","bdp_lott","Mon Mar 27 2023 13:41:43 GMT-0400 (Eastern Daylight Time)","459537","green","red","","","","","","","","","","209","","","","","","[{""stimulus"":""img/red_ll/1.jpg"",""time"":57},{""stimulus"":""img/red_ll/2.jpg"",""time"":105},{""stimulus"":""img/red_ll/3.jpg"",""time"":153},{""stimulus"":""img/red_ll/4.jpg"",""time"":201},{""stimulus"":""img/red_ll/5.jpg"",""time"":257},{""stimulus"":""img/red_ll/6.jpg"",""time"":305},{""stimulus"":""img/red_ll/7.jpg"",""time"":353},{""stimulus"":""img/red_ll/8.jpg"",""time"":401},{""stimulus"":""img/red_ll/9.jpg"",""time"":457},{""stimulus"":""img/red_ll/10.jpg"",""time"":505},{""stimulus"":""img/red_ll/11.jpg"",""time"":553}]","[]"
"image-keyboard-response","38","172943","0.0-5.0-1.17","61282ca83be28773ac7c421f","bdp_lott","Mon Mar 27 2023 13:41:43 GMT-0400 (Eastern Daylight Time)","459537","green","red","","1414","","","","choice","","img/red_ll/choose11.jpg","1","208","green","0.5","0.5","0.5","w","",""
"animation","39","173544","0.0-5.0-2.17","61282ca83be28773ac7c421f","bdp_lott","Mon Mar 27 2023 13:41:43 GMT-0400 (Eastern Daylight Time)","459537","green","red","","","","","","","","","","208","","","","","","[{""stimulus"":""img/green_wl/1.jpg"",""time"":58},{""stimulus"":""img/green_wl/2.jpg"",""time"":106},{""stimulus"":""img/green_wl/3.jpg"",""time"":154},{""stimulus"":""img/green_wl/4.jpg"",""time"":202},{""stimulus"":""img/green_wl/5.jpg"",""time"":258},{""stimulus"":""img/green_wl/6.jpg"",""time"":306},{""stimulus"":""img/green_wl/7.jpg"",""time"":354},{""stimulus"":""img/green_wl/8.jpg"",""time"":402},{""stimulus"":""img/green_wl/9.jpg"",""time"":458},{""stimulus"":""img/green_wl/10.jpg"",""time"":506},{""stimulus"":""img/green_wl/11.jpg"",""time"":554}]","[]"
"image-keyboard-response","40","175443","0.0-5.0-1.18","61282ca83be28773ac7c421f","bdp_lott","Mon Mar 27 2023 13:41:43 GMT-0400 (Eastern Daylight Time)","459537","green","red","","1898","","","","choice","","img/green_wl/choose11.jpg","1","207","green","0.5","0.5","0.5","w","",""
"animation","41","176048","0.0-5.0-2.18","61282ca83be28773ac7c421f","bdp_lott","Mon Mar 27 2023 13:41:43 GMT-0400 (Eastern Daylight Time)","459537","green","red","","","","","","","","","","207","","","","","","[{""stimulus"":""img/green_wl/1.jpg"",""time"":54},{""stimulus"":""img/green_wl/2.jpg"",""time"":102},{""stimulus"":""img/green_wl/3.jpg"",""time"":152},{""stimulus"":""img/green_wl/4.jpg"",""time"":206},{""stimulus"":""img/green_wl/5.jpg"",""time"":254},{""stimulus"":""img/green_wl/6.jpg"",""time"":302},{""stimulus"":""img/green_wl/7.jpg"",""time"":358},{""stimulus"":""img/green_wl/8.jpg"",""time"":406},{""stimulus"":""img/green_wl/9.jpg"",""time"":454},{""stimulus"":""img/green_wl/10.jpg"",""time"":502},{""stimulus"":""img/green_wl/11.jpg"",""time"":558}]","[]"
"image-keyboard-response","42","177613","0.0-5.0-1.19","61282ca83be28773ac7c421f","bdp_lott","Mon Mar 27 2023 13:41:43 GMT-0400 (Eastern Daylight Time)","459537","green","red","","1564","","","","choice","","img/green_wl/choose11.jpg","1","206","green","0.5","0.5","0.5","w","",""
"animation","43","178216","0.0-5.0-2.19","61282ca83be28773ac7c421f","bdp_lott","Mon Mar 27 2023 13:41:43 GMT-0400 (Eastern Daylight Time)","459537","green","red","","","","","","","","","","206","","","","","","[{""stimulus"":""img/green_wl/1.jpg"",""time"":52},{""stimulus"":""img/green_wl/2.jpg"",""time"":108},{""stimulus"":""img/green_wl/3.jpg"",""time"":156},{""stimulus"":""img/green_wl/4.jpg"",""time"":204},{""stimulus"":""img/green_wl/5.jpg"",""time"":252},{""stimulus"":""img/green_wl/6.jpg"",""time"":308},{""stimulus"":""img/green_wl/7.jpg"",""time"":356},{""stimulus"":""img/green_wl/8.jpg"",""time"":404},{""stimulus"":""img/green_wl/9.jpg"",""time"":452},{""stimulus"":""img/green_wl/10.jpg"",""time"":508},{""stimulus"":""img/green_wl/11.jpg"",""time"":556}]","[]"
"image-keyboard-response","44","179552","0.0-5.0-1.20","61282ca83be28773ac7c421f","bdp_lott","Mon Mar 27 2023 13:41:43 GMT-0400 (Eastern Daylight Time)","459537","green","red","","1335","","","","choice","","img/green_wl/choose11.jpg","1","205","green","0.5","0.5","0.5","w","",""
"animation","45","180160","0.0-5.0-2.20","61282ca83be28773ac7c421f","bdp_lott","Mon Mar 27 2023 13:41:43 GMT-0400 (Eastern Daylight Time)","459537","green","red","","","","","","","","","","205","","","","","","[{""stimulus"":""img/green_wl/1.jpg"",""time"":56},{""stimulus"":""img/green_wl/2.jpg"",""time"":104},{""stimulus"":""img/green_wl/3.jpg"",""time"":151},{""stimulus"":""img/green_wl/4.jpg"",""time"":208},{""stimulus"":""img/green_wl/5.jpg"",""time"":256},{""stimulus"":""img/green_wl/6.jpg"",""time"":304},{""stimulus"":""img/green_wl/7.jpg"",""time"":352},{""stimulus"":""img/green_wl/8.jpg"",""time"":408},{""stimulus"":""img/green_wl/9.jpg"",""time"":456},{""stimulus"":""img/green_wl/10.jpg"",""time"":504},{""stimulus"":""img/green_wl/11.jpg"",""time"":552}]","[]"
"image-keyboard-response","46","181754","0.0-5.0-1.21","61282ca83be28773ac7c421f","bdp_lott","Mon Mar 27 2023 13:41:43 GMT-0400 (Eastern Daylight Time)","459537","green","red","","1593","","","","choice","","img/green_wl/choose11.jpg","1","204","green","0.5","0.5","0.5","l","",""
"animation","47","182361","0.0-5.0-2.21","61282ca83be28773ac7c421f","bdp_lott","Mon Mar 27 2023 13:41:43 GMT-0400 (Eastern Daylight Time)","459537","green","red","","","","","","","","","","204","","","","","","[{""stimulus"":""img/green_ll/1.jpg"",""time"":55},{""stimulus"":""img/green_ll/2.jpg"",""time"":103},{""stimulus"":""img/green_ll/3.jpg"",""time"":159},{""stimulus"":""img/green_ll/4.jpg"",""time"":207},{""stimulus"":""img/green_ll/5.jpg"",""time"":255},{""stimulus"":""img/green_ll/6.jpg"",""time"":303},{""stimulus"":""img/green_ll/7.jpg"",""time"":359},{""stimulus"":""img/green_ll/8.jpg"",""time"":407},{""stimulus"":""img/green_ll/9.jpg"",""time"":455},{""stimulus"":""img/green_ll/10.jpg"",""time"":502},{""stimulus"":""img/green_ll/11.jpg"",""time"":559}]","[]"
"image-keyboard-response","48","185282","0.0-5.0-1.22","61282ca83be28773ac7c421f","bdp_lott","Mon Mar 27 2023 13:41:43 GMT-0400 (Eastern Daylight Time)","459537","green","red","","2920","","","","choice","","img/green_ll/choose11.jpg","2","203","red","0.5","0.5","0.5","w","",""
"animation","49","185888","0.0-5.0-2.22","61282ca83be28773ac7c421f","bdp_lott","Mon Mar 27 2023 13:41:43 GMT-0400 (Eastern Daylight Time)","459537","green","red","","","","","","","","","","203","","","","","","[{""stimulus"":""img/red_lw/1.jpg"",""time"":54},{""stimulus"":""img/red_lw/2.jpg"",""time"":102},{""stimulus"":""img/red_lw/3.jpg"",""time"":158},{""stimulus"":""img/red_lw/4.jpg"",""time"":206},{""stimulus"":""img/red_lw/5.jpg"",""time"":254},{""stimulus"":""img/red_lw/6.jpg"",""time"":302},{""stimulus"":""img/red_lw/7.jpg"",""time"":358},{""stimulus"":""img/red_lw/8.jpg"",""time"":406},{""stimulus"":""img/red_lw/9.jpg"",""time"":454},{""stimulus"":""img/red_lw/10.jpg"",""time"":502},{""stimulus"":""img/red_lw/11.jpg"",""time"":558}]","[]"
"image-keyboard-response","50","187815","0.0-5.0-1.23","61282ca83be28773ac7c421f","bdp_lott","Mon Mar 27 2023 13:41:43 GMT-0400 (Eastern Daylight Time)","459537","green","red","","1926","","","","choice","","img/red_lw/choose11.jpg","2","202","red","0.5","0.5","0.5","l","",""
"animation","51","188416","0.0-5.0-2.23","61282ca83be28773ac7c421f","bdp_lott","Mon Mar 27 2023 13:41:43 GMT-0400 (Eastern Daylight Time)","459537","green","red","","","","","","","","","","202","","","","","","[{""stimulus"":""img/red_ll/1.jpg"",""time"":58},{""stimulus"":""img/red_ll/2.jpg"",""time"":106},{""stimulus"":""img/red_ll/3.jpg"",""time"":154},{""stimulus"":""img/red_ll/4.jpg"",""time"":202},{""stimulus"":""img/red_ll/5.jpg"",""time"":258},{""stimulus"":""img/red_ll/6.jpg"",""time"":306},{""stimulus"":""img/red_ll/7.jpg"",""time"":354},{""stimulus"":""img/red_ll/8.jpg"",""time"":402},{""stimulus"":""img/red_ll/9.jpg"",""time"":458},{""stimulus"":""img/red_ll/10.jpg"",""time"":506},{""stimulus"":""img/red_ll/11.jpg"",""time"":554}]","[]"
"image-keyboard-response","52","190602","0.0-5.0-1.24","61282ca83be28773ac7c421f","bdp_lott","Mon Mar 27 2023 13:41:43 GMT-0400 (Eastern Daylight Time)","459537","green","red","","2185","","","","choice","","img/red_ll/choose11.jpg","2","201","red","0.5","0.5","0.5","w","",""
"animation","53","191208","0.0-5.0-2.24","61282ca83be28773ac7c421f","bdp_lott","Mon Mar 27 2023 13:41:43 GMT-0400 (Eastern Daylight Time)","459537","green","red","","","","","","","","","","201","","","","","","[{""stimulus"":""img/red_lw/1.jpg"",""time"":55},{""stimulus"":""img/red_lw/2.jpg"",""time"":103},{""stimulus"":""img/red_lw/3.jpg"",""time"":159},{""stimulus"":""img/red_lw/4.jpg"",""time"":207},{""stimulus"":""img/red_lw/5.jpg"",""time"":255},{""stimulus"":""img/red_lw/6.jpg"",""time"":303},{""stimulus"":""img/red_lw/7.jpg"",""time"":359},{""stimulus"":""img/red_lw/8.jpg"",""time"":407},{""stimulus"":""img/red_lw/9.jpg"",""time"":455},{""stimulus"":""img/red_lw/10.jpg"",""time"":503},{""stimulus"":""img/red_lw/11.jpg"",""time"":559}]","[]"
"image-keyboard-response","54","193705","0.0-5.0-1.25","61282ca83be28773ac7c421f","bdp_lott","Mon Mar 27 2023 13:41:43 GMT-0400 (Eastern Daylight Time)","459537","green","red","","2493","","","","choice","","img/red_lw/choose11.jpg","2","200","red","0.5","0.5","0.5","w","",""
"animation","55","194312","0.0-5.0-2.25","61282ca83be28773ac7c421f","bdp_lott","Mon Mar 27 2023 13:41:43 GMT-0400 (Eastern Daylight Time)","459537","green","red","","","","","","","","","","200","","","","","","[{""stimulus"":""img/red_lw/1.jpg"",""time"":56},{""stimulus"":""img/red_lw/2.jpg"",""time"":104},{""stimulus"":""img/red_lw/3.jpg"",""time"":152},{""stimulus"":""img/red_lw/4.jpg"",""time"":208},{""stimulus"":""img/red_lw/5.jpg"",""time"":256},{""stimulus"":""img/red_lw/6.jpg"",""time"":304},{""stimulus"":""img/red_lw/7.jpg"",""time"":352},{""stimulus"":""img/red_lw/8.jpg"",""time"":408},{""stimulus"":""img/red_lw/9.jpg"",""time"":456},{""stimulus"":""img/red_lw/10.jpg"",""time"":504},{""stimulus"":""img/red_lw/11.jpg"",""time"":552}]","[]"
"image-keyboard-response","56","196006","0.0-5.0-1.26","61282ca83be28773ac7c421f","bdp_lott","Mon Mar 27 2023 13:41:43 GMT-0400 (Eastern Daylight Time)","459537","green","red","","1685","","","","choice","","img/red_lw/choose11.jpg","2","199","red","0.5","0.5","0.5","l","",""
"animation","57","196608","0.0-5.0-2.26","61282ca83be28773ac7c421f","bdp_lott","Mon Mar 27 2023 13:41:43 GMT-0400 (Eastern Daylight Time)","459537","green","red","","","","","","","","","","199","","","","","","[{""stimulus"":""img/red_ll/1.jpg"",""time"":58},{""stimulus"":""img/red_ll/2.jpg"",""time"":106},{""stimulus"":""img/red_ll/3.jpg"",""time"":154},{""stimulus"":""img/red_ll/4.jpg"",""time"":202},{""stimulus"":""img/red_ll/5.jpg"",""time"":255},{""stimulus"":""img/red_ll/6.jpg"",""time"":306},{""stimulus"":""img/red_ll/7.jpg"",""time"":354},{""stimulus"":""img/red_ll/8.jpg"",""time"":402},{""stimulus"":""img/red_ll/9.jpg"",""time"":458},{""stimulus"":""img/red_ll/10.jpg"",""time"":506},{""stimulus"":""img/red_ll/11.jpg"",""time"":554}]","[]"
"image-keyboard-response","58","198143","0.0-5.0-1.27","61282ca83be28773ac7c421f","bdp_lott","Mon Mar 27 2023 13:41:43 GMT-0400 (Eastern Daylight Time)","459537","green","red","","1534","","","","choice","","img/red_ll/choose11.jpg","1","198","green","0.5","0.5","0.5","l","",""
"animation","59","198744","0.0-5.0-2.27","61282ca83be28773ac7c421f","bdp_lott","Mon Mar 27 2023 13:41:43 GMT-0400 (Eastern Daylight Time)","459537","green","red","","","","","","","","","","198","","","","","","[{""stimulus"":""img/green_ll/1.jpg"",""time"":58},{""stimulus"":""img/green_ll/2.jpg"",""time"":106},{""stimulus"":""img/green_ll/3.jpg"",""time"":154},{""stimulus"":""img/green_ll/4.jpg"",""time"":202},{""stimulus"":""img/green_ll/5.jpg"",""time"":258},{""stimulus"":""img/green_ll/6.jpg"",""time"":306},{""stimulus"":""img/green_ll/7.jpg"",""time"":354},{""stimulus"":""img/green_ll/8.jpg"",""time"":402},{""stimulus"":""img/green_ll/9.jpg"",""time"":457},{""stimulus"":""img/green_ll/10.jpg"",""time"":506},{""stimulus"":""img/green_ll/11.jpg"",""time"":553}]","[]"
"image-keyboard-response","60","200889","0.0-5.0-1.28","61282ca83be28773ac7c421f","bdp_lott","Mon Mar 27 2023 13:41:43 GMT-0400 (Eastern Daylight Time)","459537","green","red","","2144","","","","choice","","img/green_ll/choose11.jpg","2","197","red","0.5","0.5","0.5","l","",""
"animation","61","201496","0.0-5.0-2.28","61282ca83be28773ac7c421f","bdp_lott","Mon Mar 27 2023 13:41:43 GMT-0400 (Eastern Daylight Time)","459537","green","red","","","","","","","","","","197","","","","","","[{""stimulus"":""img/red_ll/1.jpg"",""time"":56},{""stimulus"":""img/red_ll/2.jpg"",""time"":104},{""stimulus"":""img/red_ll/3.jpg"",""time"":152},{""stimulus"":""img/red_ll/4.jpg"",""time"":206},{""stimulus"":""img/red_ll/5.jpg"",""time"":256},{""stimulus"":""img/red_ll/6.jpg"",""time"":304},{""stimulus"":""img/red_ll/7.jpg"",""time"":352},{""stimulus"":""img/red_ll/8.jpg"",""time"":408},{""stimulus"":""img/red_ll/9.jpg"",""time"":456},{""stimulus"":""img/red_ll/10.jpg"",""time"":504},{""stimulus"":""img/red_ll/11.jpg"",""time"":552}]","[]"
"image-keyboard-response","62","203195","0.0-5.0-1.29","61282ca83be28773ac7c421f","bdp_lott","Mon Mar 27 2023 13:41:43 GMT-0400 (Eastern Daylight Time)","459537","green","red","","1698","","","","choice","","img/red_ll/choose11.jpg","1","196","green","0.5","0.5","0.5","l","",""
"animation","63","203800","0.0-5.0-2.29","61282ca83be28773ac7c421f","bdp_lott","Mon Mar 27 2023 13:41:43 GMT-0400 (Eastern Daylight Time)","459537","green","red","","","","","","","","","","196","","","","","","[{""stimulus"":""img/green_ll/1.jpg"",""time"":54},{""stimulus"":""img/green_ll/2.jpg"",""time"":102},{""stimulus"":""img/green_ll/3.jpg"",""time"":158},{""stimulus"":""img/green_ll/4.jpg"",""time"":206},{""stimulus"":""img/green_ll/5.jpg"",""time"":254},{""stimulus"":""img/green_ll/6.jpg"",""time"":302},{""stimulus"":""img/green_ll/7.jpg"",""time"":358},{""stimulus"":""img/green_ll/8.jpg"",""time"":406},{""stimulus"":""img/green_ll/9.jpg"",""time"":454},{""stimulus"":""img/green_ll/10.jpg"",""time"":502},{""stimulus"":""img/green_ll/11.jpg"",""time"":558}]","[]"
"image-keyboard-response","64","205158","0.0-5.0-1.30","61282ca83be28773ac7c421f","bdp_lott","Mon Mar 27 2023 13:41:43 GMT-0400 (Eastern Daylight Time)","459537","green","red","","1357","","","","choice","","img/green_ll/choose11.jpg","2","195","red","0.5","0.5","0.5","l","",""
"animation","65","205760","0.0-5.0-2.30","61282ca83be28773ac7c421f","bdp_lott","Mon Mar 27 2023 13:41:43 GMT-0400 (Eastern Daylight Time)","459537","green","red","","","","","","","","","","195","","","","","","[{""stimulus"":""img/red_ll/1.jpg"",""time"":59},{""stimulus"":""img/red_ll/2.jpg"",""time"":107},{""stimulus"":""img/red_ll/3.jpg"",""time"":155},{""stimulus"":""img/red_ll/4.jpg"",""time"":203},{""stimulus"":""img/red_ll/5.jpg"",""time"":259},{""stimulus"":""img/red_ll/6.jpg"",""time"":307},{""stimulus"":""img/red_ll/7.jpg"",""time"":355},{""stimulus"":""img/red_ll/8.jpg"",""time"":403},{""stimulus"":""img/red_ll/9.jpg"",""time"":459},{""stimulus"":""img/red_ll/10.jpg"",""time"":507},{""stimulus"":""img/red_ll/11.jpg"",""time"":555}]","[]"
"image-keyboard-response","66","206624","0.0-5.0-1.31","61282ca83be28773ac7c421f","bdp_lott","Mon Mar 27 2023 13:41:43 GMT-0400 (Eastern Daylight Time)","459537","green","red","","863","","","","choice","","img/red_ll/choose11.jpg","1","194","green","0.5","0.5","0.5","w","",""
"animation","67","207232","0.0-5.0-2.31","61282ca83be28773ac7c421f","bdp_lott","Mon Mar 27 2023 13:41:43 GMT-0400 (Eastern Daylight Time)","459537","green","red","","","","","","","","","","194","","","","","","[{""stimulus"":""img/green_wl/1.jpg"",""time"":57},{""stimulus"":""img/green_wl/2.jpg"",""time"":105},{""stimulus"":""img/green_wl/3.jpg"",""time"":153},{""stimulus"":""img/green_wl/4.jpg"",""time"":206},{""stimulus"":""img/green_wl/5.jpg"",""time"":257},{""stimulus"":""img/green_wl/6.jpg"",""time"":305},{""stimulus"":""img/green_wl/7.jpg"",""time"":353},{""stimulus"":""img/green_wl/8.jpg"",""time"":409},{""stimulus"":""img/green_wl/9.jpg"",""time"":457},{""stimulus"":""img/green_wl/10.jpg"",""time"":505},{""stimulus"":""img/green_wl/11.jpg"",""time"":553}]","[]"
"image-keyboard-response","68","208443","0.0-5.0-1.32","61282ca83be28773ac7c421f","bdp_lott","Mon Mar 27 2023 13:41:43 GMT-0400 (Eastern Daylight Time)","459537","green","red","","1210","","","","choice","","img/green_wl/choose11.jpg","1","193","green","0.5","0.5","0.5","l","",""
"animation","69","209048","0.0-5.0-2.32","61282ca83be28773ac7c421f","bdp_lott","Mon Mar 27 2023 13:41:43 GMT-0400 (Eastern Daylight Time)","459537","green","red","","","","","","","","","","193","","","","","","[{""stimulus"":""img/green_ll/1.jpg"",""time"":54},{""stimulus"":""img/green_ll/2.jpg"",""time"":102},{""stimulus"":""img/green_ll/3.jpg"",""time"":158},{""stimulus"":""img/green_ll/4.jpg"",""time"":206},{""stimulus"":""img/green_ll/5.jpg"",""time"":254},{""stimulus"":""img/green_ll/6.jpg"",""time"":302},{""stimulus"":""img/green_ll/7.jpg"",""time"":358},{""stimulus"":""img/green_ll/8.jpg"",""time"":406},{""stimulus"":""img/green_ll/9.jpg"",""time"":454},{""stimulus"":""img/green_ll/10.jpg"",""time"":502},{""stimulus"":""img/green_ll/11.jpg"",""time"":558}]","[]"
"image-keyboard-response","70","210522","0.0-5.0-1.33","61282ca83be28773ac7c421f","bdp_lott","Mon Mar 27 2023 13:41:43 GMT-0400 (Eastern Daylight Time)","459537","green","red","","1473","","","","choice","","img/green_ll/choose11.jpg","1","192","green","0.5","0.5","0.5","l","",""
"animation","71","211128","0.0-5.0-2.33","61282ca83be28773ac7c421f","bdp_lott","Mon Mar 27 2023 13:41:43 GMT-0400 (Eastern Daylight Time)","459537","green","red","","","","","","","","","","192","","","","","","[{""stimulus"":""img/green_ll/1.jpg"",""time"":55},{""stimulus"":""img/green_ll/2.jpg"",""time"":103},{""stimulus"":""img/green_ll/3.jpg"",""time"":159},{""stimulus"":""img/green_ll/4.jpg"",""time"":207},{""stimulus"":""img/green_ll/5.jpg"",""time"":255},{""stimulus"":""img/green_ll/6.jpg"",""time"":303},{""stimulus"":""img/green_ll/7.jpg"",""time"":359},{""stimulus"":""img/green_ll/8.jpg"",""time"":407},{""stimulus"":""img/green_ll/9.jpg"",""time"":455},{""stimulus"":""img/green_ll/10.jpg"",""time"":503},{""stimulus"":""img/green_ll/11.jpg"",""time"":559}]","[]"
"image-keyboard-response","72","212402","0.0-5.0-1.34","61282ca83be28773ac7c421f","bdp_lott","Mon Mar 27 2023 13:41:43 GMT-0400 (Eastern Daylight Time)","459537","green","red","","1273","","","","choice","","img/green_ll/choose11.jpg","2","191","red","0.5","0.5","0.5","l","",""
"animation","73","213008","0.0-5.0-2.34","61282ca83be28773ac7c421f","bdp_lott","Mon Mar 27 2023 13:41:43 GMT-0400 (Eastern Daylight Time)","459537","green","red","","","","","","","","","","191","","","","","","[{""stimulus"":""img/red_ll/1.jpg"",""time"":55},{""stimulus"":""img/red_ll/2.jpg"",""time"":103},{""stimulus"":""img/red_ll/3.jpg"",""time"":159},{""stimulus"":""img/red_ll/4.jpg"",""time"":207},{""stimulus"":""img/red_ll/5.jpg"",""time"":255},{""stimulus"":""img/red_ll/6.jpg"",""time"":303},{""stimulus"":""img/red_ll/7.jpg"",""time"":359},{""stimulus"":""img/red_ll/8.jpg"",""time"":407},{""stimulus"":""img/red_ll/9.jpg"",""time"":455},{""stimulus"":""img/red_ll/10.jpg"",""time"":503},{""stimulus"":""img/red_ll/11.jpg"",""time"":559}]","[]"
"image-keyboard-response","74","213687","0.0-5.0-1.35","61282ca83be28773ac7c421f","bdp_lott","Mon Mar 27 2023 13:41:43 GMT-0400 (Eastern Daylight Time)","459537","green","red","","678","","","","choice","","img/red_ll/choose11.jpg","1","190","green","0.5","0.5","0.5","w","",""
"animation","75","214289","0.0-5.0-2.35","61282ca83be28773ac7c421f","bdp_lott","Mon Mar 27 2023 13:41:43 GMT-0400 (Eastern Daylight Time)","459537","green","red","","","","","","","","","","190","","","","","","[{""stimulus"":""img/green_wl/1.jpg"",""time"":58},{""stimulus"":""img/green_wl/2.jpg"",""time"":106},{""stimulus"":""img/green_wl/3.jpg"",""time"":154},{""stimulus"":""img/green_wl/4.jpg"",""time"":202},{""stimulus"":""img/green_wl/5.jpg"",""time"":258},{""stimulus"":""img/green_wl/6.jpg"",""time"":306},{""stimulus"":""img/green_wl/7.jpg"",""time"":354},{""stimulus"":""img/green_wl/8.jpg"",""time"":402},{""stimulus"":""img/green_wl/9.jpg"",""time"":458},{""stimulus"":""img/green_wl/10.jpg"",""time"":506},{""stimulus"":""img/green_wl/11.jpg"",""time"":554}]","[]"
"image-keyboard-response","76","215715","0.0-5.0-1.36","61282ca83be28773ac7c421f","bdp_lott","Mon Mar 27 2023 13:41:43 GMT-0400 (Eastern Daylight Time)","459537","green","red","","1426","","","","choice","","img/green_wl/choose11.jpg","1","189","green","0.5","0.5","0.5","l","",""
"animation","77","216320","0.0-5.0-2.36","61282ca83be28773ac7c421f","bdp_lott","Mon Mar 27 2023 13:41:43 GMT-0400 (Eastern Daylight Time)","459537","green","red","","","","","","","","","","189","","","","","","[{""stimulus"":""img/green_ll/1.jpg"",""time"":53},{""stimulus"":""img/green_ll/2.jpg"",""time"":101},{""stimulus"":""img/green_ll/3.jpg"",""time"":153},{""stimulus"":""img/green_ll/4.jpg"",""time"":205},{""stimulus"":""img/green_ll/5.jpg"",""time"":253},{""stimulus"":""img/green_ll/6.jpg"",""time"":301},{""stimulus"":""img/green_ll/7.jpg"",""time"":357},{""stimulus"":""img/green_ll/8.jpg"",""time"":405},{""stimulus"":""img/green_ll/9.jpg"",""time"":453},{""stimulus"":""img/green_ll/10.jpg"",""time"":501},{""stimulus"":""img/green_ll/11.jpg"",""time"":557}]","[]"
"image-keyboard-response","78","217251","0.0-5.0-1.37","61282ca83be28773ac7c421f","bdp_lott","Mon Mar 27 2023 13:41:43 GMT-0400 (Eastern Daylight Time)","459537","green","red","","930","","","","choice","","img/green_ll/choose11.jpg","1","188","green","0.5","0.5","0.5","l","",""
"animation","79","217856","0.0-5.0-2.37","61282ca83be28773ac7c421f","bdp_lott","Mon Mar 27 2023 13:41:43 GMT-0400 (Eastern Daylight Time)","459537","green","red","","","","","","","","","","188","","","","","","[{""stimulus"":""img/green_ll/1.jpg"",""time"":54},{""stimulus"":""img/green_ll/2.jpg"",""time"":102},{""stimulus"":""img/green_ll/3.jpg"",""time"":158},{""stimulus"":""img/green_ll/4.jpg"",""time"":206},{""stimulus"":""img/green_ll/5.jpg"",""time"":254},{""stimulus"":""img/green_ll/6.jpg"",""time"":302},{""stimulus"":""img/green_ll/7.jpg"",""time"":358},{""stimulus"":""img/green_ll/8.jpg"",""time"":406},{""stimulus"":""img/green_ll/9.jpg"",""time"":454},{""stimulus"":""img/green_ll/10.jpg"",""time"":502},{""stimulus"":""img/green_ll/11.jpg"",""time"":558}]","[]"
"image-keyboard-response","80","218566","0.0-5.0-1.38","61282ca83be28773ac7c421f","bdp_lott","Mon Mar 27 2023 13:41:43 GMT-0400 (Eastern Daylight Time)","459537","green","red","","709","","","","choice","","img/green_ll/choose11.jpg","1","187","green","0.5","0.5","0.5","l","",""
"animation","81","219168","0.0-5.0-2.38","61282ca83be28773ac7c421f","bdp_lott","Mon Mar 27 2023 13:41:43 GMT-0400 (Eastern Daylight Time)","459537","green","red","","","","","","","","","","187","","","","","","[{""stimulus"":""img/green_ll/1.jpg"",""time"":59},{""stimulus"":""img/green_ll/2.jpg"",""time"":107},{""stimulus"":""img/green_ll/3.jpg"",""time"":155},{""stimulus"":""img/green_ll/4.jpg"",""time"":203},{""stimulus"":""img/green_ll/5.jpg"",""time"":259},{""stimulus"":""img/green_ll/6.jpg"",""time"":307},{""stimulus"":""img/green_ll/7.jpg"",""time"":355},{""stimulus"":""img/green_ll/8.jpg"",""time"":403},{""stimulus"":""img/green_ll/9.jpg"",""time"":459},{""stimulus"":""img/green_ll/10.jpg"",""time"":507},{""stimulus"":""img/green_ll/11.jpg"",""time"":555}]","[]"
"image-keyboard-response","82","219857","0.0-5.0-1.39","61282ca83be28773ac7c421f","bdp_lott","Mon Mar 27 2023 13:41:43 GMT-0400 (Eastern Daylight Time)","459537","green","red","","687","","","","choice","","img/green_ll/choose11.jpg","2","186","red","0.5","0.5","0.5","w","",""
"animation","83","220464","0.0-5.0-2.39","61282ca83be28773ac7c421f","bdp_lott","Mon Mar 27 2023 13:41:43 GMT-0400 (Eastern Daylight Time)","459537","green","red","","","","","","","","","","186","","","","","","[{""stimulus"":""img/red_lw/1.jpg"",""time"":56},{""stimulus"":""img/red_lw/2.jpg"",""time"":104},{""stimulus"":""img/red_lw/3.jpg"",""time"":152},{""stimulus"":""img/red_lw/4.jpg"",""time"":208},{""stimulus"":""img/red_lw/5.jpg"",""time"":256},{""stimulus"":""img/red_lw/6.jpg"",""time"":304},{""stimulus"":""img/red_lw/7.jpg"",""time"":352},{""stimulus"":""img/red_lw/8.jpg"",""time"":408},{""stimulus"":""img/red_lw/9.jpg"",""time"":456},{""stimulus"":""img/red_lw/10.jpg"",""time"":504},{""stimulus"":""img/red_lw/11.jpg"",""time"":552}]","[]"
"image-keyboard-response","84","221197","0.0-5.0-1.40","61282ca83be28773ac7c421f","bdp_lott","Mon Mar 27 2023 13:41:43 GMT-0400 (Eastern Daylight Time)","459537","green","red","","732","","","","choice","","img/red_lw/choose11.jpg","2","185","red","0.5","0.5","0.5","l","",""
"animation","85","221801","0.0-5.0-2.40","61282ca83be28773ac7c421f","bdp_lott","Mon Mar 27 2023 13:41:43 GMT-0400 (Eastern Daylight Time)","459537","green","red","","","","","","","","","","185","","","","","","[{""stimulus"":""img/red_ll/1.jpg"",""time"":52},{""stimulus"":""img/red_ll/2.jpg"",""time"":108},{""stimulus"":""img/red_ll/3.jpg"",""time"":156},{""stimulus"":""img/red_ll/4.jpg"",""time"":204},{""stimulus"":""img/red_ll/5.jpg"",""time"":252},{""stimulus"":""img/red_ll/6.jpg"",""time"":308},{""stimulus"":""img/red_ll/7.jpg"",""time"":356},{""stimulus"":""img/red_ll/8.jpg"",""time"":404},{""stimulus"":""img/red_ll/9.jpg"",""time"":452},{""stimulus"":""img/red_ll/10.jpg"",""time"":508},{""stimulus"":""img/red_ll/11.jpg"",""time"":556}]","[]"
"image-keyboard-response","86","223281","0.0-5.0-1.41","61282ca83be28773ac7c421f","bdp_lott","Mon Mar 27 2023 13:41:43 GMT-0400 (Eastern Daylight Time)","459537","green","red","","1480","","","","choice","","img/red_ll/choose11.jpg","2","184","red","0.5","0.5","0.5","w","",""
"animation","87","223889","0.0-5.0-2.41","61282ca83be28773ac7c421f","bdp_lott","Mon Mar 27 2023 13:41:43 GMT-0400 (Eastern Daylight Time)","459537","green","red","","","","","","","","","","184","","","","","","[{""stimulus"":""img/red_lw/1.jpg"",""time"":56},{""stimulus"":""img/red_lw/2.jpg"",""time"":104},{""stimulus"":""img/red_lw/3.jpg"",""time"":152},{""stimulus"":""img/red_lw/4.jpg"",""time"":208},{""stimulus"":""img/red_lw/5.jpg"",""time"":256},{""stimulus"":""img/red_lw/6.jpg"",""time"":304},{""stimulus"":""img/red_lw/7.jpg"",""time"":352},{""stimulus"":""img/red_lw/8.jpg"",""time"":408},{""stimulus"":""img/red_lw/9.jpg"",""time"":456},{""stimulus"":""img/red_lw/10.jpg"",""time"":504},{""stimulus"":""img/red_lw/11.jpg"",""time"":552}]","[]"
"image-keyboard-response","88","224897","0.0-5.0-1.42","61282ca83be28773ac7c421f","bdp_lott","Mon Mar 27 2023 13:41:43 GMT-0400 (Eastern Daylight Time)","459537","green","red","","1007","","","","choice","","img/red_lw/choose11.jpg","2","183","red","0.5","0.5","0.5","w","",""
"animation","89","225504","0.0-5.0-2.42","61282ca83be28773ac7c421f","bdp_lott","Mon Mar 27 2023 13:41:43 GMT-0400 (Eastern Daylight Time)","459537","green","red","","","","","","","","","","183","","","","","","[{""stimulus"":""img/red_lw/1.jpg"",""time"":56},{""stimulus"":""img/red_lw/2.jpg"",""time"":104},{""stimulus"":""img/red_lw/3.jpg"",""time"":152},{""stimulus"":""img/red_lw/4.jpg"",""time"":202},{""stimulus"":""img/red_lw/5.jpg"",""time"":256},{""stimulus"":""img/red_lw/6.jpg"",""time"":304},{""stimulus"":""img/red_lw/7.jpg"",""time"":352},{""stimulus"":""img/red_lw/8.jpg"",""time"":408},{""stimulus"":""img/red_lw/9.jpg"",""time"":456},{""stimulus"":""img/red_lw/10.jpg"",""time"":504},{""stimulus"":""img/red_lw/11.jpg"",""time"":552}]","[]"
"image-keyboard-response","90","226420","0.0-5.0-1.43","61282ca83be28773ac7c421f","bdp_lott","Mon Mar 27 2023 13:41:43 GMT-0400 (Eastern Daylight Time)","459537","green","red","","914","","","","choice","","img/red_lw/choose11.jpg","2","182","red","0.5","0.5","0.5","w","",""
"animation","91","227024","0.0-5.0-2.43","61282ca83be28773ac7c421f","bdp_lott","Mon Mar 27 2023 13:41:43 GMT-0400 (Eastern Daylight Time)","459537","green","red","","","","","","","","","","182","","","","","","[{""stimulus"":""img/red_lw/1.jpg"",""time"":53},{""stimulus"":""img/red_lw/2.jpg"",""time"":101},{""stimulus"":""img/red_lw/3.jpg"",""time"":157},{""stimulus"":""img/red_lw/4.jpg"",""time"":204},{""stimulus"":""img/red_lw/5.jpg"",""time"":253},{""stimulus"":""img/red_lw/6.jpg"",""time"":301},{""stimulus"":""img/red_lw/7.jpg"",""time"":357},{""stimulus"":""img/red_lw/8.jpg"",""time"":405},{""stimulus"":""img/red_lw/9.jpg"",""time"":453},{""stimulus"":""img/red_lw/10.jpg"",""time"":501},{""stimulus"":""img/red_lw/11.jpg"",""time"":557}]","[]"
"image-keyboard-response","92","227871","0.0-5.0-1.44","61282ca83be28773ac7c421f","bdp_lott","Mon Mar 27 2023 13:41:43 GMT-0400 (Eastern Daylight Time)","459537","green","red","","846","","","","choice","","img/red_lw/choose11.jpg","2","181","red","0.5","0.5","0.5","l","",""
"animation","93","228472","0.0-5.0-2.44","61282ca83be28773ac7c421f","bdp_lott","Mon Mar 27 2023 13:41:43 GMT-0400 (Eastern Daylight Time)","459537","green","red","","","","","","","","","","181","","","","","","[{""stimulus"":""img/red_ll/1.jpg"",""time"":58},{""stimulus"":""img/red_ll/2.jpg"",""time"":106},{""stimulus"":""img/red_ll/3.jpg"",""time"":154},{""stimulus"":""img/red_ll/4.jpg"",""time"":202},{""stimulus"":""img/red_ll/5.jpg"",""time"":257},{""stimulus"":""img/red_ll/6.jpg"",""time"":306},{""stimulus"":""img/red_ll/7.jpg"",""time"":354},{""stimulus"":""img/red_ll/8.jpg"",""time"":402},{""stimulus"":""img/red_ll/9.jpg"",""time"":458},{""stimulus"":""img/red_ll/10.jpg"",""time"":506},{""stimulus"":""img/red_ll/11.jpg"",""time"":554}]","[]"
"image-keyboard-response","94","229845","0.0-5.0-1.45","61282ca83be28773ac7c421f","bdp_lott","Mon Mar 27 2023 13:41:43 GMT-0400 (Eastern Daylight Time)","459537","green","red","","1372","","","","choice","","img/red_ll/choose11.jpg","2","180","red","0.5","0.5","0.5","w","",""
"animation","95","230448","0.0-5.0-2.45","61282ca83be28773ac7c421f","bdp_lott","Mon Mar 27 2023 13:41:43 GMT-0400 (Eastern Daylight Time)","459537","green","red","","","","","","","","","","180","","","","","","[{""stimulus"":""img/red_lw/1.jpg"",""time"":51},{""stimulus"":""img/red_lw/2.jpg"",""time"":107},{""stimulus"":""img/red_lw/3.jpg"",""time"":155},{""stimulus"":""img/red_lw/4.jpg"",""time"":202},{""stimulus"":""img/red_lw/5.jpg"",""time"":251},{""stimulus"":""img/red_lw/6.jpg"",""time"":307},{""stimulus"":""img/red_lw/7.jpg"",""time"":355},{""stimulus"":""img/red_lw/8.jpg"",""time"":403},{""stimulus"":""img/red_lw/9.jpg"",""time"":451},{""stimulus"":""img/red_lw/10.jpg"",""time"":507},{""stimulus"":""img/red_lw/11.jpg"",""time"":555}]","[]"
"image-keyboard-response","96","231782","0.0-5.0-1.46","61282ca83be28773ac7c421f","bdp_lott","Mon Mar 27 2023 13:41:43 GMT-0400 (Eastern Daylight Time)","459537","green","red","","1333","","","","choice","","img/red_lw/choose11.jpg","2","179","red","0.5","0.5","0.5","l","",""
"animation","97","232384","0.0-5.0-2.46","61282ca83be28773ac7c421f","bdp_lott","Mon Mar 27 2023 13:41:43 GMT-0400 (Eastern Daylight Time)","459537","green","red","","","","","","","","","","179","","","","","","[{""stimulus"":""img/red_ll/1.jpg"",""time"":59},{""stimulus"":""img/red_ll/2.jpg"",""time"":107},{""stimulus"":""img/red_ll/3.jpg"",""time"":155},{""stimulus"":""img/red_ll/4.jpg"",""time"":203},{""stimulus"":""img/red_ll/5.jpg"",""time"":259},{""stimulus"":""img/red_ll/6.jpg"",""time"":307},{""stimulus"":""img/red_ll/7.jpg"",""time"":355},{""stimulus"":""img/red_ll/8.jpg"",""time"":403},{""stimulus"":""img/red_ll/9.jpg"",""time"":459},{""stimulus"":""img/red_ll/10.jpg"",""time"":507},{""stimulus"":""img/red_ll/11.jpg"",""time"":555}]","[]"
"image-keyboard-response","98","233813","0.0-5.0-1.47","61282ca83be28773ac7c421f","bdp_lott","Mon Mar 27 2023 13:41:43 GMT-0400 (Eastern Daylight Time)","459537","green","red","","1428","","","","choice","","img/red_ll/choose11.jpg","2","178","red","0.5","0.5","0.5","l","",""
"animation","99","234416","0.0-5.0-2.47","61282ca83be28773ac7c421f","bdp_lott","Mon Mar 27 2023 13:41:43 GMT-0400 (Eastern Daylight Time)","459537","green","red","","","","","","","","","","178","","","","","","[{""stimulus"":""img/red_ll/1.jpg"",""time"":52},{""stimulus"":""img/red_ll/2.jpg"",""time"":108},{""stimulus"":""img/red_ll/3.jpg"",""time"":156},{""stimulus"":""img/red_ll/4.jpg"",""time"":204},{""stimulus"":""img/red_ll/5.jpg"",""time"":252},{""stimulus"":""img/red_ll/6.jpg"",""time"":308},{""stimulus"":""img/red_ll/7.jpg"",""time"":356},{""stimulus"":""img/red_ll/8.jpg"",""time"":404},{""stimulus"":""img/red_ll/9.jpg"",""time"":452},{""stimulus"":""img/red_ll/10.jpg"",""time"":507},{""stimulus"":""img/red_ll/11.jpg"",""time"":556}]","[]"
"image-keyboard-response","100","235482","0.0-5.0-1.48","61282ca83be28773ac7c421f","bdp_lott","Mon Mar 27 2023 13:41:43 GMT-0400 (Eastern Daylight Time)","459537","green","red","","1065","","","","choice","","img/red_ll/choose11.jpg","2","177","red","0.5","0.5","0.5","w","",""
"animation","101","236088","0.0-5.0-2.48","61282ca83be28773ac7c421f","bdp_lott","Mon Mar 27 2023 13:41:43 GMT-0400 (Eastern Daylight Time)","459537","green","red","","","","","","","","","","177","","","","","","[{""stimulus"":""img/red_lw/1.jpg"",""time"":55},{""stimulus"":""img/red_lw/2.jpg"",""time"":103},{""stimulus"":""img/red_lw/3.jpg"",""time"":151},{""stimulus"":""img/red_lw/4.jpg"",""time"":207},{""stimulus"":""img/red_lw/5.jpg"",""time"":255},{""stimulus"":""img/red_lw/6.jpg"",""time"":303},{""stimulus"":""img/red_lw/7.jpg"",""time"":351},{""stimulus"":""img/red_lw/8.jpg"",""time"":407},{""stimulus"":""img/red_lw/9.jpg"",""time"":455},{""stimulus"":""img/red_lw/10.jpg"",""time"":503},{""stimulus"":""img/red_lw/11.jpg"",""time"":551}]","[]"
"image-keyboard-response","102","237700","0.0-5.0-1.49","61282ca83be28773ac7c421f","bdp_lott","Mon Mar 27 2023 13:41:43 GMT-0400 (Eastern Daylight Time)","459537","green","red","","1610","","","","choice","","img/red_lw/choose11.jpg","2","176","red","0.5","0.5","0.5","w","",""
"animation","103","238304","0.0-5.0-2.49","61282ca83be28773ac7c421f","bdp_lott","Mon Mar 27 2023 13:41:43 GMT-0400 (Eastern Daylight Time)","459537","green","red","","","","","","","","","","176","","","","","","[{""stimulus"":""img/red_lw/1.jpg"",""time"":53},{""stimulus"":""img/red_lw/2.jpg"",""time"":109},{""stimulus"":""img/red_lw/3.jpg"",""time"":157},{""stimulus"":""img/red_lw/4.jpg"",""time"":205},{""stimulus"":""img/red_lw/5.jpg"",""time"":253},{""stimulus"":""img/red_lw/6.jpg"",""time"":309},{""stimulus"":""img/red_lw/7.jpg"",""time"":357},{""stimulus"":""img/red_lw/8.jpg"",""time"":405},{""stimulus"":""img/red_lw/9.jpg"",""time"":453},{""stimulus"":""img/red_lw/10.jpg"",""time"":509},{""stimulus"":""img/red_lw/11.jpg"",""time"":557}]","[]"
"image-keyboard-response","104","239345","0.0-5.0-1.50","61282ca83be28773ac7c421f","bdp_lott","Mon Mar 27 2023 13:41:43 GMT-0400 (Eastern Daylight Time)","459537","green","red","","1039","","","","choice","","img/red_lw/choose11.jpg","2","175","red","0.5","0.5","0.5","w","",""
"animation","105","239952","0.0-5.0-2.50","61282ca83be28773ac7c421f","bdp_lott","Mon Mar 27 2023 13:41:43 GMT-0400 (Eastern Daylight Time)","459537","green","red","","","","","","","","","","175","","","","","","[{""stimulus"":""img/red_lw/1.jpg"",""time"":56},{""stimulus"":""img/red_lw/2.jpg"",""time"":104},{""stimulus"":""img/red_lw/3.jpg"",""time"":152},{""stimulus"":""img/red_lw/4.jpg"",""time"":208},{""stimulus"":""img/red_lw/5.jpg"",""time"":257},{""stimulus"":""img/red_lw/6.jpg"",""time"":304},{""stimulus"":""img/red_lw/7.jpg"",""time"":352},{""stimulus"":""img/red_lw/8.jpg"",""time"":408},{""stimulus"":""img/red_lw/9.jpg"",""time"":456},{""stimulus"":""img/red_lw/10.jpg"",""time"":504},{""stimulus"":""img/red_lw/11.jpg"",""time"":552}]","[]"
"image-keyboard-response","106","240948","0.0-5.0-1.51","61282ca83be28773ac7c421f","bdp_lott","Mon Mar 27 2023 13:41:43 GMT-0400 (Eastern Daylight Time)","459537","green","red","","995","","","","choice","","img/red_lw/choose11.jpg","2","174","red","0.5","0.5","0.5","l","",""
"animation","107","241552","0.0-5.0-2.51","61282ca83be28773ac7c421f","bdp_lott","Mon Mar 27 2023 13:41:43 GMT-0400 (Eastern Daylight Time)","459537","green","red","","","","","","","","","","174","","","","","","[{""stimulus"":""img/red_ll/1.jpg"",""time"":53},{""stimulus"":""img/red_ll/2.jpg"",""time"":109},{""stimulus"":""img/red_ll/3.jpg"",""time"":157},{""stimulus"":""img/red_ll/4.jpg"",""time"":205},{""stimulus"":""img/red_ll/5.jpg"",""time"":253},{""stimulus"":""img/red_ll/6.jpg"",""time"":309},{""stimulus"":""img/red_ll/7.jpg"",""time"":357},{""stimulus"":""img/red_ll/8.jpg"",""time"":405},{""stimulus"":""img/red_ll/9.jpg"",""time"":453},{""stimulus"":""img/red_ll/10.jpg"",""time"":509},{""stimulus"":""img/red_ll/11.jpg"",""time"":557}]","[]"
"image-keyboard-response","108","243438","0.0-5.0-1.52","61282ca83be28773ac7c421f","bdp_lott","Mon Mar 27 2023 13:41:43 GMT-0400 (Eastern Daylight Time)","459537","green","red","","1885","","","","choice","","img/red_ll/choose11.jpg","2","173","red","0.5","0.5","0.5","w","",""
"animation","109","244040","0.0-5.0-2.52","61282ca83be28773ac7c421f","bdp_lott","Mon Mar 27 2023 13:41:43 GMT-0400 (Eastern Daylight Time)","459537","green","red","","","","","","","","","","173","","","","","","[{""stimulus"":""img/red_lw/1.jpg"",""time"":58},{""stimulus"":""img/red_lw/2.jpg"",""time"":106},{""stimulus"":""img/red_lw/3.jpg"",""time"":154},{""stimulus"":""img/red_lw/4.jpg"",""time"":202},{""stimulus"":""img/red_lw/5.jpg"",""time"":258},{""stimulus"":""img/red_lw/6.jpg"",""time"":306},{""stimulus"":""img/red_lw/7.jpg"",""time"":354},{""stimulus"":""img/red_lw/8.jpg"",""time"":402},{""stimulus"":""img/red_lw/9.jpg"",""time"":458},{""stimulus"":""img/red_lw/10.jpg"",""time"":506},{""stimulus"":""img/red_lw/11.jpg"",""time"":554}]","[]"
"image-keyboard-response","110","245353","0.0-5.0-1.53","61282ca83be28773ac7c421f","bdp_lott","Mon Mar 27 2023 13:41:43 GMT-0400 (Eastern Daylight Time)","459537","green","red","","1312","","","","choice","","img/red_lw/choose11.jpg","2","172","red","0.5","0.5","0.5","w","",""
"animation","111","245960","0.0-5.0-2.53","61282ca83be28773ac7c421f","bdp_lott","Mon Mar 27 2023 13:41:43 GMT-0400 (Eastern Daylight Time)","459537","green","red","","","","","","","","","","172","","","","","","[{""stimulus"":""img/red_lw/1.jpg"",""time"":55},{""stimulus"":""img/red_lw/2.jpg"",""time"":103},{""stimulus"":""img/red_lw/3.jpg"",""time"":151},{""stimulus"":""img/red_lw/4.jpg"",""time"":204},{""stimulus"":""img/red_lw/5.jpg"",""time"":254},{""stimulus"":""img/red_lw/6.jpg"",""time"":302},{""stimulus"":""img/red_lw/7.jpg"",""time"":350},{""stimulus"":""img/red_lw/8.jpg"",""time"":406},{""stimulus"":""img/red_lw/9.jpg"",""time"":454},{""stimulus"":""img/red_lw/10.jpg"",""time"":502},{""stimulus"":""img/red_lw/11.jpg"",""time"":550}]","[]"
"image-keyboard-response","112","246824","0.0-5.0-1.54","61282ca83be28773ac7c421f","bdp_lott","Mon Mar 27 2023 13:41:43 GMT-0400 (Eastern Daylight Time)","459537","green","red","","863","","","","choice","","img/red_lw/choose11.jpg","2","171","red","0.5","0.5","0.5","l","",""
"animation","113","247432","0.0-5.0-2.54","61282ca83be28773ac7c421f","bdp_lott","Mon Mar 27 2023 13:41:43 GMT-0400 (Eastern Daylight Time)","459537","green","red","","","","","","","","","","171","","","","","","[{""stimulus"":""img/red_ll/1.jpg"",""time"":57},{""stimulus"":""img/red_ll/2.jpg"",""time"":105},{""stimulus"":""img/red_ll/3.jpg"",""time"":153},{""stimulus"":""img/red_ll/4.jpg"",""time"":209},{""stimulus"":""img/red_ll/5.jpg"",""time"":257},{""stimulus"":""img/red_ll/6.jpg"",""time"":305},{""stimulus"":""img/red_ll/7.jpg"",""time"":353},{""stimulus"":""img/red_ll/8.jpg"",""time"":409},{""stimulus"":""img/red_ll/9.jpg"",""time"":457},{""stimulus"":""img/red_ll/10.jpg"",""time"":505},{""stimulus"":""img/red_ll/11.jpg"",""time"":553}]","[]"
"image-keyboard-response","114","248356","0.0-5.0-1.55","61282ca83be28773ac7c421f","bdp_lott","Mon Mar 27 2023 13:41:43 GMT-0400 (Eastern Daylight Time)","459537","green","red","","923","","","","choice","","img/red_ll/choose11.jpg","2","170","red","0.5","0.5","0.5","l","",""
"animation","115","248960","0.0-5.0-2.55","61282ca83be28773ac7c421f","bdp_lott","Mon Mar 27 2023 13:41:43 GMT-0400 (Eastern Daylight Time)","459537","green","red","","","","","","","","","","170","","","","","","[{""stimulus"":""img/red_ll/1.jpg"",""time"":53},{""stimulus"":""img/red_ll/2.jpg"",""time"":109},{""stimulus"":""img/red_ll/3.jpg"",""time"":156},{""stimulus"":""img/red_ll/4.jpg"",""time"":205},{""stimulus"":""img/red_ll/5.jpg"",""time"":253},{""stimulus"":""img/red_ll/6.jpg"",""time"":309},{""stimulus"":""img/red_ll/7.jpg"",""time"":357},{""stimulus"":""img/red_ll/8.jpg"",""time"":405},{""stimulus"":""img/red_ll/9.jpg"",""time"":453},{""stimulus"":""img/red_ll/10.jpg"",""time"":501},{""stimulus"":""img/red_ll/11.jpg"",""time"":557}]","[]"
"image-keyboard-response","116","249534","0.0-5.0-1.56","61282ca83be28773ac7c421f","bdp_lott","Mon Mar 27 2023 13:41:43 GMT-0400 (Eastern Daylight Time)","459537","green","red","","573","","","","choice","","img/red_ll/choose11.jpg","2","169","red","0.5","0.5","0.5","l","",""
"animation","117","250136","0.0-5.0-2.56","61282ca83be28773ac7c421f","bdp_lott","Mon Mar 27 2023 13:41:43 GMT-0400 (Eastern Daylight Time)","459537","green","red","","","","","","","","","","169","","","","","","[{""stimulus"":""img/red_ll/1.jpg"",""time"":58},{""stimulus"":""img/red_ll/2.jpg"",""time"":106},{""stimulus"":""img/red_ll/3.jpg"",""time"":154},{""stimulus"":""img/red_ll/4.jpg"",""time"":202},{""stimulus"":""img/red_ll/5.jpg"",""time"":258},{""stimulus"":""img/red_ll/6.jpg"",""time"":306},{""stimulus"":""img/red_ll/7.jpg"",""time"":354},{""stimulus"":""img/red_ll/8.jpg"",""time"":402},{""stimulus"":""img/red_ll/9.jpg"",""time"":458},{""stimulus"":""img/red_ll/10.jpg"",""time"":506},{""stimulus"":""img/red_ll/11.jpg"",""time"":554}]","[]"
"image-keyboard-response","118","250620","0.0-5.0-1.57","61282ca83be28773ac7c421f","bdp_lott","Mon Mar 27 2023 13:41:43 GMT-0400 (Eastern Daylight Time)","459537","green","red","","483","","","","choice","","img/red_ll/choose11.jpg","1","168","green","0.5","0.5","0.5","l","",""
"animation","119","251224","0.0-5.0-2.57","61282ca83be28773ac7c421f","bdp_lott","Mon Mar 27 2023 13:41:43 GMT-0400 (Eastern Daylight Time)","459537","green","red","","","","","","","","","","168","","","","","","[{""stimulus"":""img/green_ll/1.jpg"",""time"":53},{""stimulus"":""img/green_ll/2.jpg"",""time"":101},{""stimulus"":""img/green_ll/3.jpg"",""time"":157},{""stimulus"":""img/green_ll/4.jpg"",""time"":205},{""stimulus"":""img/green_ll/5.jpg"",""time"":253},{""stimulus"":""img/green_ll/6.jpg"",""time"":308},{""stimulus"":""img/green_ll/7.jpg"",""time"":357},{""stimulus"":""img/green_ll/8.jpg"",""time"":404},{""stimulus"":""img/green_ll/9.jpg"",""time"":452},{""stimulus"":""img/green_ll/10.jpg"",""time"":501},{""stimulus"":""img/green_ll/11.jpg"",""time"":556}]","[]"
"image-keyboard-response","120","251989","0.0-5.0-1.58","61282ca83be28773ac7c421f","bdp_lott","Mon Mar 27 2023 13:41:43 GMT-0400 (Eastern Daylight Time)","459537","green","red","","763","","","","choice","","img/green_ll/choose11.jpg","1","167","green","0.5","0.5","0.5","l","",""
"animation","121","252593","0.0-5.0-2.58","61282ca83be28773ac7c421f","bdp_lott","Mon Mar 27 2023 13:41:43 GMT-0400 (Eastern Daylight Time)","459537","green","red","","","","","","","","","","167","","","","","","[{""stimulus"":""img/green_ll/1.jpg"",""time"":52},{""stimulus"":""img/green_ll/2.jpg"",""time"":108},{""stimulus"":""img/green_ll/3.jpg"",""time"":156},{""stimulus"":""img/green_ll/4.jpg"",""time"":204},{""stimulus"":""img/green_ll/5.jpg"",""time"":251},{""stimulus"":""img/green_ll/6.jpg"",""time"":308},{""stimulus"":""img/green_ll/7.jpg"",""time"":355},{""stimulus"":""img/green_ll/8.jpg"",""time"":403},{""stimulus"":""img/green_ll/9.jpg"",""time"":452},{""stimulus"":""img/green_ll/10.jpg"",""time"":508},{""stimulus"":""img/green_ll/11.jpg"",""time"":556}]","[]"
"image-keyboard-response","122","253471","0.0-5.0-1.59","61282ca83be28773ac7c421f","bdp_lott","Mon Mar 27 2023 13:41:43 GMT-0400 (Eastern Daylight Time)","459537","green","red","","878","","","","choice","","img/green_ll/choose11.jpg","2","166","red","0.5","0.5","0.5","l","",""
"animation","123","254072","0.0-5.0-2.59","61282ca83be28773ac7c421f","bdp_lott","Mon Mar 27 2023 13:41:43 GMT-0400 (Eastern Daylight Time)","459537","green","red","","","","","","","","","","166","","","","","","[{""stimulus"":""img/red_ll/1.jpg"",""time"":58},{""stimulus"":""img/red_ll/2.jpg"",""time"":106},{""stimulus"":""img/red_ll/3.jpg"",""time"":154},{""stimulus"":""img/red_ll/4.jpg"",""time"":202},{""stimulus"":""img/red_ll/5.jpg"",""time"":258},{""stimulus"":""img/red_ll/6.jpg"",""time"":306},{""stimulus"":""img/red_ll/7.jpg"",""time"":354},{""stimulus"":""img/red_ll/8.jpg"",""time"":402},{""stimulus"":""img/red_ll/9.jpg"",""time"":458},{""stimulus"":""img/red_ll/10.jpg"",""time"":506},{""stimulus"":""img/red_ll/11.jpg"",""time"":554}]","[]"
"image-keyboard-response","124","254775","0.0-5.0-1.60","61282ca83be28773ac7c421f","bdp_lott","Mon Mar 27 2023 13:41:43 GMT-0400 (Eastern Daylight Time)","459537","green","red","","702","","","","choice","","img/red_ll/choose11.jpg","1","165","green","0.5","0.5","0.5","w","",""
"animation","125","255376","0.0-5.0-2.60","61282ca83be28773ac7c421f","bdp_lott","Mon Mar 27 2023 13:41:43 GMT-0400 (Eastern Daylight Time)","459537","green","red","","","","","","","","","","165","","","","","","[{""stimulus"":""img/green_wl/1.jpg"",""time"":58},{""stimulus"":""img/green_wl/2.jpg"",""time"":106},{""stimulus"":""img/green_wl/3.jpg"",""time"":154},{""stimulus"":""img/green_wl/4.jpg"",""time"":201},{""stimulus"":""img/green_wl/5.jpg"",""time"":257},{""stimulus"":""img/green_wl/6.jpg"",""time"":306},{""stimulus"":""img/green_wl/7.jpg"",""time"":354},{""stimulus"":""img/green_wl/8.jpg"",""time"":402},{""stimulus"":""img/green_wl/9.jpg"",""time"":458},{""stimulus"":""img/green_wl/10.jpg"",""time"":506},{""stimulus"":""img/green_wl/11.jpg"",""time"":554}]","[]"
"image-keyboard-response","126","256163","0.0-5.0-1.61","61282ca83be28773ac7c421f","bdp_lott","Mon Mar 27 2023 13:41:43 GMT-0400 (Eastern Daylight Time)","459537","green","red","","786","","","","choice","","img/green_wl/choose11.jpg","1","164","green","0.5","0.5","0.5","w","",""
"animation","127","256768","0.0-5.0-2.61","61282ca83be28773ac7c421f","bdp_lott","Mon Mar 27 2023 13:41:43 GMT-0400 (Eastern Daylight Time)","459537","green","red","","","","","","","","","","164","","","","","","[{""stimulus"":""img/green_wl/1.jpg"",""time"":54},{""stimulus"":""img/green_wl/2.jpg"",""time"":102},{""stimulus"":""img/green_wl/3.jpg"",""time"":157},{""stimulus"":""img/green_wl/4.jpg"",""time"":205},{""stimulus"":""img/green_wl/5.jpg"",""time"":254},{""stimulus"":""img/green_wl/6.jpg"",""time"":302},{""stimulus"":""img/green_wl/7.jpg"",""time"":358},{""stimulus"":""img/green_wl/8.jpg"",""time"":406},{""stimulus"":""img/green_wl/9.jpg"",""time"":454},{""stimulus"":""img/green_wl/10.jpg"",""time"":502},{""stimulus"":""img/green_wl/11.jpg"",""time"":558}]","[]"
"image-keyboard-response","128","257662","0.0-5.0-1.62","61282ca83be28773ac7c421f","bdp_lott","Mon Mar 27 2023 13:41:43 GMT-0400 (Eastern Daylight Time)","459537","green","red","","892","","","","choice","","img/green_wl/choose11.jpg","1","163","green","0.5","0.5","0.5","l","",""
"animation","129","258264","0.0-5.0-2.62","61282ca83be28773ac7c421f","bdp_lott","Mon Mar 27 2023 13:41:43 GMT-0400 (Eastern Daylight Time)","459537","green","red","","","","","","","","","","163","","","","","","[{""stimulus"":""img/green_ll/1.jpg"",""time"":59},{""stimulus"":""img/green_ll/2.jpg"",""time"":107},{""stimulus"":""img/green_ll/3.jpg"",""time"":155},{""stimulus"":""img/green_ll/4.jpg"",""time"":203},{""stimulus"":""img/green_ll/5.jpg"",""time"":259},{""stimulus"":""img/green_ll/6.jpg"",""time"":307},{""stimulus"":""img/green_ll/7.jpg"",""time"":355},{""stimulus"":""img/green_ll/8.jpg"",""time"":403},{""stimulus"":""img/green_ll/9.jpg"",""time"":459},{""stimulus"":""img/green_ll/10.jpg"",""time"":506},{""stimulus"":""img/green_ll/11.jpg"",""time"":554}]","[]"
"image-keyboard-response","130","259219","0.0-5.0-1.63","61282ca83be28773ac7c421f","bdp_lott","Mon Mar 27 2023 13:41:43 GMT-0400 (Eastern Daylight Time)","459537","green","red","","954","","","","choice","","img/green_ll/choose11.jpg","1","162","green","0.5","0.5","0.5","w","",""
"animation","131","259825","0.0-5.0-2.63","61282ca83be28773ac7c421f","bdp_lott","Mon Mar 27 2023 13:41:43 GMT-0400 (Eastern Daylight Time)","459537","green","red","","","","","","","","","","162","","","","","","[{""stimulus"":""img/green_wl/1.jpg"",""time"":54},{""stimulus"":""img/green_wl/2.jpg"",""time"":103},{""stimulus"":""img/green_wl/3.jpg"",""time"":158},{""stimulus"":""img/green_wl/4.jpg"",""time"":206},{""stimulus"":""img/green_wl/5.jpg"",""time"":254},{""stimulus"":""img/green_wl/6.jpg"",""time"":302},{""stimulus"":""img/green_wl/7.jpg"",""time"":358},{""stimulus"":""img/green_wl/8.jpg"",""time"":406},{""stimulus"":""img/green_wl/9.jpg"",""time"":454},{""stimulus"":""img/green_wl/10.jpg"",""time"":502},{""stimulus"":""img/green_wl/11.jpg"",""time"":558}]","[]"
"image-keyboard-response","132","260766","0.0-5.0-1.64","61282ca83be28773ac7c421f","bdp_lott","Mon Mar 27 2023 13:41:43 GMT-0400 (Eastern Daylight Time)","459537","green","red","","940","","","","choice","","img/green_wl/choose11.jpg","1","161","green","0.5","0.5","0.5","w","",""
"animation","133","261369","0.0-5.0-2.64","61282ca83be28773ac7c421f","bdp_lott","Mon Mar 27 2023 13:41:43 GMT-0400 (Eastern Daylight Time)","459537","green","red","","","","","","","","","","161","","","","","","[{""stimulus"":""img/green_wl/1.jpg"",""time"":59},{""stimulus"":""img/green_wl/2.jpg"",""time"":107},{""stimulus"":""img/green_wl/3.jpg"",""time"":155},{""stimulus"":""img/green_wl/4.jpg"",""time"":203},{""stimulus"":""img/green_wl/5.jpg"",""time"":259},{""stimulus"":""img/green_wl/6.jpg"",""time"":307},{""stimulus"":""img/green_wl/7.jpg"",""time"":355},{""stimulus"":""img/green_wl/8.jpg"",""time"":403},{""stimulus"":""img/green_wl/9.jpg"",""time"":459},{""stimulus"":""img/green_wl/10.jpg"",""time"":507},{""stimulus"":""img/green_wl/11.jpg"",""time"":555}]","[]"
"image-keyboard-response","134","262178","0.0-5.0-1.65","61282ca83be28773ac7c421f","bdp_lott","Mon Mar 27 2023 13:41:43 GMT-0400 (Eastern Daylight Time)","459537","green","red","","809","","","","choice","","img/green_wl/choose11.jpg","1","160","green","0.5","0.5","0.5","w","",""
"animation","135","262784","0.0-5.0-2.65","61282ca83be28773ac7c421f","bdp_lott","Mon Mar 27 2023 13:41:43 GMT-0400 (Eastern Daylight Time)","459537","green","red","","","","","","","","","","160","","","","","","[{""stimulus"":""img/green_wl/1.jpg"",""time"":55},{""stimulus"":""img/green_wl/2.jpg"",""time"":103},{""stimulus"":""img/green_wl/3.jpg"",""time"":159},{""stimulus"":""img/green_wl/4.jpg"",""time"":207},{""stimulus"":""img/green_wl/5.jpg"",""time"":254},{""stimulus"":""img/green_wl/6.jpg"",""time"":303},{""stimulus"":""img/green_wl/7.jpg"",""time"":359},{""stimulus"":""img/green_wl/8.jpg"",""time"":407},{""stimulus"":""img/green_wl/9.jpg"",""time"":455},{""stimulus"":""img/green_wl/10.jpg"",""time"":503},{""stimulus"":""img/green_wl/11.jpg"",""time"":559}]","[]"
"image-keyboard-response","136","263624","0.0-5.0-1.66","61282ca83be28773ac7c421f","bdp_lott","Mon Mar 27 2023 13:41:43 GMT-0400 (Eastern Daylight Time)","459537","green","red","","839","","","","choice","","img/green_wl/choose11.jpg","1","159","green","0.5","0.5","0.5","w","",""
"animation","137","264232","0.0-5.0-2.66","61282ca83be28773ac7c421f","bdp_lott","Mon Mar 27 2023 13:41:43 GMT-0400 (Eastern Daylight Time)","459537","green","red","","","","","","","","","","159","","","","","","[{""stimulus"":""img/green_wl/1.jpg"",""time"":57},{""stimulus"":""img/green_wl/2.jpg"",""time"":105},{""stimulus"":""img/green_wl/3.jpg"",""time"":153},{""stimulus"":""img/green_wl/4.jpg"",""time"":209},{""stimulus"":""img/green_wl/5.jpg"",""time"":257},{""stimulus"":""img/green_wl/6.jpg"",""time"":305},{""stimulus"":""img/green_wl/7.jpg"",""time"":353},{""stimulus"":""img/green_wl/8.jpg"",""time"":409},{""stimulus"":""img/green_wl/9.jpg"",""time"":457},{""stimulus"":""img/green_wl/10.jpg"",""time"":505},{""stimulus"":""img/green_wl/11.jpg"",""time"":552}]","[]"
"image-keyboard-response","138","265167","0.0-5.0-1.67","61282ca83be28773ac7c421f","bdp_lott","Mon Mar 27 2023 13:41:43 GMT-0400 (Eastern Daylight Time)","459537","green","red","","933","","","","choice","","img/green_wl/choose11.jpg","1","158","green","0.5","0.5","0.5","w","",""
"animation","139","265768","0.0-5.0-2.67","61282ca83be28773ac7c421f","bdp_lott","Mon Mar 27 2023 13:41:43 GMT-0400 (Eastern Daylight Time)","459537","green","red","","","","","","","","","","158","","","","","","[{""stimulus"":""img/green_wl/1.jpg"",""time"":58},{""stimulus"":""img/green_wl/2.jpg"",""time"":106},{""stimulus"":""img/green_wl/3.jpg"",""time"":154},{""stimulus"":""img/green_wl/4.jpg"",""time"":202},{""stimulus"":""img/green_wl/5.jpg"",""time"":258},{""stimulus"":""img/green_wl/6.jpg"",""time"":306},{""stimulus"":""img/green_wl/7.jpg"",""time"":354},{""stimulus"":""img/green_wl/8.jpg"",""time"":402},{""stimulus"":""img/green_wl/9.jpg"",""time"":458},{""stimulus"":""img/green_wl/10.jpg"",""time"":506},{""stimulus"":""img/green_wl/11.jpg"",""time"":554}]","[]"
"image-keyboard-response","140","266493","0.0-5.0-1.68","61282ca83be28773ac7c421f","bdp_lott","Mon Mar 27 2023 13:41:43 GMT-0400 (Eastern Daylight Time)","459537","green","red","","724","","","","choice","","img/green_wl/choose11.jpg","1","157","green","0.5","0.5","0.5","w","",""
"animation","141","267096","0.0-5.0-2.68","61282ca83be28773ac7c421f","bdp_lott","Mon Mar 27 2023 13:41:43 GMT-0400 (Eastern Daylight Time)","459537","green","red","","","","","","","","","","157","","","","","","[{""stimulus"":""img/green_wl/1.jpg"",""time"":51},{""stimulus"":""img/green_wl/2.jpg"",""time"":107},{""stimulus"":""img/green_wl/3.jpg"",""time"":155},{""stimulus"":""img/green_wl/4.jpg"",""time"":203},{""stimulus"":""img/green_wl/5.jpg"",""time"":251},{""stimulus"":""img/green_wl/6.jpg"",""time"":307},{""stimulus"":""img/green_wl/7.jpg"",""time"":355},{""stimulus"":""img/green_wl/8.jpg"",""time"":403},{""stimulus"":""img/green_wl/9.jpg"",""time"":451},{""stimulus"":""img/green_wl/10.jpg"",""time"":507},{""stimulus"":""img/green_wl/11.jpg"",""time"":555}]","[]"
"image-keyboard-response","142","267607","0.0-5.0-1.69","61282ca83be28773ac7c421f","bdp_lott","Mon Mar 27 2023 13:41:43 GMT-0400 (Eastern Daylight Time)","459537","green","red","","510","","","","choice","","img/green_wl/choose11.jpg","1","156","green","0.5","0.5","0.5","w","",""
"animation","143","268208","0.0-5.0-2.69","61282ca83be28773ac7c421f","bdp_lott","Mon Mar 27 2023 13:41:43 GMT-0400 (Eastern Daylight Time)","459537","green","red","","","","","","","","","","156","","","","","","[{""stimulus"":""img/green_wl/1.jpg"",""time"":58},{""stimulus"":""img/green_wl/2.jpg"",""time"":106},{""stimulus"":""img/green_wl/3.jpg"",""time"":154},{""stimulus"":""img/green_wl/4.jpg"",""time"":202},{""stimulus"":""img/green_wl/5.jpg"",""time"":258},{""stimulus"":""img/green_wl/6.jpg"",""time"":306},{""stimulus"":""img/green_wl/7.jpg"",""time"":354},{""stimulus"":""img/green_wl/8.jpg"",""time"":402},{""stimulus"":""img/green_wl/9.jpg"",""time"":458},{""stimulus"":""img/green_wl/10.jpg"",""time"":506},{""stimulus"":""img/green_wl/11.jpg"",""time"":554}]","[]"
"image-keyboard-response","144","268757","0.0-5.0-1.70","61282ca83be28773ac7c421f","bdp_lott","Mon Mar 27 2023 13:41:43 GMT-0400 (Eastern Daylight Time)","459537","green","red","","547","","","","choice","","img/green_wl/choose11.jpg","1","155","green","0.5","0.5","0.5","l","",""
"animation","145","269360","0.0-5.0-2.70","61282ca83be28773ac7c421f","bdp_lott","Mon Mar 27 2023 13:41:43 GMT-0400 (Eastern Daylight Time)","459537","green","red","","","","","","","","","","155","","","","","","[{""stimulus"":""img/green_ll/1.jpg"",""time"":52},{""stimulus"":""img/green_ll/2.jpg"",""time"":108},{""stimulus"":""img/green_ll/3.jpg"",""time"":156},{""stimulus"":""img/green_ll/4.jpg"",""time"":204},{""stimulus"":""img/green_ll/5.jpg"",""time"":252},{""stimulus"":""img/green_ll/6.jpg"",""time"":308},{""stimulus"":""img/green_ll/7.jpg"",""time"":356},{""stimulus"":""img/green_ll/8.jpg"",""time"":404},{""stimulus"":""img/green_ll/9.jpg"",""time"":452},{""stimulus"":""img/green_ll/10.jpg"",""time"":508},{""stimulus"":""img/green_ll/11.jpg"",""time"":556}]","[]"
"image-keyboard-response","146","270463","0.0-5.0-1.71","61282ca83be28773ac7c421f","bdp_lott","Mon Mar 27 2023 13:41:43 GMT-0400 (Eastern Daylight Time)","459537","green","red","","1102","","","","choice","","img/green_ll/choose11.jpg","1","154","green","0.5","0.5","0.5","l","",""
"animation","147","271064","0.0-5.0-2.71","61282ca83be28773ac7c421f","bdp_lott","Mon Mar 27 2023 13:41:43 GMT-0400 (Eastern Daylight Time)","459537","green","red","","","","","","","","","","154","","","","","","[{""stimulus"":""img/green_ll/1.jpg"",""time"":58},{""stimulus"":""img/green_ll/2.jpg"",""time"":106},{""stimulus"":""img/green_ll/3.jpg"",""time"":154},{""stimulus"":""img/green_ll/4.jpg"",""time"":202},{""stimulus"":""img/green_ll/5.jpg"",""time"":258},{""stimulus"":""img/green_ll/6.jpg"",""time"":306},{""stimulus"":""img/green_ll/7.jpg"",""time"":354},{""stimulus"":""img/green_ll/8.jpg"",""time"":402},{""stimulus"":""img/green_ll/9.jpg"",""time"":458},{""stimulus"":""img/green_ll/10.jpg"",""time"":506},{""stimulus"":""img/green_ll/11.jpg"",""time"":554}]","[]"
"image-keyboard-response","148","271692","0.0-5.0-1.72","61282ca83be28773ac7c421f","bdp_lott","Mon Mar 27 2023 13:41:43 GMT-0400 (Eastern Daylight Time)","459537","green","red","","627","","","","choice","","img/green_ll/choose11.jpg","2","153","red","0.5","0.5","0.5","w","",""
"animation","149","272297","0.0-5.0-2.72","61282ca83be28773ac7c421f","bdp_lott","Mon Mar 27 2023 13:41:43 GMT-0400 (Eastern Daylight Time)","459537","green","red","","","","","","","","","","153","","","","","","[{""stimulus"":""img/red_lw/1.jpg"",""time"":53},{""stimulus"":""img/red_lw/2.jpg"",""time"":109},{""stimulus"":""img/red_lw/3.jpg"",""time"":157},{""stimulus"":""img/red_lw/4.jpg"",""time"":205},{""stimulus"":""img/red_lw/5.jpg"",""time"":253},{""stimulus"":""img/red_lw/6.jpg"",""time"":309},{""stimulus"":""img/red_lw/7.jpg"",""time"":357},{""stimulus"":""img/red_lw/8.jpg"",""time"":405},{""stimulus"":""img/red_lw/9.jpg"",""time"":453},{""stimulus"":""img/red_lw/10.jpg"",""time"":509},{""stimulus"":""img/red_lw/11.jpg"",""time"":557}]","[]"
"image-keyboard-response","150","273013","0.0-5.0-1.73","61282ca83be28773ac7c421f","bdp_lott","Mon Mar 27 2023 13:41:43 GMT-0400 (Eastern Daylight Time)","459537","green","red","","715","","","","choice","","img/red_lw/choose11.jpg","2","152","red","0.5","0.5","0.5","l","",""
"animation","151","273616","0.0-5.0-2.73","61282ca83be28773ac7c421f","bdp_lott","Mon Mar 27 2023 13:41:43 GMT-0400 (Eastern Daylight Time)","459537","green","red","","","","","","","","","","152","","","","","","[{""stimulus"":""img/red_ll/1.jpg"",""time"":52},{""stimulus"":""img/red_ll/2.jpg"",""time"":108},{""stimulus"":""img/red_ll/3.jpg"",""time"":156},{""stimulus"":""img/red_ll/4.jpg"",""time"":204},{""stimulus"":""img/red_ll/5.jpg"",""time"":252},{""stimulus"":""img/red_ll/6.jpg"",""time"":308},{""stimulus"":""img/red_ll/7.jpg"",""time"":356},{""stimulus"":""img/red_ll/8.jpg"",""time"":404},{""stimulus"":""img/red_ll/9.jpg"",""time"":452},{""stimulus"":""img/red_ll/10.jpg"",""time"":508},{""stimulus"":""img/red_ll/11.jpg"",""time"":556}]","[]"
"image-keyboard-response","152","274617","0.0-5.0-1.74","61282ca83be28773ac7c421f","bdp_lott","Mon Mar 27 2023 13:41:43 GMT-0400 (Eastern Daylight Time)","459537","green","red","","1000","","","","choice","","img/red_ll/choose11.jpg","2","151","red","0.5","0.5","0.5","w","",""
"animation","153","275224","0.0-5.0-2.74","61282ca83be28773ac7c421f","bdp_lott","Mon Mar 27 2023 13:41:43 GMT-0400 (Eastern Daylight Time)","459537","green","red","","","","","","","","","","151","","","","","","[{""stimulus"":""img/red_lw/1.jpg"",""time"":56},{""stimulus"":""img/red_lw/2.jpg"",""time"":104},{""stimulus"":""img/red_lw/3.jpg"",""time"":152},{""stimulus"":""img/red_lw/4.jpg"",""time"":208},{""stimulus"":""img/red_lw/5.jpg"",""time"":256},{""stimulus"":""img/red_lw/6.jpg"",""time"":304},{""stimulus"":""img/red_lw/7.jpg"",""time"":352},{""stimulus"":""img/red_lw/8.jpg"",""time"":408},{""stimulus"":""img/red_lw/9.jpg"",""time"":456},{""stimulus"":""img/red_lw/10.jpg"",""time"":504},{""stimulus"":""img/red_lw/11.jpg"",""time"":552}]","[]"
"image-keyboard-response","154","275968","0.0-5.0-1.75","61282ca83be28773ac7c421f","bdp_lott","Mon Mar 27 2023 13:41:43 GMT-0400 (Eastern Daylight Time)","459537","green","red","","743","","","","choice","","img/red_lw/choose11.jpg","2","150","red","0.5","0.5","0.5","l","",""
"animation","155","276576","0.0-5.0-2.75","61282ca83be28773ac7c421f","bdp_lott","Mon Mar 27 2023 13:41:43 GMT-0400 (Eastern Daylight Time)","459537","green","red","","","","","","","","","","150","","","","","","[{""stimulus"":""img/red_ll/1.jpg"",""time"":57},{""stimulus"":""img/red_ll/2.jpg"",""time"":105},{""stimulus"":""img/red_ll/3.jpg"",""time"":153},{""stimulus"":""img/red_ll/4.jpg"",""time"":209},{""stimulus"":""img/red_ll/5.jpg"",""time"":257},{""stimulus"":""img/red_ll/6.jpg"",""time"":305},{""stimulus"":""img/red_ll/7.jpg"",""time"":353},{""stimulus"":""img/red_ll/8.jpg"",""time"":409},{""stimulus"":""img/red_ll/9.jpg"",""time"":457},{""stimulus"":""img/red_ll/10.jpg"",""time"":505},{""stimulus"":""img/red_ll/11.jpg"",""time"":553}]","[]"
"image-keyboard-response","156","277331","0.0-5.0-1.76","61282ca83be28773ac7c421f","bdp_lott","Mon Mar 27 2023 13:41:43 GMT-0400 (Eastern Daylight Time)","459537","green","red","","754","","","","choice","","img/red_ll/choose11.jpg","2","149","red","0.5","0.1","0.1","l","",""
"animation","157","277936","0.0-5.0-2.76","61282ca83be28773ac7c421f","bdp_lott","Mon Mar 27 2023 13:41:43 GMT-0400 (Eastern Daylight Time)","459537","green","red","","","","","","","","","","149","","","","","","[{""stimulus"":""img/red_ll/1.jpg"",""time"":53},{""stimulus"":""img/red_ll/2.jpg"",""time"":101},{""stimulus"":""img/red_ll/3.jpg"",""time"":157},{""stimulus"":""img/red_ll/4.jpg"",""time"":205},{""stimulus"":""img/red_ll/5.jpg"",""time"":253},{""stimulus"":""img/red_ll/6.jpg"",""time"":301},{""stimulus"":""img/red_ll/7.jpg"",""time"":357},{""stimulus"":""img/red_ll/8.jpg"",""time"":405},{""stimulus"":""img/red_ll/9.jpg"",""time"":453},{""stimulus"":""img/red_ll/10.jpg"",""time"":501},{""stimulus"":""img/red_ll/11.jpg"",""time"":557}]","[]"
"image-keyboard-response","158","278563","0.0-5.0-1.77","61282ca83be28773ac7c421f","bdp_lott","Mon Mar 27 2023 13:41:43 GMT-0400 (Eastern Daylight Time)","459537","green","red","","626","","","","choice","","img/red_ll/choose11.jpg","1","148","green","0.5","0.1","0.5","w","",""
"animation","159","279169","0.0-5.0-2.77","61282ca83be28773ac7c421f","bdp_lott","Mon Mar 27 2023 13:41:43 GMT-0400 (Eastern Daylight Time)","459537","green","red","","","","","","","","","","148","","","","","","[{""stimulus"":""img/green_wl/1.jpg"",""time"":54},{""stimulus"":""img/green_wl/2.jpg"",""time"":102},{""stimulus"":""img/green_wl/3.jpg"",""time"":157},{""stimulus"":""img/green_wl/4.jpg"",""time"":206},{""stimulus"":""img/green_wl/5.jpg"",""time"":254},{""stimulus"":""img/green_wl/6.jpg"",""time"":302},{""stimulus"":""img/green_wl/7.jpg"",""time"":358},{""stimulus"":""img/green_wl/8.jpg"",""time"":406},{""stimulus"":""img/green_wl/9.jpg"",""time"":454},{""stimulus"":""img/green_wl/10.jpg"",""time"":502},{""stimulus"":""img/green_wl/11.jpg"",""time"":558}]","[]"
"image-keyboard-response","160","279811","0.0-5.0-1.78","61282ca83be28773ac7c421f","bdp_lott","Mon Mar 27 2023 13:41:43 GMT-0400 (Eastern Daylight Time)","459537","green","red","","641","","","","choice","","img/green_wl/choose11.jpg","1","147","green","0.5","0.1","0.5","l","",""
"animation","161","280416","0.0-5.0-2.78","61282ca83be28773ac7c421f","bdp_lott","Mon Mar 27 2023 13:41:43 GMT-0400 (Eastern Daylight Time)","459537","green","red","","","","","","","","","","147","","","","","","[{""stimulus"":""img/green_ll/1.jpg"",""time"":54},{""stimulus"":""img/green_ll/2.jpg"",""time"":102},{""stimulus"":""img/green_ll/3.jpg"",""time"":158},{""stimulus"":""img/green_ll/4.jpg"",""time"":206},{""stimulus"":""img/green_ll/5.jpg"",""time"":253},{""stimulus"":""img/green_ll/6.jpg"",""time"":302},{""stimulus"":""img/green_ll/7.jpg"",""time"":358},{""stimulus"":""img/green_ll/8.jpg"",""time"":406},{""stimulus"":""img/green_ll/9.jpg"",""time"":454},{""stimulus"":""img/green_ll/10.jpg"",""time"":502},{""stimulus"":""img/green_ll/11.jpg"",""time"":558}]","[]"
"image-keyboard-response","162","281136","0.0-5.0-1.79","61282ca83be28773ac7c421f","bdp_lott","Mon Mar 27 2023 13:41:43 GMT-0400 (Eastern Daylight Time)","459537","green","red","","718","","","","choice","","img/green_ll/choose11.jpg","1","146","green","0.5","0.1","0.5","l","",""
"animation","163","281736","0.0-5.0-2.79","61282ca83be28773ac7c421f","bdp_lott","Mon Mar 27 2023 13:41:43 GMT-0400 (Eastern Daylight Time)","459537","green","red","","","","","","","","","","146","","","","","","[{""stimulus"":""img/green_ll/1.jpg"",""time"":57},{""stimulus"":""img/green_ll/2.jpg"",""time"":105},{""stimulus"":""img/green_ll/3.jpg"",""time"":153},{""stimulus"":""img/green_ll/4.jpg"",""time"":201},{""stimulus"":""img/green_ll/5.jpg"",""time"":257},{""stimulus"":""img/green_ll/6.jpg"",""time"":305},{""stimulus"":""img/green_ll/7.jpg"",""time"":353},{""stimulus"":""img/green_ll/8.jpg"",""time"":401},{""stimulus"":""img/green_ll/9.jpg"",""time"":457},{""stimulus"":""img/green_ll/10.jpg"",""time"":505},{""stimulus"":""img/green_ll/11.jpg"",""time"":553}]","[]"
"image-keyboard-response","164","282391","0.0-5.0-1.80","61282ca83be28773ac7c421f","bdp_lott","Mon Mar 27 2023 13:41:43 GMT-0400 (Eastern Daylight Time)","459537","green","red","","654","","","","choice","","img/green_ll/choose11.jpg","1","145","green","0.5","0.1","0.5","l","",""
"animation","165","282992","0.0-5.0-2.80","61282ca83be28773ac7c421f","bdp_lott","Mon Mar 27 2023 13:41:43 GMT-0400 (Eastern Daylight Time)","459537","green","red","","","","","","","","","","145","","","","","","[{""stimulus"":""img/green_ll/1.jpg"",""time"":58},{""stimulus"":""img/green_ll/2.jpg"",""time"":106},{""stimulus"":""img/green_ll/3.jpg"",""time"":154},{""stimulus"":""img/green_ll/4.jpg"",""time"":202},{""stimulus"":""img/green_ll/5.jpg"",""time"":258},{""stimulus"":""img/green_ll/6.jpg"",""time"":306},{""stimulus"":""img/green_ll/7.jpg"",""time"":354},{""stimulus"":""img/green_ll/8.jpg"",""time"":401},{""stimulus"":""img/green_ll/9.jpg"",""time"":458},{""stimulus"":""img/green_ll/10.jpg"",""time"":506},{""stimulus"":""img/green_ll/11.jpg"",""time"":554}]","[]"
"image-keyboard-response","166","283501","0.0-5.0-1.81","61282ca83be28773ac7c421f","bdp_lott","Mon Mar 27 2023 13:41:43 GMT-0400 (Eastern Daylight Time)","459537","green","red","","508","","","","choice","","img/green_ll/choose11.jpg","2","144","red","0.5","0.1","0.1","l","",""
"animation","167","284105","0.0-5.0-2.81","61282ca83be28773ac7c421f","bdp_lott","Mon Mar 27 2023 13:41:43 GMT-0400 (Eastern Daylight Time)","459537","green","red","","","","","","","","","","144","","","","","","[{""stimulus"":""img/red_ll/1.jpg"",""time"":52},{""stimulus"":""img/red_ll/2.jpg"",""time"":108},{""stimulus"":""img/red_ll/3.jpg"",""time"":156},{""stimulus"":""img/red_ll/4.jpg"",""time"":204},{""stimulus"":""img/red_ll/5.jpg"",""time"":252},{""stimulus"":""img/red_ll/6.jpg"",""time"":308},{""stimulus"":""img/red_ll/7.jpg"",""time"":356},{""stimulus"":""img/red_ll/8.jpg"",""time"":404},{""stimulus"":""img/red_ll/9.jpg"",""time"":452},{""stimulus"":""img/red_ll/10.jpg"",""time"":508},{""stimulus"":""img/red_ll/11.jpg"",""time"":556}]","[]"
"image-keyboard-response","168","284536","0.0-5.0-1.82","61282ca83be28773ac7c421f","bdp_lott","Mon Mar 27 2023 13:41:43 GMT-0400 (Eastern Daylight Time)","459537","green","red","","430","","","","choice","","img/red_ll/choose11.jpg","2","143","red","0.5","0.1","0.1","l","",""
"animation","169","285144","0.0-5.0-2.82","61282ca83be28773ac7c421f","bdp_lott","Mon Mar 27 2023 13:41:43 GMT-0400 (Eastern Daylight Time)","459537","green","red","","","","","","","","","","143","","","","","","[{""stimulus"":""img/red_ll/1.jpg"",""time"":57},{""stimulus"":""img/red_ll/2.jpg"",""time"":105},{""stimulus"":""img/red_ll/3.jpg"",""time"":153},{""stimulus"":""img/red_ll/4.jpg"",""time"":209},{""stimulus"":""img/red_ll/5.jpg"",""time"":257},{""stimulus"":""img/red_ll/6.jpg"",""time"":305},{""stimulus"":""img/red_ll/7.jpg"",""time"":353},{""stimulus"":""img/red_ll/8.jpg"",""time"":409},{""stimulus"":""img/red_ll/9.jpg"",""time"":457},{""stimulus"":""img/red_ll/10.jpg"",""time"":505},{""stimulus"":""img/red_ll/11.jpg"",""time"":553}]","[]"
"image-keyboard-response","170","285664","0.0-5.0-1.83","61282ca83be28773ac7c421f","bdp_lott","Mon Mar 27 2023 13:41:43 GMT-0400 (Eastern Daylight Time)","459537","green","red","","519","","","","choice","","img/red_ll/choose11.jpg","1","142","green","0.5","0.1","0.5","l","",""
"animation","171","286273","0.0-5.0-2.83","61282ca83be28773ac7c421f","bdp_lott","Mon Mar 27 2023 13:41:43 GMT-0400 (Eastern Daylight Time)","459537","green","red","","","","","","","","","","142","","","","","","[{""stimulus"":""img/green_ll/1.jpg"",""time"":57},{""stimulus"":""img/green_ll/2.jpg"",""time"":105},{""stimulus"":""img/green_ll/3.jpg"",""time"":153},{""stimulus"":""img/green_ll/4.jpg"",""time"":203},{""stimulus"":""img/green_ll/5.jpg"",""time"":257},{""stimulus"":""img/green_ll/6.jpg"",""time"":305},{""stimulus"":""img/green_ll/7.jpg"",""time"":353},{""stimulus"":""img/green_ll/8.jpg"",""time"":409},{""stimulus"":""img/green_ll/9.jpg"",""time"":457},{""stimulus"":""img/green_ll/10.jpg"",""time"":505},{""stimulus"":""img/green_ll/11.jpg"",""time"":553}]","[]"
"image-keyboard-response","172","286937","0.0-5.0-1.84","61282ca83be28773ac7c421f","bdp_lott","Mon Mar 27 2023 13:41:43 GMT-0400 (Eastern Daylight Time)","459537","green","red","","664","","","","choice","","img/green_ll/choose11.jpg","2","141","red","0.5","0.1","0.1","l","",""
"animation","173","287544","0.0-5.0-2.84","61282ca83be28773ac7c421f","bdp_lott","Mon Mar 27 2023 13:41:43 GMT-0400 (Eastern Daylight Time)","459537","green","red","","","","","","","","","","141","","","","","","[{""stimulus"":""img/red_ll/1.jpg"",""time"":56},{""stimulus"":""img/red_ll/2.jpg"",""time"":104},{""stimulus"":""img/red_ll/3.jpg"",""time"":152},{""stimulus"":""img/red_ll/4.jpg"",""time"":208},{""stimulus"":""img/red_ll/5.jpg"",""time"":256},{""stimulus"":""img/red_ll/6.jpg"",""time"":304},{""stimulus"":""img/red_ll/7.jpg"",""time"":352},{""stimulus"":""img/red_ll/8.jpg"",""time"":408},{""stimulus"":""img/red_ll/9.jpg"",""time"":456},{""stimulus"":""img/red_ll/10.jpg"",""time"":504},{""stimulus"":""img/red_ll/11.jpg"",""time"":552}]","[]"
"image-keyboard-response","174","287992","0.0-5.0-1.85","61282ca83be28773ac7c421f","bdp_lott","Mon Mar 27 2023 13:41:43 GMT-0400 (Eastern Daylight Time)","459537","green","red","","447","","","","choice","","img/red_ll/choose11.jpg","1","140","green","0.5","0.1","0.5","w","",""
"animation","175","288592","0.0-5.0-2.85","61282ca83be28773ac7c421f","bdp_lott","Mon Mar 27 2023 13:41:43 GMT-0400 (Eastern Daylight Time)","459537","green","red","","","","","","","","","","140","","","","","","[{""stimulus"":""img/green_wl/1.jpg"",""time"":57},{""stimulus"":""img/green_wl/2.jpg"",""time"":105},{""stimulus"":""img/green_wl/3.jpg"",""time"":153},{""stimulus"":""img/green_wl/4.jpg"",""time"":201},{""stimulus"":""img/green_wl/5.jpg"",""time"":257},{""stimulus"":""img/green_wl/6.jpg"",""time"":305},{""stimulus"":""img/green_wl/7.jpg"",""time"":353},{""stimulus"":""img/green_wl/8.jpg"",""time"":401},{""stimulus"":""img/green_wl/9.jpg"",""time"":457},{""stimulus"":""img/green_wl/10.jpg"",""time"":505},{""stimulus"":""img/green_wl/11.jpg"",""time"":553}]","[]"
"image-keyboard-response","176","289180","0.0-5.0-1.86","61282ca83be28773ac7c421f","bdp_lott","Mon Mar 27 2023 13:41:43 GMT-0400 (Eastern Daylight Time)","459537","green","red","","587","","","","choice","","img/green_wl/choose11.jpg","1","139","green","0.5","0.1","0.5","w","",""
"animation","177","289784","0.0-5.0-2.86","61282ca83be28773ac7c421f","bdp_lott","Mon Mar 27 2023 13:41:43 GMT-0400 (Eastern Daylight Time)","459537","green","red","","","","","","","","","","139","","","","","","[{""stimulus"":""img/green_wl/1.jpg"",""time"":53},{""stimulus"":""img/green_wl/2.jpg"",""time"":109},{""stimulus"":""img/green_wl/3.jpg"",""time"":157},{""stimulus"":""img/green_wl/4.jpg"",""time"":205},{""stimulus"":""img/green_wl/5.jpg"",""time"":253},{""stimulus"":""img/green_wl/6.jpg"",""time"":309},{""stimulus"":""img/green_wl/7.jpg"",""time"":357},{""stimulus"":""img/green_wl/8.jpg"",""time"":405},{""stimulus"":""img/green_wl/9.jpg"",""time"":453},{""stimulus"":""img/green_wl/10.jpg"",""time"":509},{""stimulus"":""img/green_wl/11.jpg"",""time"":557}]","[]"
"image-keyboard-response","178","290460","0.0-5.0-1.87","61282ca83be28773ac7c421f","bdp_lott","Mon Mar 27 2023 13:41:43 GMT-0400 (Eastern Daylight Time)","459537","green","red","","675","","","","choice","","img/green_wl/choose11.jpg","1","138","green","0.5","0.1","0.5","l","",""
"animation","179","291064","0.0-5.0-2.87","61282ca83be28773ac7c421f","bdp_lott","Mon Mar 27 2023 13:41:43 GMT-0400 (Eastern Daylight Time)","459537","green","red","","","","","","","","","","138","","","","","","[{""stimulus"":""img/green_ll/1.jpg"",""time"":53},{""stimulus"":""img/green_ll/2.jpg"",""time"":101},{""stimulus"":""img/green_ll/3.jpg"",""time"":157},{""stimulus"":""img/green_ll/4.jpg"",""time"":205},{""stimulus"":""img/green_ll/5.jpg"",""time"":253},{""stimulus"":""img/green_ll/6.jpg"",""time"":301},{""stimulus"":""img/green_ll/7.jpg"",""time"":357},{""stimulus"":""img/green_ll/8.jpg"",""time"":405},{""stimulus"":""img/green_ll/9.jpg"",""time"":453},{""stimulus"":""img/green_ll/10.jpg"",""time"":501},{""stimulus"":""img/green_ll/11.jpg"",""time"":557}]","[]"
"image-keyboard-response","180","291847","0.0-5.0-1.88","61282ca83be28773ac7c421f","bdp_lott","Mon Mar 27 2023 13:41:43 GMT-0400 (Eastern Daylight Time)","459537","green","red","","782","","","","choice","","img/green_ll/choose11.jpg","1","137","green","0.5","0.1","0.5","w","",""
"animation","181","292448","0.0-5.0-2.88","61282ca83be28773ac7c421f","bdp_lott","Mon Mar 27 2023 13:41:43 GMT-0400 (Eastern Daylight Time)","459537","green","red","","","","","","","","","","137","","","","","","[{""stimulus"":""img/green_wl/1.jpg"",""time"":58},{""stimulus"":""img/green_wl/2.jpg"",""time"":106},{""stimulus"":""img/green_wl/3.jpg"",""time"":154},{""stimulus"":""img/green_wl/4.jpg"",""time"":202},{""stimulus"":""img/green_wl/5.jpg"",""time"":258},{""stimulus"":""img/green_wl/6.jpg"",""time"":306},{""stimulus"":""img/green_wl/7.jpg"",""time"":354},{""stimulus"":""img/green_wl/8.jpg"",""time"":402},{""stimulus"":""img/green_wl/9.jpg"",""time"":458},{""stimulus"":""img/green_wl/10.jpg"",""time"":506},{""stimulus"":""img/green_wl/11.jpg"",""time"":554}]","[]"
"image-keyboard-response","182","293080","0.0-5.0-1.89","61282ca83be28773ac7c421f","bdp_lott","Mon Mar 27 2023 13:41:43 GMT-0400 (Eastern Daylight Time)","459537","green","red","","630","","","","choice","","img/green_wl/choose11.jpg","1","136","green","0.5","0.1","0.5","l","",""
"animation","183","293688","0.0-5.0-2.89","61282ca83be28773ac7c421f","bdp_lott","Mon Mar 27 2023 13:41:43 GMT-0400 (Eastern Daylight Time)","459537","green","red","","","","","","","","","","136","","","","","","[{""stimulus"":""img/green_ll/1.jpg"",""time"":57},{""stimulus"":""img/green_ll/2.jpg"",""time"":105},{""stimulus"":""img/green_ll/3.jpg"",""time"":153},{""stimulus"":""img/green_ll/4.jpg"",""time"":209},{""stimulus"":""img/green_ll/5.jpg"",""time"":257},{""stimulus"":""img/green_ll/6.jpg"",""time"":305},{""stimulus"":""img/green_ll/7.jpg"",""time"":353},{""stimulus"":""img/green_ll/8.jpg"",""time"":409},{""stimulus"":""img/green_ll/9.jpg"",""time"":457},{""stimulus"":""img/green_ll/10.jpg"",""time"":505},{""stimulus"":""img/green_ll/11.jpg"",""time"":553}]","[]"
"image-keyboard-response","184","294377","0.0-5.0-1.90","61282ca83be28773ac7c421f","bdp_lott","Mon Mar 27 2023 13:41:43 GMT-0400 (Eastern Daylight Time)","459537","green","red","","687","","","","choice","","img/green_ll/choose11.jpg","1","135","green","0.5","0.1","0.5","l","",""
"animation","185","294984","0.0-5.0-2.90","61282ca83be28773ac7c421f","bdp_lott","Mon Mar 27 2023 13:41:43 GMT-0400 (Eastern Daylight Time)","459537","green","red","","","","","","","","","","135","","","","","","[{""stimulus"":""img/green_ll/1.jpg"",""time"":56},{""stimulus"":""img/green_ll/2.jpg"",""time"":104},{""stimulus"":""img/green_ll/3.jpg"",""time"":152},{""stimulus"":""img/green_ll/4.jpg"",""time"":208},{""stimulus"":""img/green_ll/5.jpg"",""time"":256},{""stimulus"":""img/green_ll/6.jpg"",""time"":304},{""stimulus"":""img/green_ll/7.jpg"",""time"":352},{""stimulus"":""img/green_ll/8.jpg"",""time"":408},{""stimulus"":""img/green_ll/9.jpg"",""time"":456},{""stimulus"":""img/green_ll/10.jpg"",""time"":504},{""stimulus"":""img/green_ll/11.jpg"",""time"":552}]","[]"
"image-keyboard-response","186","295752","0.0-5.0-1.91","61282ca83be28773ac7c421f","bdp_lott","Mon Mar 27 2023 13:41:43 GMT-0400 (Eastern Daylight Time)","459537","green","red","","767","","","","choice","","img/green_ll/choose11.jpg","1","134","green","0.5","0.1","0.5","l","",""
"animation","187","296361","0.0-5.0-2.91","61282ca83be28773ac7c421f","bdp_lott","Mon Mar 27 2023 13:41:43 GMT-0400 (Eastern Daylight Time)","459537","green","red","","","","","","","","","","134","","","","","","[{""stimulus"":""img/green_ll/1.jpg"",""time"":57},{""stimulus"":""img/green_ll/2.jpg"",""time"":105},{""stimulus"":""img/green_ll/3.jpg"",""time"":153},{""stimulus"":""img/green_ll/4.jpg"",""time"":209},{""stimulus"":""img/green_ll/5.jpg"",""time"":257},{""stimulus"":""img/green_ll/6.jpg"",""time"":305},{""stimulus"":""img/green_ll/7.jpg"",""time"":353},{""stimulus"":""img/green_ll/8.jpg"",""time"":409},{""stimulus"":""img/green_ll/9.jpg"",""time"":457},{""stimulus"":""img/green_ll/10.jpg"",""time"":505},{""stimulus"":""img/green_ll/11.jpg"",""time"":553}]","[]"
"image-keyboard-response","188","297103","0.0-5.0-1.92","61282ca83be28773ac7c421f","bdp_lott","Mon Mar 27 2023 13:41:43 GMT-0400 (Eastern Daylight Time)","459537","green","red","","742","","","","choice","","img/green_ll/choose11.jpg","2","133","red","0.5","0.1","0.1","l","",""
"animation","189","297704","0.0-5.0-2.92","61282ca83be28773ac7c421f","bdp_lott","Mon Mar 27 2023 13:41:43 GMT-0400 (Eastern Daylight Time)","459537","green","red","","","","","","","","","","133","","","","","","[{""stimulus"":""img/red_ll/1.jpg"",""time"":58},{""stimulus"":""img/red_ll/2.jpg"",""time"":106},{""stimulus"":""img/red_ll/3.jpg"",""time"":154},{""stimulus"":""img/red_ll/4.jpg"",""time"":202},{""stimulus"":""img/red_ll/5.jpg"",""time"":258},{""stimulus"":""img/red_ll/6.jpg"",""time"":306},{""stimulus"":""img/red_ll/7.jpg"",""time"":354},{""stimulus"":""img/red_ll/8.jpg"",""time"":402},{""stimulus"":""img/red_ll/9.jpg"",""time"":458},{""stimulus"":""img/red_ll/10.jpg"",""time"":506},{""stimulus"":""img/red_ll/11.jpg"",""time"":554}]","[]"
"image-keyboard-response","190","298124","0.0-5.0-1.93","61282ca83be28773ac7c421f","bdp_lott","Mon Mar 27 2023 13:41:43 GMT-0400 (Eastern Daylight Time)","459537","green","red","","418","","","","choice","","img/red_ll/choose11.jpg","2","132","red","0.5","0.1","0.1","l","",""
