"trial_type","trial_index","time_elapsed","internal_node_id","subject_id","task","startTime","totalTime","fairMachine","unfairMachine","view_history","rt","event","trial","time","trialtype","numBlurs","success","stimulus","key_press","roundsLeft","chosen","pFairMachWin","pUnfairMachWin","pTrialWin","outcome","animation_sequence","responses"
"pavlovia","0","2","0.0-0.0","5c5f525806006e0001db95d2","bdp_lott","Sun Apr 02 2023 18:44:39 GMT-0400 (Eastern Daylight Time)","492174","red","green","","","","","","","","","","","","","","","","","",""
"instructions","1","4001","0.0-1.0","5c5f525806006e0001db95d2","bdp_lott","Sun Apr 02 2023 18:44:39 GMT-0400 (Eastern Daylight Time)","492174","red","green","[{""page_index"":0,""viewing_time"":3998}]","3998","","","","","","","","","","","","","","","",""
"","","","","5c5f525806006e0001db95d2","bdp_lott","Sun Apr 02 2023 18:44:39 GMT-0400 (Eastern Daylight Time)","492174","red","green","","","blur","2","32945","blurevent","1","","","","","","","","","","",""
"","","","","5c5f525806006e0001db95d2","bdp_lott","Sun Apr 02 2023 18:44:39 GMT-0400 (Eastern Daylight Time)","492174","red","green","","","focus","2","34183","focusevent","","","","","","","","","","","",""
"","","","","5c5f525806006e0001db95d2","bdp_lott","Sun Apr 02 2023 18:44:39 GMT-0400 (Eastern Daylight Time)","492174","red","green","","","fullscreenenter","2","34999","fullscreenenter","","","","","","","","","","","",""
"fullscreen","2","35992","0.0-2.0","5c5f525806006e0001db95d2","bdp_lott","Sun Apr 02 2023 18:44:39 GMT-0400 (Eastern Daylight Time)","492174","red","green","","","","","","","","true","","","","","","","","","",""
"instructions","3","41931","0.0-4.0","5c5f525806006e0001db95d2","bdp_lott","Sun Apr 02 2023 18:44:39 GMT-0400 (Eastern Daylight Time)","492174","red","green","[{""page_index"":0,""viewing_time"":5937}]","5938","","","","","","","","","","","","","","","",""
"image-keyboard-response","4","51976","0.0-5.0-0.0-0.0","5c5f525806006e0001db95d2","bdp_lott","Sun Apr 02 2023 18:44:39 GMT-0400 (Eastern Daylight Time)","492174","red","green","","10044","","","","blurwarn","1","","","49","","","","","","","",""
"image-keyboard-response","5","53459","0.0-5.0-1.0","5c5f525806006e0001db95d2","bdp_lott","Sun Apr 02 2023 18:44:39 GMT-0400 (Eastern Daylight Time)","492174","red","green","","1228","","","","choice","","","img/red_ll/initchoose11.jpg","2","225","red","0.5","0.5","0.5","w","",""
"animation","6","54064","0.0-5.0-2.0","5c5f525806006e0001db95d2","bdp_lott","Sun Apr 02 2023 18:44:39 GMT-0400 (Eastern Daylight Time)","492174","red","green","","","","","","","","","","","225","","","","","","[{""stimulus"":""img/red_lw/1.jpg"",""time"":55},{""stimulus"":""img/red_lw/2.jpg"",""time"":100},{""stimulus"":""img/red_lw/3.jpg"",""time"":172},{""stimulus"":""img/red_lw/4.jpg"",""time"":201},{""stimulus"":""img/red_lw/5.jpg"",""time"":271},{""stimulus"":""img/red_lw/6.jpg"",""time"":301},{""stimulus"":""img/red_lw/7.jpg"",""time"":371},{""stimulus"":""img/red_lw/8.jpg"",""time"":402},{""stimulus"":""img/red_lw/9.jpg"",""time"":451},{""stimulus"":""img/red_lw/10.jpg"",""time"":500},{""stimulus"":""img/red_lw/11.jpg"",""time"":551}]","[]"
"image-keyboard-response","7","55045","0.0-5.0-1.1","5c5f525806006e0001db95d2","bdp_lott","Sun Apr 02 2023 18:44:39 GMT-0400 (Eastern Daylight Time)","492174","red","green","","980","","","","choice","","","img/red_lw/choose11.jpg","2","224","red","0.5","0.5","0.5","w","",""
"animation","8","55663","0.0-5.0-2.1","5c5f525806006e0001db95d2","bdp_lott","Sun Apr 02 2023 18:44:39 GMT-0400 (Eastern Daylight Time)","492174","red","green","","","","","","","","","","","224","","","","","","[{""stimulus"":""img/red_lw/1.jpg"",""time"":51},{""stimulus"":""img/red_lw/2.jpg"",""time"":101},{""stimulus"":""img/red_lw/3.jpg"",""time"":151},{""stimulus"":""img/red_lw/4.jpg"",""time"":218},{""stimulus"":""img/red_lw/5.jpg"",""time"":251},{""stimulus"":""img/red_lw/6.jpg"",""time"":301},{""stimulus"":""img/red_lw/7.jpg"",""time"":351},{""stimulus"":""img/red_lw/8.jpg"",""time"":401},{""stimulus"":""img/red_lw/9.jpg"",""time"":451},{""stimulus"":""img/red_lw/10.jpg"",""time"":518},{""stimulus"":""img/red_lw/11.jpg"",""time"":551}]","[]"
"image-keyboard-response","9","56182","0.0-5.0-1.2","5c5f525806006e0001db95d2","bdp_lott","Sun Apr 02 2023 18:44:39 GMT-0400 (Eastern Daylight Time)","492174","red","green","","518","","","","choice","","","img/red_lw/choose11.jpg","2","223","red","0.5","0.5","0.5","l","",""
"animation","10","56783","0.0-5.0-2.2","5c5f525806006e0001db95d2","bdp_lott","Sun Apr 02 2023 18:44:39 GMT-0400 (Eastern Daylight Time)","492174","red","green","","","","","","","","","","","223","","","","","","[{""stimulus"":""img/red_ll/1.jpg"",""time"":62},{""stimulus"":""img/red_ll/2.jpg"",""time"":100},{""stimulus"":""img/red_ll/3.jpg"",""time"":150},{""stimulus"":""img/red_ll/4.jpg"",""time"":202},{""stimulus"":""img/red_ll/5.jpg"",""time"":263},{""stimulus"":""img/red_ll/6.jpg"",""time"":308},{""stimulus"":""img/red_ll/7.jpg"",""time"":351},{""stimulus"":""img/red_ll/8.jpg"",""time"":402},{""stimulus"":""img/red_ll/9.jpg"",""time"":451},{""stimulus"":""img/red_ll/10.jpg"",""time"":509},{""stimulus"":""img/red_ll/11.jpg"",""time"":551}]","[]"
"image-keyboard-response","11","57661","0.0-5.0-1.3","5c5f525806006e0001db95d2","bdp_lott","Sun Apr 02 2023 18:44:39 GMT-0400 (Eastern Daylight Time)","492174","red","green","","877","","","","choice","","","img/red_ll/choose11.jpg","1","222","green","0.5","0.5","0.5","w","",""
"animation","12","58262","0.0-5.0-2.3","5c5f525806006e0001db95d2","bdp_lott","Sun Apr 02 2023 18:44:39 GMT-0400 (Eastern Daylight Time)","492174","red","green","","","","","","","","","","","222","","","","","","[{""stimulus"":""img/green_wl/1.jpg"",""time"":98},{""stimulus"":""img/green_wl/2.jpg"",""time"":102},{""stimulus"":""img/green_wl/3.jpg"",""time"":167},{""stimulus"":""img/green_wl/4.jpg"",""time"":201},{""stimulus"":""img/green_wl/5.jpg"",""time"":254},{""stimulus"":""img/green_wl/6.jpg"",""time"":302},{""stimulus"":""img/green_wl/7.jpg"",""time"":351},{""stimulus"":""img/green_wl/8.jpg"",""time"":402},{""stimulus"":""img/green_wl/9.jpg"",""time"":452},{""stimulus"":""img/green_wl/10.jpg"",""time"":501},{""stimulus"":""img/green_wl/11.jpg"",""time"":551}]","[]"
"image-keyboard-response","13","58795","0.0-5.0-1.4","5c5f525806006e0001db95d2","bdp_lott","Sun Apr 02 2023 18:44:39 GMT-0400 (Eastern Daylight Time)","492174","red","green","","531","","","","choice","","","img/green_wl/choose11.jpg","1","221","green","0.5","0.5","0.5","w","",""
"animation","14","59395","0.0-5.0-2.4","5c5f525806006e0001db95d2","bdp_lott","Sun Apr 02 2023 18:44:39 GMT-0400 (Eastern Daylight Time)","492174","red","green","","","","","","","","","","","221","","","","","","[{""stimulus"":""img/green_wl/1.jpg"",""time"":65},{""stimulus"":""img/green_wl/2.jpg"",""time"":101},{""stimulus"":""img/green_wl/3.jpg"",""time"":151},{""stimulus"":""img/green_wl/4.jpg"",""time"":201},{""stimulus"":""img/green_wl/5.jpg"",""time"":251},{""stimulus"":""img/green_wl/6.jpg"",""time"":313},{""stimulus"":""img/green_wl/7.jpg"",""time"":351},{""stimulus"":""img/green_wl/8.jpg"",""time"":401},{""stimulus"":""img/green_wl/9.jpg"",""time"":452},{""stimulus"":""img/green_wl/10.jpg"",""time"":515},{""stimulus"":""img/green_wl/11.jpg"",""time"":562}]","[]"
"image-keyboard-response","15","59863","0.0-5.0-1.5","5c5f525806006e0001db95d2","bdp_lott","Sun Apr 02 2023 18:44:39 GMT-0400 (Eastern Daylight Time)","492174","red","green","","467","","","","choice","","","img/green_wl/choose11.jpg","1","220","green","0.5","0.5","0.5","l","",""
"animation","16","60475","0.0-5.0-2.5","5c5f525806006e0001db95d2","bdp_lott","Sun Apr 02 2023 18:44:39 GMT-0400 (Eastern Daylight Time)","492174","red","green","","","","","","","","","","","220","","","","","","[{""stimulus"":""img/green_ll/1.jpg"",""time"":62},{""stimulus"":""img/green_ll/2.jpg"",""time"":101},{""stimulus"":""img/green_ll/3.jpg"",""time"":151},{""stimulus"":""img/green_ll/4.jpg"",""time"":202},{""stimulus"":""img/green_ll/5.jpg"",""time"":252},{""stimulus"":""img/green_ll/6.jpg"",""time"":302},{""stimulus"":""img/green_ll/7.jpg"",""time"":360},{""stimulus"":""img/green_ll/8.jpg"",""time"":401},{""stimulus"":""img/green_ll/9.jpg"",""time"":452},{""stimulus"":""img/green_ll/10.jpg"",""time"":530},{""stimulus"":""img/green_ll/11.jpg"",""time"":552}]","[]"
"image-keyboard-response","17","60922","0.0-5.0-1.6","5c5f525806006e0001db95d2","bdp_lott","Sun Apr 02 2023 18:44:39 GMT-0400 (Eastern Daylight Time)","492174","red","green","","446","","","","choice","","","img/green_ll/choose11.jpg","2","219","red","0.5","0.5","0.5","l","",""
"animation","18","61523","0.0-5.0-2.6","5c5f525806006e0001db95d2","bdp_lott","Sun Apr 02 2023 18:44:39 GMT-0400 (Eastern Daylight Time)","492174","red","green","","","","","","","","","","","219","","","","","","[{""stimulus"":""img/red_ll/1.jpg"",""time"":52},{""stimulus"":""img/red_ll/2.jpg"",""time"":101},{""stimulus"":""img/red_ll/3.jpg"",""time"":151},{""stimulus"":""img/red_ll/4.jpg"",""time"":201},{""stimulus"":""img/red_ll/5.jpg"",""time"":252},{""stimulus"":""img/red_ll/6.jpg"",""time"":301},{""stimulus"":""img/red_ll/7.jpg"",""time"":351},{""stimulus"":""img/red_ll/8.jpg"",""time"":401},{""stimulus"":""img/red_ll/9.jpg"",""time"":452},{""stimulus"":""img/red_ll/10.jpg"",""time"":501},{""stimulus"":""img/red_ll/11.jpg"",""time"":569}]","[]"
"image-keyboard-response","19","62135","0.0-5.0-1.7","5c5f525806006e0001db95d2","bdp_lott","Sun Apr 02 2023 18:44:39 GMT-0400 (Eastern Daylight Time)","492174","red","green","","611","","","","choice","","","img/red_ll/choose11.jpg","1","218","green","0.5","0.5","0.5","w","",""
"animation","20","62737","0.0-5.0-2.7","5c5f525806006e0001db95d2","bdp_lott","Sun Apr 02 2023 18:44:39 GMT-0400 (Eastern Daylight Time)","492174","red","green","","","","","","","","","","","218","","","","","","[{""stimulus"":""img/green_wl/1.jpg"",""time"":59},{""stimulus"":""img/green_wl/2.jpg"",""time"":101},{""stimulus"":""img/green_wl/3.jpg"",""time"":151},{""stimulus"":""img/green_wl/4.jpg"",""time"":201},{""stimulus"":""img/green_wl/5.jpg"",""time"":251},{""stimulus"":""img/green_wl/6.jpg"",""time"":302},{""stimulus"":""img/green_wl/7.jpg"",""time"":351},{""stimulus"":""img/green_wl/8.jpg"",""time"":401},{""stimulus"":""img/green_wl/9.jpg"",""time"":452},{""stimulus"":""img/green_wl/10.jpg"",""time"":501},{""stimulus"":""img/green_wl/11.jpg"",""time"":551}]","[]"
"image-keyboard-response","21","63240","0.0-5.0-1.8","5c5f525806006e0001db95d2","bdp_lott","Sun Apr 02 2023 18:44:39 GMT-0400 (Eastern Daylight Time)","492174","red","green","","503","","","","choice","","","img/green_wl/choose11.jpg","1","217","green","0.5","0.5","0.5","l","",""
"animation","22","63850","0.0-5.0-2.8","5c5f525806006e0001db95d2","bdp_lott","Sun Apr 02 2023 18:44:39 GMT-0400 (Eastern Daylight Time)","492174","red","green","","","","","","","","","","","217","","","","","","[{""stimulus"":""img/green_ll/1.jpg"",""time"":51},{""stimulus"":""img/green_ll/2.jpg"",""time"":100},{""stimulus"":""img/green_ll/3.jpg"",""time"":157},{""stimulus"":""img/green_ll/4.jpg"",""time"":200},{""stimulus"":""img/green_ll/5.jpg"",""time"":266},{""stimulus"":""img/green_ll/6.jpg"",""time"":312},{""stimulus"":""img/green_ll/7.jpg"",""time"":358},{""stimulus"":""img/green_ll/8.jpg"",""time"":401},{""stimulus"":""img/green_ll/9.jpg"",""time"":450},{""stimulus"":""img/green_ll/10.jpg"",""time"":500},{""stimulus"":""img/green_ll/11.jpg"",""time"":550}]","[]"
"image-keyboard-response","23","64398","0.0-5.0-1.9","5c5f525806006e0001db95d2","bdp_lott","Sun Apr 02 2023 18:44:39 GMT-0400 (Eastern Daylight Time)","492174","red","green","","547","","","","choice","","","img/green_ll/choose11.jpg","2","216","red","0.5","0.5","0.5","l","",""
"animation","24","65022","0.0-5.0-2.9","5c5f525806006e0001db95d2","bdp_lott","Sun Apr 02 2023 18:44:39 GMT-0400 (Eastern Daylight Time)","492174","red","green","","","","","","","","","","","216","","","","","","[{""stimulus"":""img/red_ll/1.jpg"",""time"":57},{""stimulus"":""img/red_ll/2.jpg"",""time"":102},{""stimulus"":""img/red_ll/3.jpg"",""time"":151},{""stimulus"":""img/red_ll/4.jpg"",""time"":201},{""stimulus"":""img/red_ll/5.jpg"",""time"":251},{""stimulus"":""img/red_ll/6.jpg"",""time"":306},{""stimulus"":""img/red_ll/7.jpg"",""time"":351},{""stimulus"":""img/red_ll/8.jpg"",""time"":401},{""stimulus"":""img/red_ll/9.jpg"",""time"":452},{""stimulus"":""img/red_ll/10.jpg"",""time"":506},{""stimulus"":""img/red_ll/11.jpg"",""time"":551}]","[]"
"image-keyboard-response","25","65690","0.0-5.0-1.10","5c5f525806006e0001db95d2","bdp_lott","Sun Apr 02 2023 18:44:39 GMT-0400 (Eastern Daylight Time)","492174","red","green","","667","","","","choice","","","img/red_ll/choose11.jpg","1","215","green","0.5","0.5","0.5","l","",""
"animation","26","66302","0.0-5.0-2.10","5c5f525806006e0001db95d2","bdp_lott","Sun Apr 02 2023 18:44:39 GMT-0400 (Eastern Daylight Time)","492174","red","green","","","","","","","","","","","215","","","","","","[{""stimulus"":""img/green_ll/1.jpg"",""time"":62},{""stimulus"":""img/green_ll/2.jpg"",""time"":101},{""stimulus"":""img/green_ll/3.jpg"",""time"":156},{""stimulus"":""img/green_ll/4.jpg"",""time"":213},{""stimulus"":""img/green_ll/5.jpg"",""time"":259},{""stimulus"":""img/green_ll/6.jpg"",""time"":301},{""stimulus"":""img/green_ll/7.jpg"",""time"":363},{""stimulus"":""img/green_ll/8.jpg"",""time"":401},{""stimulus"":""img/green_ll/9.jpg"",""time"":451},{""stimulus"":""img/green_ll/10.jpg"",""time"":501},{""stimulus"":""img/green_ll/11.jpg"",""time"":551}]","[]"
"image-keyboard-response","27","66895","0.0-5.0-1.11","5c5f525806006e0001db95d2","bdp_lott","Sun Apr 02 2023 18:44:39 GMT-0400 (Eastern Daylight Time)","492174","red","green","","593","","","","choice","","","img/green_ll/choose11.jpg","1","214","green","0.5","0.5","0.5","l","",""
"animation","28","67496","0.0-5.0-2.11","5c5f525806006e0001db95d2","bdp_lott","Sun Apr 02 2023 18:44:39 GMT-0400 (Eastern Daylight Time)","492174","red","green","","","","","","","","","","","214","","","","","","[{""stimulus"":""img/green_ll/1.jpg"",""time"":59},{""stimulus"":""img/green_ll/2.jpg"",""time"":101},{""stimulus"":""img/green_ll/3.jpg"",""time"":151},{""stimulus"":""img/green_ll/4.jpg"",""time"":202},{""stimulus"":""img/green_ll/5.jpg"",""time"":276},{""stimulus"":""img/green_ll/6.jpg"",""time"":301},{""stimulus"":""img/green_ll/7.jpg"",""time"":358},{""stimulus"":""img/green_ll/8.jpg"",""time"":405},{""stimulus"":""img/green_ll/9.jpg"",""time"":451},{""stimulus"":""img/green_ll/10.jpg"",""time"":501},{""stimulus"":""img/green_ll/11.jpg"",""time"":552}]","[]"
"image-keyboard-response","29","68081","0.0-5.0-1.12","5c5f525806006e0001db95d2","bdp_lott","Sun Apr 02 2023 18:44:39 GMT-0400 (Eastern Daylight Time)","492174","red","green","","585","","","","choice","","","img/green_ll/choose11.jpg","2","213","red","0.5","0.5","0.5","w","",""
"animation","30","68681","0.0-5.0-2.12","5c5f525806006e0001db95d2","bdp_lott","Sun Apr 02 2023 18:44:39 GMT-0400 (Eastern Daylight Time)","492174","red","green","","","","","","","","","","","213","","","","","","[{""stimulus"":""img/red_lw/1.jpg"",""time"":54},{""stimulus"":""img/red_lw/2.jpg"",""time"":101},{""stimulus"":""img/red_lw/3.jpg"",""time"":151},{""stimulus"":""img/red_lw/4.jpg"",""time"":205},{""stimulus"":""img/red_lw/5.jpg"",""time"":251},{""stimulus"":""img/red_lw/6.jpg"",""time"":301},{""stimulus"":""img/red_lw/7.jpg"",""time"":351},{""stimulus"":""img/red_lw/8.jpg"",""time"":405},{""stimulus"":""img/red_lw/9.jpg"",""time"":451},{""stimulus"":""img/red_lw/10.jpg"",""time"":501},{""stimulus"":""img/red_lw/11.jpg"",""time"":551}]","[]"
"image-keyboard-response","31","69070","0.0-5.0-1.13","5c5f525806006e0001db95d2","bdp_lott","Sun Apr 02 2023 18:44:39 GMT-0400 (Eastern Daylight Time)","492174","red","green","","389","","","","choice","","","img/red_lw/choose11.jpg","2","212","red","0.5","0.5","0.5","l","",""
"animation","32","69682","0.0-5.0-2.13","5c5f525806006e0001db95d2","bdp_lott","Sun Apr 02 2023 18:44:39 GMT-0400 (Eastern Daylight Time)","492174","red","green","","","","","","","","","","","212","","","","","","[{""stimulus"":""img/red_ll/1.jpg"",""time"":64},{""stimulus"":""img/red_ll/2.jpg"",""time"":101},{""stimulus"":""img/red_ll/3.jpg"",""time"":157},{""stimulus"":""img/red_ll/4.jpg"",""time"":201},{""stimulus"":""img/red_ll/5.jpg"",""time"":281},{""stimulus"":""img/red_ll/6.jpg"",""time"":301},{""stimulus"":""img/red_ll/7.jpg"",""time"":364},{""stimulus"":""img/red_ll/8.jpg"",""time"":401},{""stimulus"":""img/red_ll/9.jpg"",""time"":451},{""stimulus"":""img/red_ll/10.jpg"",""time"":501},{""stimulus"":""img/red_ll/11.jpg"",""time"":552}]","[]"
"image-keyboard-response","33","70153","0.0-5.0-1.14","5c5f525806006e0001db95d2","bdp_lott","Sun Apr 02 2023 18:44:39 GMT-0400 (Eastern Daylight Time)","492174","red","green","","471","","","","choice","","","img/red_ll/choose11.jpg","1","211","green","0.5","0.5","0.5","w","",""
"animation","34","70755","0.0-5.0-2.14","5c5f525806006e0001db95d2","bdp_lott","Sun Apr 02 2023 18:44:39 GMT-0400 (Eastern Daylight Time)","492174","red","green","","","","","","","","","","","211","","","","","","[{""stimulus"":""img/green_wl/1.jpg"",""time"":64},{""stimulus"":""img/green_wl/2.jpg"",""time"":101},{""stimulus"":""img/green_wl/3.jpg"",""time"":152},{""stimulus"":""img/green_wl/4.jpg"",""time"":201},{""stimulus"":""img/green_wl/5.jpg"",""time"":264},{""stimulus"":""img/green_wl/6.jpg"",""time"":301},{""stimulus"":""img/green_wl/7.jpg"",""time"":351},{""stimulus"":""img/green_wl/8.jpg"",""time"":401},{""stimulus"":""img/green_wl/9.jpg"",""time"":452},{""stimulus"":""img/green_wl/10.jpg"",""time"":501},{""stimulus"":""img/green_wl/11.jpg"",""time"":552}]","[]"
"image-keyboard-response","35","71327","0.0-5.0-1.15","5c5f525806006e0001db95d2","bdp_lott","Sun Apr 02 2023 18:44:39 GMT-0400 (Eastern Daylight Time)","492174","red","green","","572","","","","choice","","","img/green_wl/choose11.jpg","1","210","green","0.5","0.5","0.5","l","",""
"animation","36","71929","0.0-5.0-2.15","5c5f525806006e0001db95d2","bdp_lott","Sun Apr 02 2023 18:44:39 GMT-0400 (Eastern Daylight Time)","492174","red","green","","","","","","","","","","","210","","","","","","[{""stimulus"":""img/green_ll/1.jpg"",""time"":53},{""stimulus"":""img/green_ll/2.jpg"",""time"":102},{""stimulus"":""img/green_ll/3.jpg"",""time"":171},{""stimulus"":""img/green_ll/4.jpg"",""time"":200},{""stimulus"":""img/green_ll/5.jpg"",""time"":255},{""stimulus"":""img/green_ll/6.jpg"",""time"":302},{""stimulus"":""img/green_ll/7.jpg"",""time"":351},{""stimulus"":""img/green_ll/8.jpg"",""time"":420},{""stimulus"":""img/green_ll/9.jpg"",""time"":451},{""stimulus"":""img/green_ll/10.jpg"",""time"":517},{""stimulus"":""img/green_ll/11.jpg"",""time"":570}]","[]"
"image-keyboard-response","37","72494","0.0-5.0-1.16","5c5f525806006e0001db95d2","bdp_lott","Sun Apr 02 2023 18:44:39 GMT-0400 (Eastern Daylight Time)","492174","red","green","","563","","","","choice","","","img/green_ll/choose11.jpg","2","209","red","0.5","0.5","0.5","w","",""
"animation","38","73094","0.0-5.0-2.16","5c5f525806006e0001db95d2","bdp_lott","Sun Apr 02 2023 18:44:39 GMT-0400 (Eastern Daylight Time)","492174","red","green","","","","","","","","","","","209","","","","","","[{""stimulus"":""img/red_lw/1.jpg"",""time"":54},{""stimulus"":""img/red_lw/2.jpg"",""time"":101},{""stimulus"":""img/red_lw/3.jpg"",""time"":171},{""stimulus"":""img/red_lw/4.jpg"",""time"":201},{""stimulus"":""img/red_lw/5.jpg"",""time"":270},{""stimulus"":""img/red_lw/6.jpg"",""time"":301},{""stimulus"":""img/red_lw/7.jpg"",""time"":351},{""stimulus"":""img/red_lw/8.jpg"",""time"":401},{""stimulus"":""img/red_lw/9.jpg"",""time"":457},{""stimulus"":""img/red_lw/10.jpg"",""time"":504},{""stimulus"":""img/red_lw/11.jpg"",""time"":574}]","[]"
"image-keyboard-response","39","73452","0.0-5.0-1.17","5c5f525806006e0001db95d2","bdp_lott","Sun Apr 02 2023 18:44:39 GMT-0400 (Eastern Daylight Time)","492174","red","green","","357","","","","choice","","","img/red_lw/choose11.jpg","2","208","red","0.5","0.5","0.5","w","",""
"animation","40","74062","0.0-5.0-2.17","5c5f525806006e0001db95d2","bdp_lott","Sun Apr 02 2023 18:44:39 GMT-0400 (Eastern Daylight Time)","492174","red","green","","","","","","","","","","","208","","","","","","[{""stimulus"":""img/red_lw/1.jpg"",""time"":61},{""stimulus"":""img/red_lw/2.jpg"",""time"":101},{""stimulus"":""img/red_lw/3.jpg"",""time"":154},{""stimulus"":""img/red_lw/4.jpg"",""time"":201},{""stimulus"":""img/red_lw/5.jpg"",""time"":279},{""stimulus"":""img/red_lw/6.jpg"",""time"":301},{""stimulus"":""img/red_lw/7.jpg"",""time"":361},{""stimulus"":""img/red_lw/8.jpg"",""time"":407},{""stimulus"":""img/red_lw/9.jpg"",""time"":451},{""stimulus"":""img/red_lw/10.jpg"",""time"":502},{""stimulus"":""img/red_lw/11.jpg"",""time"":551}]","[]"
"image-keyboard-response","41","74505","0.0-5.0-1.18","5c5f525806006e0001db95d2","bdp_lott","Sun Apr 02 2023 18:44:39 GMT-0400 (Eastern Daylight Time)","492174","red","green","","443","","","","choice","","","img/red_lw/choose11.jpg","2","207","red","0.5","0.5","0.5","l","",""
"animation","42","75106","0.0-5.0-2.18","5c5f525806006e0001db95d2","bdp_lott","Sun Apr 02 2023 18:44:39 GMT-0400 (Eastern Daylight Time)","492174","red","green","","","","","","","","","","","207","","","","","","[{""stimulus"":""img/red_ll/1.jpg"",""time"":57},{""stimulus"":""img/red_ll/2.jpg"",""time"":101},{""stimulus"":""img/red_ll/3.jpg"",""time"":152},{""stimulus"":""img/red_ll/4.jpg"",""time"":223},{""stimulus"":""img/red_ll/5.jpg"",""time"":250},{""stimulus"":""img/red_ll/6.jpg"",""time"":307},{""stimulus"":""img/red_ll/7.jpg"",""time"":351},{""stimulus"":""img/red_ll/8.jpg"",""time"":401},{""stimulus"":""img/red_ll/9.jpg"",""time"":473},{""stimulus"":""img/red_ll/10.jpg"",""time"":501},{""stimulus"":""img/red_ll/11.jpg"",""time"":566}]","[]"
"image-keyboard-response","43","75505","0.0-5.0-1.19","5c5f525806006e0001db95d2","bdp_lott","Sun Apr 02 2023 18:44:39 GMT-0400 (Eastern Daylight Time)","492174","red","green","","397","","","","choice","","","img/red_ll/choose11.jpg","1","206","green","0.5","0.5","0.5","w","",""
"animation","44","76105","0.0-5.0-2.19","5c5f525806006e0001db95d2","bdp_lott","Sun Apr 02 2023 18:44:39 GMT-0400 (Eastern Daylight Time)","492174","red","green","","","","","","","","","","","206","","","","","","[{""stimulus"":""img/green_wl/1.jpg"",""time"":56},{""stimulus"":""img/green_wl/2.jpg"",""time"":101},{""stimulus"":""img/green_wl/3.jpg"",""time"":157},{""stimulus"":""img/green_wl/4.jpg"",""time"":201},{""stimulus"":""img/green_wl/5.jpg"",""time"":273},{""stimulus"":""img/green_wl/6.jpg"",""time"":301},{""stimulus"":""img/green_wl/7.jpg"",""time"":357},{""stimulus"":""img/green_wl/8.jpg"",""time"":401},{""stimulus"":""img/green_wl/9.jpg"",""time"":450},{""stimulus"":""img/green_wl/10.jpg"",""time"":500},{""stimulus"":""img/green_wl/11.jpg"",""time"":551}]","[]"
"image-keyboard-response","45","76480","0.0-5.0-1.20","5c5f525806006e0001db95d2","bdp_lott","Sun Apr 02 2023 18:44:39 GMT-0400 (Eastern Daylight Time)","492174","red","green","","374","","","","choice","","","img/green_wl/choose11.jpg","1","205","green","0.5","0.5","0.5","l","",""
"animation","46","77082","0.0-5.0-2.20","5c5f525806006e0001db95d2","bdp_lott","Sun Apr 02 2023 18:44:39 GMT-0400 (Eastern Daylight Time)","492174","red","green","","","","","","","","","","","205","","","","","","[{""stimulus"":""img/green_ll/1.jpg"",""time"":63},{""stimulus"":""img/green_ll/2.jpg"",""time"":101},{""stimulus"":""img/green_ll/3.jpg"",""time"":150},{""stimulus"":""img/green_ll/4.jpg"",""time"":201},{""stimulus"":""img/green_ll/5.jpg"",""time"":251},{""stimulus"":""img/green_ll/6.jpg"",""time"":312},{""stimulus"":""img/green_ll/7.jpg"",""time"":351},{""stimulus"":""img/green_ll/8.jpg"",""time"":400},{""stimulus"":""img/green_ll/9.jpg"",""time"":450},{""stimulus"":""img/green_ll/10.jpg"",""time"":501},{""stimulus"":""img/green_ll/11.jpg"",""time"":560}]","[]"
"image-keyboard-response","47","77563","0.0-5.0-1.21","5c5f525806006e0001db95d2","bdp_lott","Sun Apr 02 2023 18:44:39 GMT-0400 (Eastern Daylight Time)","492174","red","green","","481","","","","choice","","","img/green_ll/choose11.jpg","2","204","red","0.5","0.5","0.5","w","",""
"animation","48","78164","0.0-5.0-2.21","5c5f525806006e0001db95d2","bdp_lott","Sun Apr 02 2023 18:44:39 GMT-0400 (Eastern Daylight Time)","492174","red","green","","","","","","","","","","","204","","","","","","[{""stimulus"":""img/red_lw/1.jpg"",""time"":64},{""stimulus"":""img/red_lw/2.jpg"",""time"":101},{""stimulus"":""img/red_lw/3.jpg"",""time"":150},{""stimulus"":""img/red_lw/4.jpg"",""time"":201},{""stimulus"":""img/red_lw/5.jpg"",""time"":251},{""stimulus"":""img/red_lw/6.jpg"",""time"":312},{""stimulus"":""img/red_lw/7.jpg"",""time"":351},{""stimulus"":""img/red_lw/8.jpg"",""time"":400},{""stimulus"":""img/red_lw/9.jpg"",""time"":453},{""stimulus"":""img/red_lw/10.jpg"",""time"":501},{""stimulus"":""img/red_lw/11.jpg"",""time"":561}]","[]"
"image-keyboard-response","49","78569","0.0-5.0-1.22","5c5f525806006e0001db95d2","bdp_lott","Sun Apr 02 2023 18:44:39 GMT-0400 (Eastern Daylight Time)","492174","red","green","","405","","","","choice","","","img/red_lw/choose11.jpg","2","203","red","0.5","0.5","0.5","w","",""
"animation","50","79175","0.0-5.0-2.22","5c5f525806006e0001db95d2","bdp_lott","Sun Apr 02 2023 18:44:39 GMT-0400 (Eastern Daylight Time)","492174","red","green","","","","","","","","","","","203","","","","","","[{""stimulus"":""img/red_lw/1.jpg"",""time"":56},{""stimulus"":""img/red_lw/2.jpg"",""time"":100},{""stimulus"":""img/red_lw/3.jpg"",""time"":151},{""stimulus"":""img/red_lw/4.jpg"",""time"":201},{""stimulus"":""img/red_lw/5.jpg"",""time"":257},{""stimulus"":""img/red_lw/6.jpg"",""time"":300},{""stimulus"":""img/red_lw/7.jpg"",""time"":351},{""stimulus"":""img/red_lw/8.jpg"",""time"":424},{""stimulus"":""img/red_lw/9.jpg"",""time"":450},{""stimulus"":""img/red_lw/10.jpg"",""time"":507},{""stimulus"":""img/red_lw/11.jpg"",""time"":550}]","[]"
"image-keyboard-response","51","79560","0.0-5.0-1.23","5c5f525806006e0001db95d2","bdp_lott","Sun Apr 02 2023 18:44:39 GMT-0400 (Eastern Daylight Time)","492174","red","green","","384","","","","choice","","","img/red_lw/choose11.jpg","2","202","red","0.5","0.5","0.5","w","",""
"animation","52","80174","0.0-5.0-2.23","5c5f525806006e0001db95d2","bdp_lott","Sun Apr 02 2023 18:44:39 GMT-0400 (Eastern Daylight Time)","492174","red","green","","","","","","","","","","","202","","","","","","[{""stimulus"":""img/red_lw/1.jpg"",""time"":64},{""stimulus"":""img/red_lw/2.jpg"",""time"":102},{""stimulus"":""img/red_lw/3.jpg"",""time"":151},{""stimulus"":""img/red_lw/4.jpg"",""time"":202},{""stimulus"":""img/red_lw/5.jpg"",""time"":252},{""stimulus"":""img/red_lw/6.jpg"",""time"":302},{""stimulus"":""img/red_lw/7.jpg"",""time"":362},{""stimulus"":""img/red_lw/8.jpg"",""time"":401},{""stimulus"":""img/red_lw/9.jpg"",""time"":451},{""stimulus"":""img/red_lw/10.jpg"",""time"":532},{""stimulus"":""img/red_lw/11.jpg"",""time"":552}]","[]"
"image-keyboard-response","53","80547","0.0-5.0-1.24","5c5f525806006e0001db95d2","bdp_lott","Sun Apr 02 2023 18:44:39 GMT-0400 (Eastern Daylight Time)","492174","red","green","","371","","","","choice","","","img/red_lw/choose11.jpg","2","201","red","0.5","0.5","0.5","w","",""
"animation","54","81148","0.0-5.0-2.24","5c5f525806006e0001db95d2","bdp_lott","Sun Apr 02 2023 18:44:39 GMT-0400 (Eastern Daylight Time)","492174","red","green","","","","","","","","","","","201","","","","","","[{""stimulus"":""img/red_lw/1.jpg"",""time"":59},{""stimulus"":""img/red_lw/2.jpg"",""time"":101},{""stimulus"":""img/red_lw/3.jpg"",""time"":160},{""stimulus"":""img/red_lw/4.jpg"",""time"":201},{""stimulus"":""img/red_lw/5.jpg"",""time"":250},{""stimulus"":""img/red_lw/6.jpg"",""time"":301},{""stimulus"":""img/red_lw/7.jpg"",""time"":376},{""stimulus"":""img/red_lw/8.jpg"",""time"":400},{""stimulus"":""img/red_lw/9.jpg"",""time"":460},{""stimulus"":""img/red_lw/10.jpg"",""time"":500},{""stimulus"":""img/red_lw/11.jpg"",""time"":551}]","[]"
"image-keyboard-response","55","81564","0.0-5.0-1.25","5c5f525806006e0001db95d2","bdp_lott","Sun Apr 02 2023 18:44:39 GMT-0400 (Eastern Daylight Time)","492174","red","green","","415","","","","choice","","","img/red_lw/choose11.jpg","2","200","red","0.5","0.5","0.5","l","",""
"animation","56","82166","0.0-5.0-2.25","5c5f525806006e0001db95d2","bdp_lott","Sun Apr 02 2023 18:44:39 GMT-0400 (Eastern Daylight Time)","492174","red","green","","","","","","","","","","","200","","","","","","[{""stimulus"":""img/red_ll/1.jpg"",""time"":58},{""stimulus"":""img/red_ll/2.jpg"",""time"":102},{""stimulus"":""img/red_ll/3.jpg"",""time"":159},{""stimulus"":""img/red_ll/4.jpg"",""time"":205},{""stimulus"":""img/red_ll/5.jpg"",""time"":276},{""stimulus"":""img/red_ll/6.jpg"",""time"":302},{""stimulus"":""img/red_ll/7.jpg"",""time"":360},{""stimulus"":""img/red_ll/8.jpg"",""time"":402},{""stimulus"":""img/red_ll/9.jpg"",""time"":452},{""stimulus"":""img/red_ll/10.jpg"",""time"":502},{""stimulus"":""img/red_ll/11.jpg"",""time"":552}]","[]"
"image-keyboard-response","57","82603","0.0-5.0-1.26","5c5f525806006e0001db95d2","bdp_lott","Sun Apr 02 2023 18:44:39 GMT-0400 (Eastern Daylight Time)","492174","red","green","","437","","","","choice","","","img/red_ll/choose11.jpg","1","199","green","0.5","0.5","0.5","w","",""
"animation","58","83204","0.0-5.0-2.26","5c5f525806006e0001db95d2","bdp_lott","Sun Apr 02 2023 18:44:39 GMT-0400 (Eastern Daylight Time)","492174","red","green","","","","","","","","","","","199","","","","","","[{""stimulus"":""img/green_wl/1.jpg"",""time"":54},{""stimulus"":""img/green_wl/2.jpg"",""time"":101},{""stimulus"":""img/green_wl/3.jpg"",""time"":151},{""stimulus"":""img/green_wl/4.jpg"",""time"":220},{""stimulus"":""img/green_wl/5.jpg"",""time"":251},{""stimulus"":""img/green_wl/6.jpg"",""time"":302},{""stimulus"":""img/green_wl/7.jpg"",""time"":352},{""stimulus"":""img/green_wl/8.jpg"",""time"":401},{""stimulus"":""img/green_wl/9.jpg"",""time"":452},{""stimulus"":""img/green_wl/10.jpg"",""time"":501},{""stimulus"":""img/green_wl/11.jpg"",""time"":551}]","[]"
"image-keyboard-response","59","83774","0.0-5.0-1.27","5c5f525806006e0001db95d2","bdp_lott","Sun Apr 02 2023 18:44:39 GMT-0400 (Eastern Daylight Time)","492174","red","green","","569","","","","choice","","","img/green_wl/choose11.jpg","1","198","green","0.5","0.5","0.5","l","",""
"animation","60","84375","0.0-5.0-2.27","5c5f525806006e0001db95d2","bdp_lott","Sun Apr 02 2023 18:44:39 GMT-0400 (Eastern Daylight Time)","492174","red","green","","","","","","","","","","","198","","","","","","[{""stimulus"":""img/green_ll/1.jpg"",""time"":64},{""stimulus"":""img/green_ll/2.jpg"",""time"":101},{""stimulus"":""img/green_ll/3.jpg"",""time"":151},{""stimulus"":""img/green_ll/4.jpg"",""time"":201},{""stimulus"":""img/green_ll/5.jpg"",""time"":252},{""stimulus"":""img/green_ll/6.jpg"",""time"":302},{""stimulus"":""img/green_ll/7.jpg"",""time"":351},{""stimulus"":""img/green_ll/8.jpg"",""time"":401},{""stimulus"":""img/green_ll/9.jpg"",""time"":452},{""stimulus"":""img/green_ll/10.jpg"",""time"":514},{""stimulus"":""img/green_ll/11.jpg"",""time"":561}]","[]"
"image-keyboard-response","61","85094","0.0-5.0-1.28","5c5f525806006e0001db95d2","bdp_lott","Sun Apr 02 2023 18:44:39 GMT-0400 (Eastern Daylight Time)","492174","red","green","","719","","","","choice","","","img/green_ll/choose11.jpg","2","197","red","0.5","0.5","0.5","w","",""
"animation","62","85695","0.0-5.0-2.28","5c5f525806006e0001db95d2","bdp_lott","Sun Apr 02 2023 18:44:39 GMT-0400 (Eastern Daylight Time)","492174","red","green","","","","","","","","","","","197","","","","","","[{""stimulus"":""img/red_lw/1.jpg"",""time"":60},{""stimulus"":""img/red_lw/2.jpg"",""time"":101},{""stimulus"":""img/red_lw/3.jpg"",""time"":151},{""stimulus"":""img/red_lw/4.jpg"",""time"":202},{""stimulus"":""img/red_lw/5.jpg"",""time"":251},{""stimulus"":""img/red_lw/6.jpg"",""time"":301},{""stimulus"":""img/red_lw/7.jpg"",""time"":351},{""stimulus"":""img/red_lw/8.jpg"",""time"":402},{""stimulus"":""img/red_lw/9.jpg"",""time"":476},{""stimulus"":""img/red_lw/10.jpg"",""time"":501},{""stimulus"":""img/red_lw/11.jpg"",""time"":560}]","[]"
"image-keyboard-response","63","86420","0.0-5.0-1.29","5c5f525806006e0001db95d2","bdp_lott","Sun Apr 02 2023 18:44:39 GMT-0400 (Eastern Daylight Time)","492174","red","green","","724","","","","choice","","","img/red_lw/choose11.jpg","2","196","red","0.5","0.5","0.5","l","",""
"animation","64","87034","0.0-5.0-2.29","5c5f525806006e0001db95d2","bdp_lott","Sun Apr 02 2023 18:44:39 GMT-0400 (Eastern Daylight Time)","492174","red","green","","","","","","","","","","","196","","","","","","[{""stimulus"":""img/red_ll/1.jpg"",""time"":56},{""stimulus"":""img/red_ll/2.jpg"",""time"":101},{""stimulus"":""img/red_ll/3.jpg"",""time"":167},{""stimulus"":""img/red_ll/4.jpg"",""time"":201},{""stimulus"":""img/red_ll/5.jpg"",""time"":251},{""stimulus"":""img/red_ll/6.jpg"",""time"":306},{""stimulus"":""img/red_ll/7.jpg"",""time"":352},{""stimulus"":""img/red_ll/8.jpg"",""time"":415},{""stimulus"":""img/red_ll/9.jpg"",""time"":451},{""stimulus"":""img/red_ll/10.jpg"",""time"":507},{""stimulus"":""img/red_ll/11.jpg"",""time"":552}]","[]"
"image-keyboard-response","65","96552","0.0-5.0-1.30","5c5f525806006e0001db95d2","bdp_lott","Sun Apr 02 2023 18:44:39 GMT-0400 (Eastern Daylight Time)","492174","red","green","","9516","","","","choice","","","img/red_ll/choose11.jpg","2","195","red","0.5","0.5","0.5","w","",""
"animation","66","97154","0.0-5.0-2.30","5c5f525806006e0001db95d2","bdp_lott","Sun Apr 02 2023 18:44:39 GMT-0400 (Eastern Daylight Time)","492174","red","green","","","","","","","","","","","195","","","","","","[{""stimulus"":""img/red_lw/1.jpg"",""time"":56},{""stimulus"":""img/red_lw/2.jpg"",""time"":101},{""stimulus"":""img/red_lw/3.jpg"",""time"":151},{""stimulus"":""img/red_lw/4.jpg"",""time"":222},{""stimulus"":""img/red_lw/5.jpg"",""time"":251},{""stimulus"":""img/red_lw/6.jpg"",""time"":315},{""stimulus"":""img/red_lw/7.jpg"",""time"":352},{""stimulus"":""img/red_lw/8.jpg"",""time"":401},{""stimulus"":""img/red_lw/9.jpg"",""time"":455},{""stimulus"":""img/red_lw/10.jpg"",""time"":501},{""stimulus"":""img/red_lw/11.jpg"",""time"":552}]","[]"
"image-keyboard-response","67","98978","0.0-5.0-1.31","5c5f525806006e0001db95d2","bdp_lott","Sun Apr 02 2023 18:44:39 GMT-0400 (Eastern Daylight Time)","492174","red","green","","1824","","","","choice","","","img/red_lw/choose11.jpg","2","194","red","0.5","0.5","0.5","w","",""
"animation","68","99579","0.0-5.0-2.31","5c5f525806006e0001db95d2","bdp_lott","Sun Apr 02 2023 18:44:39 GMT-0400 (Eastern Daylight Time)","492174","red","green","","","","","","","","","","","194","","","","","","[{""stimulus"":""img/red_lw/1.jpg"",""time"":61},{""stimulus"":""img/red_lw/2.jpg"",""time"":101},{""stimulus"":""img/red_lw/3.jpg"",""time"":151},{""stimulus"":""img/red_lw/4.jpg"",""time"":200},{""stimulus"":""img/red_lw/5.jpg"",""time"":250},{""stimulus"":""img/red_lw/6.jpg"",""time"":310},{""stimulus"":""img/red_lw/7.jpg"",""time"":351},{""stimulus"":""img/red_lw/8.jpg"",""time"":403},{""stimulus"":""img/red_lw/9.jpg"",""time"":451},{""stimulus"":""img/red_lw/10.jpg"",""time"":512},{""stimulus"":""img/red_lw/11.jpg"",""time"":558}]","[]"
"image-keyboard-response","69","100692","0.0-5.0-1.32","5c5f525806006e0001db95d2","bdp_lott","Sun Apr 02 2023 18:44:39 GMT-0400 (Eastern Daylight Time)","492174","red","green","","1113","","","","choice","","","img/red_lw/choose11.jpg","2","193","red","0.5","0.5","0.5","l","",""
"animation","70","101293","0.0-5.0-2.32","5c5f525806006e0001db95d2","bdp_lott","Sun Apr 02 2023 18:44:39 GMT-0400 (Eastern Daylight Time)","492174","red","green","","","","","","","","","","","193","","","","","","[{""stimulus"":""img/red_ll/1.jpg"",""time"":61},{""stimulus"":""img/red_ll/2.jpg"",""time"":101},{""stimulus"":""img/red_ll/3.jpg"",""time"":155},{""stimulus"":""img/red_ll/4.jpg"",""time"":212},{""stimulus"":""img/red_ll/5.jpg"",""time"":252},{""stimulus"":""img/red_ll/6.jpg"",""time"":307},{""stimulus"":""img/red_ll/7.jpg"",""time"":352},{""stimulus"":""img/red_ll/8.jpg"",""time"":429},{""stimulus"":""img/red_ll/9.jpg"",""time"":451},{""stimulus"":""img/red_ll/10.jpg"",""time"":513},{""stimulus"":""img/red_ll/11.jpg"",""time"":552}]","[]"
"image-keyboard-response","71","101815","0.0-5.0-1.33","5c5f525806006e0001db95d2","bdp_lott","Sun Apr 02 2023 18:44:39 GMT-0400 (Eastern Daylight Time)","492174","red","green","","521","","","","choice","","","img/red_ll/choose11.jpg","1","192","green","0.5","0.5","0.5","l","",""
"animation","72","102416","0.0-5.0-2.33","5c5f525806006e0001db95d2","bdp_lott","Sun Apr 02 2023 18:44:39 GMT-0400 (Eastern Daylight Time)","492174","red","green","","","","","","","","","","","192","","","","","","[{""stimulus"":""img/green_ll/1.jpg"",""time"":55},{""stimulus"":""img/green_ll/2.jpg"",""time"":101},{""stimulus"":""img/green_ll/3.jpg"",""time"":151},{""stimulus"":""img/green_ll/4.jpg"",""time"":201},{""stimulus"":""img/green_ll/5.jpg"",""time"":257},{""stimulus"":""img/green_ll/6.jpg"",""time"":301},{""stimulus"":""img/green_ll/7.jpg"",""time"":351},{""stimulus"":""img/green_ll/8.jpg"",""time"":401},{""stimulus"":""img/green_ll/9.jpg"",""time"":450},{""stimulus"":""img/green_ll/10.jpg"",""time"":500},{""stimulus"":""img/green_ll/11.jpg"",""time"":550}]","[]"
"image-keyboard-response","73","103076","0.0-5.0-1.34","5c5f525806006e0001db95d2","bdp_lott","Sun Apr 02 2023 18:44:39 GMT-0400 (Eastern Daylight Time)","492174","red","green","","659","","","","choice","","","img/green_ll/choose11.jpg","2","191","red","0.5","0.5","0.5","w","",""
"animation","74","103678","0.0-5.0-2.34","5c5f525806006e0001db95d2","bdp_lott","Sun Apr 02 2023 18:44:39 GMT-0400 (Eastern Daylight Time)","492174","red","green","","","","","","","","","","","191","","","","","","[{""stimulus"":""img/red_lw/1.jpg"",""time"":59},{""stimulus"":""img/red_lw/2.jpg"",""time"":100},{""stimulus"":""img/red_lw/3.jpg"",""time"":161},{""stimulus"":""img/red_lw/4.jpg"",""time"":201},{""stimulus"":""img/red_lw/5.jpg"",""time"":251},{""stimulus"":""img/red_lw/6.jpg"",""time"":301},{""stimulus"":""img/red_lw/7.jpg"",""time"":351},{""stimulus"":""img/red_lw/8.jpg"",""time"":407},{""stimulus"":""img/red_lw/9.jpg"",""time"":453},{""stimulus"":""img/red_lw/10.jpg"",""time"":501},{""stimulus"":""img/red_lw/11.jpg"",""time"":551}]","[]"
"image-keyboard-response","75","104178","0.0-5.0-1.35","5c5f525806006e0001db95d2","bdp_lott","Sun Apr 02 2023 18:44:39 GMT-0400 (Eastern Daylight Time)","492174","red","green","","500","","","","choice","","","img/red_lw/choose11.jpg","2","190","red","0.5","0.5","0.5","w","",""
"animation","76","104781","0.0-5.0-2.35","5c5f525806006e0001db95d2","bdp_lott","Sun Apr 02 2023 18:44:39 GMT-0400 (Eastern Daylight Time)","492174","red","green","","","","","","","","","","","190","","","","","","[{""stimulus"":""img/red_lw/1.jpg"",""time"":61},{""stimulus"":""img/red_lw/2.jpg"",""time"":101},{""stimulus"":""img/red_lw/3.jpg"",""time"":152},{""stimulus"":""img/red_lw/4.jpg"",""time"":202},{""stimulus"":""img/red_lw/5.jpg"",""time"":251},{""stimulus"":""img/red_lw/6.jpg"",""time"":301},{""stimulus"":""img/red_lw/7.jpg"",""time"":350},{""stimulus"":""img/red_lw/8.jpg"",""time"":401},{""stimulus"":""img/red_lw/9.jpg"",""time"":451},{""stimulus"":""img/red_lw/10.jpg"",""time"":501},{""stimulus"":""img/red_lw/11.jpg"",""time"":558}]","[]"
"image-keyboard-response","77","113474","0.0-5.0-1.36","5c5f525806006e0001db95d2","bdp_lott","Sun Apr 02 2023 18:44:39 GMT-0400 (Eastern Daylight Time)","492174","red","green","","8692","","","","choice","","","img/red_lw/choose11.jpg","2","189","red","0.5","0.5","0.5","w","",""
"animation","78","114093","0.0-5.0-2.36","5c5f525806006e0001db95d2","bdp_lott","Sun Apr 02 2023 18:44:39 GMT-0400 (Eastern Daylight Time)","492174","red","green","","","","","","","","","","","189","","","","","","[{""stimulus"":""img/red_lw/1.jpg"",""time"":65},{""stimulus"":""img/red_lw/2.jpg"",""time"":101},{""stimulus"":""img/red_lw/3.jpg"",""time"":152},{""stimulus"":""img/red_lw/4.jpg"",""time"":201},{""stimulus"":""img/red_lw/5.jpg"",""time"":251},{""stimulus"":""img/red_lw/6.jpg"",""time"":302},{""stimulus"":""img/red_lw/7.jpg"",""time"":370},{""stimulus"":""img/red_lw/8.jpg"",""time"":402},{""stimulus"":""img/red_lw/9.jpg"",""time"":452},{""stimulus"":""img/red_lw/10.jpg"",""time"":501},{""stimulus"":""img/red_lw/11.jpg"",""time"":551}]","[]"
"image-keyboard-response","79","114640","0.0-5.0-1.37","5c5f525806006e0001db95d2","bdp_lott","Sun Apr 02 2023 18:44:39 GMT-0400 (Eastern Daylight Time)","492174","red","green","","546","","","","choice","","","img/red_lw/choose11.jpg","2","188","red","0.5","0.5","0.5","l","",""
"animation","80","115241","0.0-5.0-2.37","5c5f525806006e0001db95d2","bdp_lott","Sun Apr 02 2023 18:44:39 GMT-0400 (Eastern Daylight Time)","492174","red","green","","","","","","","","","","","188","","","","","","[{""stimulus"":""img/red_ll/1.jpg"",""time"":51},{""stimulus"":""img/red_ll/2.jpg"",""time"":101},{""stimulus"":""img/red_ll/3.jpg"",""time"":170},{""stimulus"":""img/red_ll/4.jpg"",""time"":201},{""stimulus"":""img/red_ll/5.jpg"",""time"":269},{""stimulus"":""img/red_ll/6.jpg"",""time"":301},{""stimulus"":""img/red_ll/7.jpg"",""time"":352},{""stimulus"":""img/red_ll/8.jpg"",""time"":402},{""stimulus"":""img/red_ll/9.jpg"",""time"":451},{""stimulus"":""img/red_ll/10.jpg"",""time"":502},{""stimulus"":""img/red_ll/11.jpg"",""time"":569}]","[]"
"image-keyboard-response","81","115687","0.0-5.0-1.38","5c5f525806006e0001db95d2","bdp_lott","Sun Apr 02 2023 18:44:39 GMT-0400 (Eastern Daylight Time)","492174","red","green","","445","","","","choice","","","img/red_ll/choose11.jpg","1","187","green","0.5","0.5","0.5","w","",""
"animation","82","116288","0.0-5.0-2.38","5c5f525806006e0001db95d2","bdp_lott","Sun Apr 02 2023 18:44:39 GMT-0400 (Eastern Daylight Time)","492174","red","green","","","","","","","","","","","187","","","","","","[{""stimulus"":""img/green_wl/1.jpg"",""time"":54},{""stimulus"":""img/green_wl/2.jpg"",""time"":101},{""stimulus"":""img/green_wl/3.jpg"",""time"":152},{""stimulus"":""img/green_wl/4.jpg"",""time"":201},{""stimulus"":""img/green_wl/5.jpg"",""time"":251},{""stimulus"":""img/green_wl/6.jpg"",""time"":305},{""stimulus"":""img/green_wl/7.jpg"",""time"":351},{""stimulus"":""img/green_wl/8.jpg"",""time"":402},{""stimulus"":""img/green_wl/9.jpg"",""time"":451},{""stimulus"":""img/green_wl/10.jpg"",""time"":521},{""stimulus"":""img/green_wl/11.jpg"",""time"":552}]","[]"
"image-keyboard-response","83","116709","0.0-5.0-1.39","5c5f525806006e0001db95d2","bdp_lott","Sun Apr 02 2023 18:44:39 GMT-0400 (Eastern Daylight Time)","492174","red","green","","420","","","","choice","","","img/green_wl/choose11.jpg","1","186","green","0.5","0.5","0.5","l","",""
"animation","84","117311","0.0-5.0-2.39","5c5f525806006e0001db95d2","bdp_lott","Sun Apr 02 2023 18:44:39 GMT-0400 (Eastern Daylight Time)","492174","red","green","","","","","","","","","","","186","","","","","","[{""stimulus"":""img/green_ll/1.jpg"",""time"":63},{""stimulus"":""img/green_ll/2.jpg"",""time"":101},{""stimulus"":""img/green_ll/3.jpg"",""time"":164},{""stimulus"":""img/green_ll/4.jpg"",""time"":200},{""stimulus"":""img/green_ll/5.jpg"",""time"":257},{""stimulus"":""img/green_ll/6.jpg"",""time"":303},{""stimulus"":""img/green_ll/7.jpg"",""time"":351},{""stimulus"":""img/green_ll/8.jpg"",""time"":400},{""stimulus"":""img/green_ll/9.jpg"",""time"":451},{""stimulus"":""img/green_ll/10.jpg"",""time"":500},{""stimulus"":""img/green_ll/11.jpg"",""time"":550}]","[]"
"image-keyboard-response","85","117771","0.0-5.0-1.40","5c5f525806006e0001db95d2","bdp_lott","Sun Apr 02 2023 18:44:39 GMT-0400 (Eastern Daylight Time)","492174","red","green","","459","","","","choice","","","img/green_ll/choose11.jpg","2","185","red","0.5","0.5","0.5","w","",""
"animation","86","118389","0.0-5.0-2.40","5c5f525806006e0001db95d2","bdp_lott","Sun Apr 02 2023 18:44:39 GMT-0400 (Eastern Daylight Time)","492174","red","green","","","","","","","","","","","185","","","","","","[{""stimulus"":""img/red_lw/1.jpg"",""time"":66},{""stimulus"":""img/red_lw/2.jpg"",""time"":101},{""stimulus"":""img/red_lw/3.jpg"",""time"":155},{""stimulus"":""img/red_lw/4.jpg"",""time"":202},{""stimulus"":""img/red_lw/5.jpg"",""time"":269},{""stimulus"":""img/red_lw/6.jpg"",""time"":301},{""stimulus"":""img/red_lw/7.jpg"",""time"":350},{""stimulus"":""img/red_lw/8.jpg"",""time"":402},{""stimulus"":""img/red_lw/9.jpg"",""time"":468},{""stimulus"":""img/red_lw/10.jpg"",""time"":501},{""stimulus"":""img/red_lw/11.jpg"",""time"":551}]","[]"
"image-keyboard-response","87","118741","0.0-5.0-1.41","5c5f525806006e0001db95d2","bdp_lott","Sun Apr 02 2023 18:44:39 GMT-0400 (Eastern Daylight Time)","492174","red","green","","351","","","","choice","","","img/red_lw/choose11.jpg","2","184","red","0.5","0.5","0.5","w","",""
"animation","88","119341","0.0-5.0-2.41","5c5f525806006e0001db95d2","bdp_lott","Sun Apr 02 2023 18:44:39 GMT-0400 (Eastern Daylight Time)","492174","red","green","","","","","","","","","","","184","","","","","","[{""stimulus"":""img/red_lw/1.jpg"",""time"":64},{""stimulus"":""img/red_lw/2.jpg"",""time"":101},{""stimulus"":""img/red_lw/3.jpg"",""time"":151},{""stimulus"":""img/red_lw/4.jpg"",""time"":201},{""stimulus"":""img/red_lw/5.jpg"",""time"":251},{""stimulus"":""img/red_lw/6.jpg"",""time"":315},{""stimulus"":""img/red_lw/7.jpg"",""time"":361},{""stimulus"":""img/red_lw/8.jpg"",""time"":401},{""stimulus"":""img/red_lw/9.jpg"",""time"":451},{""stimulus"":""img/red_lw/10.jpg"",""time"":501},{""stimulus"":""img/red_lw/11.jpg"",""time"":551}]","[]"
"image-keyboard-response","89","119729","0.0-5.0-1.42","5c5f525806006e0001db95d2","bdp_lott","Sun Apr 02 2023 18:44:39 GMT-0400 (Eastern Daylight Time)","492174","red","green","","388","","","","choice","","","img/red_lw/choose11.jpg","2","183","red","0.5","0.5","0.5","l","",""
"animation","90","120330","0.0-5.0-2.42","5c5f525806006e0001db95d2","bdp_lott","Sun Apr 02 2023 18:44:39 GMT-0400 (Eastern Daylight Time)","492174","red","green","","","","","","","","","","","183","","","","","","[{""stimulus"":""img/red_ll/1.jpg"",""time"":58},{""stimulus"":""img/red_ll/2.jpg"",""time"":101},{""stimulus"":""img/red_ll/3.jpg"",""time"":150},{""stimulus"":""img/red_ll/4.jpg"",""time"":226},{""stimulus"":""img/red_ll/5.jpg"",""time"":251},{""stimulus"":""img/red_ll/6.jpg"",""time"":310},{""stimulus"":""img/red_ll/7.jpg"",""time"":351},{""stimulus"":""img/red_ll/8.jpg"",""time"":402},{""stimulus"":""img/red_ll/9.jpg"",""time"":475},{""stimulus"":""img/red_ll/10.jpg"",""time"":501},{""stimulus"":""img/red_ll/11.jpg"",""time"":559}]","[]"
"image-keyboard-response","91","120807","0.0-5.0-1.43","5c5f525806006e0001db95d2","bdp_lott","Sun Apr 02 2023 18:44:39 GMT-0400 (Eastern Daylight Time)","492174","red","green","","476","","","","choice","","","img/red_ll/choose11.jpg","1","182","green","0.5","0.5","0.5","l","",""
"animation","92","121408","0.0-5.0-2.43","5c5f525806006e0001db95d2","bdp_lott","Sun Apr 02 2023 18:44:39 GMT-0400 (Eastern Daylight Time)","492174","red","green","","","","","","","","","","","182","","","","","","[{""stimulus"":""img/green_ll/1.jpg"",""time"":64},{""stimulus"":""img/green_ll/2.jpg"",""time"":102},{""stimulus"":""img/green_ll/3.jpg"",""time"":157},{""stimulus"":""img/green_ll/4.jpg"",""time"":202},{""stimulus"":""img/green_ll/5.jpg"",""time"":263},{""stimulus"":""img/green_ll/6.jpg"",""time"":301},{""stimulus"":""img/green_ll/7.jpg"",""time"":350},{""stimulus"":""img/green_ll/8.jpg"",""time"":401},{""stimulus"":""img/green_ll/9.jpg"",""time"":452},{""stimulus"":""img/green_ll/10.jpg"",""time"":514},{""stimulus"":""img/green_ll/11.jpg"",""time"":550}]","[]"
"image-keyboard-response","93","121963","0.0-5.0-1.44","5c5f525806006e0001db95d2","bdp_lott","Sun Apr 02 2023 18:44:39 GMT-0400 (Eastern Daylight Time)","492174","red","green","","554","","","","choice","","","img/green_ll/choose11.jpg","2","181","red","0.5","0.5","0.5","w","",""
"animation","94","122564","0.0-5.0-2.44","5c5f525806006e0001db95d2","bdp_lott","Sun Apr 02 2023 18:44:39 GMT-0400 (Eastern Daylight Time)","492174","red","green","","","","","","","","","","","181","","","","","","[{""stimulus"":""img/red_lw/1.jpg"",""time"":56},{""stimulus"":""img/red_lw/2.jpg"",""time"":100},{""stimulus"":""img/red_lw/3.jpg"",""time"":174},{""stimulus"":""img/red_lw/4.jpg"",""time"":200},{""stimulus"":""img/red_lw/5.jpg"",""time"":256},{""stimulus"":""img/red_lw/6.jpg"",""time"":303},{""stimulus"":""img/red_lw/7.jpg"",""time"":350},{""stimulus"":""img/red_lw/8.jpg"",""time"":400},{""stimulus"":""img/red_lw/9.jpg"",""time"":450},{""stimulus"":""img/red_lw/10.jpg"",""time"":506},{""stimulus"":""img/red_lw/11.jpg"",""time"":551}]","[]"
"image-keyboard-response","95","123053","0.0-5.0-1.45","5c5f525806006e0001db95d2","bdp_lott","Sun Apr 02 2023 18:44:39 GMT-0400 (Eastern Daylight Time)","492174","red","green","","489","","","","choice","","","img/red_lw/choose11.jpg","2","180","red","0.5","0.5","0.5","w","",""
"animation","96","123654","0.0-5.0-2.45","5c5f525806006e0001db95d2","bdp_lott","Sun Apr 02 2023 18:44:39 GMT-0400 (Eastern Daylight Time)","492174","red","green","","","","","","","","","","","180","","","","","","[{""stimulus"":""img/red_lw/1.jpg"",""time"":65},{""stimulus"":""img/red_lw/2.jpg"",""time"":101},{""stimulus"":""img/red_lw/3.jpg"",""time"":151},{""stimulus"":""img/red_lw/4.jpg"",""time"":201},{""stimulus"":""img/red_lw/5.jpg"",""time"":251},{""stimulus"":""img/red_lw/6.jpg"",""time"":314},{""stimulus"":""img/red_lw/7.jpg"",""time"":351},{""stimulus"":""img/red_lw/8.jpg"",""time"":401},{""stimulus"":""img/red_lw/9.jpg"",""time"":451},{""stimulus"":""img/red_lw/10.jpg"",""time"":516},{""stimulus"":""img/red_lw/11.jpg"",""time"":563}]","[]"
"image-keyboard-response","97","124008","0.0-5.0-1.46","5c5f525806006e0001db95d2","bdp_lott","Sun Apr 02 2023 18:44:39 GMT-0400 (Eastern Daylight Time)","492174","red","green","","353","","","","choice","","","img/red_lw/choose11.jpg","2","179","red","0.5","0.5","0.5","w","",""
"animation","98","124609","0.0-5.0-2.46","5c5f525806006e0001db95d2","bdp_lott","Sun Apr 02 2023 18:44:39 GMT-0400 (Eastern Daylight Time)","492174","red","green","","","","","","","","","","","179","","","","","","[{""stimulus"":""img/red_lw/1.jpg"",""time"":60},{""stimulus"":""img/red_lw/2.jpg"",""time"":101},{""stimulus"":""img/red_lw/3.jpg"",""time"":151},{""stimulus"":""img/red_lw/4.jpg"",""time"":201},{""stimulus"":""img/red_lw/5.jpg"",""time"":252},{""stimulus"":""img/red_lw/6.jpg"",""time"":301},{""stimulus"":""img/red_lw/7.jpg"",""time"":351},{""stimulus"":""img/red_lw/8.jpg"",""time"":403},{""stimulus"":""img/red_lw/9.jpg"",""time"":452},{""stimulus"":""img/red_lw/10.jpg"",""time"":502},{""stimulus"":""img/red_lw/11.jpg"",""time"":552}]","[]"
"image-keyboard-response","99","124954","0.0-5.0-1.47","5c5f525806006e0001db95d2","bdp_lott","Sun Apr 02 2023 18:44:39 GMT-0400 (Eastern Daylight Time)","492174","red","green","","344","","","","choice","","","img/red_lw/choose11.jpg","2","178","red","0.5","0.5","0.5","l","",""
"animation","100","125554","0.0-5.0-2.47","5c5f525806006e0001db95d2","bdp_lott","Sun Apr 02 2023 18:44:39 GMT-0400 (Eastern Daylight Time)","492174","red","green","","","","","","","","","","","178","","","","","","[{""stimulus"":""img/red_ll/1.jpg"",""time"":62},{""stimulus"":""img/red_ll/2.jpg"",""time"":101},{""stimulus"":""img/red_ll/3.jpg"",""time"":151},{""stimulus"":""img/red_ll/4.jpg"",""time"":201},{""stimulus"":""img/red_ll/5.jpg"",""time"":251},{""stimulus"":""img/red_ll/6.jpg"",""time"":311},{""stimulus"":""img/red_ll/7.jpg"",""time"":351},{""stimulus"":""img/red_ll/8.jpg"",""time"":401},{""stimulus"":""img/red_ll/9.jpg"",""time"":451},{""stimulus"":""img/red_ll/10.jpg"",""time"":501},{""stimulus"":""img/red_ll/11.jpg"",""time"":552}]","[]"
"image-keyboard-response","101","125990","0.0-5.0-1.48","5c5f525806006e0001db95d2","bdp_lott","Sun Apr 02 2023 18:44:39 GMT-0400 (Eastern Daylight Time)","492174","red","green","","435","","","","choice","","","img/red_ll/choose11.jpg","1","177","green","0.5","0.5","0.5","l","",""
"animation","102","126597","0.0-5.0-2.48","5c5f525806006e0001db95d2","bdp_lott","Sun Apr 02 2023 18:44:39 GMT-0400 (Eastern Daylight Time)","492174","red","green","","","","","","","","","","","177","","","","","","[{""stimulus"":""img/green_ll/1.jpg"",""time"":59},{""stimulus"":""img/green_ll/2.jpg"",""time"":101},{""stimulus"":""img/green_ll/3.jpg"",""time"":152},{""stimulus"":""img/green_ll/4.jpg"",""time"":201},{""stimulus"":""img/green_ll/5.jpg"",""time"":276},{""stimulus"":""img/green_ll/6.jpg"",""time"":302},{""stimulus"":""img/green_ll/7.jpg"",""time"":360},{""stimulus"":""img/green_ll/8.jpg"",""time"":401},{""stimulus"":""img/green_ll/9.jpg"",""time"":451},{""stimulus"":""img/green_ll/10.jpg"",""time"":502},{""stimulus"":""img/green_ll/11.jpg"",""time"":551}]","[]"
"image-keyboard-response","103","127108","0.0-5.0-1.49","5c5f525806006e0001db95d2","bdp_lott","Sun Apr 02 2023 18:44:39 GMT-0400 (Eastern Daylight Time)","492174","red","green","","511","","","","choice","","","img/green_ll/choose11.jpg","1","176","green","0.5","0.5","0.5","l","",""
"animation","104","127731","0.0-5.0-2.49","5c5f525806006e0001db95d2","bdp_lott","Sun Apr 02 2023 18:44:39 GMT-0400 (Eastern Daylight Time)","492174","red","green","","","","","","","","","","","176","","","","","","[{""stimulus"":""img/green_ll/1.jpg"",""time"":57},{""stimulus"":""img/green_ll/2.jpg"",""time"":101},{""stimulus"":""img/green_ll/3.jpg"",""time"":152},{""stimulus"":""img/green_ll/4.jpg"",""time"":202},{""stimulus"":""img/green_ll/5.jpg"",""time"":252},{""stimulus"":""img/green_ll/6.jpg"",""time"":301},{""stimulus"":""img/green_ll/7.jpg"",""time"":357},{""stimulus"":""img/green_ll/8.jpg"",""time"":404},{""stimulus"":""img/green_ll/9.jpg"",""time"":458},{""stimulus"":""img/green_ll/10.jpg"",""time"":505},{""stimulus"":""img/green_ll/11.jpg"",""time"":551}]","[]"
"image-keyboard-response","105","128050","0.0-5.0-1.50","5c5f525806006e0001db95d2","bdp_lott","Sun Apr 02 2023 18:44:39 GMT-0400 (Eastern Daylight Time)","492174","red","green","","318","","","","choice","","","img/green_ll/choose11.jpg","2","175","red","0.5","0.5","0.5","w","",""
"animation","106","128651","0.0-5.0-2.50","5c5f525806006e0001db95d2","bdp_lott","Sun Apr 02 2023 18:44:39 GMT-0400 (Eastern Daylight Time)","492174","red","green","","","","","","","","","","","175","","","","","","[{""stimulus"":""img/red_lw/1.jpg"",""time"":64},{""stimulus"":""img/red_lw/2.jpg"",""time"":100},{""stimulus"":""img/red_lw/3.jpg"",""time"":150},{""stimulus"":""img/red_lw/4.jpg"",""time"":201},{""stimulus"":""img/red_lw/5.jpg"",""time"":281},{""stimulus"":""img/red_lw/6.jpg"",""time"":300},{""stimulus"":""img/red_lw/7.jpg"",""time"":363},{""stimulus"":""img/red_lw/8.jpg"",""time"":400},{""stimulus"":""img/red_lw/9.jpg"",""time"":457},{""stimulus"":""img/red_lw/10.jpg"",""time"":501},{""stimulus"":""img/red_lw/11.jpg"",""time"":563}]","[]"
"image-keyboard-response","107","129084","0.0-5.0-1.51","5c5f525806006e0001db95d2","bdp_lott","Sun Apr 02 2023 18:44:39 GMT-0400 (Eastern Daylight Time)","492174","red","green","","432","","","","choice","","","img/red_lw/choose11.jpg","2","174","red","0.5","0.5","0.5","w","",""
"animation","108","129684","0.0-5.0-2.51","5c5f525806006e0001db95d2","bdp_lott","Sun Apr 02 2023 18:44:39 GMT-0400 (Eastern Daylight Time)","492174","red","green","","","","","","","","","","","174","","","","","","[{""stimulus"":""img/red_lw/1.jpg"",""time"":63},{""stimulus"":""img/red_lw/2.jpg"",""time"":100},{""stimulus"":""img/red_lw/3.jpg"",""time"":156},{""stimulus"":""img/red_lw/4.jpg"",""time"":200},{""stimulus"":""img/red_lw/5.jpg"",""time"":251},{""stimulus"":""img/red_lw/6.jpg"",""time"":312},{""stimulus"":""img/red_lw/7.jpg"",""time"":351},{""stimulus"":""img/red_lw/8.jpg"",""time"":400},{""stimulus"":""img/red_lw/9.jpg"",""time"":480},{""stimulus"":""img/red_lw/10.jpg"",""time"":502},{""stimulus"":""img/red_lw/11.jpg"",""time"":562}]","[]"
"image-keyboard-response","109","133366","0.0-5.0-1.52","5c5f525806006e0001db95d2","bdp_lott","Sun Apr 02 2023 18:44:39 GMT-0400 (Eastern Daylight Time)","492174","red","green","","3681","","","","choice","","","img/red_lw/choose11.jpg","2","173","red","0.5","0.5","0.5","w","",""
"animation","110","133967","0.0-5.0-2.52","5c5f525806006e0001db95d2","bdp_lott","Sun Apr 02 2023 18:44:39 GMT-0400 (Eastern Daylight Time)","492174","red","green","","","","","","","","","","","173","","","","","","[{""stimulus"":""img/red_lw/1.jpg"",""time"":59},{""stimulus"":""img/red_lw/2.jpg"",""time"":101},{""stimulus"":""img/red_lw/3.jpg"",""time"":151},{""stimulus"":""img/red_lw/4.jpg"",""time"":201},{""stimulus"":""img/red_lw/5.jpg"",""time"":251},{""stimulus"":""img/red_lw/6.jpg"",""time"":301},{""stimulus"":""img/red_lw/7.jpg"",""time"":352},{""stimulus"":""img/red_lw/8.jpg"",""time"":426},{""stimulus"":""img/red_lw/9.jpg"",""time"":450},{""stimulus"":""img/red_lw/10.jpg"",""time"":511},{""stimulus"":""img/red_lw/11.jpg"",""time"":557}]","[]"
"image-keyboard-response","111","136354","0.0-5.0-1.53","5c5f525806006e0001db95d2","bdp_lott","Sun Apr 02 2023 18:44:39 GMT-0400 (Eastern Daylight Time)","492174","red","green","","2387","","","","choice","","","img/red_lw/choose11.jpg","2","172","red","0.5","0.5","0.5","w","",""
"animation","112","136955","0.0-5.0-2.53","5c5f525806006e0001db95d2","bdp_lott","Sun Apr 02 2023 18:44:39 GMT-0400 (Eastern Daylight Time)","492174","red","green","","","","","","","","","","","172","","","","","","[{""stimulus"":""img/red_lw/1.jpg"",""time"":52},{""stimulus"":""img/red_lw/2.jpg"",""time"":101},{""stimulus"":""img/red_lw/3.jpg"",""time"":170},{""stimulus"":""img/red_lw/4.jpg"",""time"":201},{""stimulus"":""img/red_lw/5.jpg"",""time"":270},{""stimulus"":""img/red_lw/6.jpg"",""time"":301},{""stimulus"":""img/red_lw/7.jpg"",""time"":351},{""stimulus"":""img/red_lw/8.jpg"",""time"":401},{""stimulus"":""img/red_lw/9.jpg"",""time"":451},{""stimulus"":""img/red_lw/10.jpg"",""time"":519},{""stimulus"":""img/red_lw/11.jpg"",""time"":552}]","[]"
"image-keyboard-response","113","137358","0.0-5.0-1.54","5c5f525806006e0001db95d2","bdp_lott","Sun Apr 02 2023 18:44:39 GMT-0400 (Eastern Daylight Time)","492174","red","green","","403","","","","choice","","","img/red_lw/choose11.jpg","2","171","red","0.5","0.5","0.5","w","",""
"animation","114","137959","0.0-5.0-2.54","5c5f525806006e0001db95d2","bdp_lott","Sun Apr 02 2023 18:44:39 GMT-0400 (Eastern Daylight Time)","492174","red","green","","","","","","","","","","","171","","","","","","[{""stimulus"":""img/red_lw/1.jpg"",""time"":65},{""stimulus"":""img/red_lw/2.jpg"",""time"":101},{""stimulus"":""img/red_lw/3.jpg"",""time"":151},{""stimulus"":""img/red_lw/4.jpg"",""time"":201},{""stimulus"":""img/red_lw/5.jpg"",""time"":251},{""stimulus"":""img/red_lw/6.jpg"",""time"":302},{""stimulus"":""img/red_lw/7.jpg"",""time"":351},{""stimulus"":""img/red_lw/8.jpg"",""time"":407},{""stimulus"":""img/red_lw/9.jpg"",""time"":451},{""stimulus"":""img/red_lw/10.jpg"",""time"":515},{""stimulus"":""img/red_lw/11.jpg"",""time"":551}]","[]"
"image-keyboard-response","115","138399","0.0-5.0-1.55","5c5f525806006e0001db95d2","bdp_lott","Sun Apr 02 2023 18:44:39 GMT-0400 (Eastern Daylight Time)","492174","red","green","","440","","","","choice","","","img/red_lw/choose11.jpg","2","170","red","0.5","0.5","0.5","l","",""
"animation","116","139000","0.0-5.0-2.55","5c5f525806006e0001db95d2","bdp_lott","Sun Apr 02 2023 18:44:39 GMT-0400 (Eastern Daylight Time)","492174","red","green","","","","","","","","","","","170","","","","","","[{""stimulus"":""img/red_ll/1.jpg"",""time"":55},{""stimulus"":""img/red_ll/2.jpg"",""time"":101},{""stimulus"":""img/red_ll/3.jpg"",""time"":151},{""stimulus"":""img/red_ll/4.jpg"",""time"":207},{""stimulus"":""img/red_ll/5.jpg"",""time"":251},{""stimulus"":""img/red_ll/6.jpg"",""time"":301},{""stimulus"":""img/red_ll/7.jpg"",""time"":351},{""stimulus"":""img/red_ll/8.jpg"",""time"":406},{""stimulus"":""img/red_ll/9.jpg"",""time"":473},{""stimulus"":""img/red_ll/10.jpg"",""time"":502},{""stimulus"":""img/red_ll/11.jpg"",""time"":556}]","[]"
"image-keyboard-response","117","139520","0.0-5.0-1.56","5c5f525806006e0001db95d2","bdp_lott","Sun Apr 02 2023 18:44:39 GMT-0400 (Eastern Daylight Time)","492174","red","green","","518","","","","choice","","","img/red_ll/choose11.jpg","1","169","green","0.5","0.5","0.5","l","",""
"animation","118","140120","0.0-5.0-2.56","5c5f525806006e0001db95d2","bdp_lott","Sun Apr 02 2023 18:44:39 GMT-0400 (Eastern Daylight Time)","492174","red","green","","","","","","","","","","","169","","","","","","[{""stimulus"":""img/green_ll/1.jpg"",""time"":51},{""stimulus"":""img/green_ll/2.jpg"",""time"":102},{""stimulus"":""img/green_ll/3.jpg"",""time"":150},{""stimulus"":""img/green_ll/4.jpg"",""time"":217},{""stimulus"":""img/green_ll/5.jpg"",""time"":251},{""stimulus"":""img/green_ll/6.jpg"",""time"":318},{""stimulus"":""img/green_ll/7.jpg"",""time"":364},{""stimulus"":""img/green_ll/8.jpg"",""time"":401},{""stimulus"":""img/green_ll/9.jpg"",""time"":468},{""stimulus"":""img/green_ll/10.jpg"",""time"":500},{""stimulus"":""img/green_ll/11.jpg"",""time"":567}]","[]"
"image-keyboard-response","119","140543","0.0-5.0-1.57","5c5f525806006e0001db95d2","bdp_lott","Sun Apr 02 2023 18:44:39 GMT-0400 (Eastern Daylight Time)","492174","red","green","","422","","","","choice","","","img/green_ll/choose11.jpg","1","168","green","0.5","0.5","0.5","w","",""
"animation","120","141149","0.0-5.0-2.57","5c5f525806006e0001db95d2","bdp_lott","Sun Apr 02 2023 18:44:39 GMT-0400 (Eastern Daylight Time)","492174","red","green","","","","","","","","","","","168","","","","","","[{""stimulus"":""img/green_wl/1.jpg"",""time"":58},{""stimulus"":""img/green_wl/2.jpg"",""time"":101},{""stimulus"":""img/green_wl/3.jpg"",""time"":152},{""stimulus"":""img/green_wl/4.jpg"",""time"":201},{""stimulus"":""img/green_wl/5.jpg"",""time"":250},{""stimulus"":""img/green_wl/6.jpg"",""time"":309},{""stimulus"":""img/green_wl/7.jpg"",""time"":351},{""stimulus"":""img/green_wl/8.jpg"",""time"":401},{""stimulus"":""img/green_wl/9.jpg"",""time"":451},{""stimulus"":""img/green_wl/10.jpg"",""time"":500},{""stimulus"":""img/green_wl/11.jpg"",""time"":550}]","[]"
"image-keyboard-response","121","141423","0.0-5.0-1.58","5c5f525806006e0001db95d2","bdp_lott","Sun Apr 02 2023 18:44:39 GMT-0400 (Eastern Daylight Time)","492174","red","green","","273","","","","choice","","","img/green_wl/choose11.jpg","2","167","red","0.5","0.5","0.5","w","",""
"animation","122","142024","0.0-5.0-2.58","5c5f525806006e0001db95d2","bdp_lott","Sun Apr 02 2023 18:44:39 GMT-0400 (Eastern Daylight Time)","492174","red","green","","","","","","","","","","","167","","","","","","[{""stimulus"":""img/red_ww/1.jpg"",""time"":62},{""stimulus"":""img/red_ww/2.jpg"",""time"":102},{""stimulus"":""img/red_ww/3.jpg"",""time"":151},{""stimulus"":""img/red_ww/4.jpg"",""time"":201},{""stimulus"":""img/red_ww/5.jpg"",""time"":252},{""stimulus"":""img/red_ww/6.jpg"",""time"":313},{""stimulus"":""img/red_ww/7.jpg"",""time"":351},{""stimulus"":""img/red_ww/8.jpg"",""time"":401},{""stimulus"":""img/red_ww/9.jpg"",""time"":452},{""stimulus"":""img/red_ww/10.jpg"",""time"":501},{""stimulus"":""img/red_ww/11.jpg"",""time"":551}]","[]"
"image-keyboard-response","123","142888","0.0-5.0-1.59","5c5f525806006e0001db95d2","bdp_lott","Sun Apr 02 2023 18:44:39 GMT-0400 (Eastern Daylight Time)","492174","red","green","","864","","","","choice","","","img/red_ww/choose11.jpg","2","166","red","0.5","0.5","0.5","w","",""
"animation","124","143490","0.0-5.0-2.59","5c5f525806006e0001db95d2","bdp_lott","Sun Apr 02 2023 18:44:39 GMT-0400 (Eastern Daylight Time)","492174","red","green","","","","","","","","","","","166","","","","","","[{""stimulus"":""img/red_ww/1.jpg"",""time"":63},{""stimulus"":""img/red_ww/2.jpg"",""time"":102},{""stimulus"":""img/red_ww/3.jpg"",""time"":151},{""stimulus"":""img/red_ww/4.jpg"",""time"":200},{""stimulus"":""img/red_ww/5.jpg"",""time"":251},{""stimulus"":""img/red_ww/6.jpg"",""time"":311},{""stimulus"":""img/red_ww/7.jpg"",""time"":358},{""stimulus"":""img/red_ww/8.jpg"",""time"":414},{""stimulus"":""img/red_ww/9.jpg"",""time"":451},{""stimulus"":""img/red_ww/10.jpg"",""time"":507},{""stimulus"":""img/red_ww/11.jpg"",""time"":551}]","[]"
"image-keyboard-response","125","143986","0.0-5.0-1.60","5c5f525806006e0001db95d2","bdp_lott","Sun Apr 02 2023 18:44:39 GMT-0400 (Eastern Daylight Time)","492174","red","green","","496","","","","choice","","","img/red_ww/choose11.jpg","2","165","red","0.5","0.5","0.5","w","",""
"animation","126","144588","0.0-5.0-2.60","5c5f525806006e0001db95d2","bdp_lott","Sun Apr 02 2023 18:44:39 GMT-0400 (Eastern Daylight Time)","492174","red","green","","","","","","","","","","","165","","","","","","[{""stimulus"":""img/red_ww/1.jpg"",""time"":65},{""stimulus"":""img/red_ww/2.jpg"",""time"":102},{""stimulus"":""img/red_ww/3.jpg"",""time"":151},{""stimulus"":""img/red_ww/4.jpg"",""time"":202},{""stimulus"":""img/red_ww/5.jpg"",""time"":265},{""stimulus"":""img/red_ww/6.jpg"",""time"":300},{""stimulus"":""img/red_ww/7.jpg"",""time"":350},{""stimulus"":""img/red_ww/8.jpg"",""time"":415},{""stimulus"":""img/red_ww/9.jpg"",""time"":451},{""stimulus"":""img/red_ww/10.jpg"",""time"":508},{""stimulus"":""img/red_ww/11.jpg"",""time"":551}]","[]"
"image-keyboard-response","127","145039","0.0-5.0-1.61","5c5f525806006e0001db95d2","bdp_lott","Sun Apr 02 2023 18:44:39 GMT-0400 (Eastern Daylight Time)","492174","red","green","","450","","","","choice","","","img/red_ww/choose11.jpg","2","164","red","0.5","0.5","0.5","l","",""
"animation","128","145640","0.0-5.0-2.61","5c5f525806006e0001db95d2","bdp_lott","Sun Apr 02 2023 18:44:39 GMT-0400 (Eastern Daylight Time)","492174","red","green","","","","","","","","","","","164","","","","","","[{""stimulus"":""img/red_wl/1.jpg"",""time"":61},{""stimulus"":""img/red_wl/2.jpg"",""time"":101},{""stimulus"":""img/red_wl/3.jpg"",""time"":153},{""stimulus"":""img/red_wl/4.jpg"",""time"":201},{""stimulus"":""img/red_wl/5.jpg"",""time"":277},{""stimulus"":""img/red_wl/6.jpg"",""time"":300},{""stimulus"":""img/red_wl/7.jpg"",""time"":361},{""stimulus"":""img/red_wl/8.jpg"",""time"":408},{""stimulus"":""img/red_wl/9.jpg"",""time"":454},{""stimulus"":""img/red_wl/10.jpg"",""time"":516},{""stimulus"":""img/red_wl/11.jpg"",""time"":551}]","[]"
"image-keyboard-response","129","146079","0.0-5.0-1.62","5c5f525806006e0001db95d2","bdp_lott","Sun Apr 02 2023 18:44:39 GMT-0400 (Eastern Daylight Time)","492174","red","green","","438","","","","choice","","","img/red_wl/choose11.jpg","1","163","green","0.5","0.5","0.5","l","",""
"animation","130","146679","0.0-5.0-2.62","5c5f525806006e0001db95d2","bdp_lott","Sun Apr 02 2023 18:44:39 GMT-0400 (Eastern Daylight Time)","492174","red","green","","","","","","","","","","","163","","","","","","[{""stimulus"":""img/green_ll/1.jpg"",""time"":52},{""stimulus"":""img/green_ll/2.jpg"",""time"":101},{""stimulus"":""img/green_ll/3.jpg"",""time"":151},{""stimulus"":""img/green_ll/4.jpg"",""time"":200},{""stimulus"":""img/green_ll/5.jpg"",""time"":269},{""stimulus"":""img/green_ll/6.jpg"",""time"":301},{""stimulus"":""img/green_ll/7.jpg"",""time"":370},{""stimulus"":""img/green_ll/8.jpg"",""time"":401},{""stimulus"":""img/green_ll/9.jpg"",""time"":451},{""stimulus"":""img/green_ll/10.jpg"",""time"":501},{""stimulus"":""img/green_ll/11.jpg"",""time"":569}]","[]"
"image-keyboard-response","131","147380","0.0-5.0-1.63","5c5f525806006e0001db95d2","bdp_lott","Sun Apr 02 2023 18:44:39 GMT-0400 (Eastern Daylight Time)","492174","red","green","","700","","","","choice","","","img/green_ll/choose11.jpg","2","162","red","0.5","0.5","0.5","w","",""
"animation","132","147996","0.0-5.0-2.63","5c5f525806006e0001db95d2","bdp_lott","Sun Apr 02 2023 18:44:39 GMT-0400 (Eastern Daylight Time)","492174","red","green","","","","","","","","","","","162","","","","","","[{""stimulus"":""img/red_lw/1.jpg"",""time"":68},{""stimulus"":""img/red_lw/2.jpg"",""time"":101},{""stimulus"":""img/red_lw/3.jpg"",""time"":168},{""stimulus"":""img/red_lw/4.jpg"",""time"":201},{""stimulus"":""img/red_lw/5.jpg"",""time"":263},{""stimulus"":""img/red_lw/6.jpg"",""time"":318},{""stimulus"":""img/red_lw/7.jpg"",""time"":364},{""stimulus"":""img/red_lw/8.jpg"",""time"":402},{""stimulus"":""img/red_lw/9.jpg"",""time"":451},{""stimulus"":""img/red_lw/10.jpg"",""time"":518},{""stimulus"":""img/red_lw/11.jpg"",""time"":551}]","[]"
"image-keyboard-response","133","148494","0.0-5.0-1.64","5c5f525806006e0001db95d2","bdp_lott","Sun Apr 02 2023 18:44:39 GMT-0400 (Eastern Daylight Time)","492174","red","green","","496","","","","choice","","","img/red_lw/choose11.jpg","2","161","red","0.5","0.5","0.5","w","",""
"animation","134","149095","0.0-5.0-2.64","5c5f525806006e0001db95d2","bdp_lott","Sun Apr 02 2023 18:44:39 GMT-0400 (Eastern Daylight Time)","492174","red","green","","","","","","","","","","","161","","","","","","[{""stimulus"":""img/red_lw/1.jpg"",""time"":51},{""stimulus"":""img/red_lw/2.jpg"",""time"":102},{""stimulus"":""img/red_lw/3.jpg"",""time"":151},{""stimulus"":""img/red_lw/4.jpg"",""time"":206},{""stimulus"":""img/red_lw/5.jpg"",""time"":251},{""stimulus"":""img/red_lw/6.jpg"",""time"":301},{""stimulus"":""img/red_lw/7.jpg"",""time"":352},{""stimulus"":""img/red_lw/8.jpg"",""time"":400},{""stimulus"":""img/red_lw/9.jpg"",""time"":451},{""stimulus"":""img/red_lw/10.jpg"",""time"":501},{""stimulus"":""img/red_lw/11.jpg"",""time"":550}]","[]"
"image-keyboard-response","135","149484","0.0-5.0-1.65","5c5f525806006e0001db95d2","bdp_lott","Sun Apr 02 2023 18:44:39 GMT-0400 (Eastern Daylight Time)","492174","red","green","","389","","","","choice","","","img/red_lw/choose11.jpg","2","160","red","0.5","0.5","0.5","w","",""
"animation","136","150086","0.0-5.0-2.65","5c5f525806006e0001db95d2","bdp_lott","Sun Apr 02 2023 18:44:39 GMT-0400 (Eastern Daylight Time)","492174","red","green","","","","","","","","","","","160","","","","","","[{""stimulus"":""img/red_lw/1.jpg"",""time"":60},{""stimulus"":""img/red_lw/2.jpg"",""time"":100},{""stimulus"":""img/red_lw/3.jpg"",""time"":153},{""stimulus"":""img/red_lw/4.jpg"",""time"":201},{""stimulus"":""img/red_lw/5.jpg"",""time"":250},{""stimulus"":""img/red_lw/6.jpg"",""time"":308},{""stimulus"":""img/red_lw/7.jpg"",""time"":356},{""stimulus"":""img/red_lw/8.jpg"",""time"":402},{""stimulus"":""img/red_lw/9.jpg"",""time"":451},{""stimulus"":""img/red_lw/10.jpg"",""time"":510},{""stimulus"":""img/red_lw/11.jpg"",""time"":551}]","[]"
"image-keyboard-response","137","150738","0.0-5.0-1.66","5c5f525806006e0001db95d2","bdp_lott","Sun Apr 02 2023 18:44:39 GMT-0400 (Eastern Daylight Time)","492174","red","green","","652","","","","choice","","","img/red_lw/choose11.jpg","2","159","red","0.5","0.5","0.5","l","",""
"animation","138","151339","0.0-5.0-2.66","5c5f525806006e0001db95d2","bdp_lott","Sun Apr 02 2023 18:44:39 GMT-0400 (Eastern Daylight Time)","492174","red","green","","","","","","","","","","","159","","","","","","[{""stimulus"":""img/red_ll/1.jpg"",""time"":50},{""stimulus"":""img/red_ll/2.jpg"",""time"":102},{""stimulus"":""img/red_ll/3.jpg"",""time"":173},{""stimulus"":""img/red_ll/4.jpg"",""time"":200},{""stimulus"":""img/red_ll/5.jpg"",""time"":256},{""stimulus"":""img/red_ll/6.jpg"",""time"":301},{""stimulus"":""img/red_ll/7.jpg"",""time"":351},{""stimulus"":""img/red_ll/8.jpg"",""time"":401},{""stimulus"":""img/red_ll/9.jpg"",""time"":451},{""stimulus"":""img/red_ll/10.jpg"",""time"":506},{""stimulus"":""img/red_ll/11.jpg"",""time"":551}]","[]"
"image-keyboard-response","139","151742","0.0-5.0-1.67","5c5f525806006e0001db95d2","bdp_lott","Sun Apr 02 2023 18:44:39 GMT-0400 (Eastern Daylight Time)","492174","red","green","","403","","","","choice","","","img/red_ll/choose11.jpg","1","158","green","0.5","0.5","0.5","l","",""
"animation","140","152349","0.0-5.0-2.67","5c5f525806006e0001db95d2","bdp_lott","Sun Apr 02 2023 18:44:39 GMT-0400 (Eastern Daylight Time)","492174","red","green","","","","","","","","","","","158","","","","","","[{""stimulus"":""img/green_ll/1.jpg"",""time"":51},{""stimulus"":""img/green_ll/2.jpg"",""time"":101},{""stimulus"":""img/green_ll/3.jpg"",""time"":151},{""stimulus"":""img/green_ll/4.jpg"",""time"":201},{""stimulus"":""img/green_ll/5.jpg"",""time"":253},{""stimulus"":""img/green_ll/6.jpg"",""time"":301},{""stimulus"":""img/green_ll/7.jpg"",""time"":351},{""stimulus"":""img/green_ll/8.jpg"",""time"":401},{""stimulus"":""img/green_ll/9.jpg"",""time"":468},{""stimulus"":""img/green_ll/10.jpg"",""time"":501},{""stimulus"":""img/green_ll/11.jpg"",""time"":561}]","[]"
"image-keyboard-response","141","152666","0.0-5.0-1.68","5c5f525806006e0001db95d2","bdp_lott","Sun Apr 02 2023 18:44:39 GMT-0400 (Eastern Daylight Time)","492174","red","green","","316","","","","choice","","","img/green_ll/choose11.jpg","1","157","green","0.5","0.5","0.5","l","",""
"animation","142","153268","0.0-5.0-2.68","5c5f525806006e0001db95d2","bdp_lott","Sun Apr 02 2023 18:44:39 GMT-0400 (Eastern Daylight Time)","492174","red","green","","","","","","","","","","","157","","","","","","[{""stimulus"":""img/green_ll/1.jpg"",""time"":60},{""stimulus"":""img/green_ll/2.jpg"",""time"":101},{""stimulus"":""img/green_ll/3.jpg"",""time"":151},{""stimulus"":""img/green_ll/4.jpg"",""time"":201},{""stimulus"":""img/green_ll/5.jpg"",""time"":260},{""stimulus"":""img/green_ll/6.jpg"",""time"":301},{""stimulus"":""img/green_ll/7.jpg"",""time"":351},{""stimulus"":""img/green_ll/8.jpg"",""time"":401},{""stimulus"":""img/green_ll/9.jpg"",""time"":451},{""stimulus"":""img/green_ll/10.jpg"",""time"":501},{""stimulus"":""img/green_ll/11.jpg"",""time"":555}]","[]"
"image-keyboard-response","143","153586","0.0-5.0-1.69","5c5f525806006e0001db95d2","bdp_lott","Sun Apr 02 2023 18:44:39 GMT-0400 (Eastern Daylight Time)","492174","red","green","","317","","","","choice","","","img/green_ll/choose11.jpg","2","156","red","0.5","0.5","0.5","w","",""
"animation","144","154191","0.0-5.0-2.69","5c5f525806006e0001db95d2","bdp_lott","Sun Apr 02 2023 18:44:39 GMT-0400 (Eastern Daylight Time)","492174","red","green","","","","","","","","","","","156","","","","","","[{""stimulus"":""img/red_lw/1.jpg"",""time"":56},{""stimulus"":""img/red_lw/2.jpg"",""time"":102},{""stimulus"":""img/red_lw/3.jpg"",""time"":173},{""stimulus"":""img/red_lw/4.jpg"",""time"":201},{""stimulus"":""img/red_lw/5.jpg"",""time"":256},{""stimulus"":""img/red_lw/6.jpg"",""time"":301},{""stimulus"":""img/red_lw/7.jpg"",""time"":352},{""stimulus"":""img/red_lw/8.jpg"",""time"":402},{""stimulus"":""img/red_lw/9.jpg"",""time"":473},{""stimulus"":""img/red_lw/10.jpg"",""time"":501},{""stimulus"":""img/red_lw/11.jpg"",""time"":551}]","[]"
"image-keyboard-response","145","154509","0.0-5.0-1.70","5c5f525806006e0001db95d2","bdp_lott","Sun Apr 02 2023 18:44:39 GMT-0400 (Eastern Daylight Time)","492174","red","green","","317","","","","choice","","","img/red_lw/choose11.jpg","2","155","red","0.5","0.5","0.5","w","",""
"animation","146","155110","0.0-5.0-2.70","5c5f525806006e0001db95d2","bdp_lott","Sun Apr 02 2023 18:44:39 GMT-0400 (Eastern Daylight Time)","492174","red","green","","","","","","","","","","","155","","","","","","[{""stimulus"":""img/red_lw/1.jpg"",""time"":65},{""stimulus"":""img/red_lw/2.jpg"",""time"":102},{""stimulus"":""img/red_lw/3.jpg"",""time"":159},{""stimulus"":""img/red_lw/4.jpg"",""time"":201},{""stimulus"":""img/red_lw/5.jpg"",""time"":251},{""stimulus"":""img/red_lw/6.jpg"",""time"":301},{""stimulus"":""img/red_lw/7.jpg"",""time"":352},{""stimulus"":""img/red_lw/8.jpg"",""time"":402},{""stimulus"":""img/red_lw/9.jpg"",""time"":451},{""stimulus"":""img/red_lw/10.jpg"",""time"":501},{""stimulus"":""img/red_lw/11.jpg"",""time"":566}]","[]"
"image-keyboard-response","147","155448","0.0-5.0-1.71","5c5f525806006e0001db95d2","bdp_lott","Sun Apr 02 2023 18:44:39 GMT-0400 (Eastern Daylight Time)","492174","red","green","","338","","","","choice","","","img/red_lw/choose11.jpg","2","154","red","0.5","0.5","0.5","w","",""
"animation","148","156049","0.0-5.0-2.71","5c5f525806006e0001db95d2","bdp_lott","Sun Apr 02 2023 18:44:39 GMT-0400 (Eastern Daylight Time)","492174","red","green","","","","","","","","","","","154","","","","","","[{""stimulus"":""img/red_lw/1.jpg"",""time"":58},{""stimulus"":""img/red_lw/2.jpg"",""time"":100},{""stimulus"":""img/red_lw/3.jpg"",""time"":151},{""stimulus"":""img/red_lw/4.jpg"",""time"":209},{""stimulus"":""img/red_lw/5.jpg"",""time"":251},{""stimulus"":""img/red_lw/6.jpg"",""time"":301},{""stimulus"":""img/red_lw/7.jpg"",""time"":351},{""stimulus"":""img/red_lw/8.jpg"",""time"":401},{""stimulus"":""img/red_lw/9.jpg"",""time"":451},{""stimulus"":""img/red_lw/10.jpg"",""time"":507},{""stimulus"":""img/red_lw/11.jpg"",""time"":551}]","[]"
"image-keyboard-response","149","156478","0.0-5.0-1.72","5c5f525806006e0001db95d2","bdp_lott","Sun Apr 02 2023 18:44:39 GMT-0400 (Eastern Daylight Time)","492174","red","green","","427","","","","choice","","","img/red_lw/choose11.jpg","2","153","red","0.5","0.5","0.5","w","",""
"animation","150","157081","0.0-5.0-2.72","5c5f525806006e0001db95d2","bdp_lott","Sun Apr 02 2023 18:44:39 GMT-0400 (Eastern Daylight Time)","492174","red","green","","","","","","","","","","","153","","","","","","[{""stimulus"":""img/red_lw/1.jpg"",""time"":61},{""stimulus"":""img/red_lw/2.jpg"",""time"":102},{""stimulus"":""img/red_lw/3.jpg"",""time"":152},{""stimulus"":""img/red_lw/4.jpg"",""time"":202},{""stimulus"":""img/red_lw/5.jpg"",""time"":253},{""stimulus"":""img/red_lw/6.jpg"",""time"":302},{""stimulus"":""img/red_lw/7.jpg"",""time"":352},{""stimulus"":""img/red_lw/8.jpg"",""time"":403},{""stimulus"":""img/red_lw/9.jpg"",""time"":452},{""stimulus"":""img/red_lw/10.jpg"",""time"":509},{""stimulus"":""img/red_lw/11.jpg"",""time"":552}]","[]"
"image-keyboard-response","151","157582","0.0-5.0-1.73","5c5f525806006e0001db95d2","bdp_lott","Sun Apr 02 2023 18:44:39 GMT-0400 (Eastern Daylight Time)","492174","red","green","","501","","","","choice","","","img/red_lw/choose11.jpg","2","152","red","0.5","0.5","0.5","l","",""
"animation","152","158183","0.0-5.0-2.73","5c5f525806006e0001db95d2","bdp_lott","Sun Apr 02 2023 18:44:39 GMT-0400 (Eastern Daylight Time)","492174","red","green","","","","","","","","","","","152","","","","","","[{""stimulus"":""img/red_ll/1.jpg"",""time"":59},{""stimulus"":""img/red_ll/2.jpg"",""time"":101},{""stimulus"":""img/red_ll/3.jpg"",""time"":151},{""stimulus"":""img/red_ll/4.jpg"",""time"":202},{""stimulus"":""img/red_ll/5.jpg"",""time"":275},{""stimulus"":""img/red_ll/6.jpg"",""time"":302},{""stimulus"":""img/red_ll/7.jpg"",""time"":353},{""stimulus"":""img/red_ll/8.jpg"",""time"":409},{""stimulus"":""img/red_ll/9.jpg"",""time"":451},{""stimulus"":""img/red_ll/10.jpg"",""time"":501},{""stimulus"":""img/red_ll/11.jpg"",""time"":574}]","[]"
"image-keyboard-response","153","158583","0.0-5.0-1.74","5c5f525806006e0001db95d2","bdp_lott","Sun Apr 02 2023 18:44:39 GMT-0400 (Eastern Daylight Time)","492174","red","green","","399","","","","choice","","","img/red_ll/choose11.jpg","1","151","green","0.5","0.5","0.5","l","",""
"animation","154","159185","0.0-5.0-2.74","5c5f525806006e0001db95d2","bdp_lott","Sun Apr 02 2023 18:44:39 GMT-0400 (Eastern Daylight Time)","492174","red","green","","","","","","","","","","","151","","","","","","[{""stimulus"":""img/green_ll/1.jpg"",""time"":56},{""stimulus"":""img/green_ll/2.jpg"",""time"":102},{""stimulus"":""img/green_ll/3.jpg"",""time"":173},{""stimulus"":""img/green_ll/4.jpg"",""time"":201},{""stimulus"":""img/green_ll/5.jpg"",""time"":256},{""stimulus"":""img/green_ll/6.jpg"",""time"":301},{""stimulus"":""img/green_ll/7.jpg"",""time"":351},{""stimulus"":""img/green_ll/8.jpg"",""time"":401},{""stimulus"":""img/green_ll/9.jpg"",""time"":474},{""stimulus"":""img/green_ll/10.jpg"",""time"":500},{""stimulus"":""img/green_ll/11.jpg"",""time"":555}]","[]"
"image-keyboard-response","155","160064","0.0-5.0-1.75","5c5f525806006e0001db95d2","bdp_lott","Sun Apr 02 2023 18:44:39 GMT-0400 (Eastern Daylight Time)","492174","red","green","","878","","","","choice","","","img/green_ll/choose11.jpg","2","150","red","0.5","0.5","0.5","w","",""
"animation","156","160668","0.0-5.0-2.75","5c5f525806006e0001db95d2","bdp_lott","Sun Apr 02 2023 18:44:39 GMT-0400 (Eastern Daylight Time)","492174","red","green","","","","","","","","","","","150","","","","","","[{""stimulus"":""img/red_lw/1.jpg"",""time"":52},{""stimulus"":""img/red_lw/2.jpg"",""time"":101},{""stimulus"":""img/red_lw/3.jpg"",""time"":157},{""stimulus"":""img/red_lw/4.jpg"",""time"":201},{""stimulus"":""img/red_lw/5.jpg"",""time"":251},{""stimulus"":""img/red_lw/6.jpg"",""time"":302},{""stimulus"":""img/red_lw/7.jpg"",""time"":351},{""stimulus"":""img/red_lw/8.jpg"",""time"":401},{""stimulus"":""img/red_lw/9.jpg"",""time"":452},{""stimulus"":""img/red_lw/10.jpg"",""time"":501},{""stimulus"":""img/red_lw/11.jpg"",""time"":552}]","[]"
"image-keyboard-response","157","161247","0.0-5.0-1.76","5c5f525806006e0001db95d2","bdp_lott","Sun Apr 02 2023 18:44:39 GMT-0400 (Eastern Daylight Time)","492174","red","green","","578","","","","choice","","","img/red_lw/choose11.jpg","2","149","red","0.5","0.1","0.5","w","",""
"animation","158","161852","0.0-5.0-2.76","5c5f525806006e0001db95d2","bdp_lott","Sun Apr 02 2023 18:44:39 GMT-0400 (Eastern Daylight Time)","492174","red","green","","","","","","","","","","","149","","","","","","[{""stimulus"":""img/red_lw/1.jpg"",""time"":55},{""stimulus"":""img/red_lw/2.jpg"",""time"":100},{""stimulus"":""img/red_lw/3.jpg"",""time"":150},{""stimulus"":""img/red_lw/4.jpg"",""time"":201},{""stimulus"":""img/red_lw/5.jpg"",""time"":250},{""stimulus"":""img/red_lw/6.jpg"",""time"":304},{""stimulus"":""img/red_lw/7.jpg"",""time"":372},{""stimulus"":""img/red_lw/8.jpg"",""time"":401},{""stimulus"":""img/red_lw/9.jpg"",""time"":451},{""stimulus"":""img/red_lw/10.jpg"",""time"":501},{""stimulus"":""img/red_lw/11.jpg"",""time"":550}]","[]"
"image-keyboard-response","159","162577","0.0-5.0-1.77","5c5f525806006e0001db95d2","bdp_lott","Sun Apr 02 2023 18:44:39 GMT-0400 (Eastern Daylight Time)","492174","red","green","","724","","","","choice","","","img/red_lw/choose11.jpg","2","148","red","0.5","0.1","0.5","w","",""
"animation","160","163185","0.0-5.0-2.77","5c5f525806006e0001db95d2","bdp_lott","Sun Apr 02 2023 18:44:39 GMT-0400 (Eastern Daylight Time)","492174","red","green","","","","","","","","","","","148","","","","","","[{""stimulus"":""img/red_lw/1.jpg"",""time"":59},{""stimulus"":""img/red_lw/2.jpg"",""time"":101},{""stimulus"":""img/red_lw/3.jpg"",""time"":151},{""stimulus"":""img/red_lw/4.jpg"",""time"":201},{""stimulus"":""img/red_lw/5.jpg"",""time"":275},{""stimulus"":""img/red_lw/6.jpg"",""time"":301},{""stimulus"":""img/red_lw/7.jpg"",""time"":359},{""stimulus"":""img/red_lw/8.jpg"",""time"":402},{""stimulus"":""img/red_lw/9.jpg"",""time"":452},{""stimulus"":""img/red_lw/10.jpg"",""time"":525},{""stimulus"":""img/red_lw/11.jpg"",""time"":551}]","[]"
"image-keyboard-response","161","163544","0.0-5.0-1.78","5c5f525806006e0001db95d2","bdp_lott","Sun Apr 02 2023 18:44:39 GMT-0400 (Eastern Daylight Time)","492174","red","green","","358","","","","choice","","","img/red_lw/choose11.jpg","2","147","red","0.5","0.1","0.5","w","",""
"animation","162","164145","0.0-5.0-2.78","5c5f525806006e0001db95d2","bdp_lott","Sun Apr 02 2023 18:44:39 GMT-0400 (Eastern Daylight Time)","492174","red","green","","","","","","","","","","","147","","","","","","[{""stimulus"":""img/red_lw/1.jpg"",""time"":57},{""stimulus"":""img/red_lw/2.jpg"",""time"":101},{""stimulus"":""img/red_lw/3.jpg"",""time"":158},{""stimulus"":""img/red_lw/4.jpg"",""time"":201},{""stimulus"":""img/red_lw/5.jpg"",""time"":258},{""stimulus"":""img/red_lw/6.jpg"",""time"":305},{""stimulus"":""img/red_lw/7.jpg"",""time"":351},{""stimulus"":""img/red_lw/8.jpg"",""time"":401},{""stimulus"":""img/red_lw/9.jpg"",""time"":451},{""stimulus"":""img/red_lw/10.jpg"",""time"":501},{""stimulus"":""img/red_lw/11.jpg"",""time"":555}]","[]"
"image-keyboard-response","163","164624","0.0-5.0-1.79","5c5f525806006e0001db95d2","bdp_lott","Sun Apr 02 2023 18:44:39 GMT-0400 (Eastern Daylight Time)","492174","red","green","","478","","","","choice","","","img/red_lw/choose11.jpg","2","146","red","0.5","0.1","0.5","l","",""
"animation","164","165225","0.0-5.0-2.79","5c5f525806006e0001db95d2","bdp_lott","Sun Apr 02 2023 18:44:39 GMT-0400 (Eastern Daylight Time)","492174","red","green","","","","","","","","","","","146","","","","","","[{""stimulus"":""img/red_ll/1.jpg"",""time"":60},{""stimulus"":""img/red_ll/2.jpg"",""time"":101},{""stimulus"":""img/red_ll/3.jpg"",""time"":151},{""stimulus"":""img/red_ll/4.jpg"",""time"":202},{""stimulus"":""img/red_ll/5.jpg"",""time"":276},{""stimulus"":""img/red_ll/6.jpg"",""time"":302},{""stimulus"":""img/red_ll/7.jpg"",""time"":359},{""stimulus"":""img/red_ll/8.jpg"",""time"":402},{""stimulus"":""img/red_ll/9.jpg"",""time"":451},{""stimulus"":""img/red_ll/10.jpg"",""time"":501},{""stimulus"":""img/red_ll/11.jpg"",""time"":576}]","[]"
"image-keyboard-response","165","165599","0.0-5.0-1.80","5c5f525806006e0001db95d2","bdp_lott","Sun Apr 02 2023 18:44:39 GMT-0400 (Eastern Daylight Time)","492174","red","green","","374","","","","choice","","","img/red_ll/choose11.jpg","1","145","green","0.5","0.1","0.1","l","",""
"animation","166","166200","0.0-5.0-2.80","5c5f525806006e0001db95d2","bdp_lott","Sun Apr 02 2023 18:44:39 GMT-0400 (Eastern Daylight Time)","492174","red","green","","","","","","","","","","","145","","","","","","[{""stimulus"":""img/green_ll/1.jpg"",""time"":66},{""stimulus"":""img/green_ll/2.jpg"",""time"":101},{""stimulus"":""img/green_ll/3.jpg"",""time"":159},{""stimulus"":""img/green_ll/4.jpg"",""time"":200},{""stimulus"":""img/green_ll/5.jpg"",""time"":252},{""stimulus"":""img/green_ll/6.jpg"",""time"":300},{""stimulus"":""img/green_ll/7.jpg"",""time"":351},{""stimulus"":""img/green_ll/8.jpg"",""time"":401},{""stimulus"":""img/green_ll/9.jpg"",""time"":451},{""stimulus"":""img/green_ll/10.jpg"",""time"":500},{""stimulus"":""img/green_ll/11.jpg"",""time"":552}]","[]"
"image-keyboard-response","167","166753","0.0-5.0-1.81","5c5f525806006e0001db95d2","bdp_lott","Sun Apr 02 2023 18:44:39 GMT-0400 (Eastern Daylight Time)","492174","red","green","","553","","","","choice","","","img/green_ll/choose11.jpg","2","144","red","0.5","0.1","0.5","w","",""
"animation","168","167353","0.0-5.0-2.81","5c5f525806006e0001db95d2","bdp_lott","Sun Apr 02 2023 18:44:39 GMT-0400 (Eastern Daylight Time)","492174","red","green","","","","","","","","","","","144","","","","","","[{""stimulus"":""img/red_lw/1.jpg"",""time"":61},{""stimulus"":""img/red_lw/2.jpg"",""time"":101},{""stimulus"":""img/red_lw/3.jpg"",""time"":151},{""stimulus"":""img/red_lw/4.jpg"",""time"":215},{""stimulus"":""img/red_lw/5.jpg"",""time"":251},{""stimulus"":""img/red_lw/6.jpg"",""time"":302},{""stimulus"":""img/red_lw/7.jpg"",""time"":351},{""stimulus"":""img/red_lw/8.jpg"",""time"":402},{""stimulus"":""img/red_lw/9.jpg"",""time"":451},{""stimulus"":""img/red_lw/10.jpg"",""time"":501},{""stimulus"":""img/red_lw/11.jpg"",""time"":552}]","[]"
"image-keyboard-response","169","167695","0.0-5.0-1.82","5c5f525806006e0001db95d2","bdp_lott","Sun Apr 02 2023 18:44:39 GMT-0400 (Eastern Daylight Time)","492174","red","green","","340","","","","choice","","","img/red_lw/choose11.jpg","2","143","red","0.5","0.1","0.5","w","",""
"animation","170","168296","0.0-5.0-2.82","5c5f525806006e0001db95d2","bdp_lott","Sun Apr 02 2023 18:44:39 GMT-0400 (Eastern Daylight Time)","492174","red","green","","","","","","","","","","","143","","","","","","[{""stimulus"":""img/red_lw/1.jpg"",""time"":53},{""stimulus"":""img/red_lw/2.jpg"",""time"":100},{""stimulus"":""img/red_lw/3.jpg"",""time"":150},{""stimulus"":""img/red_lw/4.jpg"",""time"":201},{""stimulus"":""img/red_lw/5.jpg"",""time"":251},{""stimulus"":""img/red_lw/6.jpg"",""time"":301},{""stimulus"":""img/red_lw/7.jpg"",""time"":351},{""stimulus"":""img/red_lw/8.jpg"",""time"":402},{""stimulus"":""img/red_lw/9.jpg"",""time"":450},{""stimulus"":""img/red_lw/10.jpg"",""time"":500},{""stimulus"":""img/red_lw/11.jpg"",""time"":570}]","[]"
"image-keyboard-response","171","168929","0.0-5.0-1.83","5c5f525806006e0001db95d2","bdp_lott","Sun Apr 02 2023 18:44:39 GMT-0400 (Eastern Daylight Time)","492174","red","green","","633","","","","choice","","","img/red_lw/choose11.jpg","2","142","red","0.5","0.1","0.5","l","",""
"animation","172","169546","0.0-5.0-2.83","5c5f525806006e0001db95d2","bdp_lott","Sun Apr 02 2023 18:44:39 GMT-0400 (Eastern Daylight Time)","492174","red","green","","","","","","","","","","","142","","","","","","[{""stimulus"":""img/red_ll/1.jpg"",""time"":51},{""stimulus"":""img/red_ll/2.jpg"",""time"":100},{""stimulus"":""img/red_ll/3.jpg"",""time"":151},{""stimulus"":""img/red_ll/4.jpg"",""time"":217},{""stimulus"":""img/red_ll/5.jpg"",""time"":264},{""stimulus"":""img/red_ll/6.jpg"",""time"":300},{""stimulus"":""img/red_ll/7.jpg"",""time"":367},{""stimulus"":""img/red_ll/8.jpg"",""time"":401},{""stimulus"":""img/red_ll/9.jpg"",""time"":466},{""stimulus"":""img/red_ll/10.jpg"",""time"":500},{""stimulus"":""img/red_ll/11.jpg"",""time"":559}]","[]"
"image-keyboard-response","173","170041","0.0-5.0-1.84","5c5f525806006e0001db95d2","bdp_lott","Sun Apr 02 2023 18:44:39 GMT-0400 (Eastern Daylight Time)","492174","red","green","","493","","","","choice","","","img/red_ll/choose11.jpg","1","141","green","0.5","0.1","0.1","l","",""
"animation","174","170642","0.0-5.0-2.84","5c5f525806006e0001db95d2","bdp_lott","Sun Apr 02 2023 18:44:39 GMT-0400 (Eastern Daylight Time)","492174","red","green","","","","","","","","","","","141","","","","","","[{""stimulus"":""img/green_ll/1.jpg"",""time"":54},{""stimulus"":""img/green_ll/2.jpg"",""time"":102},{""stimulus"":""img/green_ll/3.jpg"",""time"":151},{""stimulus"":""img/green_ll/4.jpg"",""time"":221},{""stimulus"":""img/green_ll/5.jpg"",""time"":251},{""stimulus"":""img/green_ll/6.jpg"",""time"":305},{""stimulus"":""img/green_ll/7.jpg"",""time"":352},{""stimulus"":""img/green_ll/8.jpg"",""time"":402},{""stimulus"":""img/green_ll/9.jpg"",""time"":451},{""stimulus"":""img/green_ll/10.jpg"",""time"":501},{""stimulus"":""img/green_ll/11.jpg"",""time"":552}]","[]"
"image-keyboard-response","175","173005","0.0-5.0-1.85","5c5f525806006e0001db95d2","bdp_lott","Sun Apr 02 2023 18:44:39 GMT-0400 (Eastern Daylight Time)","492174","red","green","","2363","","","","choice","","","img/green_ll/choose11.jpg","2","140","red","0.5","0.1","0.5","w","",""
"animation","176","173606","0.0-5.0-2.85","5c5f525806006e0001db95d2","bdp_lott","Sun Apr 02 2023 18:44:39 GMT-0400 (Eastern Daylight Time)","492174","red","green","","","","","","","","","","","140","","","","","","[{""stimulus"":""img/red_lw/1.jpg"",""time"":55},{""stimulus"":""img/red_lw/2.jpg"",""time"":102},{""stimulus"":""img/red_lw/3.jpg"",""time"":151},{""stimulus"":""img/red_lw/4.jpg"",""time"":222},{""stimulus"":""img/red_lw/5.jpg"",""time"":251},{""stimulus"":""img/red_lw/6.jpg"",""time"":305},{""stimulus"":""img/red_lw/7.jpg"",""time"":351},{""stimulus"":""img/red_lw/8.jpg"",""time"":402},{""stimulus"":""img/red_lw/9.jpg"",""time"":451},{""stimulus"":""img/red_lw/10.jpg"",""time"":522},{""stimulus"":""img/red_lw/11.jpg"",""time"":551}]","[]"
"image-keyboard-response","177","174011","0.0-5.0-1.86","5c5f525806006e0001db95d2","bdp_lott","Sun Apr 02 2023 18:44:39 GMT-0400 (Eastern Daylight Time)","492174","red","green","","404","","","","choice","","","img/red_lw/choose11.jpg","2","139","red","0.5","0.1","0.5","w","",""
"animation","178","174612","0.0-5.0-2.86","5c5f525806006e0001db95d2","bdp_lott","Sun Apr 02 2023 18:44:39 GMT-0400 (Eastern Daylight Time)","492174","red","green","","","","","","","","","","","139","","","","","","[{""stimulus"":""img/red_lw/1.jpg"",""time"":65},{""stimulus"":""img/red_lw/2.jpg"",""time"":101},{""stimulus"":""img/red_lw/3.jpg"",""time"":152},{""stimulus"":""img/red_lw/4.jpg"",""time"":203},{""stimulus"":""img/red_lw/5.jpg"",""time"":252},{""stimulus"":""img/red_lw/6.jpg"",""time"":311},{""stimulus"":""img/red_lw/7.jpg"",""time"":358},{""stimulus"":""img/red_lw/8.jpg"",""time"":401},{""stimulus"":""img/red_lw/9.jpg"",""time"":451},{""stimulus"":""img/red_lw/10.jpg"",""time"":502},{""stimulus"":""img/red_lw/11.jpg"",""time"":551}]","[]"
"image-keyboard-response","179","177969","0.0-5.0-1.87","5c5f525806006e0001db95d2","bdp_lott","Sun Apr 02 2023 18:44:39 GMT-0400 (Eastern Daylight Time)","492174","red","green","","3357","","","","choice","","","img/red_lw/choose11.jpg","2","138","red","0.5","0.1","0.5","l","",""
"animation","180","178570","0.0-5.0-2.87","5c5f525806006e0001db95d2","bdp_lott","Sun Apr 02 2023 18:44:39 GMT-0400 (Eastern Daylight Time)","492174","red","green","","","","","","","","","","","138","","","","","","[{""stimulus"":""img/red_ll/1.jpg"",""time"":53},{""stimulus"":""img/red_ll/2.jpg"",""time"":102},{""stimulus"":""img/red_ll/3.jpg"",""time"":151},{""stimulus"":""img/red_ll/4.jpg"",""time"":201},{""stimulus"":""img/red_ll/5.jpg"",""time"":251},{""stimulus"":""img/red_ll/6.jpg"",""time"":304},{""stimulus"":""img/red_ll/7.jpg"",""time"":370},{""stimulus"":""img/red_ll/8.jpg"",""time"":402},{""stimulus"":""img/red_ll/9.jpg"",""time"":451},{""stimulus"":""img/red_ll/10.jpg"",""time"":501},{""stimulus"":""img/red_ll/11.jpg"",""time"":551}]","[]"
"image-keyboard-response","181","179449","0.0-5.0-1.88","5c5f525806006e0001db95d2","bdp_lott","Sun Apr 02 2023 18:44:39 GMT-0400 (Eastern Daylight Time)","492174","red","green","","879","","","","choice","","","img/red_ll/choose11.jpg","1","137","green","0.5","0.1","0.1","l","",""
"animation","182","180050","0.0-5.0-2.88","5c5f525806006e0001db95d2","bdp_lott","Sun Apr 02 2023 18:44:39 GMT-0400 (Eastern Daylight Time)","492174","red","green","","","","","","","","","","","137","","","","","","[{""stimulus"":""img/green_ll/1.jpg"",""time"":55},{""stimulus"":""img/green_ll/2.jpg"",""time"":101},{""stimulus"":""img/green_ll/3.jpg"",""time"":173},{""stimulus"":""img/green_ll/4.jpg"",""time"":201},{""stimulus"":""img/green_ll/5.jpg"",""time"":256},{""stimulus"":""img/green_ll/6.jpg"",""time"":302},{""stimulus"":""img/green_ll/7.jpg"",""time"":351},{""stimulus"":""img/green_ll/8.jpg"",""time"":422},{""stimulus"":""img/green_ll/9.jpg"",""time"":451},{""stimulus"":""img/green_ll/10.jpg"",""time"":505},{""stimulus"":""img/green_ll/11.jpg"",""time"":551}]","[]"
"image-keyboard-response","183","180595","0.0-5.0-1.89","5c5f525806006e0001db95d2","bdp_lott","Sun Apr 02 2023 18:44:39 GMT-0400 (Eastern Daylight Time)","492174","red","green","","545","","","","choice","","","img/green_ll/choose11.jpg","2","136","red","0.5","0.1","0.5","l","",""
"animation","184","181196","0.0-5.0-2.89","5c5f525806006e0001db95d2","bdp_lott","Sun Apr 02 2023 18:44:39 GMT-0400 (Eastern Daylight Time)","492174","red","green","","","","","","","","","","","136","","","","","","[{""stimulus"":""img/red_ll/1.jpg"",""time"":57},{""stimulus"":""img/red_ll/2.jpg"",""time"":101},{""stimulus"":""img/red_ll/3.jpg"",""time"":151},{""stimulus"":""img/red_ll/4.jpg"",""time"":201},{""stimulus"":""img/red_ll/5.jpg"",""time"":250},{""stimulus"":""img/red_ll/6.jpg"",""time"":306},{""stimulus"":""img/red_ll/7.jpg"",""time"":350},{""stimulus"":""img/red_ll/8.jpg"",""time"":401},{""stimulus"":""img/red_ll/9.jpg"",""time"":451},{""stimulus"":""img/red_ll/10.jpg"",""time"":508},{""stimulus"":""img/red_ll/11.jpg"",""time"":554}]","[]"
"image-keyboard-response","185","181582","0.0-5.0-1.90","5c5f525806006e0001db95d2","bdp_lott","Sun Apr 02 2023 18:44:39 GMT-0400 (Eastern Daylight Time)","492174","red","green","","385","","","","choice","","","img/red_ll/choose11.jpg","1","135","green","0.5","0.1","0.1","l","",""
"animation","186","182183","0.0-5.0-2.90","5c5f525806006e0001db95d2","bdp_lott","Sun Apr 02 2023 18:44:39 GMT-0400 (Eastern Daylight Time)","492174","red","green","","","","","","","","","","","135","","","","","","[{""stimulus"":""img/green_ll/1.jpg"",""time"":53},{""stimulus"":""img/green_ll/2.jpg"",""time"":101},{""stimulus"":""img/green_ll/3.jpg"",""time"":170},{""stimulus"":""img/green_ll/4.jpg"",""time"":202},{""stimulus"":""img/green_ll/5.jpg"",""time"":251},{""stimulus"":""img/green_ll/6.jpg"",""time"":301},{""stimulus"":""img/green_ll/7.jpg"",""time"":352},{""stimulus"":""img/green_ll/8.jpg"",""time"":421},{""stimulus"":""img/green_ll/9.jpg"",""time"":452},{""stimulus"":""img/green_ll/10.jpg"",""time"":501},{""stimulus"":""img/green_ll/11.jpg"",""time"":551}]","[]"
"image-keyboard-response","187","182678","0.0-5.0-1.91","5c5f525806006e0001db95d2","bdp_lott","Sun Apr 02 2023 18:44:39 GMT-0400 (Eastern Daylight Time)","492174","red","green","","495","","","","choice","","","img/green_ll/choose11.jpg","2","134","red","0.5","0.1","0.5","w","",""
"animation","188","183278","0.0-5.0-2.91","5c5f525806006e0001db95d2","bdp_lott","Sun Apr 02 2023 18:44:39 GMT-0400 (Eastern Daylight Time)","492174","red","green","","","","","","","","","","","134","","","","","","[{""stimulus"":""img/red_lw/1.jpg"",""time"":56},{""stimulus"":""img/red_lw/2.jpg"",""time"":101},{""stimulus"":""img/red_lw/3.jpg"",""time"":173},{""stimulus"":""img/red_lw/4.jpg"",""time"":201},{""stimulus"":""img/red_lw/5.jpg"",""time"":266},{""stimulus"":""img/red_lw/6.jpg"",""time"":301},{""stimulus"":""img/red_lw/7.jpg"",""time"":351},{""stimulus"":""img/red_lw/8.jpg"",""time"":401},{""stimulus"":""img/red_lw/9.jpg"",""time"":452},{""stimulus"":""img/red_lw/10.jpg"",""time"":501},{""stimulus"":""img/red_lw/11.jpg"",""time"":551}]","[]"
"image-keyboard-response","189","183750","0.0-5.0-1.92","5c5f525806006e0001db95d2","bdp_lott","Sun Apr 02 2023 18:44:39 GMT-0400 (Eastern Daylight Time)","492174","red","green","","471","","","","choice","","","img/red_lw/choose11.jpg","2","133","red","0.5","0.1","0.5","w","",""
"animation","190","184351","0.0-5.0-2.92","5c5f525806006e0001db95d2","bdp_lott","Sun Apr 02 2023 18:44:39 GMT-0400 (Eastern Daylight Time)","492174","red","green","","","","","","","","","","","133","","","","","","[{""stimulus"":""img/red_lw/1.jpg"",""time"":51},{""stimulus"":""img/red_lw/2.jpg"",""time"":101},{""stimulus"":""img/red_lw/3.jpg"",""time"":168},{""stimulus"":""img/red_lw/4.jpg"",""time"":201},{""stimulus"":""img/red_lw/5.jpg"",""time"":251},{""stimulus"":""img/red_lw/6.jpg"",""time"":301},{""stimulus"":""img/red_lw/7.jpg"",""time"":351},{""stimulus"":""img/red_lw/8.jpg"",""time"":401},{""stimulus"":""img/red_lw/9.jpg"",""time"":467},{""stimulus"":""img/red_lw/10.jpg"",""time"":501},{""stimulus"":""img/red_lw/11.jpg"",""time"":551}]","[]"
