"trial_type","trial_index","time_elapsed","internal_node_id","subject_id","task","startTime","totalTime","view_history","rt","responses","event","trial","time","trialtype","success","stimulus","key_press","selfOffer","otherOffer","otherLeft","selfAmt","otherAmt","otherDist","chosen"
"pavlovia","0","4","0.0-0.0","5c5f525806006e0001db95d2","bdp_sd","Tue Mar 28 2023 20:25:41 GMT-0400 (Eastern Daylight Time)","340796","","","","","","","","","","","","","","","","",""
"instructions","1","1213","0.0-1.0","5c5f525806006e0001db95d2","bdp_sd","Tue Mar 28 2023 20:25:41 GMT-0400 (Eastern Daylight Time)","340796","[{""page_index"":0,""viewing_time"":1209}]","1209","","","","","","","","","","","","","","",""
"survey-text","2","237950","0.0-2.0","5c5f525806006e0001db95d2","bdp_sd","Tue Mar 28 2023 20:25:41 GMT-0400 (Eastern Daylight Time)","340796","","236735","{""Q0"":""Elif S"",""Q1"":""Tim U"",""Q2"":""Engwari C"",""Q3"":""Lily F"",""Q4"":""Aminta B""}","","","","","","","","","","","","","",""
"","","","","5c5f525806006e0001db95d2","bdp_sd","Tue Mar 28 2023 20:25:41 GMT-0400 (Eastern Daylight Time)","340796","","","","fullscreenenter","3","239424","fullscreenenter","","","","","","","","","",""
"fullscreen","3","240408","0.0-3.0","5c5f525806006e0001db95d2","bdp_sd","Tue Mar 28 2023 20:25:41 GMT-0400 (Eastern Daylight Time)","340796","","","","","","","","true","","","","","","","","",""
"instructions","4","245757","0.0-5.0","5c5f525806006e0001db95d2","bdp_sd","Tue Mar 28 2023 20:25:41 GMT-0400 (Eastern Daylight Time)","340796","[{""page_index"":0,""viewing_time"":1406},{""page_index"":1,""viewing_time"":2950},{""page_index"":2,""viewing_time"":991}]","5348","","","","","","","","","","","","","","",""
"html-keyboard-response","5","246259","0.0-6.0-1.0","5c5f525806006e0001db95d2","bdp_sd","Tue Mar 28 2023 20:25:41 GMT-0400 (Eastern Daylight Time)","340796","","null","","","","","FIX","","<div class='trialBorder'><div class='vertical-center'><img style='vertical-align:center; align:center' src=img/fixation3.jpg></div></div>","null","","","","","","",""
"html-keyboard-response","6","248435","0.0-6.0-2.0","5c5f525806006e0001db95d2","bdp_sd","Tue Mar 28 2023 20:25:41 GMT-0400 (Eastern Daylight Time)","340796","","2174","","","","","offer","","<div class='trialBorder'><div class='vertical-center'><img style='vertical-align:center; align:center' src=img/fixation3.jpg></div><div class='cl'><div class='vertical-center'>$20<br>for<br>yourself</div></div><div class='cr'><div class='vertical-center'>$55<br>for<br>Elif S</div></div><div class='respDivL'><div class='vertical-center'>(E)</div></div><div class='respDivR'><div class='vertical-center'>(I)</div></div></div>","I","$20<br>for<br>yourself","$55<br>for<br>1","0","20","55","1","OTHER"
"html-keyboard-response","7","248688","0.0-6.0-3.0","5c5f525806006e0001db95d2","bdp_sd","Tue Mar 28 2023 20:25:41 GMT-0400 (Eastern Daylight Time)","340796","","null","","","","","offerFB","","<div class='trialBorder'><div class='vertical-center'><img style='vertical-align:center; align:center' src=img/fixation3.jpg></div><div class='cl'><div class='vertical-center'>$20<br>for<br>yourself</div></div><div class='cr'><div class='vertical-center'><font style='color:orange'>$55<br>for<br>Elif S</font></div></div><div class='respDivL'><div class='vertical-center'>(E)</div></div><div class='respDivR'><div class='vertical-center'><font style='color:orange'>(I)</font></div></div></div>","null","$20<br>for<br>yourself","$55<br>for<br>1","0","20","55","1",""
"html-keyboard-response","8","249190","0.0-6.0-1.1","5c5f525806006e0001db95d2","bdp_sd","Tue Mar 28 2023 20:25:41 GMT-0400 (Eastern Daylight Time)","340796","","null","","","","","FIX","","<div class='trialBorder'><div class='vertical-center'><img style='vertical-align:center; align:center' src=img/fixation3.jpg></div></div>","null","","","","","","",""
"html-keyboard-response","9","251347","0.0-6.0-2.1","5c5f525806006e0001db95d2","bdp_sd","Tue Mar 28 2023 20:25:41 GMT-0400 (Eastern Daylight Time)","340796","","2156","","","","","offer","","<div class='trialBorder'><div class='vertical-center'><img style='vertical-align:center; align:center' src=img/fixation3.jpg></div><div class='cl'><div class='vertical-center'>$31<br>for<br>yourself</div></div><div class='cr'><div class='vertical-center'>$85<br>for<br>Elif S</div></div><div class='respDivL'><div class='vertical-center'>(E)</div></div><div class='respDivR'><div class='vertical-center'>(I)</div></div></div>","I","$31<br>for<br>yourself","$85<br>for<br>1","0","31","85","1","OTHER"
"html-keyboard-response","10","251599","0.0-6.0-3.1","5c5f525806006e0001db95d2","bdp_sd","Tue Mar 28 2023 20:25:41 GMT-0400 (Eastern Daylight Time)","340796","","null","","","","","offerFB","","<div class='trialBorder'><div class='vertical-center'><img style='vertical-align:center; align:center' src=img/fixation3.jpg></div><div class='cl'><div class='vertical-center'>$31<br>for<br>yourself</div></div><div class='cr'><div class='vertical-center'><font style='color:orange'>$85<br>for<br>Elif S</font></div></div><div class='respDivL'><div class='vertical-center'>(E)</div></div><div class='respDivR'><div class='vertical-center'><font style='color:orange'>(I)</font></div></div></div>","null","$31<br>for<br>yourself","$85<br>for<br>1","0","31","85","1",""
"html-keyboard-response","11","252101","0.0-6.0-1.2","5c5f525806006e0001db95d2","bdp_sd","Tue Mar 28 2023 20:25:41 GMT-0400 (Eastern Daylight Time)","340796","","null","","","","","FIX","","<div class='trialBorder'><div class='vertical-center'><img style='vertical-align:center; align:center' src=img/fixation3.jpg></div></div>","null","","","","","","",""
"html-keyboard-response","12","255984","0.0-6.0-2.2","5c5f525806006e0001db95d2","bdp_sd","Tue Mar 28 2023 20:25:41 GMT-0400 (Eastern Daylight Time)","340796","","3881","","","","","offer","","<div class='trialBorder'><div class='vertical-center'><img style='vertical-align:center; align:center' src=img/fixation3.jpg></div><div class='cl'><div class='vertical-center'>$60<br>for<br>Lily F</div></div><div class='cr'><div class='vertical-center'>$49<br>for<br>yourself</div></div><div class='respDivL'><div class='vertical-center'>(E)</div></div><div class='respDivR'><div class='vertical-center'>(I)</div></div></div>","I","$49<br>for<br>yourself","$60<br>for<br>4","1","49","60","4","SELF"
"html-keyboard-response","13","256236","0.0-6.0-3.2","5c5f525806006e0001db95d2","bdp_sd","Tue Mar 28 2023 20:25:41 GMT-0400 (Eastern Daylight Time)","340796","","null","","","","","offerFB","","<div class='trialBorder'><div class='vertical-center'><img style='vertical-align:center; align:center' src=img/fixation3.jpg></div><div class='cl'><div class='vertical-center'>$60<br>for<br>Lily F</div></div><div class='cr'><div class='vertical-center'><font style='color:orange'>$49<br>for<br>yourself</font></div></div><div class='respDivL'><div class='vertical-center'>(E)</div></div><div class='respDivR'><div class='vertical-center'><font style='color:orange'>(I)</font></div></div></div>","null","$49<br>for<br>yourself","$60<br>for<br>4","1","49","60","4",""
"html-keyboard-response","14","256738","0.0-6.0-1.3","5c5f525806006e0001db95d2","bdp_sd","Tue Mar 28 2023 20:25:41 GMT-0400 (Eastern Daylight Time)","340796","","null","","","","","FIX","","<div class='trialBorder'><div class='vertical-center'><img style='vertical-align:center; align:center' src=img/fixation3.jpg></div></div>","null","","","","","","",""
"html-keyboard-response","15","258679","0.0-6.0-2.3","5c5f525806006e0001db95d2","bdp_sd","Tue Mar 28 2023 20:25:41 GMT-0400 (Eastern Daylight Time)","340796","","1940","","","","","offer","","<div class='trialBorder'><div class='vertical-center'><img style='vertical-align:center; align:center' src=img/fixation3.jpg></div><div class='cl'><div class='vertical-center'>$30<br>for<br>Aminta B</div></div><div class='cr'><div class='vertical-center'>$28<br>for<br>yourself</div></div><div class='respDivL'><div class='vertical-center'>(E)</div></div><div class='respDivR'><div class='vertical-center'>(I)</div></div></div>","I","$28<br>for<br>yourself","$30<br>for<br>5","1","28","30","5","SELF"
"html-keyboard-response","16","258930","0.0-6.0-3.3","5c5f525806006e0001db95d2","bdp_sd","Tue Mar 28 2023 20:25:41 GMT-0400 (Eastern Daylight Time)","340796","","null","","","","","offerFB","","<div class='trialBorder'><div class='vertical-center'><img style='vertical-align:center; align:center' src=img/fixation3.jpg></div><div class='cl'><div class='vertical-center'>$30<br>for<br>Aminta B</div></div><div class='cr'><div class='vertical-center'><font style='color:orange'>$28<br>for<br>yourself</font></div></div><div class='respDivL'><div class='vertical-center'>(E)</div></div><div class='respDivR'><div class='vertical-center'><font style='color:orange'>(I)</font></div></div></div>","null","$28<br>for<br>yourself","$30<br>for<br>5","1","28","30","5",""
"html-keyboard-response","17","259431","0.0-6.0-1.4","5c5f525806006e0001db95d2","bdp_sd","Tue Mar 28 2023 20:25:41 GMT-0400 (Eastern Daylight Time)","340796","","null","","","","","FIX","","<div class='trialBorder'><div class='vertical-center'><img style='vertical-align:center; align:center' src=img/fixation3.jpg></div></div>","null","","","","","","",""
"html-keyboard-response","18","260897","0.0-6.0-2.4","5c5f525806006e0001db95d2","bdp_sd","Tue Mar 28 2023 20:25:41 GMT-0400 (Eastern Daylight Time)","340796","","1465","","","","","offer","","<div class='trialBorder'><div class='vertical-center'><img style='vertical-align:center; align:center' src=img/fixation3.jpg></div><div class='cl'><div class='vertical-center'>$85<br>for<br>Aminta B</div></div><div class='cr'><div class='vertical-center'>$80<br>for<br>yourself</div></div><div class='respDivL'><div class='vertical-center'>(E)</div></div><div class='respDivR'><div class='vertical-center'>(I)</div></div></div>","I","$80<br>for<br>yourself","$85<br>for<br>5","1","80","85","5","SELF"
"html-keyboard-response","19","261148","0.0-6.0-3.4","5c5f525806006e0001db95d2","bdp_sd","Tue Mar 28 2023 20:25:41 GMT-0400 (Eastern Daylight Time)","340796","","null","","","","","offerFB","","<div class='trialBorder'><div class='vertical-center'><img style='vertical-align:center; align:center' src=img/fixation3.jpg></div><div class='cl'><div class='vertical-center'>$85<br>for<br>Aminta B</div></div><div class='cr'><div class='vertical-center'><font style='color:orange'>$80<br>for<br>yourself</font></div></div><div class='respDivL'><div class='vertical-center'>(E)</div></div><div class='respDivR'><div class='vertical-center'><font style='color:orange'>(I)</font></div></div></div>","null","$80<br>for<br>yourself","$85<br>for<br>5","1","80","85","5",""
"html-keyboard-response","20","261650","0.0-6.0-1.5","5c5f525806006e0001db95d2","bdp_sd","Tue Mar 28 2023 20:25:41 GMT-0400 (Eastern Daylight Time)","340796","","null","","","","","FIX","","<div class='trialBorder'><div class='vertical-center'><img style='vertical-align:center; align:center' src=img/fixation3.jpg></div></div>","null","","","","","","",""
"html-keyboard-response","21","263202","0.0-6.0-2.5","5c5f525806006e0001db95d2","bdp_sd","Tue Mar 28 2023 20:25:41 GMT-0400 (Eastern Daylight Time)","340796","","1550","","","","","offer","","<div class='trialBorder'><div class='vertical-center'><img style='vertical-align:center; align:center' src=img/fixation3.jpg></div><div class='cl'><div class='vertical-center'>$60<br>for<br>Aminta B</div></div><div class='cr'><div class='vertical-center'>$54<br>for<br>yourself</div></div><div class='respDivL'><div class='vertical-center'>(E)</div></div><div class='respDivR'><div class='vertical-center'>(I)</div></div></div>","I","$54<br>for<br>yourself","$60<br>for<br>5","1","54","60","5","SELF"
"html-keyboard-response","22","263454","0.0-6.0-3.5","5c5f525806006e0001db95d2","bdp_sd","Tue Mar 28 2023 20:25:41 GMT-0400 (Eastern Daylight Time)","340796","","null","","","","","offerFB","","<div class='trialBorder'><div class='vertical-center'><img style='vertical-align:center; align:center' src=img/fixation3.jpg></div><div class='cl'><div class='vertical-center'>$60<br>for<br>Aminta B</div></div><div class='cr'><div class='vertical-center'><font style='color:orange'>$54<br>for<br>yourself</font></div></div><div class='respDivL'><div class='vertical-center'>(E)</div></div><div class='respDivR'><div class='vertical-center'><font style='color:orange'>(I)</font></div></div></div>","null","$54<br>for<br>yourself","$60<br>for<br>5","1","54","60","5",""
"html-keyboard-response","23","263956","0.0-6.0-1.6","5c5f525806006e0001db95d2","bdp_sd","Tue Mar 28 2023 20:25:41 GMT-0400 (Eastern Daylight Time)","340796","","null","","","","","FIX","","<div class='trialBorder'><div class='vertical-center'><img style='vertical-align:center; align:center' src=img/fixation3.jpg></div></div>","null","","","","","","",""
"html-keyboard-response","24","266607","0.0-6.0-2.6","5c5f525806006e0001db95d2","bdp_sd","Tue Mar 28 2023 20:25:41 GMT-0400 (Eastern Daylight Time)","340796","","2650","","","","","offer","","<div class='trialBorder'><div class='vertical-center'><img style='vertical-align:center; align:center' src=img/fixation3.jpg></div><div class='cl'><div class='vertical-center'>$75<br>for<br>Engwari C</div></div><div class='cr'><div class='vertical-center'>$41<br>for<br>yourself</div></div><div class='respDivL'><div class='vertical-center'>(E)</div></div><div class='respDivR'><div class='vertical-center'>(I)</div></div></div>","E","$41<br>for<br>yourself","$75<br>for<br>3","1","41","75","3","OTHER"
"html-keyboard-response","25","266860","0.0-6.0-3.6","5c5f525806006e0001db95d2","bdp_sd","Tue Mar 28 2023 20:25:41 GMT-0400 (Eastern Daylight Time)","340796","","null","","","","","offerFB","","<div class='trialBorder'><div class='vertical-center'><img style='vertical-align:center; align:center' src=img/fixation3.jpg></div><div class='cl'><div class='vertical-center'><font style='color:orange'>$75<br>for<br>Engwari C</font></div></div><div class='cr'><div class='vertical-center'>$41<br>for<br>yourself</div></div><div class='respDivL'><div class='vertical-center'><font style='color:orange'>(E)</font></div></div><div class='respDivR'><div class='vertical-center'>(I)</div></div></div>","null","$41<br>for<br>yourself","$75<br>for<br>3","1","41","75","3",""
"html-keyboard-response","26","267361","0.0-6.0-1.7","5c5f525806006e0001db95d2","bdp_sd","Tue Mar 28 2023 20:25:41 GMT-0400 (Eastern Daylight Time)","340796","","null","","","","","FIX","","<div class='trialBorder'><div class='vertical-center'><img style='vertical-align:center; align:center' src=img/fixation3.jpg></div></div>","null","","","","","","",""
"html-keyboard-response","27","270430","0.0-6.0-2.7","5c5f525806006e0001db95d2","bdp_sd","Tue Mar 28 2023 20:25:41 GMT-0400 (Eastern Daylight Time)","340796","","3068","","","","","offer","","<div class='trialBorder'><div class='vertical-center'><img style='vertical-align:center; align:center' src=img/fixation3.jpg></div><div class='cl'><div class='vertical-center'>$35<br>for<br>Tim U</div></div><div class='cr'><div class='vertical-center'>$15<br>for<br>yourself</div></div><div class='respDivL'><div class='vertical-center'>(E)</div></div><div class='respDivR'><div class='vertical-center'>(I)</div></div></div>","E","$15<br>for<br>yourself","$35<br>for<br>2","1","15","35","2","OTHER"
"html-keyboard-response","28","270684","0.0-6.0-3.7","5c5f525806006e0001db95d2","bdp_sd","Tue Mar 28 2023 20:25:41 GMT-0400 (Eastern Daylight Time)","340796","","null","","","","","offerFB","","<div class='trialBorder'><div class='vertical-center'><img style='vertical-align:center; align:center' src=img/fixation3.jpg></div><div class='cl'><div class='vertical-center'><font style='color:orange'>$35<br>for<br>Tim U</font></div></div><div class='cr'><div class='vertical-center'>$15<br>for<br>yourself</div></div><div class='respDivL'><div class='vertical-center'><font style='color:orange'>(E)</font></div></div><div class='respDivR'><div class='vertical-center'>(I)</div></div></div>","null","$15<br>for<br>yourself","$35<br>for<br>2","1","15","35","2",""
"html-keyboard-response","29","271186","0.0-6.0-1.8","5c5f525806006e0001db95d2","bdp_sd","Tue Mar 28 2023 20:25:41 GMT-0400 (Eastern Daylight Time)","340796","","null","","","","","FIX","","<div class='trialBorder'><div class='vertical-center'><img style='vertical-align:center; align:center' src=img/fixation3.jpg></div></div>","null","","","","","","",""
"html-keyboard-response","30","272845","0.0-6.0-2.8","5c5f525806006e0001db95d2","bdp_sd","Tue Mar 28 2023 20:25:41 GMT-0400 (Eastern Daylight Time)","340796","","1659","","","","","offer","","<div class='trialBorder'><div class='vertical-center'><img style='vertical-align:center; align:center' src=img/fixation3.jpg></div><div class='cl'><div class='vertical-center'>$55<br>for<br>Aminta B</div></div><div class='cr'><div class='vertical-center'>$54<br>for<br>yourself</div></div><div class='respDivL'><div class='vertical-center'>(E)</div></div><div class='respDivR'><div class='vertical-center'>(I)</div></div></div>","I","$54<br>for<br>yourself","$55<br>for<br>5","1","54","55","5","SELF"
"html-keyboard-response","31","273098","0.0-6.0-3.8","5c5f525806006e0001db95d2","bdp_sd","Tue Mar 28 2023 20:25:41 GMT-0400 (Eastern Daylight Time)","340796","","null","","","","","offerFB","","<div class='trialBorder'><div class='vertical-center'><img style='vertical-align:center; align:center' src=img/fixation3.jpg></div><div class='cl'><div class='vertical-center'>$55<br>for<br>Aminta B</div></div><div class='cr'><div class='vertical-center'><font style='color:orange'>$54<br>for<br>yourself</font></div></div><div class='respDivL'><div class='vertical-center'>(E)</div></div><div class='respDivR'><div class='vertical-center'><font style='color:orange'>(I)</font></div></div></div>","null","$54<br>for<br>yourself","$55<br>for<br>5","1","54","55","5",""
"html-keyboard-response","32","273600","0.0-6.0-1.9","5c5f525806006e0001db95d2","bdp_sd","Tue Mar 28 2023 20:25:41 GMT-0400 (Eastern Daylight Time)","340796","","null","","","","","FIX","","<div class='trialBorder'><div class='vertical-center'><img style='vertical-align:center; align:center' src=img/fixation3.jpg></div></div>","null","","","","","","",""
"html-keyboard-response","33","275414","0.0-6.0-2.9","5c5f525806006e0001db95d2","bdp_sd","Tue Mar 28 2023 20:25:41 GMT-0400 (Eastern Daylight Time)","340796","","1813","","","","","offer","","<div class='trialBorder'><div class='vertical-center'><img style='vertical-align:center; align:center' src=img/fixation3.jpg></div><div class='cl'><div class='vertical-center'>$27<br>for<br>yourself</div></div><div class='cr'><div class='vertical-center'>$50<br>for<br>Engwari C</div></div><div class='respDivL'><div class='vertical-center'>(E)</div></div><div class='respDivR'><div class='vertical-center'>(I)</div></div></div>","I","$27<br>for<br>yourself","$50<br>for<br>3","0","27","50","3","OTHER"
"html-keyboard-response","34","275667","0.0-6.0-3.9","5c5f525806006e0001db95d2","bdp_sd","Tue Mar 28 2023 20:25:41 GMT-0400 (Eastern Daylight Time)","340796","","null","","","","","offerFB","","<div class='trialBorder'><div class='vertical-center'><img style='vertical-align:center; align:center' src=img/fixation3.jpg></div><div class='cl'><div class='vertical-center'>$27<br>for<br>yourself</div></div><div class='cr'><div class='vertical-center'><font style='color:orange'>$50<br>for<br>Engwari C</font></div></div><div class='respDivL'><div class='vertical-center'>(E)</div></div><div class='respDivR'><div class='vertical-center'><font style='color:orange'>(I)</font></div></div></div>","null","$27<br>for<br>yourself","$50<br>for<br>3","0","27","50","3",""
"html-keyboard-response","35","276168","0.0-6.0-1.10","5c5f525806006e0001db95d2","bdp_sd","Tue Mar 28 2023 20:25:41 GMT-0400 (Eastern Daylight Time)","340796","","null","","","","","FIX","","<div class='trialBorder'><div class='vertical-center'><img style='vertical-align:center; align:center' src=img/fixation3.jpg></div></div>","null","","","","","","",""
"html-keyboard-response","36","277970","0.0-6.0-2.10","5c5f525806006e0001db95d2","bdp_sd","Tue Mar 28 2023 20:25:41 GMT-0400 (Eastern Daylight Time)","340796","","1801","","","","","offer","","<div class='trialBorder'><div class='vertical-center'><img style='vertical-align:center; align:center' src=img/fixation3.jpg></div><div class='cl'><div class='vertical-center'>$11<br>for<br>yourself</div></div><div class='cr'><div class='vertical-center'>$30<br>for<br>Tim U</div></div><div class='respDivL'><div class='vertical-center'>(E)</div></div><div class='respDivR'><div class='vertical-center'>(I)</div></div></div>","I","$11<br>for<br>yourself","$30<br>for<br>2","0","11","30","2","OTHER"
"html-keyboard-response","37","278221","0.0-6.0-3.10","5c5f525806006e0001db95d2","bdp_sd","Tue Mar 28 2023 20:25:41 GMT-0400 (Eastern Daylight Time)","340796","","null","","","","","offerFB","","<div class='trialBorder'><div class='vertical-center'><img style='vertical-align:center; align:center' src=img/fixation3.jpg></div><div class='cl'><div class='vertical-center'>$11<br>for<br>yourself</div></div><div class='cr'><div class='vertical-center'><font style='color:orange'>$30<br>for<br>Tim U</font></div></div><div class='respDivL'><div class='vertical-center'>(E)</div></div><div class='respDivR'><div class='vertical-center'><font style='color:orange'>(I)</font></div></div></div>","null","$11<br>for<br>yourself","$30<br>for<br>2","0","11","30","2",""
"html-keyboard-response","38","278723","0.0-6.0-1.11","5c5f525806006e0001db95d2","bdp_sd","Tue Mar 28 2023 20:25:41 GMT-0400 (Eastern Daylight Time)","340796","","null","","","","","FIX","","<div class='trialBorder'><div class='vertical-center'><img style='vertical-align:center; align:center' src=img/fixation3.jpg></div></div>","null","","","","","","",""
"html-keyboard-response","39","280781","0.0-6.0-2.11","5c5f525806006e0001db95d2","bdp_sd","Tue Mar 28 2023 20:25:41 GMT-0400 (Eastern Daylight Time)","340796","","2057","","","","","offer","","<div class='trialBorder'><div class='vertical-center'><img style='vertical-align:center; align:center' src=img/fixation3.jpg></div><div class='cl'><div class='vertical-center'>$19<br>for<br>yourself</div></div><div class='cr'><div class='vertical-center'>$25<br>for<br>Lily F</div></div><div class='respDivL'><div class='vertical-center'>(E)</div></div><div class='respDivR'><div class='vertical-center'>(I)</div></div></div>","E","$19<br>for<br>yourself","$25<br>for<br>4","0","19","25","4","SELF"
"html-keyboard-response","40","281033","0.0-6.0-3.11","5c5f525806006e0001db95d2","bdp_sd","Tue Mar 28 2023 20:25:41 GMT-0400 (Eastern Daylight Time)","340796","","null","","","","","offerFB","","<div class='trialBorder'><div class='vertical-center'><img style='vertical-align:center; align:center' src=img/fixation3.jpg></div><div class='cl'><div class='vertical-center'><font style='color:orange'>$19<br>for<br>yourself</font></div></div><div class='cr'><div class='vertical-center'>$25<br>for<br>Lily F</div></div><div class='respDivL'><div class='vertical-center'><font style='color:orange'>(E)</font></div></div><div class='respDivR'><div class='vertical-center'>(I)</div></div></div>","null","$19<br>for<br>yourself","$25<br>for<br>4","0","19","25","4",""
"html-keyboard-response","41","281535","0.0-6.0-1.12","5c5f525806006e0001db95d2","bdp_sd","Tue Mar 28 2023 20:25:41 GMT-0400 (Eastern Daylight Time)","340796","","null","","","","","FIX","","<div class='trialBorder'><div class='vertical-center'><img style='vertical-align:center; align:center' src=img/fixation3.jpg></div></div>","null","","","","","","",""
"html-keyboard-response","42","284210","0.0-6.0-2.12","5c5f525806006e0001db95d2","bdp_sd","Tue Mar 28 2023 20:25:41 GMT-0400 (Eastern Daylight Time)","340796","","2674","","","","","offer","","<div class='trialBorder'><div class='vertical-center'><img style='vertical-align:center; align:center' src=img/fixation3.jpg></div><div class='cl'><div class='vertical-center'>$25<br>for<br>Engwari C</div></div><div class='cr'><div class='vertical-center'>$14<br>for<br>yourself</div></div><div class='respDivL'><div class='vertical-center'>(E)</div></div><div class='respDivR'><div class='vertical-center'>(I)</div></div></div>","E","$14<br>for<br>yourself","$25<br>for<br>3","1","14","25","3","OTHER"
"html-keyboard-response","43","284462","0.0-6.0-3.12","5c5f525806006e0001db95d2","bdp_sd","Tue Mar 28 2023 20:25:41 GMT-0400 (Eastern Daylight Time)","340796","","null","","","","","offerFB","","<div class='trialBorder'><div class='vertical-center'><img style='vertical-align:center; align:center' src=img/fixation3.jpg></div><div class='cl'><div class='vertical-center'><font style='color:orange'>$25<br>for<br>Engwari C</font></div></div><div class='cr'><div class='vertical-center'>$14<br>for<br>yourself</div></div><div class='respDivL'><div class='vertical-center'><font style='color:orange'>(E)</font></div></div><div class='respDivR'><div class='vertical-center'>(I)</div></div></div>","null","$14<br>for<br>yourself","$25<br>for<br>3","1","14","25","3",""
"html-keyboard-response","44","284964","0.0-6.0-1.13","5c5f525806006e0001db95d2","bdp_sd","Tue Mar 28 2023 20:25:41 GMT-0400 (Eastern Daylight Time)","340796","","null","","","","","FIX","","<div class='trialBorder'><div class='vertical-center'><img style='vertical-align:center; align:center' src=img/fixation3.jpg></div></div>","null","","","","","","",""
"html-keyboard-response","45","288453","0.0-6.0-2.13","5c5f525806006e0001db95d2","bdp_sd","Tue Mar 28 2023 20:25:41 GMT-0400 (Eastern Daylight Time)","340796","","3488","","","","","offer","","<div class='trialBorder'><div class='vertical-center'><img style='vertical-align:center; align:center' src=img/fixation3.jpg></div><div class='cl'><div class='vertical-center'>$34<br>for<br>yourself</div></div><div class='cr'><div class='vertical-center'>$35<br>for<br>Aminta B</div></div><div class='respDivL'><div class='vertical-center'>(E)</div></div><div class='respDivR'><div class='vertical-center'>(I)</div></div></div>","E","$34<br>for<br>yourself","$35<br>for<br>5","0","34","35","5","SELF"
"html-keyboard-response","46","288707","0.0-6.0-3.13","5c5f525806006e0001db95d2","bdp_sd","Tue Mar 28 2023 20:25:41 GMT-0400 (Eastern Daylight Time)","340796","","null","","","","","offerFB","","<div class='trialBorder'><div class='vertical-center'><img style='vertical-align:center; align:center' src=img/fixation3.jpg></div><div class='cl'><div class='vertical-center'><font style='color:orange'>$34<br>for<br>yourself</font></div></div><div class='cr'><div class='vertical-center'>$35<br>for<br>Aminta B</div></div><div class='respDivL'><div class='vertical-center'><font style='color:orange'>(E)</font></div></div><div class='respDivR'><div class='vertical-center'>(I)</div></div></div>","null","$34<br>for<br>yourself","$35<br>for<br>5","0","34","35","5",""
"html-keyboard-response","47","289208","0.0-6.0-1.14","5c5f525806006e0001db95d2","bdp_sd","Tue Mar 28 2023 20:25:41 GMT-0400 (Eastern Daylight Time)","340796","","null","","","","","FIX","","<div class='trialBorder'><div class='vertical-center'><img style='vertical-align:center; align:center' src=img/fixation3.jpg></div></div>","null","","","","","","",""
"html-keyboard-response","48","291179","0.0-6.0-2.14","5c5f525806006e0001db95d2","bdp_sd","Tue Mar 28 2023 20:25:41 GMT-0400 (Eastern Daylight Time)","340796","","1969","","","","","offer","","<div class='trialBorder'><div class='vertical-center'><img style='vertical-align:center; align:center' src=img/fixation3.jpg></div><div class='cl'><div class='vertical-center'>$80<br>for<br>Tim U</div></div><div class='cr'><div class='vertical-center'>$33<br>for<br>yourself</div></div><div class='respDivL'><div class='vertical-center'>(E)</div></div><div class='respDivR'><div class='vertical-center'>(I)</div></div></div>","E","$33<br>for<br>yourself","$80<br>for<br>2","1","33","80","2","OTHER"
"html-keyboard-response","49","291430","0.0-6.0-3.14","5c5f525806006e0001db95d2","bdp_sd","Tue Mar 28 2023 20:25:41 GMT-0400 (Eastern Daylight Time)","340796","","null","","","","","offerFB","","<div class='trialBorder'><div class='vertical-center'><img style='vertical-align:center; align:center' src=img/fixation3.jpg></div><div class='cl'><div class='vertical-center'><font style='color:orange'>$80<br>for<br>Tim U</font></div></div><div class='cr'><div class='vertical-center'>$33<br>for<br>yourself</div></div><div class='respDivL'><div class='vertical-center'><font style='color:orange'>(E)</font></div></div><div class='respDivR'><div class='vertical-center'>(I)</div></div></div>","null","$33<br>for<br>yourself","$80<br>for<br>2","1","33","80","2",""
"html-keyboard-response","50","291932","0.0-6.0-1.15","5c5f525806006e0001db95d2","bdp_sd","Tue Mar 28 2023 20:25:41 GMT-0400 (Eastern Daylight Time)","340796","","null","","","","","FIX","","<div class='trialBorder'><div class='vertical-center'><img style='vertical-align:center; align:center' src=img/fixation3.jpg></div></div>","null","","","","","","",""
"html-keyboard-response","51","294500","0.0-6.0-2.15","5c5f525806006e0001db95d2","bdp_sd","Tue Mar 28 2023 20:25:41 GMT-0400 (Eastern Daylight Time)","340796","","2566","","","","","offer","","<div class='trialBorder'><div class='vertical-center'><img style='vertical-align:center; align:center' src=img/fixation3.jpg></div><div class='cl'><div class='vertical-center'>$22<br>for<br>yourself</div></div><div class='cr'><div class='vertical-center'>$25<br>for<br>Aminta B</div></div><div class='respDivL'><div class='vertical-center'>(E)</div></div><div class='respDivR'><div class='vertical-center'>(I)</div></div></div>","E","$22<br>for<br>yourself","$25<br>for<br>5","0","22","25","5","SELF"
"html-keyboard-response","52","294752","0.0-6.0-3.15","5c5f525806006e0001db95d2","bdp_sd","Tue Mar 28 2023 20:25:41 GMT-0400 (Eastern Daylight Time)","340796","","null","","","","","offerFB","","<div class='trialBorder'><div class='vertical-center'><img style='vertical-align:center; align:center' src=img/fixation3.jpg></div><div class='cl'><div class='vertical-center'><font style='color:orange'>$22<br>for<br>yourself</font></div></div><div class='cr'><div class='vertical-center'>$25<br>for<br>Aminta B</div></div><div class='respDivL'><div class='vertical-center'><font style='color:orange'>(E)</font></div></div><div class='respDivR'><div class='vertical-center'>(I)</div></div></div>","null","$22<br>for<br>yourself","$25<br>for<br>5","0","22","25","5",""
"html-keyboard-response","53","295253","0.0-6.0-1.16","5c5f525806006e0001db95d2","bdp_sd","Tue Mar 28 2023 20:25:41 GMT-0400 (Eastern Daylight Time)","340796","","null","","","","","FIX","","<div class='trialBorder'><div class='vertical-center'><img style='vertical-align:center; align:center' src=img/fixation3.jpg></div></div>","null","","","","","","",""
"html-keyboard-response","54","297323","0.0-6.0-2.16","5c5f525806006e0001db95d2","bdp_sd","Tue Mar 28 2023 20:25:41 GMT-0400 (Eastern Daylight Time)","340796","","2068","","","","","offer","","<div class='trialBorder'><div class='vertical-center'><img style='vertical-align:center; align:center' src=img/fixation3.jpg></div><div class='cl'><div class='vertical-center'>$25<br>for<br>yourself</div></div><div class='cr'><div class='vertical-center'>$60<br>for<br>Engwari C</div></div><div class='respDivL'><div class='vertical-center'>(E)</div></div><div class='respDivR'><div class='vertical-center'>(I)</div></div></div>","I","$25<br>for<br>yourself","$60<br>for<br>3","0","25","60","3","OTHER"
"html-keyboard-response","55","297576","0.0-6.0-3.16","5c5f525806006e0001db95d2","bdp_sd","Tue Mar 28 2023 20:25:41 GMT-0400 (Eastern Daylight Time)","340796","","null","","","","","offerFB","","<div class='trialBorder'><div class='vertical-center'><img style='vertical-align:center; align:center' src=img/fixation3.jpg></div><div class='cl'><div class='vertical-center'>$25<br>for<br>yourself</div></div><div class='cr'><div class='vertical-center'><font style='color:orange'>$60<br>for<br>Engwari C</font></div></div><div class='respDivL'><div class='vertical-center'>(E)</div></div><div class='respDivR'><div class='vertical-center'><font style='color:orange'>(I)</font></div></div></div>","null","$25<br>for<br>yourself","$60<br>for<br>3","0","25","60","3",""
"html-keyboard-response","56","298078","0.0-6.0-1.17","5c5f525806006e0001db95d2","bdp_sd","Tue Mar 28 2023 20:25:41 GMT-0400 (Eastern Daylight Time)","340796","","null","","","","","FIX","","<div class='trialBorder'><div class='vertical-center'><img style='vertical-align:center; align:center' src=img/fixation3.jpg></div></div>","null","","","","","","",""
"html-keyboard-response","57","300285","0.0-6.0-2.17","5c5f525806006e0001db95d2","bdp_sd","Tue Mar 28 2023 20:25:41 GMT-0400 (Eastern Daylight Time)","340796","","2206","","","","","offer","","<div class='trialBorder'><div class='vertical-center'><img style='vertical-align:center; align:center' src=img/fixation3.jpg></div><div class='cl'><div class='vertical-center'>$25<br>for<br>yourself</div></div><div class='cr'><div class='vertical-center'>$30<br>for<br>Lily F</div></div><div class='respDivL'><div class='vertical-center'>(E)</div></div><div class='respDivR'><div class='vertical-center'>(I)</div></div></div>","E","$25<br>for<br>yourself","$30<br>for<br>4","0","25","30","4","SELF"
"html-keyboard-response","58","300537","0.0-6.0-3.17","5c5f525806006e0001db95d2","bdp_sd","Tue Mar 28 2023 20:25:41 GMT-0400 (Eastern Daylight Time)","340796","","null","","","","","offerFB","","<div class='trialBorder'><div class='vertical-center'><img style='vertical-align:center; align:center' src=img/fixation3.jpg></div><div class='cl'><div class='vertical-center'><font style='color:orange'>$25<br>for<br>yourself</font></div></div><div class='cr'><div class='vertical-center'>$30<br>for<br>Lily F</div></div><div class='respDivL'><div class='vertical-center'><font style='color:orange'>(E)</font></div></div><div class='respDivR'><div class='vertical-center'>(I)</div></div></div>","null","$25<br>for<br>yourself","$30<br>for<br>4","0","25","30","4",""
"html-keyboard-response","59","301040","0.0-6.0-1.18","5c5f525806006e0001db95d2","bdp_sd","Tue Mar 28 2023 20:25:41 GMT-0400 (Eastern Daylight Time)","340796","","null","","","","","FIX","","<div class='trialBorder'><div class='vertical-center'><img style='vertical-align:center; align:center' src=img/fixation3.jpg></div></div>","null","","","","","","",""
"html-keyboard-response","60","304956","0.0-6.0-2.18","5c5f525806006e0001db95d2","bdp_sd","Tue Mar 28 2023 20:25:41 GMT-0400 (Eastern Daylight Time)","340796","","3916","","","","","offer","","<div class='trialBorder'><div class='vertical-center'><img style='vertical-align:center; align:center' src=img/fixation3.jpg></div><div class='cl'><div class='vertical-center'>$50<br>for<br>Lily F</div></div><div class='cr'><div class='vertical-center'>$34<br>for<br>yourself</div></div><div class='respDivL'><div class='vertical-center'>(E)</div></div><div class='respDivR'><div class='vertical-center'>(I)</div></div></div>","I","$34<br>for<br>yourself","$50<br>for<br>4","1","34","50","4","SELF"
"html-keyboard-response","61","305208","0.0-6.0-3.18","5c5f525806006e0001db95d2","bdp_sd","Tue Mar 28 2023 20:25:41 GMT-0400 (Eastern Daylight Time)","340796","","null","","","","","offerFB","","<div class='trialBorder'><div class='vertical-center'><img style='vertical-align:center; align:center' src=img/fixation3.jpg></div><div class='cl'><div class='vertical-center'>$50<br>for<br>Lily F</div></div><div class='cr'><div class='vertical-center'><font style='color:orange'>$34<br>for<br>yourself</font></div></div><div class='respDivL'><div class='vertical-center'>(E)</div></div><div class='respDivR'><div class='vertical-center'><font style='color:orange'>(I)</font></div></div></div>","null","$34<br>for<br>yourself","$50<br>for<br>4","1","34","50","4",""
"html-keyboard-response","62","305710","0.0-6.0-1.19","5c5f525806006e0001db95d2","bdp_sd","Tue Mar 28 2023 20:25:41 GMT-0400 (Eastern Daylight Time)","340796","","null","","","","","FIX","","<div class='trialBorder'><div class='vertical-center'><img style='vertical-align:center; align:center' src=img/fixation3.jpg></div></div>","null","","","","","","",""
"html-keyboard-response","63","311422","0.0-6.0-2.19","5c5f525806006e0001db95d2","bdp_sd","Tue Mar 28 2023 20:25:41 GMT-0400 (Eastern Daylight Time)","340796","","5711","","","","","offer","","<div class='trialBorder'><div class='vertical-center'><img style='vertical-align:center; align:center' src=img/fixation3.jpg></div><div class='cl'><div class='vertical-center'>$55<br>for<br>yourself</div></div><div class='cr'><div class='vertical-center'>$75<br>for<br>Lily F</div></div><div class='respDivL'><div class='vertical-center'>(E)</div></div><div class='respDivR'><div class='vertical-center'>(I)</div></div></div>","I","$55<br>for<br>yourself","$75<br>for<br>4","0","55","75","4","OTHER"
"html-keyboard-response","64","311674","0.0-6.0-3.19","5c5f525806006e0001db95d2","bdp_sd","Tue Mar 28 2023 20:25:41 GMT-0400 (Eastern Daylight Time)","340796","","null","","","","","offerFB","","<div class='trialBorder'><div class='vertical-center'><img style='vertical-align:center; align:center' src=img/fixation3.jpg></div><div class='cl'><div class='vertical-center'>$55<br>for<br>yourself</div></div><div class='cr'><div class='vertical-center'><font style='color:orange'>$75<br>for<br>Lily F</font></div></div><div class='respDivL'><div class='vertical-center'>(E)</div></div><div class='respDivR'><div class='vertical-center'><font style='color:orange'>(I)</font></div></div></div>","null","$55<br>for<br>yourself","$75<br>for<br>4","0","55","75","4",""
"html-keyboard-response","65","312176","0.0-6.0-1.20","5c5f525806006e0001db95d2","bdp_sd","Tue Mar 28 2023 20:25:41 GMT-0400 (Eastern Daylight Time)","340796","","null","","","","","FIX","","<div class='trialBorder'><div class='vertical-center'><img style='vertical-align:center; align:center' src=img/fixation3.jpg></div></div>","null","","","","","","",""
"html-keyboard-response","66","314901","0.0-6.0-2.20","5c5f525806006e0001db95d2","bdp_sd","Tue Mar 28 2023 20:25:41 GMT-0400 (Eastern Daylight Time)","340796","","2724","","","","","offer","","<div class='trialBorder'><div class='vertical-center'><img style='vertical-align:center; align:center' src=img/fixation3.jpg></div><div class='cl'><div class='vertical-center'>$85<br>for<br>Lily F</div></div><div class='cr'><div class='vertical-center'>$69<br>for<br>yourself</div></div><div class='respDivL'><div class='vertical-center'>(E)</div></div><div class='respDivR'><div class='vertical-center'>(I)</div></div></div>","E","$69<br>for<br>yourself","$85<br>for<br>4","1","69","85","4","OTHER"
"html-keyboard-response","67","315153","0.0-6.0-3.20","5c5f525806006e0001db95d2","bdp_sd","Tue Mar 28 2023 20:25:41 GMT-0400 (Eastern Daylight Time)","340796","","null","","","","","offerFB","","<div class='trialBorder'><div class='vertical-center'><img style='vertical-align:center; align:center' src=img/fixation3.jpg></div><div class='cl'><div class='vertical-center'><font style='color:orange'>$85<br>for<br>Lily F</font></div></div><div class='cr'><div class='vertical-center'>$69<br>for<br>yourself</div></div><div class='respDivL'><div class='vertical-center'><font style='color:orange'>(E)</font></div></div><div class='respDivR'><div class='vertical-center'>(I)</div></div></div>","null","$69<br>for<br>yourself","$85<br>for<br>4","1","69","85","4",""
"html-keyboard-response","68","315655","0.0-6.0-1.21","5c5f525806006e0001db95d2","bdp_sd","Tue Mar 28 2023 20:25:41 GMT-0400 (Eastern Daylight Time)","340796","","null","","","","","FIX","","<div class='trialBorder'><div class='vertical-center'><img style='vertical-align:center; align:center' src=img/fixation3.jpg></div></div>","null","","","","","","",""
"html-keyboard-response","69","317319","0.0-6.0-2.21","5c5f525806006e0001db95d2","bdp_sd","Tue Mar 28 2023 20:25:41 GMT-0400 (Eastern Daylight Time)","340796","","1663","","","","","offer","","<div class='trialBorder'><div class='vertical-center'><img style='vertical-align:center; align:center' src=img/fixation3.jpg></div><div class='cl'><div class='vertical-center'>$75<br>for<br>Aminta B</div></div><div class='cr'><div class='vertical-center'>$67<br>for<br>yourself</div></div><div class='respDivL'><div class='vertical-center'>(E)</div></div><div class='respDivR'><div class='vertical-center'>(I)</div></div></div>","I","$67<br>for<br>yourself","$75<br>for<br>5","1","67","75","5","SELF"
"html-keyboard-response","70","317571","0.0-6.0-3.21","5c5f525806006e0001db95d2","bdp_sd","Tue Mar 28 2023 20:25:41 GMT-0400 (Eastern Daylight Time)","340796","","null","","","","","offerFB","","<div class='trialBorder'><div class='vertical-center'><img style='vertical-align:center; align:center' src=img/fixation3.jpg></div><div class='cl'><div class='vertical-center'>$75<br>for<br>Aminta B</div></div><div class='cr'><div class='vertical-center'><font style='color:orange'>$67<br>for<br>yourself</font></div></div><div class='respDivL'><div class='vertical-center'>(E)</div></div><div class='respDivR'><div class='vertical-center'><font style='color:orange'>(I)</font></div></div></div>","null","$67<br>for<br>yourself","$75<br>for<br>5","1","67","75","5",""
"html-keyboard-response","71","318072","0.0-6.0-1.22","5c5f525806006e0001db95d2","bdp_sd","Tue Mar 28 2023 20:25:41 GMT-0400 (Eastern Daylight Time)","340796","","null","","","","","FIX","","<div class='trialBorder'><div class='vertical-center'><img style='vertical-align:center; align:center' src=img/fixation3.jpg></div></div>","null","","","","","","",""
"html-keyboard-response","72","319862","0.0-6.0-2.22","5c5f525806006e0001db95d2","bdp_sd","Tue Mar 28 2023 20:25:41 GMT-0400 (Eastern Daylight Time)","340796","","1789","","","","","offer","","<div class='trialBorder'><div class='vertical-center'><img style='vertical-align:center; align:center' src=img/fixation3.jpg></div><div class='cl'><div class='vertical-center'>$50<br>for<br>Aminta B</div></div><div class='cr'><div class='vertical-center'>$47<br>for<br>yourself</div></div><div class='respDivL'><div class='vertical-center'>(E)</div></div><div class='respDivR'><div class='vertical-center'>(I)</div></div></div>","I","$47<br>for<br>yourself","$50<br>for<br>5","1","47","50","5","SELF"
"html-keyboard-response","73","320115","0.0-6.0-3.22","5c5f525806006e0001db95d2","bdp_sd","Tue Mar 28 2023 20:25:41 GMT-0400 (Eastern Daylight Time)","340796","","null","","","","","offerFB","","<div class='trialBorder'><div class='vertical-center'><img style='vertical-align:center; align:center' src=img/fixation3.jpg></div><div class='cl'><div class='vertical-center'>$50<br>for<br>Aminta B</div></div><div class='cr'><div class='vertical-center'><font style='color:orange'>$47<br>for<br>yourself</font></div></div><div class='respDivL'><div class='vertical-center'>(E)</div></div><div class='respDivR'><div class='vertical-center'><font style='color:orange'>(I)</font></div></div></div>","null","$47<br>for<br>yourself","$50<br>for<br>5","1","47","50","5",""
"html-keyboard-response","74","320616","0.0-6.0-1.23","5c5f525806006e0001db95d2","bdp_sd","Tue Mar 28 2023 20:25:41 GMT-0400 (Eastern Daylight Time)","340796","","null","","","","","FIX","","<div class='trialBorder'><div class='vertical-center'><img style='vertical-align:center; align:center' src=img/fixation3.jpg></div></div>","null","","","","","","",""
"html-keyboard-response","75","331389","0.0-6.0-2.23","5c5f525806006e0001db95d2","bdp_sd","Tue Mar 28 2023 20:25:41 GMT-0400 (Eastern Daylight Time)","340796","","10772","","","","","offer","","<div class='trialBorder'><div class='vertical-center'><img style='vertical-align:center; align:center' src=img/fixation3.jpg></div><div class='cl'><div class='vertical-center'>$40<br>for<br>yourself</div></div><div class='cr'><div class='vertical-center'>$55<br>for<br>Lily F</div></div><div class='respDivL'><div class='vertical-center'>(E)</div></div><div class='respDivR'><div class='vertical-center'>(I)</div></div></div>","E","$40<br>for<br>yourself","$55<br>for<br>4","0","40","55","4","SELF"
"html-keyboard-response","76","331642","0.0-6.0-3.23","5c5f525806006e0001db95d2","bdp_sd","Tue Mar 28 2023 20:25:41 GMT-0400 (Eastern Daylight Time)","340796","","null","","","","","offerFB","","<div class='trialBorder'><div class='vertical-center'><img style='vertical-align:center; align:center' src=img/fixation3.jpg></div><div class='cl'><div class='vertical-center'><font style='color:orange'>$40<br>for<br>yourself</font></div></div><div class='cr'><div class='vertical-center'>$55<br>for<br>Lily F</div></div><div class='respDivL'><div class='vertical-center'><font style='color:orange'>(E)</font></div></div><div class='respDivR'><div class='vertical-center'>(I)</div></div></div>","null","$40<br>for<br>yourself","$55<br>for<br>4","0","40","55","4",""
"html-keyboard-response","77","332145","0.0-6.0-1.24","5c5f525806006e0001db95d2","bdp_sd","Tue Mar 28 2023 20:25:41 GMT-0400 (Eastern Daylight Time)","340796","","null","","","","","FIX","","<div class='trialBorder'><div class='vertical-center'><img style='vertical-align:center; align:center' src=img/fixation3.jpg></div></div>","null","","","","","","",""
"html-keyboard-response","78","333970","0.0-6.0-2.24","5c5f525806006e0001db95d2","bdp_sd","Tue Mar 28 2023 20:25:41 GMT-0400 (Eastern Daylight Time)","340796","","1825","","","","","offer","","<div class='trialBorder'><div class='vertical-center'><img style='vertical-align:center; align:center' src=img/fixation3.jpg></div><div class='cl'><div class='vertical-center'>$54<br>for<br>yourself</div></div><div class='cr'><div class='vertical-center'>$80<br>for<br>Engwari C</div></div><div class='respDivL'><div class='vertical-center'>(E)</div></div><div class='respDivR'><div class='vertical-center'>(I)</div></div></div>","I","$54<br>for<br>yourself","$80<br>for<br>3","0","54","80","3","OTHER"
"html-keyboard-response","79","334223","0.0-6.0-3.24","5c5f525806006e0001db95d2","bdp_sd","Tue Mar 28 2023 20:25:41 GMT-0400 (Eastern Daylight Time)","340796","","null","","","","","offerFB","","<div class='trialBorder'><div class='vertical-center'><img style='vertical-align:center; align:center' src=img/fixation3.jpg></div><div class='cl'><div class='vertical-center'>$54<br>for<br>yourself</div></div><div class='cr'><div class='vertical-center'><font style='color:orange'>$80<br>for<br>Engwari C</font></div></div><div class='respDivL'><div class='vertical-center'>(E)</div></div><div class='respDivR'><div class='vertical-center'><font style='color:orange'>(I)</font></div></div></div>","null","$54<br>for<br>yourself","$80<br>for<br>3","0","54","80","3",""
"html-keyboard-response","80","334726","0.0-6.0-1.25","5c5f525806006e0001db95d2","bdp_sd","Tue Mar 28 2023 20:25:41 GMT-0400 (Eastern Daylight Time)","340796","","null","","","","","FIX","","<div class='trialBorder'><div class='vertical-center'><img style='vertical-align:center; align:center' src=img/fixation3.jpg></div></div>","null","","","","","","",""
"html-keyboard-response","81","336637","0.0-6.0-2.25","5c5f525806006e0001db95d2","bdp_sd","Tue Mar 28 2023 20:25:41 GMT-0400 (Eastern Daylight Time)","340796","","1910","","","","","offer","","<div class='trialBorder'><div class='vertical-center'><img style='vertical-align:center; align:center' src=img/fixation3.jpg></div><div class='cl'><div class='vertical-center'>$24<br>for<br>yourself</div></div><div class='cr'><div class='vertical-center'>$35<br>for<br>Engwari C</div></div><div class='respDivL'><div class='vertical-center'>(E)</div></div><div class='respDivR'><div class='vertical-center'>(I)</div></div></div>","E","$24<br>for<br>yourself","$35<br>for<br>3","0","24","35","3","SELF"
"html-keyboard-response","82","336889","0.0-6.0-3.25","5c5f525806006e0001db95d2","bdp_sd","Tue Mar 28 2023 20:25:41 GMT-0400 (Eastern Daylight Time)","340796","","null","","","","","offerFB","","<div class='trialBorder'><div class='vertical-center'><img style='vertical-align:center; align:center' src=img/fixation3.jpg></div><div class='cl'><div class='vertical-center'><font style='color:orange'>$24<br>for<br>yourself</font></div></div><div class='cr'><div class='vertical-center'>$35<br>for<br>Engwari C</div></div><div class='respDivL'><div class='vertical-center'><font style='color:orange'>(E)</font></div></div><div class='respDivR'><div class='vertical-center'>(I)</div></div></div>","null","$24<br>for<br>yourself","$35<br>for<br>3","0","24","35","3",""
"html-keyboard-response","83","337390","0.0-6.0-1.26","5c5f525806006e0001db95d2","bdp_sd","Tue Mar 28 2023 20:25:41 GMT-0400 (Eastern Daylight Time)","340796","","null","","","","","FIX","","<div class='trialBorder'><div class='vertical-center'><img style='vertical-align:center; align:center' src=img/fixation3.jpg></div></div>","null","","","","","","",""
"html-keyboard-response","84","339543","0.0-6.0-2.26","5c5f525806006e0001db95d2","bdp_sd","Tue Mar 28 2023 20:25:41 GMT-0400 (Eastern Daylight Time)","340796","","2151","","","","","offer","","<div class='trialBorder'><div class='vertical-center'><img style='vertical-align:center; align:center' src=img/fixation3.jpg></div><div class='cl'><div class='vertical-center'>$78<br>for<br>yourself</div></div><div class='cr'><div class='vertical-center'>$80<br>for<br>Aminta B</div></div><div class='respDivL'><div class='vertical-center'>(E)</div></div><div class='respDivR'><div class='vertical-center'>(I)</div></div></div>","E","$78<br>for<br>yourself","$80<br>for<br>5","0","78","80","5","SELF"
"html-keyboard-response","85","339795","0.0-6.0-3.26","5c5f525806006e0001db95d2","bdp_sd","Tue Mar 28 2023 20:25:41 GMT-0400 (Eastern Daylight Time)","340796","","null","","","","","offerFB","","<div class='trialBorder'><div class='vertical-center'><img style='vertical-align:center; align:center' src=img/fixation3.jpg></div><div class='cl'><div class='vertical-center'><font style='color:orange'>$78<br>for<br>yourself</font></div></div><div class='cr'><div class='vertical-center'>$80<br>for<br>Aminta B</div></div><div class='respDivL'><div class='vertical-center'><font style='color:orange'>(E)</font></div></div><div class='respDivR'><div class='vertical-center'>(I)</div></div></div>","null","$78<br>for<br>yourself","$80<br>for<br>5","0","78","80","5",""
"","","","","5c5f525806006e0001db95d2","bdp_sd","Tue Mar 28 2023 20:25:41 GMT-0400 (Eastern Daylight Time)","340796","","","","fullscreenexit","86","339818","fullscreenexit","","","","","","","","","",""
"fullscreen","86","340796","0.0-7.0","5c5f525806006e0001db95d2","bdp_sd","Tue Mar 28 2023 20:25:41 GMT-0400 (Eastern Daylight Time)","340796","","","","","","","","true","","","","","","","","",""
"html-keyboard-response","87","341298","0.0-8.0","","","","","","null","","","","","","","","null","","","","","","",""
