"trial_type","trial_index","time_elapsed","internal_node_id","subject_id","task","startTime","totalTime","view_history","rt","responses","success","stimulus","key_press","trialtype","selfOffer","otherOffer","otherLeft","selfAmt","otherAmt","otherDist","chosen"
"pavlovia","0","4","0.0-0.0","63e51ddb19fccd05514c629c","bdp_sd","Tue Mar 28 2023 18:27:42 GMT-0700 (Pacific Daylight Time)","117499","","","","","","","","","","","","","",""
"instructions","1","1697","0.0-1.0","63e51ddb19fccd05514c629c","bdp_sd","Tue Mar 28 2023 18:27:42 GMT-0700 (Pacific Daylight Time)","117499","[{""page_index"":0,""viewing_time"":1692}]","1692","","","","","","","","","","","",""
"survey-text","2","19356","0.0-2.0","63e51ddb19fccd05514c629c","bdp_sd","Tue Mar 28 2023 18:27:42 GMT-0700 (Pacific Daylight Time)","117499","","17657","{""Q0"":""NN"",""Q1"":""NN"",""Q2"":""ON"",""Q3"":""NA"",""Q4"":""NA""}","","","","","","","","","","",""
"fullscreen","3","21479","0.0-3.0","63e51ddb19fccd05514c629c","bdp_sd","Tue Mar 28 2023 18:27:42 GMT-0700 (Pacific Daylight Time)","117499","","","","true","","","","","","","","","",""
"image-keyboard-response","4","22436","0.0-4.0-0.0","63e51ddb19fccd05514c629c","bdp_sd","Tue Mar 28 2023 18:27:42 GMT-0700 (Pacific Daylight Time)","117499","","956","","","","32","fullscreenfail","","","","","","",""
"instructions","5","41121","0.0-5.0","63e51ddb19fccd05514c629c","bdp_sd","Tue Mar 28 2023 18:27:42 GMT-0700 (Pacific Daylight Time)","117499","[{""page_index"":0,""viewing_time"":4044},{""page_index"":1,""viewing_time"":7260},{""page_index"":2,""viewing_time"":7129}]","18433","","","","","","","","","","","",""
"html-keyboard-response","6","41625","0.0-6.0-1.0","63e51ddb19fccd05514c629c","bdp_sd","Tue Mar 28 2023 18:27:42 GMT-0700 (Pacific Daylight Time)","117499","","null","","","<div class='trialBorder'><div class='vertical-center'><img style='vertical-align:center; align:center' src=img/fixation3.jpg></div></div>","null","FIX","","","","","","",""
"html-keyboard-response","7","45828","0.0-6.0-2.0","63e51ddb19fccd05514c629c","bdp_sd","Tue Mar 28 2023 18:27:42 GMT-0700 (Pacific Daylight Time)","117499","","4200","","","<div class='trialBorder'><div class='vertical-center'><img style='vertical-align:center; align:center' src=img/fixation3.jpg></div><div class='cl'><div class='vertical-center'>$25<br>for<br>NA</div></div><div class='cr'><div class='vertical-center'>$19<br>for<br>yourself</div></div><div class='respDivL'><div class='vertical-center'>(E)</div></div><div class='respDivR'><div class='vertical-center'>(I)</div></div></div>","I","offer","$19<br>for<br>yourself","$25<br>for<br>4","1","19","25","4","SELF"
"html-keyboard-response","8","46081","0.0-6.0-3.0","63e51ddb19fccd05514c629c","bdp_sd","Tue Mar 28 2023 18:27:42 GMT-0700 (Pacific Daylight Time)","117499","","null","","","<div class='trialBorder'><div class='vertical-center'><img style='vertical-align:center; align:center' src=img/fixation3.jpg></div><div class='cl'><div class='vertical-center'>$25<br>for<br>NA</div></div><div class='cr'><div class='vertical-center'><font style='color:orange'>$19<br>for<br>yourself</font></div></div><div class='respDivL'><div class='vertical-center'>(E)</div></div><div class='respDivR'><div class='vertical-center'><font style='color:orange'>(I)</font></div></div></div>","null","offerFB","$19<br>for<br>yourself","$25<br>for<br>4","1","19","25","4",""
"html-keyboard-response","9","46583","0.0-6.0-1.1","63e51ddb19fccd05514c629c","bdp_sd","Tue Mar 28 2023 18:27:42 GMT-0700 (Pacific Daylight Time)","117499","","null","","","<div class='trialBorder'><div class='vertical-center'><img style='vertical-align:center; align:center' src=img/fixation3.jpg></div></div>","null","FIX","","","","","","",""
"html-keyboard-response","10","48808","0.0-6.0-2.1","63e51ddb19fccd05514c629c","bdp_sd","Tue Mar 28 2023 18:27:42 GMT-0700 (Pacific Daylight Time)","117499","","2223","","","<div class='trialBorder'><div class='vertical-center'><img style='vertical-align:center; align:center' src=img/fixation3.jpg></div><div class='cl'><div class='vertical-center'>$75<br>for<br>NA</div></div><div class='cr'><div class='vertical-center'>$55<br>for<br>yourself</div></div><div class='respDivL'><div class='vertical-center'>(E)</div></div><div class='respDivR'><div class='vertical-center'>(I)</div></div></div>","E","offer","$55<br>for<br>yourself","$75<br>for<br>4","1","55","75","4","OTHER"
"html-keyboard-response","11","49060","0.0-6.0-3.1","63e51ddb19fccd05514c629c","bdp_sd","Tue Mar 28 2023 18:27:42 GMT-0700 (Pacific Daylight Time)","117499","","null","","","<div class='trialBorder'><div class='vertical-center'><img style='vertical-align:center; align:center' src=img/fixation3.jpg></div><div class='cl'><div class='vertical-center'><font style='color:orange'>$75<br>for<br>NA</font></div></div><div class='cr'><div class='vertical-center'>$55<br>for<br>yourself</div></div><div class='respDivL'><div class='vertical-center'><font style='color:orange'>(E)</font></div></div><div class='respDivR'><div class='vertical-center'>(I)</div></div></div>","null","offerFB","$55<br>for<br>yourself","$75<br>for<br>4","1","55","75","4",""
"html-keyboard-response","12","49564","0.0-6.0-1.2","63e51ddb19fccd05514c629c","bdp_sd","Tue Mar 28 2023 18:27:42 GMT-0700 (Pacific Daylight Time)","117499","","null","","","<div class='trialBorder'><div class='vertical-center'><img style='vertical-align:center; align:center' src=img/fixation3.jpg></div></div>","null","FIX","","","","","","",""
"html-keyboard-response","13","51493","0.0-6.0-2.2","63e51ddb19fccd05514c629c","bdp_sd","Tue Mar 28 2023 18:27:42 GMT-0700 (Pacific Daylight Time)","117499","","1927","","","<div class='trialBorder'><div class='vertical-center'><img style='vertical-align:center; align:center' src=img/fixation3.jpg></div><div class='cl'><div class='vertical-center'>$55<br>for<br>NA</div></div><div class='cr'><div class='vertical-center'>$40<br>for<br>yourself</div></div><div class='respDivL'><div class='vertical-center'>(E)</div></div><div class='respDivR'><div class='vertical-center'>(I)</div></div></div>","I","offer","$40<br>for<br>yourself","$55<br>for<br>4","1","40","55","4","SELF"
"html-keyboard-response","14","51746","0.0-6.0-3.2","63e51ddb19fccd05514c629c","bdp_sd","Tue Mar 28 2023 18:27:42 GMT-0700 (Pacific Daylight Time)","117499","","null","","","<div class='trialBorder'><div class='vertical-center'><img style='vertical-align:center; align:center' src=img/fixation3.jpg></div><div class='cl'><div class='vertical-center'>$55<br>for<br>NA</div></div><div class='cr'><div class='vertical-center'><font style='color:orange'>$40<br>for<br>yourself</font></div></div><div class='respDivL'><div class='vertical-center'>(E)</div></div><div class='respDivR'><div class='vertical-center'><font style='color:orange'>(I)</font></div></div></div>","null","offerFB","$40<br>for<br>yourself","$55<br>for<br>4","1","40","55","4",""
"html-keyboard-response","15","52250","0.0-6.0-1.3","63e51ddb19fccd05514c629c","bdp_sd","Tue Mar 28 2023 18:27:42 GMT-0700 (Pacific Daylight Time)","117499","","null","","","<div class='trialBorder'><div class='vertical-center'><img style='vertical-align:center; align:center' src=img/fixation3.jpg></div></div>","null","FIX","","","","","","",""
"html-keyboard-response","16","54049","0.0-6.0-2.3","63e51ddb19fccd05514c629c","bdp_sd","Tue Mar 28 2023 18:27:42 GMT-0700 (Pacific Daylight Time)","117499","","1797","","","<div class='trialBorder'><div class='vertical-center'><img style='vertical-align:center; align:center' src=img/fixation3.jpg></div><div class='cl'><div class='vertical-center'>$80<br>for<br>NN</div></div><div class='cr'><div class='vertical-center'>$33<br>for<br>yourself</div></div><div class='respDivL'><div class='vertical-center'>(E)</div></div><div class='respDivR'><div class='vertical-center'>(I)</div></div></div>","E","offer","$33<br>for<br>yourself","$80<br>for<br>2","1","33","80","2","OTHER"
"html-keyboard-response","17","54303","0.0-6.0-3.3","63e51ddb19fccd05514c629c","bdp_sd","Tue Mar 28 2023 18:27:42 GMT-0700 (Pacific Daylight Time)","117499","","null","","","<div class='trialBorder'><div class='vertical-center'><img style='vertical-align:center; align:center' src=img/fixation3.jpg></div><div class='cl'><div class='vertical-center'><font style='color:orange'>$80<br>for<br>NN</font></div></div><div class='cr'><div class='vertical-center'>$33<br>for<br>yourself</div></div><div class='respDivL'><div class='vertical-center'><font style='color:orange'>(E)</font></div></div><div class='respDivR'><div class='vertical-center'>(I)</div></div></div>","null","offerFB","$33<br>for<br>yourself","$80<br>for<br>2","1","33","80","2",""
"html-keyboard-response","18","54805","0.0-6.0-1.4","63e51ddb19fccd05514c629c","bdp_sd","Tue Mar 28 2023 18:27:42 GMT-0700 (Pacific Daylight Time)","117499","","null","","","<div class='trialBorder'><div class='vertical-center'><img style='vertical-align:center; align:center' src=img/fixation3.jpg></div></div>","null","FIX","","","","","","",""
"html-keyboard-response","19","57004","0.0-6.0-2.4","63e51ddb19fccd05514c629c","bdp_sd","Tue Mar 28 2023 18:27:42 GMT-0700 (Pacific Daylight Time)","117499","","2197","","","<div class='trialBorder'><div class='vertical-center'><img style='vertical-align:center; align:center' src=img/fixation3.jpg></div><div class='cl'><div class='vertical-center'>$60<br>for<br>NA</div></div><div class='cr'><div class='vertical-center'>$49<br>for<br>yourself</div></div><div class='respDivL'><div class='vertical-center'>(E)</div></div><div class='respDivR'><div class='vertical-center'>(I)</div></div></div>","I","offer","$49<br>for<br>yourself","$60<br>for<br>4","1","49","60","4","SELF"
"html-keyboard-response","20","57257","0.0-6.0-3.4","63e51ddb19fccd05514c629c","bdp_sd","Tue Mar 28 2023 18:27:42 GMT-0700 (Pacific Daylight Time)","117499","","null","","","<div class='trialBorder'><div class='vertical-center'><img style='vertical-align:center; align:center' src=img/fixation3.jpg></div><div class='cl'><div class='vertical-center'>$60<br>for<br>NA</div></div><div class='cr'><div class='vertical-center'><font style='color:orange'>$49<br>for<br>yourself</font></div></div><div class='respDivL'><div class='vertical-center'>(E)</div></div><div class='respDivR'><div class='vertical-center'><font style='color:orange'>(I)</font></div></div></div>","null","offerFB","$49<br>for<br>yourself","$60<br>for<br>4","1","49","60","4",""
"html-keyboard-response","21","57759","0.0-6.0-1.5","63e51ddb19fccd05514c629c","bdp_sd","Tue Mar 28 2023 18:27:42 GMT-0700 (Pacific Daylight Time)","117499","","null","","","<div class='trialBorder'><div class='vertical-center'><img style='vertical-align:center; align:center' src=img/fixation3.jpg></div></div>","null","FIX","","","","","","",""
"html-keyboard-response","22","62475","0.0-6.0-2.5","63e51ddb19fccd05514c629c","bdp_sd","Tue Mar 28 2023 18:27:42 GMT-0700 (Pacific Daylight Time)","117499","","4714","","","<div class='trialBorder'><div class='vertical-center'><img style='vertical-align:center; align:center' src=img/fixation3.jpg></div><div class='cl'><div class='vertical-center'>$50<br>for<br>ON</div></div><div class='cr'><div class='vertical-center'>$27<br>for<br>yourself</div></div><div class='respDivL'><div class='vertical-center'>(E)</div></div><div class='respDivR'><div class='vertical-center'>(I)</div></div></div>","E","offer","$27<br>for<br>yourself","$50<br>for<br>3","1","27","50","3","OTHER"
"html-keyboard-response","23","62728","0.0-6.0-3.5","63e51ddb19fccd05514c629c","bdp_sd","Tue Mar 28 2023 18:27:42 GMT-0700 (Pacific Daylight Time)","117499","","null","","","<div class='trialBorder'><div class='vertical-center'><img style='vertical-align:center; align:center' src=img/fixation3.jpg></div><div class='cl'><div class='vertical-center'><font style='color:orange'>$50<br>for<br>ON</font></div></div><div class='cr'><div class='vertical-center'>$27<br>for<br>yourself</div></div><div class='respDivL'><div class='vertical-center'><font style='color:orange'>(E)</font></div></div><div class='respDivR'><div class='vertical-center'>(I)</div></div></div>","null","offerFB","$27<br>for<br>yourself","$50<br>for<br>3","1","27","50","3",""
"html-keyboard-response","24","63231","0.0-6.0-1.6","63e51ddb19fccd05514c629c","bdp_sd","Tue Mar 28 2023 18:27:42 GMT-0700 (Pacific Daylight Time)","117499","","null","","","<div class='trialBorder'><div class='vertical-center'><img style='vertical-align:center; align:center' src=img/fixation3.jpg></div></div>","null","FIX","","","","","","",""
"html-keyboard-response","25","64945","0.0-6.0-2.6","63e51ddb19fccd05514c629c","bdp_sd","Tue Mar 28 2023 18:27:42 GMT-0700 (Pacific Daylight Time)","117499","","1711","","","<div class='trialBorder'><div class='vertical-center'><img style='vertical-align:center; align:center' src=img/fixation3.jpg></div><div class='cl'><div class='vertical-center'>$25<br>for<br>NA</div></div><div class='cr'><div class='vertical-center'>$22<br>for<br>yourself</div></div><div class='respDivL'><div class='vertical-center'>(E)</div></div><div class='respDivR'><div class='vertical-center'>(I)</div></div></div>","I","offer","$22<br>for<br>yourself","$25<br>for<br>5","1","22","25","5","SELF"
"html-keyboard-response","26","65198","0.0-6.0-3.6","63e51ddb19fccd05514c629c","bdp_sd","Tue Mar 28 2023 18:27:42 GMT-0700 (Pacific Daylight Time)","117499","","null","","","<div class='trialBorder'><div class='vertical-center'><img style='vertical-align:center; align:center' src=img/fixation3.jpg></div><div class='cl'><div class='vertical-center'>$25<br>for<br>NA</div></div><div class='cr'><div class='vertical-center'><font style='color:orange'>$22<br>for<br>yourself</font></div></div><div class='respDivL'><div class='vertical-center'>(E)</div></div><div class='respDivR'><div class='vertical-center'><font style='color:orange'>(I)</font></div></div></div>","null","offerFB","$22<br>for<br>yourself","$25<br>for<br>5","1","22","25","5",""
"html-keyboard-response","27","65702","0.0-6.0-1.7","63e51ddb19fccd05514c629c","bdp_sd","Tue Mar 28 2023 18:27:42 GMT-0700 (Pacific Daylight Time)","117499","","null","","","<div class='trialBorder'><div class='vertical-center'><img style='vertical-align:center; align:center' src=img/fixation3.jpg></div></div>","null","FIX","","","","","","",""
"html-keyboard-response","28","67879","0.0-6.0-2.7","63e51ddb19fccd05514c629c","bdp_sd","Tue Mar 28 2023 18:27:42 GMT-0700 (Pacific Daylight Time)","117499","","2174","","","<div class='trialBorder'><div class='vertical-center'><img style='vertical-align:center; align:center' src=img/fixation3.jpg></div><div class='cl'><div class='vertical-center'>$85<br>for<br>NA</div></div><div class='cr'><div class='vertical-center'>$80<br>for<br>yourself</div></div><div class='respDivL'><div class='vertical-center'>(E)</div></div><div class='respDivR'><div class='vertical-center'>(I)</div></div></div>","I","offer","$80<br>for<br>yourself","$85<br>for<br>5","1","80","85","5","SELF"
"html-keyboard-response","29","68133","0.0-6.0-3.7","63e51ddb19fccd05514c629c","bdp_sd","Tue Mar 28 2023 18:27:42 GMT-0700 (Pacific Daylight Time)","117499","","null","","","<div class='trialBorder'><div class='vertical-center'><img style='vertical-align:center; align:center' src=img/fixation3.jpg></div><div class='cl'><div class='vertical-center'>$85<br>for<br>NA</div></div><div class='cr'><div class='vertical-center'><font style='color:orange'>$80<br>for<br>yourself</font></div></div><div class='respDivL'><div class='vertical-center'>(E)</div></div><div class='respDivR'><div class='vertical-center'><font style='color:orange'>(I)</font></div></div></div>","null","offerFB","$80<br>for<br>yourself","$85<br>for<br>5","1","80","85","5",""
"html-keyboard-response","30","68637","0.0-6.0-1.8","63e51ddb19fccd05514c629c","bdp_sd","Tue Mar 28 2023 18:27:42 GMT-0700 (Pacific Daylight Time)","117499","","null","","","<div class='trialBorder'><div class='vertical-center'><img style='vertical-align:center; align:center' src=img/fixation3.jpg></div></div>","null","FIX","","","","","","",""
"html-keyboard-response","31","70172","0.0-6.0-2.8","63e51ddb19fccd05514c629c","bdp_sd","Tue Mar 28 2023 18:27:42 GMT-0700 (Pacific Daylight Time)","117499","","1534","","","<div class='trialBorder'><div class='vertical-center'><img style='vertical-align:center; align:center' src=img/fixation3.jpg></div><div class='cl'><div class='vertical-center'>$78<br>for<br>yourself</div></div><div class='cr'><div class='vertical-center'>$80<br>for<br>NA</div></div><div class='respDivL'><div class='vertical-center'>(E)</div></div><div class='respDivR'><div class='vertical-center'>(I)</div></div></div>","E","offer","$78<br>for<br>yourself","$80<br>for<br>5","0","78","80","5","SELF"
"html-keyboard-response","32","70424","0.0-6.0-3.8","63e51ddb19fccd05514c629c","bdp_sd","Tue Mar 28 2023 18:27:42 GMT-0700 (Pacific Daylight Time)","117499","","null","","","<div class='trialBorder'><div class='vertical-center'><img style='vertical-align:center; align:center' src=img/fixation3.jpg></div><div class='cl'><div class='vertical-center'><font style='color:orange'>$78<br>for<br>yourself</font></div></div><div class='cr'><div class='vertical-center'>$80<br>for<br>NA</div></div><div class='respDivL'><div class='vertical-center'><font style='color:orange'>(E)</font></div></div><div class='respDivR'><div class='vertical-center'>(I)</div></div></div>","null","offerFB","$78<br>for<br>yourself","$80<br>for<br>5","0","78","80","5",""
"html-keyboard-response","33","70926","0.0-6.0-1.9","63e51ddb19fccd05514c629c","bdp_sd","Tue Mar 28 2023 18:27:42 GMT-0700 (Pacific Daylight Time)","117499","","null","","","<div class='trialBorder'><div class='vertical-center'><img style='vertical-align:center; align:center' src=img/fixation3.jpg></div></div>","null","FIX","","","","","","",""
"html-keyboard-response","34","73215","0.0-6.0-2.9","63e51ddb19fccd05514c629c","bdp_sd","Tue Mar 28 2023 18:27:42 GMT-0700 (Pacific Daylight Time)","117499","","2287","","","<div class='trialBorder'><div class='vertical-center'><img style='vertical-align:center; align:center' src=img/fixation3.jpg></div><div class='cl'><div class='vertical-center'>$35<br>for<br>ON</div></div><div class='cr'><div class='vertical-center'>$24<br>for<br>yourself</div></div><div class='respDivL'><div class='vertical-center'>(E)</div></div><div class='respDivR'><div class='vertical-center'>(I)</div></div></div>","I","offer","$24<br>for<br>yourself","$35<br>for<br>3","1","24","35","3","SELF"
"html-keyboard-response","35","73468","0.0-6.0-3.9","63e51ddb19fccd05514c629c","bdp_sd","Tue Mar 28 2023 18:27:42 GMT-0700 (Pacific Daylight Time)","117499","","null","","","<div class='trialBorder'><div class='vertical-center'><img style='vertical-align:center; align:center' src=img/fixation3.jpg></div><div class='cl'><div class='vertical-center'>$35<br>for<br>ON</div></div><div class='cr'><div class='vertical-center'><font style='color:orange'>$24<br>for<br>yourself</font></div></div><div class='respDivL'><div class='vertical-center'>(E)</div></div><div class='respDivR'><div class='vertical-center'><font style='color:orange'>(I)</font></div></div></div>","null","offerFB","$24<br>for<br>yourself","$35<br>for<br>3","1","24","35","3",""
"html-keyboard-response","36","73970","0.0-6.0-1.10","63e51ddb19fccd05514c629c","bdp_sd","Tue Mar 28 2023 18:27:42 GMT-0700 (Pacific Daylight Time)","117499","","null","","","<div class='trialBorder'><div class='vertical-center'><img style='vertical-align:center; align:center' src=img/fixation3.jpg></div></div>","null","FIX","","","","","","",""
"html-keyboard-response","37","78369","0.0-6.0-2.10","63e51ddb19fccd05514c629c","bdp_sd","Tue Mar 28 2023 18:27:42 GMT-0700 (Pacific Daylight Time)","117499","","4396","","","<div class='trialBorder'><div class='vertical-center'><img style='vertical-align:center; align:center' src=img/fixation3.jpg></div><div class='cl'><div class='vertical-center'>$80<br>for<br>ON</div></div><div class='cr'><div class='vertical-center'>$54<br>for<br>yourself</div></div><div class='respDivL'><div class='vertical-center'>(E)</div></div><div class='respDivR'><div class='vertical-center'>(I)</div></div></div>","I","offer","$54<br>for<br>yourself","$80<br>for<br>3","1","54","80","3","SELF"
"html-keyboard-response","38","78622","0.0-6.0-3.10","63e51ddb19fccd05514c629c","bdp_sd","Tue Mar 28 2023 18:27:42 GMT-0700 (Pacific Daylight Time)","117499","","null","","","<div class='trialBorder'><div class='vertical-center'><img style='vertical-align:center; align:center' src=img/fixation3.jpg></div><div class='cl'><div class='vertical-center'>$80<br>for<br>ON</div></div><div class='cr'><div class='vertical-center'><font style='color:orange'>$54<br>for<br>yourself</font></div></div><div class='respDivL'><div class='vertical-center'>(E)</div></div><div class='respDivR'><div class='vertical-center'><font style='color:orange'>(I)</font></div></div></div>","null","offerFB","$54<br>for<br>yourself","$80<br>for<br>3","1","54","80","3",""
"html-keyboard-response","39","79125","0.0-6.0-1.11","63e51ddb19fccd05514c629c","bdp_sd","Tue Mar 28 2023 18:27:42 GMT-0700 (Pacific Daylight Time)","117499","","null","","","<div class='trialBorder'><div class='vertical-center'><img style='vertical-align:center; align:center' src=img/fixation3.jpg></div></div>","null","FIX","","","","","","",""
"html-keyboard-response","40","81001","0.0-6.0-2.11","63e51ddb19fccd05514c629c","bdp_sd","Tue Mar 28 2023 18:27:42 GMT-0700 (Pacific Daylight Time)","117499","","1874","","","<div class='trialBorder'><div class='vertical-center'><img style='vertical-align:center; align:center' src=img/fixation3.jpg></div><div class='cl'><div class='vertical-center'>$41<br>for<br>yourself</div></div><div class='cr'><div class='vertical-center'>$75<br>for<br>ON</div></div><div class='respDivL'><div class='vertical-center'>(E)</div></div><div class='respDivR'><div class='vertical-center'>(I)</div></div></div>","E","offer","$41<br>for<br>yourself","$75<br>for<br>3","0","41","75","3","SELF"
"html-keyboard-response","41","81254","0.0-6.0-3.11","63e51ddb19fccd05514c629c","bdp_sd","Tue Mar 28 2023 18:27:42 GMT-0700 (Pacific Daylight Time)","117499","","null","","","<div class='trialBorder'><div class='vertical-center'><img style='vertical-align:center; align:center' src=img/fixation3.jpg></div><div class='cl'><div class='vertical-center'><font style='color:orange'>$41<br>for<br>yourself</font></div></div><div class='cr'><div class='vertical-center'>$75<br>for<br>ON</div></div><div class='respDivL'><div class='vertical-center'><font style='color:orange'>(E)</font></div></div><div class='respDivR'><div class='vertical-center'>(I)</div></div></div>","null","offerFB","$41<br>for<br>yourself","$75<br>for<br>3","0","41","75","3",""
"html-keyboard-response","42","81763","0.0-6.0-1.12","63e51ddb19fccd05514c629c","bdp_sd","Tue Mar 28 2023 18:27:42 GMT-0700 (Pacific Daylight Time)","117499","","null","","","<div class='trialBorder'><div class='vertical-center'><img style='vertical-align:center; align:center' src=img/fixation3.jpg></div></div>","null","FIX","","","","","","",""
"html-keyboard-response","43","83375","0.0-6.0-2.12","63e51ddb19fccd05514c629c","bdp_sd","Tue Mar 28 2023 18:27:42 GMT-0700 (Pacific Daylight Time)","117499","","1610","","","<div class='trialBorder'><div class='vertical-center'><img style='vertical-align:center; align:center' src=img/fixation3.jpg></div><div class='cl'><div class='vertical-center'>$69<br>for<br>yourself</div></div><div class='cr'><div class='vertical-center'>$85<br>for<br>NA</div></div><div class='respDivL'><div class='vertical-center'>(E)</div></div><div class='respDivR'><div class='vertical-center'>(I)</div></div></div>","E","offer","$69<br>for<br>yourself","$85<br>for<br>4","0","69","85","4","SELF"
"html-keyboard-response","44","83630","0.0-6.0-3.12","63e51ddb19fccd05514c629c","bdp_sd","Tue Mar 28 2023 18:27:42 GMT-0700 (Pacific Daylight Time)","117499","","null","","","<div class='trialBorder'><div class='vertical-center'><img style='vertical-align:center; align:center' src=img/fixation3.jpg></div><div class='cl'><div class='vertical-center'><font style='color:orange'>$69<br>for<br>yourself</font></div></div><div class='cr'><div class='vertical-center'>$85<br>for<br>NA</div></div><div class='respDivL'><div class='vertical-center'><font style='color:orange'>(E)</font></div></div><div class='respDivR'><div class='vertical-center'>(I)</div></div></div>","null","offerFB","$69<br>for<br>yourself","$85<br>for<br>4","0","69","85","4",""
"html-keyboard-response","45","84132","0.0-6.0-1.13","63e51ddb19fccd05514c629c","bdp_sd","Tue Mar 28 2023 18:27:42 GMT-0700 (Pacific Daylight Time)","117499","","null","","","<div class='trialBorder'><div class='vertical-center'><img style='vertical-align:center; align:center' src=img/fixation3.jpg></div></div>","null","FIX","","","","","","",""
"html-keyboard-response","46","85763","0.0-6.0-2.13","63e51ddb19fccd05514c629c","bdp_sd","Tue Mar 28 2023 18:27:42 GMT-0700 (Pacific Daylight Time)","117499","","1629","","","<div class='trialBorder'><div class='vertical-center'><img style='vertical-align:center; align:center' src=img/fixation3.jpg></div><div class='cl'><div class='vertical-center'>$67<br>for<br>yourself</div></div><div class='cr'><div class='vertical-center'>$75<br>for<br>NA</div></div><div class='respDivL'><div class='vertical-center'>(E)</div></div><div class='respDivR'><div class='vertical-center'>(I)</div></div></div>","E","offer","$67<br>for<br>yourself","$75<br>for<br>5","0","67","75","5","SELF"
"html-keyboard-response","47","86016","0.0-6.0-3.13","63e51ddb19fccd05514c629c","bdp_sd","Tue Mar 28 2023 18:27:42 GMT-0700 (Pacific Daylight Time)","117499","","null","","","<div class='trialBorder'><div class='vertical-center'><img style='vertical-align:center; align:center' src=img/fixation3.jpg></div><div class='cl'><div class='vertical-center'><font style='color:orange'>$67<br>for<br>yourself</font></div></div><div class='cr'><div class='vertical-center'>$75<br>for<br>NA</div></div><div class='respDivL'><div class='vertical-center'><font style='color:orange'>(E)</font></div></div><div class='respDivR'><div class='vertical-center'>(I)</div></div></div>","null","offerFB","$67<br>for<br>yourself","$75<br>for<br>5","0","67","75","5",""
"html-keyboard-response","48","86519","0.0-6.0-1.14","63e51ddb19fccd05514c629c","bdp_sd","Tue Mar 28 2023 18:27:42 GMT-0700 (Pacific Daylight Time)","117499","","null","","","<div class='trialBorder'><div class='vertical-center'><img style='vertical-align:center; align:center' src=img/fixation3.jpg></div></div>","null","FIX","","","","","","",""
"html-keyboard-response","49","87590","0.0-6.0-2.14","63e51ddb19fccd05514c629c","bdp_sd","Tue Mar 28 2023 18:27:42 GMT-0700 (Pacific Daylight Time)","117499","","1068","","","<div class='trialBorder'><div class='vertical-center'><img style='vertical-align:center; align:center' src=img/fixation3.jpg></div><div class='cl'><div class='vertical-center'>$34<br>for<br>yourself</div></div><div class='cr'><div class='vertical-center'>$50<br>for<br>NA</div></div><div class='respDivL'><div class='vertical-center'>(E)</div></div><div class='respDivR'><div class='vertical-center'>(I)</div></div></div>","E","offer","$34<br>for<br>yourself","$50<br>for<br>4","0","34","50","4","SELF"
"html-keyboard-response","50","87843","0.0-6.0-3.14","63e51ddb19fccd05514c629c","bdp_sd","Tue Mar 28 2023 18:27:42 GMT-0700 (Pacific Daylight Time)","117499","","null","","","<div class='trialBorder'><div class='vertical-center'><img style='vertical-align:center; align:center' src=img/fixation3.jpg></div><div class='cl'><div class='vertical-center'><font style='color:orange'>$34<br>for<br>yourself</font></div></div><div class='cr'><div class='vertical-center'>$50<br>for<br>NA</div></div><div class='respDivL'><div class='vertical-center'><font style='color:orange'>(E)</font></div></div><div class='respDivR'><div class='vertical-center'>(I)</div></div></div>","null","offerFB","$34<br>for<br>yourself","$50<br>for<br>4","0","34","50","4",""
"html-keyboard-response","51","88345","0.0-6.0-1.15","63e51ddb19fccd05514c629c","bdp_sd","Tue Mar 28 2023 18:27:42 GMT-0700 (Pacific Daylight Time)","117499","","null","","","<div class='trialBorder'><div class='vertical-center'><img style='vertical-align:center; align:center' src=img/fixation3.jpg></div></div>","null","FIX","","","","","","",""
"html-keyboard-response","52","89693","0.0-6.0-2.15","63e51ddb19fccd05514c629c","bdp_sd","Tue Mar 28 2023 18:27:42 GMT-0700 (Pacific Daylight Time)","117499","","1346","","","<div class='trialBorder'><div class='vertical-center'><img style='vertical-align:center; align:center' src=img/fixation3.jpg></div><div class='cl'><div class='vertical-center'>$85<br>for<br>NN</div></div><div class='cr'><div class='vertical-center'>$31<br>for<br>yourself</div></div><div class='respDivL'><div class='vertical-center'>(E)</div></div><div class='respDivR'><div class='vertical-center'>(I)</div></div></div>","E","offer","$31<br>for<br>yourself","$85<br>for<br>1","1","31","85","1","OTHER"
"html-keyboard-response","53","89947","0.0-6.0-3.15","63e51ddb19fccd05514c629c","bdp_sd","Tue Mar 28 2023 18:27:42 GMT-0700 (Pacific Daylight Time)","117499","","null","","","<div class='trialBorder'><div class='vertical-center'><img style='vertical-align:center; align:center' src=img/fixation3.jpg></div><div class='cl'><div class='vertical-center'><font style='color:orange'>$85<br>for<br>NN</font></div></div><div class='cr'><div class='vertical-center'>$31<br>for<br>yourself</div></div><div class='respDivL'><div class='vertical-center'><font style='color:orange'>(E)</font></div></div><div class='respDivR'><div class='vertical-center'>(I)</div></div></div>","null","offerFB","$31<br>for<br>yourself","$85<br>for<br>1","1","31","85","1",""
"html-keyboard-response","54","90450","0.0-6.0-1.16","63e51ddb19fccd05514c629c","bdp_sd","Tue Mar 28 2023 18:27:42 GMT-0700 (Pacific Daylight Time)","117499","","null","","","<div class='trialBorder'><div class='vertical-center'><img style='vertical-align:center; align:center' src=img/fixation3.jpg></div></div>","null","FIX","","","","","","",""
"html-keyboard-response","55","91562","0.0-6.0-2.16","63e51ddb19fccd05514c629c","bdp_sd","Tue Mar 28 2023 18:27:42 GMT-0700 (Pacific Daylight Time)","117499","","1110","","","<div class='trialBorder'><div class='vertical-center'><img style='vertical-align:center; align:center' src=img/fixation3.jpg></div><div class='cl'><div class='vertical-center'>$25<br>for<br>ON</div></div><div class='cr'><div class='vertical-center'>$14<br>for<br>yourself</div></div><div class='respDivL'><div class='vertical-center'>(E)</div></div><div class='respDivR'><div class='vertical-center'>(I)</div></div></div>","I","offer","$14<br>for<br>yourself","$25<br>for<br>3","1","14","25","3","SELF"
"html-keyboard-response","56","91816","0.0-6.0-3.16","63e51ddb19fccd05514c629c","bdp_sd","Tue Mar 28 2023 18:27:42 GMT-0700 (Pacific Daylight Time)","117499","","null","","","<div class='trialBorder'><div class='vertical-center'><img style='vertical-align:center; align:center' src=img/fixation3.jpg></div><div class='cl'><div class='vertical-center'>$25<br>for<br>ON</div></div><div class='cr'><div class='vertical-center'><font style='color:orange'>$14<br>for<br>yourself</font></div></div><div class='respDivL'><div class='vertical-center'>(E)</div></div><div class='respDivR'><div class='vertical-center'><font style='color:orange'>(I)</font></div></div></div>","null","offerFB","$14<br>for<br>yourself","$25<br>for<br>3","1","14","25","3",""
"html-keyboard-response","57","92320","0.0-6.0-1.17","63e51ddb19fccd05514c629c","bdp_sd","Tue Mar 28 2023 18:27:42 GMT-0700 (Pacific Daylight Time)","117499","","null","","","<div class='trialBorder'><div class='vertical-center'><img style='vertical-align:center; align:center' src=img/fixation3.jpg></div></div>","null","FIX","","","","","","",""
"html-keyboard-response","58","94149","0.0-6.0-2.17","63e51ddb19fccd05514c629c","bdp_sd","Tue Mar 28 2023 18:27:42 GMT-0700 (Pacific Daylight Time)","117499","","1827","","","<div class='trialBorder'><div class='vertical-center'><img style='vertical-align:center; align:center' src=img/fixation3.jpg></div><div class='cl'><div class='vertical-center'>$54<br>for<br>yourself</div></div><div class='cr'><div class='vertical-center'>$55<br>for<br>NA</div></div><div class='respDivL'><div class='vertical-center'>(E)</div></div><div class='respDivR'><div class='vertical-center'>(I)</div></div></div>","E","offer","$54<br>for<br>yourself","$55<br>for<br>5","0","54","55","5","SELF"
"html-keyboard-response","59","94403","0.0-6.0-3.17","63e51ddb19fccd05514c629c","bdp_sd","Tue Mar 28 2023 18:27:42 GMT-0700 (Pacific Daylight Time)","117499","","null","","","<div class='trialBorder'><div class='vertical-center'><img style='vertical-align:center; align:center' src=img/fixation3.jpg></div><div class='cl'><div class='vertical-center'><font style='color:orange'>$54<br>for<br>yourself</font></div></div><div class='cr'><div class='vertical-center'>$55<br>for<br>NA</div></div><div class='respDivL'><div class='vertical-center'><font style='color:orange'>(E)</font></div></div><div class='respDivR'><div class='vertical-center'>(I)</div></div></div>","null","offerFB","$54<br>for<br>yourself","$55<br>for<br>5","0","54","55","5",""
"html-keyboard-response","60","94906","0.0-6.0-1.18","63e51ddb19fccd05514c629c","bdp_sd","Tue Mar 28 2023 18:27:42 GMT-0700 (Pacific Daylight Time)","117499","","null","","","<div class='trialBorder'><div class='vertical-center'><img style='vertical-align:center; align:center' src=img/fixation3.jpg></div></div>","null","FIX","","","","","","",""
"html-keyboard-response","61","97102","0.0-6.0-2.18","63e51ddb19fccd05514c629c","bdp_sd","Tue Mar 28 2023 18:27:42 GMT-0700 (Pacific Daylight Time)","117499","","2194","","","<div class='trialBorder'><div class='vertical-center'><img style='vertical-align:center; align:center' src=img/fixation3.jpg></div><div class='cl'><div class='vertical-center'>$47<br>for<br>yourself</div></div><div class='cr'><div class='vertical-center'>$50<br>for<br>NA</div></div><div class='respDivL'><div class='vertical-center'>(E)</div></div><div class='respDivR'><div class='vertical-center'>(I)</div></div></div>","E","offer","$47<br>for<br>yourself","$50<br>for<br>5","0","47","50","5","SELF"
"html-keyboard-response","62","97355","0.0-6.0-3.18","63e51ddb19fccd05514c629c","bdp_sd","Tue Mar 28 2023 18:27:42 GMT-0700 (Pacific Daylight Time)","117499","","null","","","<div class='trialBorder'><div class='vertical-center'><img style='vertical-align:center; align:center' src=img/fixation3.jpg></div><div class='cl'><div class='vertical-center'><font style='color:orange'>$47<br>for<br>yourself</font></div></div><div class='cr'><div class='vertical-center'>$50<br>for<br>NA</div></div><div class='respDivL'><div class='vertical-center'><font style='color:orange'>(E)</font></div></div><div class='respDivR'><div class='vertical-center'>(I)</div></div></div>","null","offerFB","$47<br>for<br>yourself","$50<br>for<br>5","0","47","50","5",""
"html-keyboard-response","63","97857","0.0-6.0-1.19","63e51ddb19fccd05514c629c","bdp_sd","Tue Mar 28 2023 18:27:42 GMT-0700 (Pacific Daylight Time)","117499","","null","","","<div class='trialBorder'><div class='vertical-center'><img style='vertical-align:center; align:center' src=img/fixation3.jpg></div></div>","null","FIX","","","","","","",""
"html-keyboard-response","64","99425","0.0-6.0-2.19","63e51ddb19fccd05514c629c","bdp_sd","Tue Mar 28 2023 18:27:42 GMT-0700 (Pacific Daylight Time)","117499","","1566","","","<div class='trialBorder'><div class='vertical-center'><img style='vertical-align:center; align:center' src=img/fixation3.jpg></div><div class='cl'><div class='vertical-center'>$30<br>for<br>NA</div></div><div class='cr'><div class='vertical-center'>$25<br>for<br>yourself</div></div><div class='respDivL'><div class='vertical-center'>(E)</div></div><div class='respDivR'><div class='vertical-center'>(I)</div></div></div>","I","offer","$25<br>for<br>yourself","$30<br>for<br>4","1","25","30","4","SELF"
"html-keyboard-response","65","99678","0.0-6.0-3.19","63e51ddb19fccd05514c629c","bdp_sd","Tue Mar 28 2023 18:27:42 GMT-0700 (Pacific Daylight Time)","117499","","null","","","<div class='trialBorder'><div class='vertical-center'><img style='vertical-align:center; align:center' src=img/fixation3.jpg></div><div class='cl'><div class='vertical-center'>$30<br>for<br>NA</div></div><div class='cr'><div class='vertical-center'><font style='color:orange'>$25<br>for<br>yourself</font></div></div><div class='respDivL'><div class='vertical-center'>(E)</div></div><div class='respDivR'><div class='vertical-center'><font style='color:orange'>(I)</font></div></div></div>","null","offerFB","$25<br>for<br>yourself","$30<br>for<br>4","1","25","30","4",""
"html-keyboard-response","66","100180","0.0-6.0-1.20","63e51ddb19fccd05514c629c","bdp_sd","Tue Mar 28 2023 18:27:42 GMT-0700 (Pacific Daylight Time)","117499","","null","","","<div class='trialBorder'><div class='vertical-center'><img style='vertical-align:center; align:center' src=img/fixation3.jpg></div></div>","null","FIX","","","","","","",""
"html-keyboard-response","67","102069","0.0-6.0-2.20","63e51ddb19fccd05514c629c","bdp_sd","Tue Mar 28 2023 18:27:42 GMT-0700 (Pacific Daylight Time)","117499","","1888","","","<div class='trialBorder'><div class='vertical-center'><img style='vertical-align:center; align:center' src=img/fixation3.jpg></div><div class='cl'><div class='vertical-center'>$11<br>for<br>yourself</div></div><div class='cr'><div class='vertical-center'>$30<br>for<br>NN</div></div><div class='respDivL'><div class='vertical-center'>(E)</div></div><div class='respDivR'><div class='vertical-center'>(I)</div></div></div>","I","offer","$11<br>for<br>yourself","$30<br>for<br>2","0","11","30","2","OTHER"
"html-keyboard-response","68","102323","0.0-6.0-3.20","63e51ddb19fccd05514c629c","bdp_sd","Tue Mar 28 2023 18:27:42 GMT-0700 (Pacific Daylight Time)","117499","","null","","","<div class='trialBorder'><div class='vertical-center'><img style='vertical-align:center; align:center' src=img/fixation3.jpg></div><div class='cl'><div class='vertical-center'>$11<br>for<br>yourself</div></div><div class='cr'><div class='vertical-center'><font style='color:orange'>$30<br>for<br>NN</font></div></div><div class='respDivL'><div class='vertical-center'>(E)</div></div><div class='respDivR'><div class='vertical-center'><font style='color:orange'>(I)</font></div></div></div>","null","offerFB","$11<br>for<br>yourself","$30<br>for<br>2","0","11","30","2",""
"html-keyboard-response","69","102824","0.0-6.0-1.21","63e51ddb19fccd05514c629c","bdp_sd","Tue Mar 28 2023 18:27:42 GMT-0700 (Pacific Daylight Time)","117499","","null","","","<div class='trialBorder'><div class='vertical-center'><img style='vertical-align:center; align:center' src=img/fixation3.jpg></div></div>","null","FIX","","","","","","",""
"html-keyboard-response","70","104747","0.0-6.0-2.21","63e51ddb19fccd05514c629c","bdp_sd","Tue Mar 28 2023 18:27:42 GMT-0700 (Pacific Daylight Time)","117499","","1921","","","<div class='trialBorder'><div class='vertical-center'><img style='vertical-align:center; align:center' src=img/fixation3.jpg></div><div class='cl'><div class='vertical-center'>$25<br>for<br>yourself</div></div><div class='cr'><div class='vertical-center'>$60<br>for<br>ON</div></div><div class='respDivL'><div class='vertical-center'>(E)</div></div><div class='respDivR'><div class='vertical-center'>(I)</div></div></div>","E","offer","$25<br>for<br>yourself","$60<br>for<br>3","0","25","60","3","SELF"
"html-keyboard-response","71","105001","0.0-6.0-3.21","63e51ddb19fccd05514c629c","bdp_sd","Tue Mar 28 2023 18:27:42 GMT-0700 (Pacific Daylight Time)","117499","","null","","","<div class='trialBorder'><div class='vertical-center'><img style='vertical-align:center; align:center' src=img/fixation3.jpg></div><div class='cl'><div class='vertical-center'><font style='color:orange'>$25<br>for<br>yourself</font></div></div><div class='cr'><div class='vertical-center'>$60<br>for<br>ON</div></div><div class='respDivL'><div class='vertical-center'><font style='color:orange'>(E)</font></div></div><div class='respDivR'><div class='vertical-center'>(I)</div></div></div>","null","offerFB","$25<br>for<br>yourself","$60<br>for<br>3","0","25","60","3",""
"html-keyboard-response","72","105503","0.0-6.0-1.22","63e51ddb19fccd05514c629c","bdp_sd","Tue Mar 28 2023 18:27:42 GMT-0700 (Pacific Daylight Time)","117499","","null","","","<div class='trialBorder'><div class='vertical-center'><img style='vertical-align:center; align:center' src=img/fixation3.jpg></div></div>","null","FIX","","","","","","",""
"html-keyboard-response","73","106825","0.0-6.0-2.22","63e51ddb19fccd05514c629c","bdp_sd","Tue Mar 28 2023 18:27:42 GMT-0700 (Pacific Daylight Time)","117499","","1320","","","<div class='trialBorder'><div class='vertical-center'><img style='vertical-align:center; align:center' src=img/fixation3.jpg></div><div class='cl'><div class='vertical-center'>$35<br>for<br>NN</div></div><div class='cr'><div class='vertical-center'>$15<br>for<br>yourself</div></div><div class='respDivL'><div class='vertical-center'>(E)</div></div><div class='respDivR'><div class='vertical-center'>(I)</div></div></div>","E","offer","$15<br>for<br>yourself","$35<br>for<br>2","1","15","35","2","OTHER"
"html-keyboard-response","74","107078","0.0-6.0-3.22","63e51ddb19fccd05514c629c","bdp_sd","Tue Mar 28 2023 18:27:42 GMT-0700 (Pacific Daylight Time)","117499","","null","","","<div class='trialBorder'><div class='vertical-center'><img style='vertical-align:center; align:center' src=img/fixation3.jpg></div><div class='cl'><div class='vertical-center'><font style='color:orange'>$35<br>for<br>NN</font></div></div><div class='cr'><div class='vertical-center'>$15<br>for<br>yourself</div></div><div class='respDivL'><div class='vertical-center'><font style='color:orange'>(E)</font></div></div><div class='respDivR'><div class='vertical-center'>(I)</div></div></div>","null","offerFB","$15<br>for<br>yourself","$35<br>for<br>2","1","15","35","2",""
"html-keyboard-response","75","107582","0.0-6.0-1.23","63e51ddb19fccd05514c629c","bdp_sd","Tue Mar 28 2023 18:27:42 GMT-0700 (Pacific Daylight Time)","117499","","null","","","<div class='trialBorder'><div class='vertical-center'><img style='vertical-align:center; align:center' src=img/fixation3.jpg></div></div>","null","FIX","","","","","","",""
"html-keyboard-response","76","109198","0.0-6.0-2.23","63e51ddb19fccd05514c629c","bdp_sd","Tue Mar 28 2023 18:27:42 GMT-0700 (Pacific Daylight Time)","117499","","1614","","","<div class='trialBorder'><div class='vertical-center'><img style='vertical-align:center; align:center' src=img/fixation3.jpg></div><div class='cl'><div class='vertical-center'>$54<br>for<br>yourself</div></div><div class='cr'><div class='vertical-center'>$60<br>for<br>NA</div></div><div class='respDivL'><div class='vertical-center'>(E)</div></div><div class='respDivR'><div class='vertical-center'>(I)</div></div></div>","E","offer","$54<br>for<br>yourself","$60<br>for<br>5","0","54","60","5","SELF"
"html-keyboard-response","77","109451","0.0-6.0-3.23","63e51ddb19fccd05514c629c","bdp_sd","Tue Mar 28 2023 18:27:42 GMT-0700 (Pacific Daylight Time)","117499","","null","","","<div class='trialBorder'><div class='vertical-center'><img style='vertical-align:center; align:center' src=img/fixation3.jpg></div><div class='cl'><div class='vertical-center'><font style='color:orange'>$54<br>for<br>yourself</font></div></div><div class='cr'><div class='vertical-center'>$60<br>for<br>NA</div></div><div class='respDivL'><div class='vertical-center'><font style='color:orange'>(E)</font></div></div><div class='respDivR'><div class='vertical-center'>(I)</div></div></div>","null","offerFB","$54<br>for<br>yourself","$60<br>for<br>5","0","54","60","5",""
"html-keyboard-response","78","109953","0.0-6.0-1.24","63e51ddb19fccd05514c629c","bdp_sd","Tue Mar 28 2023 18:27:42 GMT-0700 (Pacific Daylight Time)","117499","","null","","","<div class='trialBorder'><div class='vertical-center'><img style='vertical-align:center; align:center' src=img/fixation3.jpg></div></div>","null","FIX","","","","","","",""
"html-keyboard-response","79","112103","0.0-6.0-2.24","63e51ddb19fccd05514c629c","bdp_sd","Tue Mar 28 2023 18:27:42 GMT-0700 (Pacific Daylight Time)","117499","","2148","","","<div class='trialBorder'><div class='vertical-center'><img style='vertical-align:center; align:center' src=img/fixation3.jpg></div><div class='cl'><div class='vertical-center'>$20<br>for<br>yourself</div></div><div class='cr'><div class='vertical-center'>$55<br>for<br>NN</div></div><div class='respDivL'><div class='vertical-center'>(E)</div></div><div class='respDivR'><div class='vertical-center'>(I)</div></div></div>","I","offer","$20<br>for<br>yourself","$55<br>for<br>1","0","20","55","1","OTHER"
"html-keyboard-response","80","112355","0.0-6.0-3.24","63e51ddb19fccd05514c629c","bdp_sd","Tue Mar 28 2023 18:27:42 GMT-0700 (Pacific Daylight Time)","117499","","null","","","<div class='trialBorder'><div class='vertical-center'><img style='vertical-align:center; align:center' src=img/fixation3.jpg></div><div class='cl'><div class='vertical-center'>$20<br>for<br>yourself</div></div><div class='cr'><div class='vertical-center'><font style='color:orange'>$55<br>for<br>NN</font></div></div><div class='respDivL'><div class='vertical-center'>(E)</div></div><div class='respDivR'><div class='vertical-center'><font style='color:orange'>(I)</font></div></div></div>","null","offerFB","$20<br>for<br>yourself","$55<br>for<br>1","0","20","55","1",""
"html-keyboard-response","81","112857","0.0-6.0-1.25","63e51ddb19fccd05514c629c","bdp_sd","Tue Mar 28 2023 18:27:42 GMT-0700 (Pacific Daylight Time)","117499","","null","","","<div class='trialBorder'><div class='vertical-center'><img style='vertical-align:center; align:center' src=img/fixation3.jpg></div></div>","null","FIX","","","","","","",""
"html-keyboard-response","82","114148","0.0-6.0-2.25","63e51ddb19fccd05514c629c","bdp_sd","Tue Mar 28 2023 18:27:42 GMT-0700 (Pacific Daylight Time)","117499","","1288","","","<div class='trialBorder'><div class='vertical-center'><img style='vertical-align:center; align:center' src=img/fixation3.jpg></div><div class='cl'><div class='vertical-center'>$34<br>for<br>yourself</div></div><div class='cr'><div class='vertical-center'>$35<br>for<br>NA</div></div><div class='respDivL'><div class='vertical-center'>(E)</div></div><div class='respDivR'><div class='vertical-center'>(I)</div></div></div>","I","offer","$34<br>for<br>yourself","$35<br>for<br>5","0","34","35","5","OTHER"
"html-keyboard-response","83","114400","0.0-6.0-3.25","63e51ddb19fccd05514c629c","bdp_sd","Tue Mar 28 2023 18:27:42 GMT-0700 (Pacific Daylight Time)","117499","","null","","","<div class='trialBorder'><div class='vertical-center'><img style='vertical-align:center; align:center' src=img/fixation3.jpg></div><div class='cl'><div class='vertical-center'>$34<br>for<br>yourself</div></div><div class='cr'><div class='vertical-center'><font style='color:orange'>$35<br>for<br>NA</font></div></div><div class='respDivL'><div class='vertical-center'>(E)</div></div><div class='respDivR'><div class='vertical-center'><font style='color:orange'>(I)</font></div></div></div>","null","offerFB","$34<br>for<br>yourself","$35<br>for<br>5","0","34","35","5",""
"html-keyboard-response","84","114902","0.0-6.0-1.26","63e51ddb19fccd05514c629c","bdp_sd","Tue Mar 28 2023 18:27:42 GMT-0700 (Pacific Daylight Time)","117499","","null","","","<div class='trialBorder'><div class='vertical-center'><img style='vertical-align:center; align:center' src=img/fixation3.jpg></div></div>","null","FIX","","","","","","",""
"html-keyboard-response","85","116243","0.0-6.0-2.26","63e51ddb19fccd05514c629c","bdp_sd","Tue Mar 28 2023 18:27:42 GMT-0700 (Pacific Daylight Time)","117499","","1339","","","<div class='trialBorder'><div class='vertical-center'><img style='vertical-align:center; align:center' src=img/fixation3.jpg></div><div class='cl'><div class='vertical-center'>$28<br>for<br>yourself</div></div><div class='cr'><div class='vertical-center'>$30<br>for<br>NA</div></div><div class='respDivL'><div class='vertical-center'>(E)</div></div><div class='respDivR'><div class='vertical-center'>(I)</div></div></div>","E","offer","$28<br>for<br>yourself","$30<br>for<br>5","0","28","30","5","SELF"
"html-keyboard-response","86","116496","0.0-6.0-3.26","63e51ddb19fccd05514c629c","bdp_sd","Tue Mar 28 2023 18:27:42 GMT-0700 (Pacific Daylight Time)","117499","","null","","","<div class='trialBorder'><div class='vertical-center'><img style='vertical-align:center; align:center' src=img/fixation3.jpg></div><div class='cl'><div class='vertical-center'><font style='color:orange'>$28<br>for<br>yourself</font></div></div><div class='cr'><div class='vertical-center'>$30<br>for<br>NA</div></div><div class='respDivL'><div class='vertical-center'><font style='color:orange'>(E)</font></div></div><div class='respDivR'><div class='vertical-center'>(I)</div></div></div>","null","offerFB","$28<br>for<br>yourself","$30<br>for<br>5","0","28","30","5",""
"fullscreen","87","117499","0.0-7.0","63e51ddb19fccd05514c629c","bdp_sd","Tue Mar 28 2023 18:27:42 GMT-0700 (Pacific Daylight Time)","117499","","","","true","","","","","","","","","",""
"html-keyboard-response","88","118001","0.0-8.0","","","","","","null","","","","null","","","","","","","",""
