"trial_type","trial_index","time_elapsed","internal_node_id","subject_id","task","startTime","totalTime","view_history","rt","responses","event","trial","time","trialtype","success","stimulus","key_press","selfOffer","otherOffer","otherLeft","selfAmt","otherAmt","otherDist","chosen"
"pavlovia","0","2","0.0-0.0","63e5be4daa8fac2e51d4fe91","bdp_sd","Tue Mar 28 2023 20:30:30 GMT-0400 (Eastern Daylight Time)","158216","","","","","","","","","","","","","","","","",""
"instructions","1","2299","0.0-1.0","63e5be4daa8fac2e51d4fe91","bdp_sd","Tue Mar 28 2023 20:30:30 GMT-0400 (Eastern Daylight Time)","158216","[{""page_index"":0,""viewing_time"":2295}]","2296","","","","","","","","","","","","","","",""
"survey-text","2","70505","0.0-2.0","63e5be4daa8fac2e51d4fe91","bdp_sd","Tue Mar 28 2023 20:30:30 GMT-0400 (Eastern Daylight Time)","158216","","68204","{""Q0"":""Daniel N"",""Q1"":""Matthew G"",""Q2"":""Jay P"",""Q3"":""Krish P"",""Q4"":""Ian C""}","","","","","","","","","","","","","",""
"","","","","63e5be4daa8fac2e51d4fe91","bdp_sd","Tue Mar 28 2023 20:30:30 GMT-0400 (Eastern Daylight Time)","158216","","","","fullscreenenter","3","71852","fullscreenenter","","","","","","","","","",""
"fullscreen","3","72844","0.0-3.0","63e5be4daa8fac2e51d4fe91","bdp_sd","Tue Mar 28 2023 20:30:30 GMT-0400 (Eastern Daylight Time)","158216","","","","","","","","true","","","","","","","","",""
"instructions","4","84751","0.0-5.0","63e5be4daa8fac2e51d4fe91","bdp_sd","Tue Mar 28 2023 20:30:30 GMT-0400 (Eastern Daylight Time)","158216","[{""page_index"":0,""viewing_time"":5312},{""page_index"":1,""viewing_time"":4849},{""page_index"":2,""viewing_time"":1745}]","11906","","","","","","","","","","","","","","",""
"html-keyboard-response","5","85254","0.0-6.0-1.0","63e5be4daa8fac2e51d4fe91","bdp_sd","Tue Mar 28 2023 20:30:30 GMT-0400 (Eastern Daylight Time)","158216","","null","","","","","FIX","","<div class='trialBorder'><div class='vertical-center'><img style='vertical-align:center; align:center' src=img/fixation3.jpg></div></div>","null","","","","","","",""
"html-keyboard-response","6","90881","0.0-6.0-2.0","63e5be4daa8fac2e51d4fe91","bdp_sd","Tue Mar 28 2023 20:30:30 GMT-0400 (Eastern Daylight Time)","158216","","5626","","","","","offer","","<div class='trialBorder'><div class='vertical-center'><img style='vertical-align:center; align:center' src=img/fixation3.jpg></div><div class='cl'><div class='vertical-center'>$78<br>for<br>yourself</div></div><div class='cr'><div class='vertical-center'>$80<br>for<br>Ian C</div></div><div class='respDivL'><div class='vertical-center'>(E)</div></div><div class='respDivR'><div class='vertical-center'>(I)</div></div></div>","E","$78<br>for<br>yourself","$80<br>for<br>5","0","78","80","5","SELF"
"html-keyboard-response","7","91135","0.0-6.0-3.0","63e5be4daa8fac2e51d4fe91","bdp_sd","Tue Mar 28 2023 20:30:30 GMT-0400 (Eastern Daylight Time)","158216","","null","","","","","offerFB","","<div class='trialBorder'><div class='vertical-center'><img style='vertical-align:center; align:center' src=img/fixation3.jpg></div><div class='cl'><div class='vertical-center'><font style='color:orange'>$78<br>for<br>yourself</font></div></div><div class='cr'><div class='vertical-center'>$80<br>for<br>Ian C</div></div><div class='respDivL'><div class='vertical-center'><font style='color:orange'>(E)</font></div></div><div class='respDivR'><div class='vertical-center'>(I)</div></div></div>","null","$78<br>for<br>yourself","$80<br>for<br>5","0","78","80","5",""
"html-keyboard-response","8","91636","0.0-6.0-1.1","63e5be4daa8fac2e51d4fe91","bdp_sd","Tue Mar 28 2023 20:30:30 GMT-0400 (Eastern Daylight Time)","158216","","null","","","","","FIX","","<div class='trialBorder'><div class='vertical-center'><img style='vertical-align:center; align:center' src=img/fixation3.jpg></div></div>","null","","","","","","",""
"html-keyboard-response","9","94406","0.0-6.0-2.1","63e5be4daa8fac2e51d4fe91","bdp_sd","Tue Mar 28 2023 20:30:30 GMT-0400 (Eastern Daylight Time)","158216","","2769","","","","","offer","","<div class='trialBorder'><div class='vertical-center'><img style='vertical-align:center; align:center' src=img/fixation3.jpg></div><div class='cl'><div class='vertical-center'>$22<br>for<br>yourself</div></div><div class='cr'><div class='vertical-center'>$25<br>for<br>Ian C</div></div><div class='respDivL'><div class='vertical-center'>(E)</div></div><div class='respDivR'><div class='vertical-center'>(I)</div></div></div>","I","$22<br>for<br>yourself","$25<br>for<br>5","0","22","25","5","OTHER"
"html-keyboard-response","10","94657","0.0-6.0-3.1","63e5be4daa8fac2e51d4fe91","bdp_sd","Tue Mar 28 2023 20:30:30 GMT-0400 (Eastern Daylight Time)","158216","","null","","","","","offerFB","","<div class='trialBorder'><div class='vertical-center'><img style='vertical-align:center; align:center' src=img/fixation3.jpg></div><div class='cl'><div class='vertical-center'>$22<br>for<br>yourself</div></div><div class='cr'><div class='vertical-center'><font style='color:orange'>$25<br>for<br>Ian C</font></div></div><div class='respDivL'><div class='vertical-center'>(E)</div></div><div class='respDivR'><div class='vertical-center'><font style='color:orange'>(I)</font></div></div></div>","null","$22<br>for<br>yourself","$25<br>for<br>5","0","22","25","5",""
"html-keyboard-response","11","95159","0.0-6.0-1.2","63e5be4daa8fac2e51d4fe91","bdp_sd","Tue Mar 28 2023 20:30:30 GMT-0400 (Eastern Daylight Time)","158216","","null","","","","","FIX","","<div class='trialBorder'><div class='vertical-center'><img style='vertical-align:center; align:center' src=img/fixation3.jpg></div></div>","null","","","","","","",""
"html-keyboard-response","12","96669","0.0-6.0-2.2","63e5be4daa8fac2e51d4fe91","bdp_sd","Tue Mar 28 2023 20:30:30 GMT-0400 (Eastern Daylight Time)","158216","","1510","","","","","offer","","<div class='trialBorder'><div class='vertical-center'><img style='vertical-align:center; align:center' src=img/fixation3.jpg></div><div class='cl'><div class='vertical-center'>$34<br>for<br>yourself</div></div><div class='cr'><div class='vertical-center'>$35<br>for<br>Ian C</div></div><div class='respDivL'><div class='vertical-center'>(E)</div></div><div class='respDivR'><div class='vertical-center'>(I)</div></div></div>","E","$34<br>for<br>yourself","$35<br>for<br>5","0","34","35","5","SELF"
"html-keyboard-response","13","96922","0.0-6.0-3.2","63e5be4daa8fac2e51d4fe91","bdp_sd","Tue Mar 28 2023 20:30:30 GMT-0400 (Eastern Daylight Time)","158216","","null","","","","","offerFB","","<div class='trialBorder'><div class='vertical-center'><img style='vertical-align:center; align:center' src=img/fixation3.jpg></div><div class='cl'><div class='vertical-center'><font style='color:orange'>$34<br>for<br>yourself</font></div></div><div class='cr'><div class='vertical-center'>$35<br>for<br>Ian C</div></div><div class='respDivL'><div class='vertical-center'><font style='color:orange'>(E)</font></div></div><div class='respDivR'><div class='vertical-center'>(I)</div></div></div>","null","$34<br>for<br>yourself","$35<br>for<br>5","0","34","35","5",""
"html-keyboard-response","14","97423","0.0-6.0-1.3","63e5be4daa8fac2e51d4fe91","bdp_sd","Tue Mar 28 2023 20:30:30 GMT-0400 (Eastern Daylight Time)","158216","","null","","","","","FIX","","<div class='trialBorder'><div class='vertical-center'><img style='vertical-align:center; align:center' src=img/fixation3.jpg></div></div>","null","","","","","","",""
"html-keyboard-response","15","98918","0.0-6.0-2.3","63e5be4daa8fac2e51d4fe91","bdp_sd","Tue Mar 28 2023 20:30:30 GMT-0400 (Eastern Daylight Time)","158216","","1494","","","","","offer","","<div class='trialBorder'><div class='vertical-center'><img style='vertical-align:center; align:center' src=img/fixation3.jpg></div><div class='cl'><div class='vertical-center'>$30<br>for<br>Matthew G</div></div><div class='cr'><div class='vertical-center'>$11<br>for<br>yourself</div></div><div class='respDivL'><div class='vertical-center'>(E)</div></div><div class='respDivR'><div class='vertical-center'>(I)</div></div></div>","E","$11<br>for<br>yourself","$30<br>for<br>2","1","11","30","2","OTHER"
"html-keyboard-response","16","99170","0.0-6.0-3.3","63e5be4daa8fac2e51d4fe91","bdp_sd","Tue Mar 28 2023 20:30:30 GMT-0400 (Eastern Daylight Time)","158216","","null","","","","","offerFB","","<div class='trialBorder'><div class='vertical-center'><img style='vertical-align:center; align:center' src=img/fixation3.jpg></div><div class='cl'><div class='vertical-center'><font style='color:orange'>$30<br>for<br>Matthew G</font></div></div><div class='cr'><div class='vertical-center'>$11<br>for<br>yourself</div></div><div class='respDivL'><div class='vertical-center'><font style='color:orange'>(E)</font></div></div><div class='respDivR'><div class='vertical-center'>(I)</div></div></div>","null","$11<br>for<br>yourself","$30<br>for<br>2","1","11","30","2",""
"html-keyboard-response","17","99672","0.0-6.0-1.4","63e5be4daa8fac2e51d4fe91","bdp_sd","Tue Mar 28 2023 20:30:30 GMT-0400 (Eastern Daylight Time)","158216","","null","","","","","FIX","","<div class='trialBorder'><div class='vertical-center'><img style='vertical-align:center; align:center' src=img/fixation3.jpg></div></div>","null","","","","","","",""
"html-keyboard-response","18","101212","0.0-6.0-2.4","63e5be4daa8fac2e51d4fe91","bdp_sd","Tue Mar 28 2023 20:30:30 GMT-0400 (Eastern Daylight Time)","158216","","1539","","","","","offer","","<div class='trialBorder'><div class='vertical-center'><img style='vertical-align:center; align:center' src=img/fixation3.jpg></div><div class='cl'><div class='vertical-center'>$25<br>for<br>yourself</div></div><div class='cr'><div class='vertical-center'>$30<br>for<br>Krish P</div></div><div class='respDivL'><div class='vertical-center'>(E)</div></div><div class='respDivR'><div class='vertical-center'>(I)</div></div></div>","E","$25<br>for<br>yourself","$30<br>for<br>4","0","25","30","4","SELF"
"html-keyboard-response","19","101463","0.0-6.0-3.4","63e5be4daa8fac2e51d4fe91","bdp_sd","Tue Mar 28 2023 20:30:30 GMT-0400 (Eastern Daylight Time)","158216","","null","","","","","offerFB","","<div class='trialBorder'><div class='vertical-center'><img style='vertical-align:center; align:center' src=img/fixation3.jpg></div><div class='cl'><div class='vertical-center'><font style='color:orange'>$25<br>for<br>yourself</font></div></div><div class='cr'><div class='vertical-center'>$30<br>for<br>Krish P</div></div><div class='respDivL'><div class='vertical-center'><font style='color:orange'>(E)</font></div></div><div class='respDivR'><div class='vertical-center'>(I)</div></div></div>","null","$25<br>for<br>yourself","$30<br>for<br>4","0","25","30","4",""
"html-keyboard-response","20","101965","0.0-6.0-1.5","63e5be4daa8fac2e51d4fe91","bdp_sd","Tue Mar 28 2023 20:30:30 GMT-0400 (Eastern Daylight Time)","158216","","null","","","","","FIX","","<div class='trialBorder'><div class='vertical-center'><img style='vertical-align:center; align:center' src=img/fixation3.jpg></div></div>","null","","","","","","",""
"html-keyboard-response","21","105389","0.0-6.0-2.5","63e5be4daa8fac2e51d4fe91","bdp_sd","Tue Mar 28 2023 20:30:30 GMT-0400 (Eastern Daylight Time)","158216","","3422","","","","","offer","","<div class='trialBorder'><div class='vertical-center'><img style='vertical-align:center; align:center' src=img/fixation3.jpg></div><div class='cl'><div class='vertical-center'>$19<br>for<br>yourself</div></div><div class='cr'><div class='vertical-center'>$25<br>for<br>Krish P</div></div><div class='respDivL'><div class='vertical-center'>(E)</div></div><div class='respDivR'><div class='vertical-center'>(I)</div></div></div>","E","$19<br>for<br>yourself","$25<br>for<br>4","0","19","25","4","SELF"
"html-keyboard-response","22","105643","0.0-6.0-3.5","63e5be4daa8fac2e51d4fe91","bdp_sd","Tue Mar 28 2023 20:30:30 GMT-0400 (Eastern Daylight Time)","158216","","null","","","","","offerFB","","<div class='trialBorder'><div class='vertical-center'><img style='vertical-align:center; align:center' src=img/fixation3.jpg></div><div class='cl'><div class='vertical-center'><font style='color:orange'>$19<br>for<br>yourself</font></div></div><div class='cr'><div class='vertical-center'>$25<br>for<br>Krish P</div></div><div class='respDivL'><div class='vertical-center'><font style='color:orange'>(E)</font></div></div><div class='respDivR'><div class='vertical-center'>(I)</div></div></div>","null","$19<br>for<br>yourself","$25<br>for<br>4","0","19","25","4",""
"html-keyboard-response","23","106144","0.0-6.0-1.6","63e5be4daa8fac2e51d4fe91","bdp_sd","Tue Mar 28 2023 20:30:30 GMT-0400 (Eastern Daylight Time)","158216","","null","","","","","FIX","","<div class='trialBorder'><div class='vertical-center'><img style='vertical-align:center; align:center' src=img/fixation3.jpg></div></div>","null","","","","","","",""
"html-keyboard-response","24","107260","0.0-6.0-2.6","63e5be4daa8fac2e51d4fe91","bdp_sd","Tue Mar 28 2023 20:30:30 GMT-0400 (Eastern Daylight Time)","158216","","1115","","","","","offer","","<div class='trialBorder'><div class='vertical-center'><img style='vertical-align:center; align:center' src=img/fixation3.jpg></div><div class='cl'><div class='vertical-center'>$35<br>for<br>Matthew G</div></div><div class='cr'><div class='vertical-center'>$15<br>for<br>yourself</div></div><div class='respDivL'><div class='vertical-center'>(E)</div></div><div class='respDivR'><div class='vertical-center'>(I)</div></div></div>","E","$15<br>for<br>yourself","$35<br>for<br>2","1","15","35","2","OTHER"
"html-keyboard-response","25","107513","0.0-6.0-3.6","63e5be4daa8fac2e51d4fe91","bdp_sd","Tue Mar 28 2023 20:30:30 GMT-0400 (Eastern Daylight Time)","158216","","null","","","","","offerFB","","<div class='trialBorder'><div class='vertical-center'><img style='vertical-align:center; align:center' src=img/fixation3.jpg></div><div class='cl'><div class='vertical-center'><font style='color:orange'>$35<br>for<br>Matthew G</font></div></div><div class='cr'><div class='vertical-center'>$15<br>for<br>yourself</div></div><div class='respDivL'><div class='vertical-center'><font style='color:orange'>(E)</font></div></div><div class='respDivR'><div class='vertical-center'>(I)</div></div></div>","null","$15<br>for<br>yourself","$35<br>for<br>2","1","15","35","2",""
"html-keyboard-response","26","108014","0.0-6.0-1.7","63e5be4daa8fac2e51d4fe91","bdp_sd","Tue Mar 28 2023 20:30:30 GMT-0400 (Eastern Daylight Time)","158216","","null","","","","","FIX","","<div class='trialBorder'><div class='vertical-center'><img style='vertical-align:center; align:center' src=img/fixation3.jpg></div></div>","null","","","","","","",""
"html-keyboard-response","27","109228","0.0-6.0-2.7","63e5be4daa8fac2e51d4fe91","bdp_sd","Tue Mar 28 2023 20:30:30 GMT-0400 (Eastern Daylight Time)","158216","","1213","","","","","offer","","<div class='trialBorder'><div class='vertical-center'><img style='vertical-align:center; align:center' src=img/fixation3.jpg></div><div class='cl'><div class='vertical-center'>$35<br>for<br>Jay P</div></div><div class='cr'><div class='vertical-center'>$24<br>for<br>yourself</div></div><div class='respDivL'><div class='vertical-center'>(E)</div></div><div class='respDivR'><div class='vertical-center'>(I)</div></div></div>","E","$24<br>for<br>yourself","$35<br>for<br>3","1","24","35","3","OTHER"
"html-keyboard-response","28","109480","0.0-6.0-3.7","63e5be4daa8fac2e51d4fe91","bdp_sd","Tue Mar 28 2023 20:30:30 GMT-0400 (Eastern Daylight Time)","158216","","null","","","","","offerFB","","<div class='trialBorder'><div class='vertical-center'><img style='vertical-align:center; align:center' src=img/fixation3.jpg></div><div class='cl'><div class='vertical-center'><font style='color:orange'>$35<br>for<br>Jay P</font></div></div><div class='cr'><div class='vertical-center'>$24<br>for<br>yourself</div></div><div class='respDivL'><div class='vertical-center'><font style='color:orange'>(E)</font></div></div><div class='respDivR'><div class='vertical-center'>(I)</div></div></div>","null","$24<br>for<br>yourself","$35<br>for<br>3","1","24","35","3",""
"html-keyboard-response","29","109982","0.0-6.0-1.8","63e5be4daa8fac2e51d4fe91","bdp_sd","Tue Mar 28 2023 20:30:30 GMT-0400 (Eastern Daylight Time)","158216","","null","","","","","FIX","","<div class='trialBorder'><div class='vertical-center'><img style='vertical-align:center; align:center' src=img/fixation3.jpg></div></div>","null","","","","","","",""
"html-keyboard-response","30","111238","0.0-6.0-2.8","63e5be4daa8fac2e51d4fe91","bdp_sd","Tue Mar 28 2023 20:30:30 GMT-0400 (Eastern Daylight Time)","158216","","1255","","","","","offer","","<div class='trialBorder'><div class='vertical-center'><img style='vertical-align:center; align:center' src=img/fixation3.jpg></div><div class='cl'><div class='vertical-center'>$50<br>for<br>Jay P</div></div><div class='cr'><div class='vertical-center'>$27<br>for<br>yourself</div></div><div class='respDivL'><div class='vertical-center'>(E)</div></div><div class='respDivR'><div class='vertical-center'>(I)</div></div></div>","E","$27<br>for<br>yourself","$50<br>for<br>3","1","27","50","3","OTHER"
"html-keyboard-response","31","111490","0.0-6.0-3.8","63e5be4daa8fac2e51d4fe91","bdp_sd","Tue Mar 28 2023 20:30:30 GMT-0400 (Eastern Daylight Time)","158216","","null","","","","","offerFB","","<div class='trialBorder'><div class='vertical-center'><img style='vertical-align:center; align:center' src=img/fixation3.jpg></div><div class='cl'><div class='vertical-center'><font style='color:orange'>$50<br>for<br>Jay P</font></div></div><div class='cr'><div class='vertical-center'>$27<br>for<br>yourself</div></div><div class='respDivL'><div class='vertical-center'><font style='color:orange'>(E)</font></div></div><div class='respDivR'><div class='vertical-center'>(I)</div></div></div>","null","$27<br>for<br>yourself","$50<br>for<br>3","1","27","50","3",""
"html-keyboard-response","32","111992","0.0-6.0-1.9","63e5be4daa8fac2e51d4fe91","bdp_sd","Tue Mar 28 2023 20:30:30 GMT-0400 (Eastern Daylight Time)","158216","","null","","","","","FIX","","<div class='trialBorder'><div class='vertical-center'><img style='vertical-align:center; align:center' src=img/fixation3.jpg></div></div>","null","","","","","","",""
"html-keyboard-response","33","114551","0.0-6.0-2.9","63e5be4daa8fac2e51d4fe91","bdp_sd","Tue Mar 28 2023 20:30:30 GMT-0400 (Eastern Daylight Time)","158216","","2558","","","","","offer","","<div class='trialBorder'><div class='vertical-center'><img style='vertical-align:center; align:center' src=img/fixation3.jpg></div><div class='cl'><div class='vertical-center'>$40<br>for<br>yourself</div></div><div class='cr'><div class='vertical-center'>$55<br>for<br>Krish P</div></div><div class='respDivL'><div class='vertical-center'>(E)</div></div><div class='respDivR'><div class='vertical-center'>(I)</div></div></div>","I","$40<br>for<br>yourself","$55<br>for<br>4","0","40","55","4","OTHER"
"html-keyboard-response","34","114803","0.0-6.0-3.9","63e5be4daa8fac2e51d4fe91","bdp_sd","Tue Mar 28 2023 20:30:30 GMT-0400 (Eastern Daylight Time)","158216","","null","","","","","offerFB","","<div class='trialBorder'><div class='vertical-center'><img style='vertical-align:center; align:center' src=img/fixation3.jpg></div><div class='cl'><div class='vertical-center'>$40<br>for<br>yourself</div></div><div class='cr'><div class='vertical-center'><font style='color:orange'>$55<br>for<br>Krish P</font></div></div><div class='respDivL'><div class='vertical-center'>(E)</div></div><div class='respDivR'><div class='vertical-center'><font style='color:orange'>(I)</font></div></div></div>","null","$40<br>for<br>yourself","$55<br>for<br>4","0","40","55","4",""
"html-keyboard-response","35","115305","0.0-6.0-1.10","63e5be4daa8fac2e51d4fe91","bdp_sd","Tue Mar 28 2023 20:30:30 GMT-0400 (Eastern Daylight Time)","158216","","null","","","","","FIX","","<div class='trialBorder'><div class='vertical-center'><img style='vertical-align:center; align:center' src=img/fixation3.jpg></div></div>","null","","","","","","",""
"html-keyboard-response","36","117150","0.0-6.0-2.10","63e5be4daa8fac2e51d4fe91","bdp_sd","Tue Mar 28 2023 20:30:30 GMT-0400 (Eastern Daylight Time)","158216","","1844","","","","","offer","","<div class='trialBorder'><div class='vertical-center'><img style='vertical-align:center; align:center' src=img/fixation3.jpg></div><div class='cl'><div class='vertical-center'>$54<br>for<br>yourself</div></div><div class='cr'><div class='vertical-center'>$80<br>for<br>Jay P</div></div><div class='respDivL'><div class='vertical-center'>(E)</div></div><div class='respDivR'><div class='vertical-center'>(I)</div></div></div>","I","$54<br>for<br>yourself","$80<br>for<br>3","0","54","80","3","OTHER"
"html-keyboard-response","37","117403","0.0-6.0-3.10","63e5be4daa8fac2e51d4fe91","bdp_sd","Tue Mar 28 2023 20:30:30 GMT-0400 (Eastern Daylight Time)","158216","","null","","","","","offerFB","","<div class='trialBorder'><div class='vertical-center'><img style='vertical-align:center; align:center' src=img/fixation3.jpg></div><div class='cl'><div class='vertical-center'>$54<br>for<br>yourself</div></div><div class='cr'><div class='vertical-center'><font style='color:orange'>$80<br>for<br>Jay P</font></div></div><div class='respDivL'><div class='vertical-center'>(E)</div></div><div class='respDivR'><div class='vertical-center'><font style='color:orange'>(I)</font></div></div></div>","null","$54<br>for<br>yourself","$80<br>for<br>3","0","54","80","3",""
"html-keyboard-response","38","117904","0.0-6.0-1.11","63e5be4daa8fac2e51d4fe91","bdp_sd","Tue Mar 28 2023 20:30:30 GMT-0400 (Eastern Daylight Time)","158216","","null","","","","","FIX","","<div class='trialBorder'><div class='vertical-center'><img style='vertical-align:center; align:center' src=img/fixation3.jpg></div></div>","null","","","","","","",""
"html-keyboard-response","39","120764","0.0-6.0-2.11","63e5be4daa8fac2e51d4fe91","bdp_sd","Tue Mar 28 2023 20:30:30 GMT-0400 (Eastern Daylight Time)","158216","","2859","","","","","offer","","<div class='trialBorder'><div class='vertical-center'><img style='vertical-align:center; align:center' src=img/fixation3.jpg></div><div class='cl'><div class='vertical-center'>$54<br>for<br>yourself</div></div><div class='cr'><div class='vertical-center'>$55<br>for<br>Ian C</div></div><div class='respDivL'><div class='vertical-center'>(E)</div></div><div class='respDivR'><div class='vertical-center'>(I)</div></div></div>","E","$54<br>for<br>yourself","$55<br>for<br>5","0","54","55","5","SELF"
"html-keyboard-response","40","121016","0.0-6.0-3.11","63e5be4daa8fac2e51d4fe91","bdp_sd","Tue Mar 28 2023 20:30:30 GMT-0400 (Eastern Daylight Time)","158216","","null","","","","","offerFB","","<div class='trialBorder'><div class='vertical-center'><img style='vertical-align:center; align:center' src=img/fixation3.jpg></div><div class='cl'><div class='vertical-center'><font style='color:orange'>$54<br>for<br>yourself</font></div></div><div class='cr'><div class='vertical-center'>$55<br>for<br>Ian C</div></div><div class='respDivL'><div class='vertical-center'><font style='color:orange'>(E)</font></div></div><div class='respDivR'><div class='vertical-center'>(I)</div></div></div>","null","$54<br>for<br>yourself","$55<br>for<br>5","0","54","55","5",""
"html-keyboard-response","41","121518","0.0-6.0-1.12","63e5be4daa8fac2e51d4fe91","bdp_sd","Tue Mar 28 2023 20:30:30 GMT-0400 (Eastern Daylight Time)","158216","","null","","","","","FIX","","<div class='trialBorder'><div class='vertical-center'><img style='vertical-align:center; align:center' src=img/fixation3.jpg></div></div>","null","","","","","","",""
"html-keyboard-response","42","123567","0.0-6.0-2.12","63e5be4daa8fac2e51d4fe91","bdp_sd","Tue Mar 28 2023 20:30:30 GMT-0400 (Eastern Daylight Time)","158216","","2048","","","","","offer","","<div class='trialBorder'><div class='vertical-center'><img style='vertical-align:center; align:center' src=img/fixation3.jpg></div><div class='cl'><div class='vertical-center'>$69<br>for<br>yourself</div></div><div class='cr'><div class='vertical-center'>$85<br>for<br>Krish P</div></div><div class='respDivL'><div class='vertical-center'>(E)</div></div><div class='respDivR'><div class='vertical-center'>(I)</div></div></div>","E","$69<br>for<br>yourself","$85<br>for<br>4","0","69","85","4","SELF"
"html-keyboard-response","43","123820","0.0-6.0-3.12","63e5be4daa8fac2e51d4fe91","bdp_sd","Tue Mar 28 2023 20:30:30 GMT-0400 (Eastern Daylight Time)","158216","","null","","","","","offerFB","","<div class='trialBorder'><div class='vertical-center'><img style='vertical-align:center; align:center' src=img/fixation3.jpg></div><div class='cl'><div class='vertical-center'><font style='color:orange'>$69<br>for<br>yourself</font></div></div><div class='cr'><div class='vertical-center'>$85<br>for<br>Krish P</div></div><div class='respDivL'><div class='vertical-center'><font style='color:orange'>(E)</font></div></div><div class='respDivR'><div class='vertical-center'>(I)</div></div></div>","null","$69<br>for<br>yourself","$85<br>for<br>4","0","69","85","4",""
"html-keyboard-response","44","124322","0.0-6.0-1.13","63e5be4daa8fac2e51d4fe91","bdp_sd","Tue Mar 28 2023 20:30:30 GMT-0400 (Eastern Daylight Time)","158216","","null","","","","","FIX","","<div class='trialBorder'><div class='vertical-center'><img style='vertical-align:center; align:center' src=img/fixation3.jpg></div></div>","null","","","","","","",""
"html-keyboard-response","45","126688","0.0-6.0-2.13","63e5be4daa8fac2e51d4fe91","bdp_sd","Tue Mar 28 2023 20:30:30 GMT-0400 (Eastern Daylight Time)","158216","","2365","","","","","offer","","<div class='trialBorder'><div class='vertical-center'><img style='vertical-align:center; align:center' src=img/fixation3.jpg></div><div class='cl'><div class='vertical-center'>$50<br>for<br>Ian C</div></div><div class='cr'><div class='vertical-center'>$47<br>for<br>yourself</div></div><div class='respDivL'><div class='vertical-center'>(E)</div></div><div class='respDivR'><div class='vertical-center'>(I)</div></div></div>","E","$47<br>for<br>yourself","$50<br>for<br>5","1","47","50","5","OTHER"
"html-keyboard-response","46","126940","0.0-6.0-3.13","63e5be4daa8fac2e51d4fe91","bdp_sd","Tue Mar 28 2023 20:30:30 GMT-0400 (Eastern Daylight Time)","158216","","null","","","","","offerFB","","<div class='trialBorder'><div class='vertical-center'><img style='vertical-align:center; align:center' src=img/fixation3.jpg></div><div class='cl'><div class='vertical-center'><font style='color:orange'>$50<br>for<br>Ian C</font></div></div><div class='cr'><div class='vertical-center'>$47<br>for<br>yourself</div></div><div class='respDivL'><div class='vertical-center'><font style='color:orange'>(E)</font></div></div><div class='respDivR'><div class='vertical-center'>(I)</div></div></div>","null","$47<br>for<br>yourself","$50<br>for<br>5","1","47","50","5",""
"html-keyboard-response","47","127442","0.0-6.0-1.14","63e5be4daa8fac2e51d4fe91","bdp_sd","Tue Mar 28 2023 20:30:30 GMT-0400 (Eastern Daylight Time)","158216","","null","","","","","FIX","","<div class='trialBorder'><div class='vertical-center'><img style='vertical-align:center; align:center' src=img/fixation3.jpg></div></div>","null","","","","","","",""
"html-keyboard-response","48","128549","0.0-6.0-2.14","63e5be4daa8fac2e51d4fe91","bdp_sd","Tue Mar 28 2023 20:30:30 GMT-0400 (Eastern Daylight Time)","158216","","1106","","","","","offer","","<div class='trialBorder'><div class='vertical-center'><img style='vertical-align:center; align:center' src=img/fixation3.jpg></div><div class='cl'><div class='vertical-center'>$75<br>for<br>Jay P</div></div><div class='cr'><div class='vertical-center'>$41<br>for<br>yourself</div></div><div class='respDivL'><div class='vertical-center'>(E)</div></div><div class='respDivR'><div class='vertical-center'>(I)</div></div></div>","E","$41<br>for<br>yourself","$75<br>for<br>3","1","41","75","3","OTHER"
"html-keyboard-response","49","128802","0.0-6.0-3.14","63e5be4daa8fac2e51d4fe91","bdp_sd","Tue Mar 28 2023 20:30:30 GMT-0400 (Eastern Daylight Time)","158216","","null","","","","","offerFB","","<div class='trialBorder'><div class='vertical-center'><img style='vertical-align:center; align:center' src=img/fixation3.jpg></div><div class='cl'><div class='vertical-center'><font style='color:orange'>$75<br>for<br>Jay P</font></div></div><div class='cr'><div class='vertical-center'>$41<br>for<br>yourself</div></div><div class='respDivL'><div class='vertical-center'><font style='color:orange'>(E)</font></div></div><div class='respDivR'><div class='vertical-center'>(I)</div></div></div>","null","$41<br>for<br>yourself","$75<br>for<br>3","1","41","75","3",""
"html-keyboard-response","50","129304","0.0-6.0-1.15","63e5be4daa8fac2e51d4fe91","bdp_sd","Tue Mar 28 2023 20:30:30 GMT-0400 (Eastern Daylight Time)","158216","","null","","","","","FIX","","<div class='trialBorder'><div class='vertical-center'><img style='vertical-align:center; align:center' src=img/fixation3.jpg></div></div>","null","","","","","","",""
"html-keyboard-response","51","130899","0.0-6.0-2.15","63e5be4daa8fac2e51d4fe91","bdp_sd","Tue Mar 28 2023 20:30:30 GMT-0400 (Eastern Daylight Time)","158216","","1594","","","","","offer","","<div class='trialBorder'><div class='vertical-center'><img style='vertical-align:center; align:center' src=img/fixation3.jpg></div><div class='cl'><div class='vertical-center'>$30<br>for<br>Ian C</div></div><div class='cr'><div class='vertical-center'>$28<br>for<br>yourself</div></div><div class='respDivL'><div class='vertical-center'>(E)</div></div><div class='respDivR'><div class='vertical-center'>(I)</div></div></div>","I","$28<br>for<br>yourself","$30<br>for<br>5","1","28","30","5","SELF"
"html-keyboard-response","52","131151","0.0-6.0-3.15","63e5be4daa8fac2e51d4fe91","bdp_sd","Tue Mar 28 2023 20:30:30 GMT-0400 (Eastern Daylight Time)","158216","","null","","","","","offerFB","","<div class='trialBorder'><div class='vertical-center'><img style='vertical-align:center; align:center' src=img/fixation3.jpg></div><div class='cl'><div class='vertical-center'>$30<br>for<br>Ian C</div></div><div class='cr'><div class='vertical-center'><font style='color:orange'>$28<br>for<br>yourself</font></div></div><div class='respDivL'><div class='vertical-center'>(E)</div></div><div class='respDivR'><div class='vertical-center'><font style='color:orange'>(I)</font></div></div></div>","null","$28<br>for<br>yourself","$30<br>for<br>5","1","28","30","5",""
"html-keyboard-response","53","131653","0.0-6.0-1.16","63e5be4daa8fac2e51d4fe91","bdp_sd","Tue Mar 28 2023 20:30:30 GMT-0400 (Eastern Daylight Time)","158216","","null","","","","","FIX","","<div class='trialBorder'><div class='vertical-center'><img style='vertical-align:center; align:center' src=img/fixation3.jpg></div></div>","null","","","","","","",""
"html-keyboard-response","54","132673","0.0-6.0-2.16","63e5be4daa8fac2e51d4fe91","bdp_sd","Tue Mar 28 2023 20:30:30 GMT-0400 (Eastern Daylight Time)","158216","","1019","","","","","offer","","<div class='trialBorder'><div class='vertical-center'><img style='vertical-align:center; align:center' src=img/fixation3.jpg></div><div class='cl'><div class='vertical-center'>$60<br>for<br>Jay P</div></div><div class='cr'><div class='vertical-center'>$25<br>for<br>yourself</div></div><div class='respDivL'><div class='vertical-center'>(E)</div></div><div class='respDivR'><div class='vertical-center'>(I)</div></div></div>","E","$25<br>for<br>yourself","$60<br>for<br>3","1","25","60","3","OTHER"
"html-keyboard-response","55","132925","0.0-6.0-3.16","63e5be4daa8fac2e51d4fe91","bdp_sd","Tue Mar 28 2023 20:30:30 GMT-0400 (Eastern Daylight Time)","158216","","null","","","","","offerFB","","<div class='trialBorder'><div class='vertical-center'><img style='vertical-align:center; align:center' src=img/fixation3.jpg></div><div class='cl'><div class='vertical-center'><font style='color:orange'>$60<br>for<br>Jay P</font></div></div><div class='cr'><div class='vertical-center'>$25<br>for<br>yourself</div></div><div class='respDivL'><div class='vertical-center'><font style='color:orange'>(E)</font></div></div><div class='respDivR'><div class='vertical-center'>(I)</div></div></div>","null","$25<br>for<br>yourself","$60<br>for<br>3","1","25","60","3",""
"html-keyboard-response","56","133427","0.0-6.0-1.17","63e5be4daa8fac2e51d4fe91","bdp_sd","Tue Mar 28 2023 20:30:30 GMT-0400 (Eastern Daylight Time)","158216","","null","","","","","FIX","","<div class='trialBorder'><div class='vertical-center'><img style='vertical-align:center; align:center' src=img/fixation3.jpg></div></div>","null","","","","","","",""
"html-keyboard-response","57","134888","0.0-6.0-2.17","63e5be4daa8fac2e51d4fe91","bdp_sd","Tue Mar 28 2023 20:30:30 GMT-0400 (Eastern Daylight Time)","158216","","1461","","","","","offer","","<div class='trialBorder'><div class='vertical-center'><img style='vertical-align:center; align:center' src=img/fixation3.jpg></div><div class='cl'><div class='vertical-center'>$31<br>for<br>yourself</div></div><div class='cr'><div class='vertical-center'>$85<br>for<br>Daniel N</div></div><div class='respDivL'><div class='vertical-center'>(E)</div></div><div class='respDivR'><div class='vertical-center'>(I)</div></div></div>","I","$31<br>for<br>yourself","$85<br>for<br>1","0","31","85","1","OTHER"
"html-keyboard-response","58","135139","0.0-6.0-3.17","63e5be4daa8fac2e51d4fe91","bdp_sd","Tue Mar 28 2023 20:30:30 GMT-0400 (Eastern Daylight Time)","158216","","null","","","","","offerFB","","<div class='trialBorder'><div class='vertical-center'><img style='vertical-align:center; align:center' src=img/fixation3.jpg></div><div class='cl'><div class='vertical-center'>$31<br>for<br>yourself</div></div><div class='cr'><div class='vertical-center'><font style='color:orange'>$85<br>for<br>Daniel N</font></div></div><div class='respDivL'><div class='vertical-center'>(E)</div></div><div class='respDivR'><div class='vertical-center'><font style='color:orange'>(I)</font></div></div></div>","null","$31<br>for<br>yourself","$85<br>for<br>1","0","31","85","1",""
"html-keyboard-response","59","135641","0.0-6.0-1.18","63e5be4daa8fac2e51d4fe91","bdp_sd","Tue Mar 28 2023 20:30:30 GMT-0400 (Eastern Daylight Time)","158216","","null","","","","","FIX","","<div class='trialBorder'><div class='vertical-center'><img style='vertical-align:center; align:center' src=img/fixation3.jpg></div></div>","null","","","","","","",""
"html-keyboard-response","60","138023","0.0-6.0-2.18","63e5be4daa8fac2e51d4fe91","bdp_sd","Tue Mar 28 2023 20:30:30 GMT-0400 (Eastern Daylight Time)","158216","","2382","","","","","offer","","<div class='trialBorder'><div class='vertical-center'><img style='vertical-align:center; align:center' src=img/fixation3.jpg></div><div class='cl'><div class='vertical-center'>$50<br>for<br>Krish P</div></div><div class='cr'><div class='vertical-center'>$34<br>for<br>yourself</div></div><div class='respDivL'><div class='vertical-center'>(E)</div></div><div class='respDivR'><div class='vertical-center'>(I)</div></div></div>","E","$34<br>for<br>yourself","$50<br>for<br>4","1","34","50","4","OTHER"
"html-keyboard-response","61","138276","0.0-6.0-3.18","63e5be4daa8fac2e51d4fe91","bdp_sd","Tue Mar 28 2023 20:30:30 GMT-0400 (Eastern Daylight Time)","158216","","null","","","","","offerFB","","<div class='trialBorder'><div class='vertical-center'><img style='vertical-align:center; align:center' src=img/fixation3.jpg></div><div class='cl'><div class='vertical-center'><font style='color:orange'>$50<br>for<br>Krish P</font></div></div><div class='cr'><div class='vertical-center'>$34<br>for<br>yourself</div></div><div class='respDivL'><div class='vertical-center'><font style='color:orange'>(E)</font></div></div><div class='respDivR'><div class='vertical-center'>(I)</div></div></div>","null","$34<br>for<br>yourself","$50<br>for<br>4","1","34","50","4",""
"html-keyboard-response","62","138777","0.0-6.0-1.19","63e5be4daa8fac2e51d4fe91","bdp_sd","Tue Mar 28 2023 20:30:30 GMT-0400 (Eastern Daylight Time)","158216","","null","","","","","FIX","","<div class='trialBorder'><div class='vertical-center'><img style='vertical-align:center; align:center' src=img/fixation3.jpg></div></div>","null","","","","","","",""
"html-keyboard-response","63","140431","0.0-6.0-2.19","63e5be4daa8fac2e51d4fe91","bdp_sd","Tue Mar 28 2023 20:30:30 GMT-0400 (Eastern Daylight Time)","158216","","1653","","","","","offer","","<div class='trialBorder'><div class='vertical-center'><img style='vertical-align:center; align:center' src=img/fixation3.jpg></div><div class='cl'><div class='vertical-center'>$85<br>for<br>Ian C</div></div><div class='cr'><div class='vertical-center'>$80<br>for<br>yourself</div></div><div class='respDivL'><div class='vertical-center'>(E)</div></div><div class='respDivR'><div class='vertical-center'>(I)</div></div></div>","I","$80<br>for<br>yourself","$85<br>for<br>5","1","80","85","5","SELF"
"html-keyboard-response","64","140683","0.0-6.0-3.19","63e5be4daa8fac2e51d4fe91","bdp_sd","Tue Mar 28 2023 20:30:30 GMT-0400 (Eastern Daylight Time)","158216","","null","","","","","offerFB","","<div class='trialBorder'><div class='vertical-center'><img style='vertical-align:center; align:center' src=img/fixation3.jpg></div><div class='cl'><div class='vertical-center'>$85<br>for<br>Ian C</div></div><div class='cr'><div class='vertical-center'><font style='color:orange'>$80<br>for<br>yourself</font></div></div><div class='respDivL'><div class='vertical-center'>(E)</div></div><div class='respDivR'><div class='vertical-center'><font style='color:orange'>(I)</font></div></div></div>","null","$80<br>for<br>yourself","$85<br>for<br>5","1","80","85","5",""
"html-keyboard-response","65","141185","0.0-6.0-1.20","63e5be4daa8fac2e51d4fe91","bdp_sd","Tue Mar 28 2023 20:30:30 GMT-0400 (Eastern Daylight Time)","158216","","null","","","","","FIX","","<div class='trialBorder'><div class='vertical-center'><img style='vertical-align:center; align:center' src=img/fixation3.jpg></div></div>","null","","","","","","",""
"html-keyboard-response","66","142481","0.0-6.0-2.20","63e5be4daa8fac2e51d4fe91","bdp_sd","Tue Mar 28 2023 20:30:30 GMT-0400 (Eastern Daylight Time)","158216","","1296","","","","","offer","","<div class='trialBorder'><div class='vertical-center'><img style='vertical-align:center; align:center' src=img/fixation3.jpg></div><div class='cl'><div class='vertical-center'>$33<br>for<br>yourself</div></div><div class='cr'><div class='vertical-center'>$80<br>for<br>Matthew G</div></div><div class='respDivL'><div class='vertical-center'>(E)</div></div><div class='respDivR'><div class='vertical-center'>(I)</div></div></div>","I","$33<br>for<br>yourself","$80<br>for<br>2","0","33","80","2","OTHER"
"html-keyboard-response","67","142733","0.0-6.0-3.20","63e5be4daa8fac2e51d4fe91","bdp_sd","Tue Mar 28 2023 20:30:30 GMT-0400 (Eastern Daylight Time)","158216","","null","","","","","offerFB","","<div class='trialBorder'><div class='vertical-center'><img style='vertical-align:center; align:center' src=img/fixation3.jpg></div><div class='cl'><div class='vertical-center'>$33<br>for<br>yourself</div></div><div class='cr'><div class='vertical-center'><font style='color:orange'>$80<br>for<br>Matthew G</font></div></div><div class='respDivL'><div class='vertical-center'>(E)</div></div><div class='respDivR'><div class='vertical-center'><font style='color:orange'>(I)</font></div></div></div>","null","$33<br>for<br>yourself","$80<br>for<br>2","0","33","80","2",""
"html-keyboard-response","68","143234","0.0-6.0-1.21","63e5be4daa8fac2e51d4fe91","bdp_sd","Tue Mar 28 2023 20:30:30 GMT-0400 (Eastern Daylight Time)","158216","","null","","","","","FIX","","<div class='trialBorder'><div class='vertical-center'><img style='vertical-align:center; align:center' src=img/fixation3.jpg></div></div>","null","","","","","","",""
"html-keyboard-response","69","145398","0.0-6.0-2.21","63e5be4daa8fac2e51d4fe91","bdp_sd","Tue Mar 28 2023 20:30:30 GMT-0400 (Eastern Daylight Time)","158216","","2163","","","","","offer","","<div class='trialBorder'><div class='vertical-center'><img style='vertical-align:center; align:center' src=img/fixation3.jpg></div><div class='cl'><div class='vertical-center'>$67<br>for<br>yourself</div></div><div class='cr'><div class='vertical-center'>$75<br>for<br>Ian C</div></div><div class='respDivL'><div class='vertical-center'>(E)</div></div><div class='respDivR'><div class='vertical-center'>(I)</div></div></div>","E","$67<br>for<br>yourself","$75<br>for<br>5","0","67","75","5","SELF"
"html-keyboard-response","70","145650","0.0-6.0-3.21","63e5be4daa8fac2e51d4fe91","bdp_sd","Tue Mar 28 2023 20:30:30 GMT-0400 (Eastern Daylight Time)","158216","","null","","","","","offerFB","","<div class='trialBorder'><div class='vertical-center'><img style='vertical-align:center; align:center' src=img/fixation3.jpg></div><div class='cl'><div class='vertical-center'><font style='color:orange'>$67<br>for<br>yourself</font></div></div><div class='cr'><div class='vertical-center'>$75<br>for<br>Ian C</div></div><div class='respDivL'><div class='vertical-center'><font style='color:orange'>(E)</font></div></div><div class='respDivR'><div class='vertical-center'>(I)</div></div></div>","null","$67<br>for<br>yourself","$75<br>for<br>5","0","67","75","5",""
"html-keyboard-response","71","146151","0.0-6.0-1.22","63e5be4daa8fac2e51d4fe91","bdp_sd","Tue Mar 28 2023 20:30:30 GMT-0400 (Eastern Daylight Time)","158216","","null","","","","","FIX","","<div class='trialBorder'><div class='vertical-center'><img style='vertical-align:center; align:center' src=img/fixation3.jpg></div></div>","null","","","","","","",""
"html-keyboard-response","72","147367","0.0-6.0-2.22","63e5be4daa8fac2e51d4fe91","bdp_sd","Tue Mar 28 2023 20:30:30 GMT-0400 (Eastern Daylight Time)","158216","","1215","","","","","offer","","<div class='trialBorder'><div class='vertical-center'><img style='vertical-align:center; align:center' src=img/fixation3.jpg></div><div class='cl'><div class='vertical-center'>$55<br>for<br>Daniel N</div></div><div class='cr'><div class='vertical-center'>$20<br>for<br>yourself</div></div><div class='respDivL'><div class='vertical-center'>(E)</div></div><div class='respDivR'><div class='vertical-center'>(I)</div></div></div>","E","$20<br>for<br>yourself","$55<br>for<br>1","1","20","55","1","OTHER"
"html-keyboard-response","73","147618","0.0-6.0-3.22","63e5be4daa8fac2e51d4fe91","bdp_sd","Tue Mar 28 2023 20:30:30 GMT-0400 (Eastern Daylight Time)","158216","","null","","","","","offerFB","","<div class='trialBorder'><div class='vertical-center'><img style='vertical-align:center; align:center' src=img/fixation3.jpg></div><div class='cl'><div class='vertical-center'><font style='color:orange'>$55<br>for<br>Daniel N</font></div></div><div class='cr'><div class='vertical-center'>$20<br>for<br>yourself</div></div><div class='respDivL'><div class='vertical-center'><font style='color:orange'>(E)</font></div></div><div class='respDivR'><div class='vertical-center'>(I)</div></div></div>","null","$20<br>for<br>yourself","$55<br>for<br>1","1","20","55","1",""
"html-keyboard-response","74","148119","0.0-6.0-1.23","63e5be4daa8fac2e51d4fe91","bdp_sd","Tue Mar 28 2023 20:30:30 GMT-0400 (Eastern Daylight Time)","158216","","null","","","","","FIX","","<div class='trialBorder'><div class='vertical-center'><img style='vertical-align:center; align:center' src=img/fixation3.jpg></div></div>","null","","","","","","",""
"html-keyboard-response","75","149937","0.0-6.0-2.23","63e5be4daa8fac2e51d4fe91","bdp_sd","Tue Mar 28 2023 20:30:30 GMT-0400 (Eastern Daylight Time)","158216","","1818","","","","","offer","","<div class='trialBorder'><div class='vertical-center'><img style='vertical-align:center; align:center' src=img/fixation3.jpg></div><div class='cl'><div class='vertical-center'>$54<br>for<br>yourself</div></div><div class='cr'><div class='vertical-center'>$60<br>for<br>Ian C</div></div><div class='respDivL'><div class='vertical-center'>(E)</div></div><div class='respDivR'><div class='vertical-center'>(I)</div></div></div>","I","$54<br>for<br>yourself","$60<br>for<br>5","0","54","60","5","OTHER"
"html-keyboard-response","76","150189","0.0-6.0-3.23","63e5be4daa8fac2e51d4fe91","bdp_sd","Tue Mar 28 2023 20:30:30 GMT-0400 (Eastern Daylight Time)","158216","","null","","","","","offerFB","","<div class='trialBorder'><div class='vertical-center'><img style='vertical-align:center; align:center' src=img/fixation3.jpg></div><div class='cl'><div class='vertical-center'>$54<br>for<br>yourself</div></div><div class='cr'><div class='vertical-center'><font style='color:orange'>$60<br>for<br>Ian C</font></div></div><div class='respDivL'><div class='vertical-center'>(E)</div></div><div class='respDivR'><div class='vertical-center'><font style='color:orange'>(I)</font></div></div></div>","null","$54<br>for<br>yourself","$60<br>for<br>5","0","54","60","5",""
"html-keyboard-response","77","150690","0.0-6.0-1.24","63e5be4daa8fac2e51d4fe91","bdp_sd","Tue Mar 28 2023 20:30:30 GMT-0400 (Eastern Daylight Time)","158216","","null","","","","","FIX","","<div class='trialBorder'><div class='vertical-center'><img style='vertical-align:center; align:center' src=img/fixation3.jpg></div></div>","null","","","","","","",""
"html-keyboard-response","78","152443","0.0-6.0-2.24","63e5be4daa8fac2e51d4fe91","bdp_sd","Tue Mar 28 2023 20:30:30 GMT-0400 (Eastern Daylight Time)","158216","","1751","","","","","offer","","<div class='trialBorder'><div class='vertical-center'><img style='vertical-align:center; align:center' src=img/fixation3.jpg></div><div class='cl'><div class='vertical-center'>$25<br>for<br>Jay P</div></div><div class='cr'><div class='vertical-center'>$14<br>for<br>yourself</div></div><div class='respDivL'><div class='vertical-center'>(E)</div></div><div class='respDivR'><div class='vertical-center'>(I)</div></div></div>","E","$14<br>for<br>yourself","$25<br>for<br>3","1","14","25","3","OTHER"
"html-keyboard-response","79","152694","0.0-6.0-3.24","63e5be4daa8fac2e51d4fe91","bdp_sd","Tue Mar 28 2023 20:30:30 GMT-0400 (Eastern Daylight Time)","158216","","null","","","","","offerFB","","<div class='trialBorder'><div class='vertical-center'><img style='vertical-align:center; align:center' src=img/fixation3.jpg></div><div class='cl'><div class='vertical-center'><font style='color:orange'>$25<br>for<br>Jay P</font></div></div><div class='cr'><div class='vertical-center'>$14<br>for<br>yourself</div></div><div class='respDivL'><div class='vertical-center'><font style='color:orange'>(E)</font></div></div><div class='respDivR'><div class='vertical-center'>(I)</div></div></div>","null","$14<br>for<br>yourself","$25<br>for<br>3","1","14","25","3",""
"html-keyboard-response","80","153196","0.0-6.0-1.25","63e5be4daa8fac2e51d4fe91","bdp_sd","Tue Mar 28 2023 20:30:30 GMT-0400 (Eastern Daylight Time)","158216","","null","","","","","FIX","","<div class='trialBorder'><div class='vertical-center'><img style='vertical-align:center; align:center' src=img/fixation3.jpg></div></div>","null","","","","","","",""
"html-keyboard-response","81","154704","0.0-6.0-2.25","63e5be4daa8fac2e51d4fe91","bdp_sd","Tue Mar 28 2023 20:30:30 GMT-0400 (Eastern Daylight Time)","158216","","1507","","","","","offer","","<div class='trialBorder'><div class='vertical-center'><img style='vertical-align:center; align:center' src=img/fixation3.jpg></div><div class='cl'><div class='vertical-center'>$60<br>for<br>Krish P</div></div><div class='cr'><div class='vertical-center'>$49<br>for<br>yourself</div></div><div class='respDivL'><div class='vertical-center'>(E)</div></div><div class='respDivR'><div class='vertical-center'>(I)</div></div></div>","I","$49<br>for<br>yourself","$60<br>for<br>4","1","49","60","4","SELF"
"html-keyboard-response","82","154955","0.0-6.0-3.25","63e5be4daa8fac2e51d4fe91","bdp_sd","Tue Mar 28 2023 20:30:30 GMT-0400 (Eastern Daylight Time)","158216","","null","","","","","offerFB","","<div class='trialBorder'><div class='vertical-center'><img style='vertical-align:center; align:center' src=img/fixation3.jpg></div><div class='cl'><div class='vertical-center'>$60<br>for<br>Krish P</div></div><div class='cr'><div class='vertical-center'><font style='color:orange'>$49<br>for<br>yourself</font></div></div><div class='respDivL'><div class='vertical-center'>(E)</div></div><div class='respDivR'><div class='vertical-center'><font style='color:orange'>(I)</font></div></div></div>","null","$49<br>for<br>yourself","$60<br>for<br>4","1","49","60","4",""
"html-keyboard-response","83","155457","0.0-6.0-1.26","63e5be4daa8fac2e51d4fe91","bdp_sd","Tue Mar 28 2023 20:30:30 GMT-0400 (Eastern Daylight Time)","158216","","null","","","","","FIX","","<div class='trialBorder'><div class='vertical-center'><img style='vertical-align:center; align:center' src=img/fixation3.jpg></div></div>","null","","","","","","",""
"html-keyboard-response","84","156963","0.0-6.0-2.26","63e5be4daa8fac2e51d4fe91","bdp_sd","Tue Mar 28 2023 20:30:30 GMT-0400 (Eastern Daylight Time)","158216","","1505","","","","","offer","","<div class='trialBorder'><div class='vertical-center'><img style='vertical-align:center; align:center' src=img/fixation3.jpg></div><div class='cl'><div class='vertical-center'>$55<br>for<br>yourself</div></div><div class='cr'><div class='vertical-center'>$75<br>for<br>Krish P</div></div><div class='respDivL'><div class='vertical-center'>(E)</div></div><div class='respDivR'><div class='vertical-center'>(I)</div></div></div>","I","$55<br>for<br>yourself","$75<br>for<br>4","0","55","75","4","OTHER"
"html-keyboard-response","85","157215","0.0-6.0-3.26","63e5be4daa8fac2e51d4fe91","bdp_sd","Tue Mar 28 2023 20:30:30 GMT-0400 (Eastern Daylight Time)","158216","","null","","","","","offerFB","","<div class='trialBorder'><div class='vertical-center'><img style='vertical-align:center; align:center' src=img/fixation3.jpg></div><div class='cl'><div class='vertical-center'>$55<br>for<br>yourself</div></div><div class='cr'><div class='vertical-center'><font style='color:orange'>$75<br>for<br>Krish P</font></div></div><div class='respDivL'><div class='vertical-center'>(E)</div></div><div class='respDivR'><div class='vertical-center'><font style='color:orange'>(I)</font></div></div></div>","null","$55<br>for<br>yourself","$75<br>for<br>4","0","55","75","4",""
"","","","","63e5be4daa8fac2e51d4fe91","bdp_sd","Tue Mar 28 2023 20:30:30 GMT-0400 (Eastern Daylight Time)","158216","","","","fullscreenexit","86","157232","fullscreenexit","","","","","","","","","",""
"fullscreen","86","158215","0.0-7.0","63e5be4daa8fac2e51d4fe91","bdp_sd","Tue Mar 28 2023 20:30:30 GMT-0400 (Eastern Daylight Time)","158216","","","","","","","","true","","","","","","","","",""
"html-keyboard-response","87","158718","0.0-8.0","","","","","","null","","","","","","","","null","","","","","","",""
