"trial_type","trial_index","time_elapsed","internal_node_id","subject_id","task","startTime","totalTime","view_history","rt","responses","event","trial","time","trialtype","success","stimulus","key_press","selfOffer","otherOffer","otherLeft","selfAmt","otherAmt","otherDist","chosen"
"pavlovia","0","1","0.0-0.0","63bef4ddef5b4d7295effbbd","bdp_sd","Tue Mar 28 2023 14:17:39 GMT-0500 (Central Daylight Time)","155949","","","","","","","","","","","","","","","","",""
"instructions","1","1772","0.0-1.0","63bef4ddef5b4d7295effbbd","bdp_sd","Tue Mar 28 2023 14:17:39 GMT-0500 (Central Daylight Time)","155949","[{""page_index"":0,""viewing_time"":1770}]","1770","","","","","","","","","","","","","","",""
"survey-text","2","60371","0.0-2.0","63bef4ddef5b4d7295effbbd","bdp_sd","Tue Mar 28 2023 14:17:39 GMT-0500 (Central Daylight Time)","155949","","58597","{""Q0"":""Jessica E"",""Q1"":""Angelica A"",""Q2"":""Kay X"",""Q3"":""Martin R"",""Q4"":""Magda L""}","","","","","","","","","","","","","",""
"","","","","63bef4ddef5b4d7295effbbd","bdp_sd","Tue Mar 28 2023 14:17:39 GMT-0500 (Central Daylight Time)","155949","","","","fullscreenenter","3","61795","fullscreenenter","","","","","","","","","",""
"fullscreen","3","62780","0.0-3.0","63bef4ddef5b4d7295effbbd","bdp_sd","Tue Mar 28 2023 14:17:39 GMT-0500 (Central Daylight Time)","155949","","","","","","","","true","","","","","","","","",""
"instructions","4","80284","0.0-5.0","63bef4ddef5b4d7295effbbd","bdp_sd","Tue Mar 28 2023 14:17:39 GMT-0500 (Central Daylight Time)","155949","[{""page_index"":0,""viewing_time"":3926},{""page_index"":1,""viewing_time"":8414},{""page_index"":2,""viewing_time"":5162}]","17502","","","","","","","","","","","","","","",""
"html-keyboard-response","5","80787","0.0-6.0-1.0","63bef4ddef5b4d7295effbbd","bdp_sd","Tue Mar 28 2023 14:17:39 GMT-0500 (Central Daylight Time)","155949","","null","","","","","FIX","","<div class='trialBorder'><div class='vertical-center'><img style='vertical-align:center; align:center' src=img/fixation3.jpg></div></div>","null","","","","","","",""
"html-keyboard-response","6","83611","0.0-6.0-2.0","63bef4ddef5b4d7295effbbd","bdp_sd","Tue Mar 28 2023 14:17:39 GMT-0500 (Central Daylight Time)","155949","","2823","","","","","offer","","<div class='trialBorder'><div class='vertical-center'><img style='vertical-align:center; align:center' src=img/fixation3.jpg></div><div class='cl'><div class='vertical-center'>$30<br>for<br>Angelica A</div></div><div class='cr'><div class='vertical-center'>$11<br>for<br>yourself</div></div><div class='respDivL'><div class='vertical-center'>(E)</div></div><div class='respDivR'><div class='vertical-center'>(I)</div></div></div>","E","$11<br>for<br>yourself","$30<br>for<br>2","1","11","30","2","OTHER"
"html-keyboard-response","7","83864","0.0-6.0-3.0","63bef4ddef5b4d7295effbbd","bdp_sd","Tue Mar 28 2023 14:17:39 GMT-0500 (Central Daylight Time)","155949","","null","","","","","offerFB","","<div class='trialBorder'><div class='vertical-center'><img style='vertical-align:center; align:center' src=img/fixation3.jpg></div><div class='cl'><div class='vertical-center'><font style='color:orange'>$30<br>for<br>Angelica A</font></div></div><div class='cr'><div class='vertical-center'>$11<br>for<br>yourself</div></div><div class='respDivL'><div class='vertical-center'><font style='color:orange'>(E)</font></div></div><div class='respDivR'><div class='vertical-center'>(I)</div></div></div>","null","$11<br>for<br>yourself","$30<br>for<br>2","1","11","30","2",""
"html-keyboard-response","8","84366","0.0-6.0-1.1","63bef4ddef5b4d7295effbbd","bdp_sd","Tue Mar 28 2023 14:17:39 GMT-0500 (Central Daylight Time)","155949","","null","","","","","FIX","","<div class='trialBorder'><div class='vertical-center'><img style='vertical-align:center; align:center' src=img/fixation3.jpg></div></div>","null","","","","","","",""
"html-keyboard-response","9","85491","0.0-6.0-2.1","63bef4ddef5b4d7295effbbd","bdp_sd","Tue Mar 28 2023 14:17:39 GMT-0500 (Central Daylight Time)","155949","","1124","","","","","offer","","<div class='trialBorder'><div class='vertical-center'><img style='vertical-align:center; align:center' src=img/fixation3.jpg></div><div class='cl'><div class='vertical-center'>$55<br>for<br>Jessica E</div></div><div class='cr'><div class='vertical-center'>$20<br>for<br>yourself</div></div><div class='respDivL'><div class='vertical-center'>(E)</div></div><div class='respDivR'><div class='vertical-center'>(I)</div></div></div>","E","$20<br>for<br>yourself","$55<br>for<br>1","1","20","55","1","OTHER"
"html-keyboard-response","10","85743","0.0-6.0-3.1","63bef4ddef5b4d7295effbbd","bdp_sd","Tue Mar 28 2023 14:17:39 GMT-0500 (Central Daylight Time)","155949","","null","","","","","offerFB","","<div class='trialBorder'><div class='vertical-center'><img style='vertical-align:center; align:center' src=img/fixation3.jpg></div><div class='cl'><div class='vertical-center'><font style='color:orange'>$55<br>for<br>Jessica E</font></div></div><div class='cr'><div class='vertical-center'>$20<br>for<br>yourself</div></div><div class='respDivL'><div class='vertical-center'><font style='color:orange'>(E)</font></div></div><div class='respDivR'><div class='vertical-center'>(I)</div></div></div>","null","$20<br>for<br>yourself","$55<br>for<br>1","1","20","55","1",""
"html-keyboard-response","11","86244","0.0-6.0-1.2","63bef4ddef5b4d7295effbbd","bdp_sd","Tue Mar 28 2023 14:17:39 GMT-0500 (Central Daylight Time)","155949","","null","","","","","FIX","","<div class='trialBorder'><div class='vertical-center'><img style='vertical-align:center; align:center' src=img/fixation3.jpg></div></div>","null","","","","","","",""
"html-keyboard-response","12","89508","0.0-6.0-2.2","63bef4ddef5b4d7295effbbd","bdp_sd","Tue Mar 28 2023 14:17:39 GMT-0500 (Central Daylight Time)","155949","","3261","","","","","offer","","<div class='trialBorder'><div class='vertical-center'><img style='vertical-align:center; align:center' src=img/fixation3.jpg></div><div class='cl'><div class='vertical-center'>$25<br>for<br>Magda L</div></div><div class='cr'><div class='vertical-center'>$22<br>for<br>yourself</div></div><div class='respDivL'><div class='vertical-center'>(E)</div></div><div class='respDivR'><div class='vertical-center'>(I)</div></div></div>","I","$22<br>for<br>yourself","$25<br>for<br>5","1","22","25","5","SELF"
"html-keyboard-response","13","89760","0.0-6.0-3.2","63bef4ddef5b4d7295effbbd","bdp_sd","Tue Mar 28 2023 14:17:39 GMT-0500 (Central Daylight Time)","155949","","null","","","","","offerFB","","<div class='trialBorder'><div class='vertical-center'><img style='vertical-align:center; align:center' src=img/fixation3.jpg></div><div class='cl'><div class='vertical-center'>$25<br>for<br>Magda L</div></div><div class='cr'><div class='vertical-center'><font style='color:orange'>$22<br>for<br>yourself</font></div></div><div class='respDivL'><div class='vertical-center'>(E)</div></div><div class='respDivR'><div class='vertical-center'><font style='color:orange'>(I)</font></div></div></div>","null","$22<br>for<br>yourself","$25<br>for<br>5","1","22","25","5",""
"html-keyboard-response","14","90262","0.0-6.0-1.3","63bef4ddef5b4d7295effbbd","bdp_sd","Tue Mar 28 2023 14:17:39 GMT-0500 (Central Daylight Time)","155949","","null","","","","","FIX","","<div class='trialBorder'><div class='vertical-center'><img style='vertical-align:center; align:center' src=img/fixation3.jpg></div></div>","null","","","","","","",""
"html-keyboard-response","15","91900","0.0-6.0-2.3","63bef4ddef5b4d7295effbbd","bdp_sd","Tue Mar 28 2023 14:17:39 GMT-0500 (Central Daylight Time)","155949","","1637","","","","","offer","","<div class='trialBorder'><div class='vertical-center'><img style='vertical-align:center; align:center' src=img/fixation3.jpg></div><div class='cl'><div class='vertical-center'>$80<br>for<br>Angelica A</div></div><div class='cr'><div class='vertical-center'>$33<br>for<br>yourself</div></div><div class='respDivL'><div class='vertical-center'>(E)</div></div><div class='respDivR'><div class='vertical-center'>(I)</div></div></div>","E","$33<br>for<br>yourself","$80<br>for<br>2","1","33","80","2","OTHER"
"html-keyboard-response","16","92152","0.0-6.0-3.3","63bef4ddef5b4d7295effbbd","bdp_sd","Tue Mar 28 2023 14:17:39 GMT-0500 (Central Daylight Time)","155949","","null","","","","","offerFB","","<div class='trialBorder'><div class='vertical-center'><img style='vertical-align:center; align:center' src=img/fixation3.jpg></div><div class='cl'><div class='vertical-center'><font style='color:orange'>$80<br>for<br>Angelica A</font></div></div><div class='cr'><div class='vertical-center'>$33<br>for<br>yourself</div></div><div class='respDivL'><div class='vertical-center'><font style='color:orange'>(E)</font></div></div><div class='respDivR'><div class='vertical-center'>(I)</div></div></div>","null","$33<br>for<br>yourself","$80<br>for<br>2","1","33","80","2",""
"html-keyboard-response","17","92653","0.0-6.0-1.4","63bef4ddef5b4d7295effbbd","bdp_sd","Tue Mar 28 2023 14:17:39 GMT-0500 (Central Daylight Time)","155949","","null","","","","","FIX","","<div class='trialBorder'><div class='vertical-center'><img style='vertical-align:center; align:center' src=img/fixation3.jpg></div></div>","null","","","","","","",""
"html-keyboard-response","18","93949","0.0-6.0-2.4","63bef4ddef5b4d7295effbbd","bdp_sd","Tue Mar 28 2023 14:17:39 GMT-0500 (Central Daylight Time)","155949","","1294","","","","","offer","","<div class='trialBorder'><div class='vertical-center'><img style='vertical-align:center; align:center' src=img/fixation3.jpg></div><div class='cl'><div class='vertical-center'>$25<br>for<br>yourself</div></div><div class='cr'><div class='vertical-center'>$30<br>for<br>Martin R</div></div><div class='respDivL'><div class='vertical-center'>(E)</div></div><div class='respDivR'><div class='vertical-center'>(I)</div></div></div>","E","$25<br>for<br>yourself","$30<br>for<br>4","0","25","30","4","SELF"
"html-keyboard-response","19","94201","0.0-6.0-3.4","63bef4ddef5b4d7295effbbd","bdp_sd","Tue Mar 28 2023 14:17:39 GMT-0500 (Central Daylight Time)","155949","","null","","","","","offerFB","","<div class='trialBorder'><div class='vertical-center'><img style='vertical-align:center; align:center' src=img/fixation3.jpg></div><div class='cl'><div class='vertical-center'><font style='color:orange'>$25<br>for<br>yourself</font></div></div><div class='cr'><div class='vertical-center'>$30<br>for<br>Martin R</div></div><div class='respDivL'><div class='vertical-center'><font style='color:orange'>(E)</font></div></div><div class='respDivR'><div class='vertical-center'>(I)</div></div></div>","null","$25<br>for<br>yourself","$30<br>for<br>4","0","25","30","4",""
"html-keyboard-response","20","94703","0.0-6.0-1.5","63bef4ddef5b4d7295effbbd","bdp_sd","Tue Mar 28 2023 14:17:39 GMT-0500 (Central Daylight Time)","155949","","null","","","","","FIX","","<div class='trialBorder'><div class='vertical-center'><img style='vertical-align:center; align:center' src=img/fixation3.jpg></div></div>","null","","","","","","",""
"html-keyboard-response","21","96187","0.0-6.0-2.5","63bef4ddef5b4d7295effbbd","bdp_sd","Tue Mar 28 2023 14:17:39 GMT-0500 (Central Daylight Time)","155949","","1483","","","","","offer","","<div class='trialBorder'><div class='vertical-center'><img style='vertical-align:center; align:center' src=img/fixation3.jpg></div><div class='cl'><div class='vertical-center'>$24<br>for<br>yourself</div></div><div class='cr'><div class='vertical-center'>$35<br>for<br>Kay X</div></div><div class='respDivL'><div class='vertical-center'>(E)</div></div><div class='respDivR'><div class='vertical-center'>(I)</div></div></div>","I","$24<br>for<br>yourself","$35<br>for<br>3","0","24","35","3","OTHER"
"html-keyboard-response","22","96442","0.0-6.0-3.5","63bef4ddef5b4d7295effbbd","bdp_sd","Tue Mar 28 2023 14:17:39 GMT-0500 (Central Daylight Time)","155949","","null","","","","","offerFB","","<div class='trialBorder'><div class='vertical-center'><img style='vertical-align:center; align:center' src=img/fixation3.jpg></div><div class='cl'><div class='vertical-center'>$24<br>for<br>yourself</div></div><div class='cr'><div class='vertical-center'><font style='color:orange'>$35<br>for<br>Kay X</font></div></div><div class='respDivL'><div class='vertical-center'>(E)</div></div><div class='respDivR'><div class='vertical-center'><font style='color:orange'>(I)</font></div></div></div>","null","$24<br>for<br>yourself","$35<br>for<br>3","0","24","35","3",""
"html-keyboard-response","23","96945","0.0-6.0-1.6","63bef4ddef5b4d7295effbbd","bdp_sd","Tue Mar 28 2023 14:17:39 GMT-0500 (Central Daylight Time)","155949","","null","","","","","FIX","","<div class='trialBorder'><div class='vertical-center'><img style='vertical-align:center; align:center' src=img/fixation3.jpg></div></div>","null","","","","","","",""
"html-keyboard-response","24","100860","0.0-6.0-2.6","63bef4ddef5b4d7295effbbd","bdp_sd","Tue Mar 28 2023 14:17:39 GMT-0500 (Central Daylight Time)","155949","","3912","","","","","offer","","<div class='trialBorder'><div class='vertical-center'><img style='vertical-align:center; align:center' src=img/fixation3.jpg></div><div class='cl'><div class='vertical-center'>$34<br>for<br>yourself</div></div><div class='cr'><div class='vertical-center'>$35<br>for<br>Magda L</div></div><div class='respDivL'><div class='vertical-center'>(E)</div></div><div class='respDivR'><div class='vertical-center'>(I)</div></div></div>","E","$34<br>for<br>yourself","$35<br>for<br>5","0","34","35","5","SELF"
"html-keyboard-response","25","101113","0.0-6.0-3.6","63bef4ddef5b4d7295effbbd","bdp_sd","Tue Mar 28 2023 14:17:39 GMT-0500 (Central Daylight Time)","155949","","null","","","","","offerFB","","<div class='trialBorder'><div class='vertical-center'><img style='vertical-align:center; align:center' src=img/fixation3.jpg></div><div class='cl'><div class='vertical-center'><font style='color:orange'>$34<br>for<br>yourself</font></div></div><div class='cr'><div class='vertical-center'>$35<br>for<br>Magda L</div></div><div class='respDivL'><div class='vertical-center'><font style='color:orange'>(E)</font></div></div><div class='respDivR'><div class='vertical-center'>(I)</div></div></div>","null","$34<br>for<br>yourself","$35<br>for<br>5","0","34","35","5",""
"html-keyboard-response","26","101615","0.0-6.0-1.7","63bef4ddef5b4d7295effbbd","bdp_sd","Tue Mar 28 2023 14:17:39 GMT-0500 (Central Daylight Time)","155949","","null","","","","","FIX","","<div class='trialBorder'><div class='vertical-center'><img style='vertical-align:center; align:center' src=img/fixation3.jpg></div></div>","null","","","","","","",""
"html-keyboard-response","27","102932","0.0-6.0-2.7","63bef4ddef5b4d7295effbbd","bdp_sd","Tue Mar 28 2023 14:17:39 GMT-0500 (Central Daylight Time)","155949","","1316","","","","","offer","","<div class='trialBorder'><div class='vertical-center'><img style='vertical-align:center; align:center' src=img/fixation3.jpg></div><div class='cl'><div class='vertical-center'>$69<br>for<br>yourself</div></div><div class='cr'><div class='vertical-center'>$85<br>for<br>Martin R</div></div><div class='respDivL'><div class='vertical-center'>(E)</div></div><div class='respDivR'><div class='vertical-center'>(I)</div></div></div>","E","$69<br>for<br>yourself","$85<br>for<br>4","0","69","85","4","SELF"
"html-keyboard-response","28","103183","0.0-6.0-3.7","63bef4ddef5b4d7295effbbd","bdp_sd","Tue Mar 28 2023 14:17:39 GMT-0500 (Central Daylight Time)","155949","","null","","","","","offerFB","","<div class='trialBorder'><div class='vertical-center'><img style='vertical-align:center; align:center' src=img/fixation3.jpg></div><div class='cl'><div class='vertical-center'><font style='color:orange'>$69<br>for<br>yourself</font></div></div><div class='cr'><div class='vertical-center'>$85<br>for<br>Martin R</div></div><div class='respDivL'><div class='vertical-center'><font style='color:orange'>(E)</font></div></div><div class='respDivR'><div class='vertical-center'>(I)</div></div></div>","null","$69<br>for<br>yourself","$85<br>for<br>4","0","69","85","4",""
"html-keyboard-response","29","103686","0.0-6.0-1.8","63bef4ddef5b4d7295effbbd","bdp_sd","Tue Mar 28 2023 14:17:39 GMT-0500 (Central Daylight Time)","155949","","null","","","","","FIX","","<div class='trialBorder'><div class='vertical-center'><img style='vertical-align:center; align:center' src=img/fixation3.jpg></div></div>","null","","","","","","",""
"html-keyboard-response","30","105115","0.0-6.0-2.8","63bef4ddef5b4d7295effbbd","bdp_sd","Tue Mar 28 2023 14:17:39 GMT-0500 (Central Daylight Time)","155949","","1427","","","","","offer","","<div class='trialBorder'><div class='vertical-center'><img style='vertical-align:center; align:center' src=img/fixation3.jpg></div><div class='cl'><div class='vertical-center'>$54<br>for<br>yourself</div></div><div class='cr'><div class='vertical-center'>$80<br>for<br>Kay X</div></div><div class='respDivL'><div class='vertical-center'>(E)</div></div><div class='respDivR'><div class='vertical-center'>(I)</div></div></div>","E","$54<br>for<br>yourself","$80<br>for<br>3","0","54","80","3","SELF"
"html-keyboard-response","31","105366","0.0-6.0-3.8","63bef4ddef5b4d7295effbbd","bdp_sd","Tue Mar 28 2023 14:17:39 GMT-0500 (Central Daylight Time)","155949","","null","","","","","offerFB","","<div class='trialBorder'><div class='vertical-center'><img style='vertical-align:center; align:center' src=img/fixation3.jpg></div><div class='cl'><div class='vertical-center'><font style='color:orange'>$54<br>for<br>yourself</font></div></div><div class='cr'><div class='vertical-center'>$80<br>for<br>Kay X</div></div><div class='respDivL'><div class='vertical-center'><font style='color:orange'>(E)</font></div></div><div class='respDivR'><div class='vertical-center'>(I)</div></div></div>","null","$54<br>for<br>yourself","$80<br>for<br>3","0","54","80","3",""
"html-keyboard-response","32","105868","0.0-6.0-1.9","63bef4ddef5b4d7295effbbd","bdp_sd","Tue Mar 28 2023 14:17:39 GMT-0500 (Central Daylight Time)","155949","","null","","","","","FIX","","<div class='trialBorder'><div class='vertical-center'><img style='vertical-align:center; align:center' src=img/fixation3.jpg></div></div>","null","","","","","","",""
"html-keyboard-response","33","107131","0.0-6.0-2.9","63bef4ddef5b4d7295effbbd","bdp_sd","Tue Mar 28 2023 14:17:39 GMT-0500 (Central Daylight Time)","155949","","1261","","","","","offer","","<div class='trialBorder'><div class='vertical-center'><img style='vertical-align:center; align:center' src=img/fixation3.jpg></div><div class='cl'><div class='vertical-center'>$25<br>for<br>Martin R</div></div><div class='cr'><div class='vertical-center'>$19<br>for<br>yourself</div></div><div class='respDivL'><div class='vertical-center'>(E)</div></div><div class='respDivR'><div class='vertical-center'>(I)</div></div></div>","I","$19<br>for<br>yourself","$25<br>for<br>4","1","19","25","4","SELF"
"html-keyboard-response","34","107382","0.0-6.0-3.9","63bef4ddef5b4d7295effbbd","bdp_sd","Tue Mar 28 2023 14:17:39 GMT-0500 (Central Daylight Time)","155949","","null","","","","","offerFB","","<div class='trialBorder'><div class='vertical-center'><img style='vertical-align:center; align:center' src=img/fixation3.jpg></div><div class='cl'><div class='vertical-center'>$25<br>for<br>Martin R</div></div><div class='cr'><div class='vertical-center'><font style='color:orange'>$19<br>for<br>yourself</font></div></div><div class='respDivL'><div class='vertical-center'>(E)</div></div><div class='respDivR'><div class='vertical-center'><font style='color:orange'>(I)</font></div></div></div>","null","$19<br>for<br>yourself","$25<br>for<br>4","1","19","25","4",""
"html-keyboard-response","35","107884","0.0-6.0-1.10","63bef4ddef5b4d7295effbbd","bdp_sd","Tue Mar 28 2023 14:17:39 GMT-0500 (Central Daylight Time)","155949","","null","","","","","FIX","","<div class='trialBorder'><div class='vertical-center'><img style='vertical-align:center; align:center' src=img/fixation3.jpg></div></div>","null","","","","","","",""
"html-keyboard-response","36","109093","0.0-6.0-2.10","63bef4ddef5b4d7295effbbd","bdp_sd","Tue Mar 28 2023 14:17:39 GMT-0500 (Central Daylight Time)","155949","","1208","","","","","offer","","<div class='trialBorder'><div class='vertical-center'><img style='vertical-align:center; align:center' src=img/fixation3.jpg></div><div class='cl'><div class='vertical-center'>$35<br>for<br>Angelica A</div></div><div class='cr'><div class='vertical-center'>$15<br>for<br>yourself</div></div><div class='respDivL'><div class='vertical-center'>(E)</div></div><div class='respDivR'><div class='vertical-center'>(I)</div></div></div>","E","$15<br>for<br>yourself","$35<br>for<br>2","1","15","35","2","OTHER"
"html-keyboard-response","37","109345","0.0-6.0-3.10","63bef4ddef5b4d7295effbbd","bdp_sd","Tue Mar 28 2023 14:17:39 GMT-0500 (Central Daylight Time)","155949","","null","","","","","offerFB","","<div class='trialBorder'><div class='vertical-center'><img style='vertical-align:center; align:center' src=img/fixation3.jpg></div><div class='cl'><div class='vertical-center'><font style='color:orange'>$35<br>for<br>Angelica A</font></div></div><div class='cr'><div class='vertical-center'>$15<br>for<br>yourself</div></div><div class='respDivL'><div class='vertical-center'><font style='color:orange'>(E)</font></div></div><div class='respDivR'><div class='vertical-center'>(I)</div></div></div>","null","$15<br>for<br>yourself","$35<br>for<br>2","1","15","35","2",""
"html-keyboard-response","38","109847","0.0-6.0-1.11","63bef4ddef5b4d7295effbbd","bdp_sd","Tue Mar 28 2023 14:17:39 GMT-0500 (Central Daylight Time)","155949","","null","","","","","FIX","","<div class='trialBorder'><div class='vertical-center'><img style='vertical-align:center; align:center' src=img/fixation3.jpg></div></div>","null","","","","","","",""
"html-keyboard-response","39","111067","0.0-6.0-2.11","63bef4ddef5b4d7295effbbd","bdp_sd","Tue Mar 28 2023 14:17:39 GMT-0500 (Central Daylight Time)","155949","","1220","","","","","offer","","<div class='trialBorder'><div class='vertical-center'><img style='vertical-align:center; align:center' src=img/fixation3.jpg></div><div class='cl'><div class='vertical-center'>$55<br>for<br>Magda L</div></div><div class='cr'><div class='vertical-center'>$54<br>for<br>yourself</div></div><div class='respDivL'><div class='vertical-center'>(E)</div></div><div class='respDivR'><div class='vertical-center'>(I)</div></div></div>","I","$54<br>for<br>yourself","$55<br>for<br>5","1","54","55","5","SELF"
"html-keyboard-response","40","111320","0.0-6.0-3.11","63bef4ddef5b4d7295effbbd","bdp_sd","Tue Mar 28 2023 14:17:39 GMT-0500 (Central Daylight Time)","155949","","null","","","","","offerFB","","<div class='trialBorder'><div class='vertical-center'><img style='vertical-align:center; align:center' src=img/fixation3.jpg></div><div class='cl'><div class='vertical-center'>$55<br>for<br>Magda L</div></div><div class='cr'><div class='vertical-center'><font style='color:orange'>$54<br>for<br>yourself</font></div></div><div class='respDivL'><div class='vertical-center'>(E)</div></div><div class='respDivR'><div class='vertical-center'><font style='color:orange'>(I)</font></div></div></div>","null","$54<br>for<br>yourself","$55<br>for<br>5","1","54","55","5",""
"html-keyboard-response","41","111822","0.0-6.0-1.12","63bef4ddef5b4d7295effbbd","bdp_sd","Tue Mar 28 2023 14:17:39 GMT-0500 (Central Daylight Time)","155949","","null","","","","","FIX","","<div class='trialBorder'><div class='vertical-center'><img style='vertical-align:center; align:center' src=img/fixation3.jpg></div></div>","null","","","","","","",""
"html-keyboard-response","42","113460","0.0-6.0-2.12","63bef4ddef5b4d7295effbbd","bdp_sd","Tue Mar 28 2023 14:17:39 GMT-0500 (Central Daylight Time)","155949","","1637","","","","","offer","","<div class='trialBorder'><div class='vertical-center'><img style='vertical-align:center; align:center' src=img/fixation3.jpg></div><div class='cl'><div class='vertical-center'>$80<br>for<br>Magda L</div></div><div class='cr'><div class='vertical-center'>$78<br>for<br>yourself</div></div><div class='respDivL'><div class='vertical-center'>(E)</div></div><div class='respDivR'><div class='vertical-center'>(I)</div></div></div>","I","$78<br>for<br>yourself","$80<br>for<br>5","1","78","80","5","SELF"
"html-keyboard-response","43","113711","0.0-6.0-3.12","63bef4ddef5b4d7295effbbd","bdp_sd","Tue Mar 28 2023 14:17:39 GMT-0500 (Central Daylight Time)","155949","","null","","","","","offerFB","","<div class='trialBorder'><div class='vertical-center'><img style='vertical-align:center; align:center' src=img/fixation3.jpg></div><div class='cl'><div class='vertical-center'>$80<br>for<br>Magda L</div></div><div class='cr'><div class='vertical-center'><font style='color:orange'>$78<br>for<br>yourself</font></div></div><div class='respDivL'><div class='vertical-center'>(E)</div></div><div class='respDivR'><div class='vertical-center'><font style='color:orange'>(I)</font></div></div></div>","null","$78<br>for<br>yourself","$80<br>for<br>5","1","78","80","5",""
"html-keyboard-response","44","114212","0.0-6.0-1.13","63bef4ddef5b4d7295effbbd","bdp_sd","Tue Mar 28 2023 14:17:39 GMT-0500 (Central Daylight Time)","155949","","null","","","","","FIX","","<div class='trialBorder'><div class='vertical-center'><img style='vertical-align:center; align:center' src=img/fixation3.jpg></div></div>","null","","","","","","",""
"html-keyboard-response","45","115931","0.0-6.0-2.13","63bef4ddef5b4d7295effbbd","bdp_sd","Tue Mar 28 2023 14:17:39 GMT-0500 (Central Daylight Time)","155949","","1718","","","","","offer","","<div class='trialBorder'><div class='vertical-center'><img style='vertical-align:center; align:center' src=img/fixation3.jpg></div><div class='cl'><div class='vertical-center'>$28<br>for<br>yourself</div></div><div class='cr'><div class='vertical-center'>$30<br>for<br>Magda L</div></div><div class='respDivL'><div class='vertical-center'>(E)</div></div><div class='respDivR'><div class='vertical-center'>(I)</div></div></div>","E","$28<br>for<br>yourself","$30<br>for<br>5","0","28","30","5","SELF"
"html-keyboard-response","46","116183","0.0-6.0-3.13","63bef4ddef5b4d7295effbbd","bdp_sd","Tue Mar 28 2023 14:17:39 GMT-0500 (Central Daylight Time)","155949","","null","","","","","offerFB","","<div class='trialBorder'><div class='vertical-center'><img style='vertical-align:center; align:center' src=img/fixation3.jpg></div><div class='cl'><div class='vertical-center'><font style='color:orange'>$28<br>for<br>yourself</font></div></div><div class='cr'><div class='vertical-center'>$30<br>for<br>Magda L</div></div><div class='respDivL'><div class='vertical-center'><font style='color:orange'>(E)</font></div></div><div class='respDivR'><div class='vertical-center'>(I)</div></div></div>","null","$28<br>for<br>yourself","$30<br>for<br>5","0","28","30","5",""
"html-keyboard-response","47","116684","0.0-6.0-1.14","63bef4ddef5b4d7295effbbd","bdp_sd","Tue Mar 28 2023 14:17:39 GMT-0500 (Central Daylight Time)","155949","","null","","","","","FIX","","<div class='trialBorder'><div class='vertical-center'><img style='vertical-align:center; align:center' src=img/fixation3.jpg></div></div>","null","","","","","","",""
"html-keyboard-response","48","117852","0.0-6.0-2.14","63bef4ddef5b4d7295effbbd","bdp_sd","Tue Mar 28 2023 14:17:39 GMT-0500 (Central Daylight Time)","155949","","1167","","","","","offer","","<div class='trialBorder'><div class='vertical-center'><img style='vertical-align:center; align:center' src=img/fixation3.jpg></div><div class='cl'><div class='vertical-center'>$67<br>for<br>yourself</div></div><div class='cr'><div class='vertical-center'>$75<br>for<br>Magda L</div></div><div class='respDivL'><div class='vertical-center'>(E)</div></div><div class='respDivR'><div class='vertical-center'>(I)</div></div></div>","E","$67<br>for<br>yourself","$75<br>for<br>5","0","67","75","5","SELF"
"html-keyboard-response","49","118103","0.0-6.0-3.14","63bef4ddef5b4d7295effbbd","bdp_sd","Tue Mar 28 2023 14:17:39 GMT-0500 (Central Daylight Time)","155949","","null","","","","","offerFB","","<div class='trialBorder'><div class='vertical-center'><img style='vertical-align:center; align:center' src=img/fixation3.jpg></div><div class='cl'><div class='vertical-center'><font style='color:orange'>$67<br>for<br>yourself</font></div></div><div class='cr'><div class='vertical-center'>$75<br>for<br>Magda L</div></div><div class='respDivL'><div class='vertical-center'><font style='color:orange'>(E)</font></div></div><div class='respDivR'><div class='vertical-center'>(I)</div></div></div>","null","$67<br>for<br>yourself","$75<br>for<br>5","0","67","75","5",""
"html-keyboard-response","50","118606","0.0-6.0-1.15","63bef4ddef5b4d7295effbbd","bdp_sd","Tue Mar 28 2023 14:17:39 GMT-0500 (Central Daylight Time)","155949","","null","","","","","FIX","","<div class='trialBorder'><div class='vertical-center'><img style='vertical-align:center; align:center' src=img/fixation3.jpg></div></div>","null","","","","","","",""
"html-keyboard-response","51","119811","0.0-6.0-2.15","63bef4ddef5b4d7295effbbd","bdp_sd","Tue Mar 28 2023 14:17:39 GMT-0500 (Central Daylight Time)","155949","","1204","","","","","offer","","<div class='trialBorder'><div class='vertical-center'><img style='vertical-align:center; align:center' src=img/fixation3.jpg></div><div class='cl'><div class='vertical-center'>$55<br>for<br>Martin R</div></div><div class='cr'><div class='vertical-center'>$40<br>for<br>yourself</div></div><div class='respDivL'><div class='vertical-center'>(E)</div></div><div class='respDivR'><div class='vertical-center'>(I)</div></div></div>","I","$40<br>for<br>yourself","$55<br>for<br>4","1","40","55","4","SELF"
"html-keyboard-response","52","120063","0.0-6.0-3.15","63bef4ddef5b4d7295effbbd","bdp_sd","Tue Mar 28 2023 14:17:39 GMT-0500 (Central Daylight Time)","155949","","null","","","","","offerFB","","<div class='trialBorder'><div class='vertical-center'><img style='vertical-align:center; align:center' src=img/fixation3.jpg></div><div class='cl'><div class='vertical-center'>$55<br>for<br>Martin R</div></div><div class='cr'><div class='vertical-center'><font style='color:orange'>$40<br>for<br>yourself</font></div></div><div class='respDivL'><div class='vertical-center'>(E)</div></div><div class='respDivR'><div class='vertical-center'><font style='color:orange'>(I)</font></div></div></div>","null","$40<br>for<br>yourself","$55<br>for<br>4","1","40","55","4",""
"html-keyboard-response","53","120564","0.0-6.0-1.16","63bef4ddef5b4d7295effbbd","bdp_sd","Tue Mar 28 2023 14:17:39 GMT-0500 (Central Daylight Time)","155949","","null","","","","","FIX","","<div class='trialBorder'><div class='vertical-center'><img style='vertical-align:center; align:center' src=img/fixation3.jpg></div></div>","null","","","","","","",""
"html-keyboard-response","54","121755","0.0-6.0-2.16","63bef4ddef5b4d7295effbbd","bdp_sd","Tue Mar 28 2023 14:17:39 GMT-0500 (Central Daylight Time)","155949","","1189","","","","","offer","","<div class='trialBorder'><div class='vertical-center'><img style='vertical-align:center; align:center' src=img/fixation3.jpg></div><div class='cl'><div class='vertical-center'>$60<br>for<br>Magda L</div></div><div class='cr'><div class='vertical-center'>$54<br>for<br>yourself</div></div><div class='respDivL'><div class='vertical-center'>(E)</div></div><div class='respDivR'><div class='vertical-center'>(I)</div></div></div>","I","$54<br>for<br>yourself","$60<br>for<br>5","1","54","60","5","SELF"
"html-keyboard-response","55","122006","0.0-6.0-3.16","63bef4ddef5b4d7295effbbd","bdp_sd","Tue Mar 28 2023 14:17:39 GMT-0500 (Central Daylight Time)","155949","","null","","","","","offerFB","","<div class='trialBorder'><div class='vertical-center'><img style='vertical-align:center; align:center' src=img/fixation3.jpg></div><div class='cl'><div class='vertical-center'>$60<br>for<br>Magda L</div></div><div class='cr'><div class='vertical-center'><font style='color:orange'>$54<br>for<br>yourself</font></div></div><div class='respDivL'><div class='vertical-center'>(E)</div></div><div class='respDivR'><div class='vertical-center'><font style='color:orange'>(I)</font></div></div></div>","null","$54<br>for<br>yourself","$60<br>for<br>5","1","54","60","5",""
"html-keyboard-response","56","122508","0.0-6.0-1.17","63bef4ddef5b4d7295effbbd","bdp_sd","Tue Mar 28 2023 14:17:39 GMT-0500 (Central Daylight Time)","155949","","null","","","","","FIX","","<div class='trialBorder'><div class='vertical-center'><img style='vertical-align:center; align:center' src=img/fixation3.jpg></div></div>","null","","","","","","",""
"html-keyboard-response","57","123852","0.0-6.0-2.17","63bef4ddef5b4d7295effbbd","bdp_sd","Tue Mar 28 2023 14:17:39 GMT-0500 (Central Daylight Time)","155949","","1343","","","","","offer","","<div class='trialBorder'><div class='vertical-center'><img style='vertical-align:center; align:center' src=img/fixation3.jpg></div><div class='cl'><div class='vertical-center'>$49<br>for<br>yourself</div></div><div class='cr'><div class='vertical-center'>$60<br>for<br>Martin R</div></div><div class='respDivL'><div class='vertical-center'>(E)</div></div><div class='respDivR'><div class='vertical-center'>(I)</div></div></div>","E","$49<br>for<br>yourself","$60<br>for<br>4","0","49","60","4","SELF"
"html-keyboard-response","58","124104","0.0-6.0-3.17","63bef4ddef5b4d7295effbbd","bdp_sd","Tue Mar 28 2023 14:17:39 GMT-0500 (Central Daylight Time)","155949","","null","","","","","offerFB","","<div class='trialBorder'><div class='vertical-center'><img style='vertical-align:center; align:center' src=img/fixation3.jpg></div><div class='cl'><div class='vertical-center'><font style='color:orange'>$49<br>for<br>yourself</font></div></div><div class='cr'><div class='vertical-center'>$60<br>for<br>Martin R</div></div><div class='respDivL'><div class='vertical-center'><font style='color:orange'>(E)</font></div></div><div class='respDivR'><div class='vertical-center'>(I)</div></div></div>","null","$49<br>for<br>yourself","$60<br>for<br>4","0","49","60","4",""
"html-keyboard-response","59","124606","0.0-6.0-1.18","63bef4ddef5b4d7295effbbd","bdp_sd","Tue Mar 28 2023 14:17:39 GMT-0500 (Central Daylight Time)","155949","","null","","","","","FIX","","<div class='trialBorder'><div class='vertical-center'><img style='vertical-align:center; align:center' src=img/fixation3.jpg></div></div>","null","","","","","","",""
"html-keyboard-response","60","132916","0.0-6.0-2.18","63bef4ddef5b4d7295effbbd","bdp_sd","Tue Mar 28 2023 14:17:39 GMT-0500 (Central Daylight Time)","155949","","8308","","","","","offer","","<div class='trialBorder'><div class='vertical-center'><img style='vertical-align:center; align:center' src=img/fixation3.jpg></div><div class='cl'><div class='vertical-center'>$75<br>for<br>Martin R</div></div><div class='cr'><div class='vertical-center'>$55<br>for<br>yourself</div></div><div class='respDivL'><div class='vertical-center'>(E)</div></div><div class='respDivR'><div class='vertical-center'>(I)</div></div></div>","I","$55<br>for<br>yourself","$75<br>for<br>4","1","55","75","4","SELF"
"html-keyboard-response","61","133169","0.0-6.0-3.18","63bef4ddef5b4d7295effbbd","bdp_sd","Tue Mar 28 2023 14:17:39 GMT-0500 (Central Daylight Time)","155949","","null","","","","","offerFB","","<div class='trialBorder'><div class='vertical-center'><img style='vertical-align:center; align:center' src=img/fixation3.jpg></div><div class='cl'><div class='vertical-center'>$75<br>for<br>Martin R</div></div><div class='cr'><div class='vertical-center'><font style='color:orange'>$55<br>for<br>yourself</font></div></div><div class='respDivL'><div class='vertical-center'>(E)</div></div><div class='respDivR'><div class='vertical-center'><font style='color:orange'>(I)</font></div></div></div>","null","$55<br>for<br>yourself","$75<br>for<br>4","1","55","75","4",""
"html-keyboard-response","62","133671","0.0-6.0-1.19","63bef4ddef5b4d7295effbbd","bdp_sd","Tue Mar 28 2023 14:17:39 GMT-0500 (Central Daylight Time)","155949","","null","","","","","FIX","","<div class='trialBorder'><div class='vertical-center'><img style='vertical-align:center; align:center' src=img/fixation3.jpg></div></div>","null","","","","","","",""
"html-keyboard-response","63","135819","0.0-6.0-2.19","63bef4ddef5b4d7295effbbd","bdp_sd","Tue Mar 28 2023 14:17:39 GMT-0500 (Central Daylight Time)","155949","","2147","","","","","offer","","<div class='trialBorder'><div class='vertical-center'><img style='vertical-align:center; align:center' src=img/fixation3.jpg></div><div class='cl'><div class='vertical-center'>$80<br>for<br>yourself</div></div><div class='cr'><div class='vertical-center'>$85<br>for<br>Magda L</div></div><div class='respDivL'><div class='vertical-center'>(E)</div></div><div class='respDivR'><div class='vertical-center'>(I)</div></div></div>","E","$80<br>for<br>yourself","$85<br>for<br>5","0","80","85","5","SELF"
"html-keyboard-response","64","136070","0.0-6.0-3.19","63bef4ddef5b4d7295effbbd","bdp_sd","Tue Mar 28 2023 14:17:39 GMT-0500 (Central Daylight Time)","155949","","null","","","","","offerFB","","<div class='trialBorder'><div class='vertical-center'><img style='vertical-align:center; align:center' src=img/fixation3.jpg></div><div class='cl'><div class='vertical-center'><font style='color:orange'>$80<br>for<br>yourself</font></div></div><div class='cr'><div class='vertical-center'>$85<br>for<br>Magda L</div></div><div class='respDivL'><div class='vertical-center'><font style='color:orange'>(E)</font></div></div><div class='respDivR'><div class='vertical-center'>(I)</div></div></div>","null","$80<br>for<br>yourself","$85<br>for<br>5","0","80","85","5",""
"html-keyboard-response","65","136572","0.0-6.0-1.20","63bef4ddef5b4d7295effbbd","bdp_sd","Tue Mar 28 2023 14:17:39 GMT-0500 (Central Daylight Time)","155949","","null","","","","","FIX","","<div class='trialBorder'><div class='vertical-center'><img style='vertical-align:center; align:center' src=img/fixation3.jpg></div></div>","null","","","","","","",""
"html-keyboard-response","66","137892","0.0-6.0-2.20","63bef4ddef5b4d7295effbbd","bdp_sd","Tue Mar 28 2023 14:17:39 GMT-0500 (Central Daylight Time)","155949","","1319","","","","","offer","","<div class='trialBorder'><div class='vertical-center'><img style='vertical-align:center; align:center' src=img/fixation3.jpg></div><div class='cl'><div class='vertical-center'>$25<br>for<br>Kay X</div></div><div class='cr'><div class='vertical-center'>$14<br>for<br>yourself</div></div><div class='respDivL'><div class='vertical-center'>(E)</div></div><div class='respDivR'><div class='vertical-center'>(I)</div></div></div>","E","$14<br>for<br>yourself","$25<br>for<br>3","1","14","25","3","OTHER"
"html-keyboard-response","67","138145","0.0-6.0-3.20","63bef4ddef5b4d7295effbbd","bdp_sd","Tue Mar 28 2023 14:17:39 GMT-0500 (Central Daylight Time)","155949","","null","","","","","offerFB","","<div class='trialBorder'><div class='vertical-center'><img style='vertical-align:center; align:center' src=img/fixation3.jpg></div><div class='cl'><div class='vertical-center'><font style='color:orange'>$25<br>for<br>Kay X</font></div></div><div class='cr'><div class='vertical-center'>$14<br>for<br>yourself</div></div><div class='respDivL'><div class='vertical-center'><font style='color:orange'>(E)</font></div></div><div class='respDivR'><div class='vertical-center'>(I)</div></div></div>","null","$14<br>for<br>yourself","$25<br>for<br>3","1","14","25","3",""
"html-keyboard-response","68","138647","0.0-6.0-1.21","63bef4ddef5b4d7295effbbd","bdp_sd","Tue Mar 28 2023 14:17:39 GMT-0500 (Central Daylight Time)","155949","","null","","","","","FIX","","<div class='trialBorder'><div class='vertical-center'><img style='vertical-align:center; align:center' src=img/fixation3.jpg></div></div>","null","","","","","","",""
"html-keyboard-response","69","141180","0.0-6.0-2.21","63bef4ddef5b4d7295effbbd","bdp_sd","Tue Mar 28 2023 14:17:39 GMT-0500 (Central Daylight Time)","155949","","2533","","","","","offer","","<div class='trialBorder'><div class='vertical-center'><img style='vertical-align:center; align:center' src=img/fixation3.jpg></div><div class='cl'><div class='vertical-center'>$27<br>for<br>yourself</div></div><div class='cr'><div class='vertical-center'>$50<br>for<br>Kay X</div></div><div class='respDivL'><div class='vertical-center'>(E)</div></div><div class='respDivR'><div class='vertical-center'>(I)</div></div></div>","E","$27<br>for<br>yourself","$50<br>for<br>3","0","27","50","3","SELF"
"html-keyboard-response","70","141432","0.0-6.0-3.21","63bef4ddef5b4d7295effbbd","bdp_sd","Tue Mar 28 2023 14:17:39 GMT-0500 (Central Daylight Time)","155949","","null","","","","","offerFB","","<div class='trialBorder'><div class='vertical-center'><img style='vertical-align:center; align:center' src=img/fixation3.jpg></div><div class='cl'><div class='vertical-center'><font style='color:orange'>$27<br>for<br>yourself</font></div></div><div class='cr'><div class='vertical-center'>$50<br>for<br>Kay X</div></div><div class='respDivL'><div class='vertical-center'><font style='color:orange'>(E)</font></div></div><div class='respDivR'><div class='vertical-center'>(I)</div></div></div>","null","$27<br>for<br>yourself","$50<br>for<br>3","0","27","50","3",""
"html-keyboard-response","71","141934","0.0-6.0-1.22","63bef4ddef5b4d7295effbbd","bdp_sd","Tue Mar 28 2023 14:17:39 GMT-0500 (Central Daylight Time)","155949","","null","","","","","FIX","","<div class='trialBorder'><div class='vertical-center'><img style='vertical-align:center; align:center' src=img/fixation3.jpg></div></div>","null","","","","","","",""
"html-keyboard-response","72","146619","0.0-6.0-2.22","63bef4ddef5b4d7295effbbd","bdp_sd","Tue Mar 28 2023 14:17:39 GMT-0500 (Central Daylight Time)","155949","","4683","","","","","offer","","<div class='trialBorder'><div class='vertical-center'><img style='vertical-align:center; align:center' src=img/fixation3.jpg></div><div class='cl'><div class='vertical-center'>$50<br>for<br>Magda L</div></div><div class='cr'><div class='vertical-center'>$47<br>for<br>yourself</div></div><div class='respDivL'><div class='vertical-center'>(E)</div></div><div class='respDivR'><div class='vertical-center'>(I)</div></div></div>","I","$47<br>for<br>yourself","$50<br>for<br>5","1","47","50","5","SELF"
"html-keyboard-response","73","146871","0.0-6.0-3.22","63bef4ddef5b4d7295effbbd","bdp_sd","Tue Mar 28 2023 14:17:39 GMT-0500 (Central Daylight Time)","155949","","null","","","","","offerFB","","<div class='trialBorder'><div class='vertical-center'><img style='vertical-align:center; align:center' src=img/fixation3.jpg></div><div class='cl'><div class='vertical-center'>$50<br>for<br>Magda L</div></div><div class='cr'><div class='vertical-center'><font style='color:orange'>$47<br>for<br>yourself</font></div></div><div class='respDivL'><div class='vertical-center'>(E)</div></div><div class='respDivR'><div class='vertical-center'><font style='color:orange'>(I)</font></div></div></div>","null","$47<br>for<br>yourself","$50<br>for<br>5","1","47","50","5",""
"html-keyboard-response","74","147372","0.0-6.0-1.23","63bef4ddef5b4d7295effbbd","bdp_sd","Tue Mar 28 2023 14:17:39 GMT-0500 (Central Daylight Time)","155949","","null","","","","","FIX","","<div class='trialBorder'><div class='vertical-center'><img style='vertical-align:center; align:center' src=img/fixation3.jpg></div></div>","null","","","","","","",""
"html-keyboard-response","75","148547","0.0-6.0-2.23","63bef4ddef5b4d7295effbbd","bdp_sd","Tue Mar 28 2023 14:17:39 GMT-0500 (Central Daylight Time)","155949","","1175","","","","","offer","","<div class='trialBorder'><div class='vertical-center'><img style='vertical-align:center; align:center' src=img/fixation3.jpg></div><div class='cl'><div class='vertical-center'>$50<br>for<br>Martin R</div></div><div class='cr'><div class='vertical-center'>$34<br>for<br>yourself</div></div><div class='respDivL'><div class='vertical-center'>(E)</div></div><div class='respDivR'><div class='vertical-center'>(I)</div></div></div>","I","$34<br>for<br>yourself","$50<br>for<br>4","1","34","50","4","SELF"
"html-keyboard-response","76","148799","0.0-6.0-3.23","63bef4ddef5b4d7295effbbd","bdp_sd","Tue Mar 28 2023 14:17:39 GMT-0500 (Central Daylight Time)","155949","","null","","","","","offerFB","","<div class='trialBorder'><div class='vertical-center'><img style='vertical-align:center; align:center' src=img/fixation3.jpg></div><div class='cl'><div class='vertical-center'>$50<br>for<br>Martin R</div></div><div class='cr'><div class='vertical-center'><font style='color:orange'>$34<br>for<br>yourself</font></div></div><div class='respDivL'><div class='vertical-center'>(E)</div></div><div class='respDivR'><div class='vertical-center'><font style='color:orange'>(I)</font></div></div></div>","null","$34<br>for<br>yourself","$50<br>for<br>4","1","34","50","4",""
"html-keyboard-response","77","149302","0.0-6.0-1.24","63bef4ddef5b4d7295effbbd","bdp_sd","Tue Mar 28 2023 14:17:39 GMT-0500 (Central Daylight Time)","155949","","null","","","","","FIX","","<div class='trialBorder'><div class='vertical-center'><img style='vertical-align:center; align:center' src=img/fixation3.jpg></div></div>","null","","","","","","",""
"html-keyboard-response","78","150612","0.0-6.0-2.24","63bef4ddef5b4d7295effbbd","bdp_sd","Tue Mar 28 2023 14:17:39 GMT-0500 (Central Daylight Time)","155949","","1309","","","","","offer","","<div class='trialBorder'><div class='vertical-center'><img style='vertical-align:center; align:center' src=img/fixation3.jpg></div><div class='cl'><div class='vertical-center'>$41<br>for<br>yourself</div></div><div class='cr'><div class='vertical-center'>$75<br>for<br>Kay X</div></div><div class='respDivL'><div class='vertical-center'>(E)</div></div><div class='respDivR'><div class='vertical-center'>(I)</div></div></div>","I","$41<br>for<br>yourself","$75<br>for<br>3","0","41","75","3","OTHER"
"html-keyboard-response","79","150866","0.0-6.0-3.24","63bef4ddef5b4d7295effbbd","bdp_sd","Tue Mar 28 2023 14:17:39 GMT-0500 (Central Daylight Time)","155949","","null","","","","","offerFB","","<div class='trialBorder'><div class='vertical-center'><img style='vertical-align:center; align:center' src=img/fixation3.jpg></div><div class='cl'><div class='vertical-center'>$41<br>for<br>yourself</div></div><div class='cr'><div class='vertical-center'><font style='color:orange'>$75<br>for<br>Kay X</font></div></div><div class='respDivL'><div class='vertical-center'>(E)</div></div><div class='respDivR'><div class='vertical-center'><font style='color:orange'>(I)</font></div></div></div>","null","$41<br>for<br>yourself","$75<br>for<br>3","0","41","75","3",""
"html-keyboard-response","80","151368","0.0-6.0-1.25","63bef4ddef5b4d7295effbbd","bdp_sd","Tue Mar 28 2023 14:17:39 GMT-0500 (Central Daylight Time)","155949","","null","","","","","FIX","","<div class='trialBorder'><div class='vertical-center'><img style='vertical-align:center; align:center' src=img/fixation3.jpg></div></div>","null","","","","","","",""
"html-keyboard-response","81","152723","0.0-6.0-2.25","63bef4ddef5b4d7295effbbd","bdp_sd","Tue Mar 28 2023 14:17:39 GMT-0500 (Central Daylight Time)","155949","","1354","","","","","offer","","<div class='trialBorder'><div class='vertical-center'><img style='vertical-align:center; align:center' src=img/fixation3.jpg></div><div class='cl'><div class='vertical-center'>$25<br>for<br>yourself</div></div><div class='cr'><div class='vertical-center'>$60<br>for<br>Kay X</div></div><div class='respDivL'><div class='vertical-center'>(E)</div></div><div class='respDivR'><div class='vertical-center'>(I)</div></div></div>","I","$25<br>for<br>yourself","$60<br>for<br>3","0","25","60","3","OTHER"
"html-keyboard-response","82","152975","0.0-6.0-3.25","63bef4ddef5b4d7295effbbd","bdp_sd","Tue Mar 28 2023 14:17:39 GMT-0500 (Central Daylight Time)","155949","","null","","","","","offerFB","","<div class='trialBorder'><div class='vertical-center'><img style='vertical-align:center; align:center' src=img/fixation3.jpg></div><div class='cl'><div class='vertical-center'>$25<br>for<br>yourself</div></div><div class='cr'><div class='vertical-center'><font style='color:orange'>$60<br>for<br>Kay X</font></div></div><div class='respDivL'><div class='vertical-center'>(E)</div></div><div class='respDivR'><div class='vertical-center'><font style='color:orange'>(I)</font></div></div></div>","null","$25<br>for<br>yourself","$60<br>for<br>3","0","25","60","3",""
"html-keyboard-response","83","153477","0.0-6.0-1.26","63bef4ddef5b4d7295effbbd","bdp_sd","Tue Mar 28 2023 14:17:39 GMT-0500 (Central Daylight Time)","155949","","null","","","","","FIX","","<div class='trialBorder'><div class='vertical-center'><img style='vertical-align:center; align:center' src=img/fixation3.jpg></div></div>","null","","","","","","",""
"html-keyboard-response","84","154684","0.0-6.0-2.26","63bef4ddef5b4d7295effbbd","bdp_sd","Tue Mar 28 2023 14:17:39 GMT-0500 (Central Daylight Time)","155949","","1205","","","","","offer","","<div class='trialBorder'><div class='vertical-center'><img style='vertical-align:center; align:center' src=img/fixation3.jpg></div><div class='cl'><div class='vertical-center'>$31<br>for<br>yourself</div></div><div class='cr'><div class='vertical-center'>$85<br>for<br>Jessica E</div></div><div class='respDivL'><div class='vertical-center'>(E)</div></div><div class='respDivR'><div class='vertical-center'>(I)</div></div></div>","I","$31<br>for<br>yourself","$85<br>for<br>1","0","31","85","1","OTHER"
"html-keyboard-response","85","154946","0.0-6.0-3.26","63bef4ddef5b4d7295effbbd","bdp_sd","Tue Mar 28 2023 14:17:39 GMT-0500 (Central Daylight Time)","155949","","null","","","","","offerFB","","<div class='trialBorder'><div class='vertical-center'><img style='vertical-align:center; align:center' src=img/fixation3.jpg></div><div class='cl'><div class='vertical-center'>$31<br>for<br>yourself</div></div><div class='cr'><div class='vertical-center'><font style='color:orange'>$85<br>for<br>Jessica E</font></div></div><div class='respDivL'><div class='vertical-center'>(E)</div></div><div class='respDivR'><div class='vertical-center'><font style='color:orange'>(I)</font></div></div></div>","null","$31<br>for<br>yourself","$85<br>for<br>1","0","31","85","1",""
"","","","","63bef4ddef5b4d7295effbbd","bdp_sd","Tue Mar 28 2023 14:17:39 GMT-0500 (Central Daylight Time)","155949","","","","fullscreenexit","86","154962","fullscreenexit","","","","","","","","","",""
"fullscreen","86","155948","0.0-7.0","63bef4ddef5b4d7295effbbd","bdp_sd","Tue Mar 28 2023 14:17:39 GMT-0500 (Central Daylight Time)","155949","","","","","","","","true","","","","","","","","",""
"html-keyboard-response","87","156450","0.0-8.0","","","","","","null","","","","","","","","null","","","","","","",""
