"trial_type","trial_index","time_elapsed","internal_node_id","subject_id","task","startTime","totalTime","view_history","rt","responses","event","trial","time","trialtype","success","stimulus","key_press","selfOffer","otherOffer","otherLeft","selfAmt","otherAmt","otherDist","chosen"
"pavlovia","0","2","0.0-0.0","63d7a8a2591096e22405d64a","bdp_sd","Sat Mar 25 2023 20:13:55 GMT-0600 (Mountain Daylight Time)","158389","","","","","","","","","","","","","","","","",""
"instructions","1","3729","0.0-1.0","63d7a8a2591096e22405d64a","bdp_sd","Sat Mar 25 2023 20:13:55 GMT-0600 (Mountain Daylight Time)","158389","[{""page_index"":0,""viewing_time"":3727}]","3727","","","","","","","","","","","","","","",""
"survey-text","2","68551","0.0-2.0","63d7a8a2591096e22405d64a","bdp_sd","Sat Mar 25 2023 20:13:55 GMT-0600 (Mountain Daylight Time)","158389","","64820","{""Q0"":""Aramis G"",""Q1"":""Marette R"",""Q2"":""Kriste R"",""Q3"":""Michael M"",""Q4"":""MINDY M""}","","","","","","","","","","","","","",""
"","","","","63d7a8a2591096e22405d64a","bdp_sd","Sat Mar 25 2023 20:13:55 GMT-0600 (Mountain Daylight Time)","158389","","","","fullscreenenter","3","70495","fullscreenenter","","","","","","","","","",""
"fullscreen","3","71472","0.0-3.0","63d7a8a2591096e22405d64a","bdp_sd","Sat Mar 25 2023 20:13:55 GMT-0600 (Mountain Daylight Time)","158389","","","","","","","","true","","","","","","","","",""
"instructions","4","94938","0.0-5.0","63d7a8a2591096e22405d64a","bdp_sd","Sat Mar 25 2023 20:13:55 GMT-0600 (Mountain Daylight Time)","158389","[{""page_index"":0,""viewing_time"":3596},{""page_index"":1,""viewing_time"":17488},{""page_index"":2,""viewing_time"":2381}]","23465","","","","","","","","","","","","","","",""
"html-keyboard-response","5","95441","0.0-6.0-1.0","63d7a8a2591096e22405d64a","bdp_sd","Sat Mar 25 2023 20:13:55 GMT-0600 (Mountain Daylight Time)","158389","","null","","","","","FIX","","<div class='trialBorder'><div class='vertical-center'><img style='vertical-align:center; align:center' src=img/fixation3.jpg></div></div>","null","","","","","","",""
"html-keyboard-response","6","99463","0.0-6.0-2.0","63d7a8a2591096e22405d64a","bdp_sd","Sat Mar 25 2023 20:13:55 GMT-0600 (Mountain Daylight Time)","158389","","4021","","","","","offer","","<div class='trialBorder'><div class='vertical-center'><img style='vertical-align:center; align:center' src=img/fixation3.jpg></div><div class='cl'><div class='vertical-center'>$22<br>for<br>yourself</div></div><div class='cr'><div class='vertical-center'>$25<br>for<br>MINDY M</div></div><div class='respDivL'><div class='vertical-center'>(E)</div></div><div class='respDivR'><div class='vertical-center'>(I)</div></div></div>","E","$22<br>for<br>yourself","$25<br>for<br>5","0","22","25","5","SELF"
"html-keyboard-response","7","99716","0.0-6.0-3.0","63d7a8a2591096e22405d64a","bdp_sd","Sat Mar 25 2023 20:13:55 GMT-0600 (Mountain Daylight Time)","158389","","null","","","","","offerFB","","<div class='trialBorder'><div class='vertical-center'><img style='vertical-align:center; align:center' src=img/fixation3.jpg></div><div class='cl'><div class='vertical-center'><font style='color:orange'>$22<br>for<br>yourself</font></div></div><div class='cr'><div class='vertical-center'>$25<br>for<br>MINDY M</div></div><div class='respDivL'><div class='vertical-center'><font style='color:orange'>(E)</font></div></div><div class='respDivR'><div class='vertical-center'>(I)</div></div></div>","null","$22<br>for<br>yourself","$25<br>for<br>5","0","22","25","5",""
"html-keyboard-response","8","100218","0.0-6.0-1.1","63d7a8a2591096e22405d64a","bdp_sd","Sat Mar 25 2023 20:13:55 GMT-0600 (Mountain Daylight Time)","158389","","null","","","","","FIX","","<div class='trialBorder'><div class='vertical-center'><img style='vertical-align:center; align:center' src=img/fixation3.jpg></div></div>","null","","","","","","",""
"html-keyboard-response","9","103562","0.0-6.0-2.1","63d7a8a2591096e22405d64a","bdp_sd","Sat Mar 25 2023 20:13:55 GMT-0600 (Mountain Daylight Time)","158389","","3343","","","","","offer","","<div class='trialBorder'><div class='vertical-center'><img style='vertical-align:center; align:center' src=img/fixation3.jpg></div><div class='cl'><div class='vertical-center'>$11<br>for<br>yourself</div></div><div class='cr'><div class='vertical-center'>$30<br>for<br>Marette R</div></div><div class='respDivL'><div class='vertical-center'>(E)</div></div><div class='respDivR'><div class='vertical-center'>(I)</div></div></div>","I","$11<br>for<br>yourself","$30<br>for<br>2","0","11","30","2","OTHER"
"html-keyboard-response","10","103814","0.0-6.0-3.1","63d7a8a2591096e22405d64a","bdp_sd","Sat Mar 25 2023 20:13:55 GMT-0600 (Mountain Daylight Time)","158389","","null","","","","","offerFB","","<div class='trialBorder'><div class='vertical-center'><img style='vertical-align:center; align:center' src=img/fixation3.jpg></div><div class='cl'><div class='vertical-center'>$11<br>for<br>yourself</div></div><div class='cr'><div class='vertical-center'><font style='color:orange'>$30<br>for<br>Marette R</font></div></div><div class='respDivL'><div class='vertical-center'>(E)</div></div><div class='respDivR'><div class='vertical-center'><font style='color:orange'>(I)</font></div></div></div>","null","$11<br>for<br>yourself","$30<br>for<br>2","0","11","30","2",""
"html-keyboard-response","11","104316","0.0-6.0-1.2","63d7a8a2591096e22405d64a","bdp_sd","Sat Mar 25 2023 20:13:55 GMT-0600 (Mountain Daylight Time)","158389","","null","","","","","FIX","","<div class='trialBorder'><div class='vertical-center'><img style='vertical-align:center; align:center' src=img/fixation3.jpg></div></div>","null","","","","","","",""
"html-keyboard-response","12","105852","0.0-6.0-2.2","63d7a8a2591096e22405d64a","bdp_sd","Sat Mar 25 2023 20:13:55 GMT-0600 (Mountain Daylight Time)","158389","","1536","","","","","offer","","<div class='trialBorder'><div class='vertical-center'><img style='vertical-align:center; align:center' src=img/fixation3.jpg></div><div class='cl'><div class='vertical-center'>$40<br>for<br>yourself</div></div><div class='cr'><div class='vertical-center'>$55<br>for<br>Michael M</div></div><div class='respDivL'><div class='vertical-center'>(E)</div></div><div class='respDivR'><div class='vertical-center'>(I)</div></div></div>","E","$40<br>for<br>yourself","$55<br>for<br>4","0","40","55","4","SELF"
"html-keyboard-response","13","106104","0.0-6.0-3.2","63d7a8a2591096e22405d64a","bdp_sd","Sat Mar 25 2023 20:13:55 GMT-0600 (Mountain Daylight Time)","158389","","null","","","","","offerFB","","<div class='trialBorder'><div class='vertical-center'><img style='vertical-align:center; align:center' src=img/fixation3.jpg></div><div class='cl'><div class='vertical-center'><font style='color:orange'>$40<br>for<br>yourself</font></div></div><div class='cr'><div class='vertical-center'>$55<br>for<br>Michael M</div></div><div class='respDivL'><div class='vertical-center'><font style='color:orange'>(E)</font></div></div><div class='respDivR'><div class='vertical-center'>(I)</div></div></div>","null","$40<br>for<br>yourself","$55<br>for<br>4","0","40","55","4",""
"html-keyboard-response","14","106605","0.0-6.0-1.3","63d7a8a2591096e22405d64a","bdp_sd","Sat Mar 25 2023 20:13:55 GMT-0600 (Mountain Daylight Time)","158389","","null","","","","","FIX","","<div class='trialBorder'><div class='vertical-center'><img style='vertical-align:center; align:center' src=img/fixation3.jpg></div></div>","null","","","","","","",""
"html-keyboard-response","15","108315","0.0-6.0-2.3","63d7a8a2591096e22405d64a","bdp_sd","Sat Mar 25 2023 20:13:55 GMT-0600 (Mountain Daylight Time)","158389","","1709","","","","","offer","","<div class='trialBorder'><div class='vertical-center'><img style='vertical-align:center; align:center' src=img/fixation3.jpg></div><div class='cl'><div class='vertical-center'>$80<br>for<br>Marette R</div></div><div class='cr'><div class='vertical-center'>$33<br>for<br>yourself</div></div><div class='respDivL'><div class='vertical-center'>(E)</div></div><div class='respDivR'><div class='vertical-center'>(I)</div></div></div>","E","$33<br>for<br>yourself","$80<br>for<br>2","1","33","80","2","OTHER"
"html-keyboard-response","16","108567","0.0-6.0-3.3","63d7a8a2591096e22405d64a","bdp_sd","Sat Mar 25 2023 20:13:55 GMT-0600 (Mountain Daylight Time)","158389","","null","","","","","offerFB","","<div class='trialBorder'><div class='vertical-center'><img style='vertical-align:center; align:center' src=img/fixation3.jpg></div><div class='cl'><div class='vertical-center'><font style='color:orange'>$80<br>for<br>Marette R</font></div></div><div class='cr'><div class='vertical-center'>$33<br>for<br>yourself</div></div><div class='respDivL'><div class='vertical-center'><font style='color:orange'>(E)</font></div></div><div class='respDivR'><div class='vertical-center'>(I)</div></div></div>","null","$33<br>for<br>yourself","$80<br>for<br>2","1","33","80","2",""
"html-keyboard-response","17","109069","0.0-6.0-1.4","63d7a8a2591096e22405d64a","bdp_sd","Sat Mar 25 2023 20:13:55 GMT-0600 (Mountain Daylight Time)","158389","","null","","","","","FIX","","<div class='trialBorder'><div class='vertical-center'><img style='vertical-align:center; align:center' src=img/fixation3.jpg></div></div>","null","","","","","","",""
"html-keyboard-response","18","110969","0.0-6.0-2.4","63d7a8a2591096e22405d64a","bdp_sd","Sat Mar 25 2023 20:13:55 GMT-0600 (Mountain Daylight Time)","158389","","1900","","","","","offer","","<div class='trialBorder'><div class='vertical-center'><img style='vertical-align:center; align:center' src=img/fixation3.jpg></div><div class='cl'><div class='vertical-center'>$60<br>for<br>MINDY M</div></div><div class='cr'><div class='vertical-center'>$54<br>for<br>yourself</div></div><div class='respDivL'><div class='vertical-center'>(E)</div></div><div class='respDivR'><div class='vertical-center'>(I)</div></div></div>","I","$54<br>for<br>yourself","$60<br>for<br>5","1","54","60","5","SELF"
"html-keyboard-response","19","111221","0.0-6.0-3.4","63d7a8a2591096e22405d64a","bdp_sd","Sat Mar 25 2023 20:13:55 GMT-0600 (Mountain Daylight Time)","158389","","null","","","","","offerFB","","<div class='trialBorder'><div class='vertical-center'><img style='vertical-align:center; align:center' src=img/fixation3.jpg></div><div class='cl'><div class='vertical-center'>$60<br>for<br>MINDY M</div></div><div class='cr'><div class='vertical-center'><font style='color:orange'>$54<br>for<br>yourself</font></div></div><div class='respDivL'><div class='vertical-center'>(E)</div></div><div class='respDivR'><div class='vertical-center'><font style='color:orange'>(I)</font></div></div></div>","null","$54<br>for<br>yourself","$60<br>for<br>5","1","54","60","5",""
"html-keyboard-response","20","111731","0.0-6.0-1.5","63d7a8a2591096e22405d64a","bdp_sd","Sat Mar 25 2023 20:13:55 GMT-0600 (Mountain Daylight Time)","158389","","null","","","","","FIX","","<div class='trialBorder'><div class='vertical-center'><img style='vertical-align:center; align:center' src=img/fixation3.jpg></div></div>","null","","","","","","",""
"html-keyboard-response","21","113475","0.0-6.0-2.5","63d7a8a2591096e22405d64a","bdp_sd","Sat Mar 25 2023 20:13:55 GMT-0600 (Mountain Daylight Time)","158389","","1743","","","","","offer","","<div class='trialBorder'><div class='vertical-center'><img style='vertical-align:center; align:center' src=img/fixation3.jpg></div><div class='cl'><div class='vertical-center'>$80<br>for<br>MINDY M</div></div><div class='cr'><div class='vertical-center'>$78<br>for<br>yourself</div></div><div class='respDivL'><div class='vertical-center'>(E)</div></div><div class='respDivR'><div class='vertical-center'>(I)</div></div></div>","I","$78<br>for<br>yourself","$80<br>for<br>5","1","78","80","5","SELF"
"html-keyboard-response","22","113727","0.0-6.0-3.5","63d7a8a2591096e22405d64a","bdp_sd","Sat Mar 25 2023 20:13:55 GMT-0600 (Mountain Daylight Time)","158389","","null","","","","","offerFB","","<div class='trialBorder'><div class='vertical-center'><img style='vertical-align:center; align:center' src=img/fixation3.jpg></div><div class='cl'><div class='vertical-center'>$80<br>for<br>MINDY M</div></div><div class='cr'><div class='vertical-center'><font style='color:orange'>$78<br>for<br>yourself</font></div></div><div class='respDivL'><div class='vertical-center'>(E)</div></div><div class='respDivR'><div class='vertical-center'><font style='color:orange'>(I)</font></div></div></div>","null","$78<br>for<br>yourself","$80<br>for<br>5","1","78","80","5",""
"html-keyboard-response","23","114229","0.0-6.0-1.6","63d7a8a2591096e22405d64a","bdp_sd","Sat Mar 25 2023 20:13:55 GMT-0600 (Mountain Daylight Time)","158389","","null","","","","","FIX","","<div class='trialBorder'><div class='vertical-center'><img style='vertical-align:center; align:center' src=img/fixation3.jpg></div></div>","null","","","","","","",""
"html-keyboard-response","24","116055","0.0-6.0-2.6","63d7a8a2591096e22405d64a","bdp_sd","Sat Mar 25 2023 20:13:55 GMT-0600 (Mountain Daylight Time)","158389","","1826","","","","","offer","","<div class='trialBorder'><div class='vertical-center'><img style='vertical-align:center; align:center' src=img/fixation3.jpg></div><div class='cl'><div class='vertical-center'>$50<br>for<br>Kriste R</div></div><div class='cr'><div class='vertical-center'>$27<br>for<br>yourself</div></div><div class='respDivL'><div class='vertical-center'>(E)</div></div><div class='respDivR'><div class='vertical-center'>(I)</div></div></div>","E","$27<br>for<br>yourself","$50<br>for<br>3","1","27","50","3","OTHER"
"html-keyboard-response","25","116307","0.0-6.0-3.6","63d7a8a2591096e22405d64a","bdp_sd","Sat Mar 25 2023 20:13:55 GMT-0600 (Mountain Daylight Time)","158389","","null","","","","","offerFB","","<div class='trialBorder'><div class='vertical-center'><img style='vertical-align:center; align:center' src=img/fixation3.jpg></div><div class='cl'><div class='vertical-center'><font style='color:orange'>$50<br>for<br>Kriste R</font></div></div><div class='cr'><div class='vertical-center'>$27<br>for<br>yourself</div></div><div class='respDivL'><div class='vertical-center'><font style='color:orange'>(E)</font></div></div><div class='respDivR'><div class='vertical-center'>(I)</div></div></div>","null","$27<br>for<br>yourself","$50<br>for<br>3","1","27","50","3",""
"html-keyboard-response","26","116809","0.0-6.0-1.7","63d7a8a2591096e22405d64a","bdp_sd","Sat Mar 25 2023 20:13:55 GMT-0600 (Mountain Daylight Time)","158389","","null","","","","","FIX","","<div class='trialBorder'><div class='vertical-center'><img style='vertical-align:center; align:center' src=img/fixation3.jpg></div></div>","null","","","","","","",""
"html-keyboard-response","27","118387","0.0-6.0-2.7","63d7a8a2591096e22405d64a","bdp_sd","Sat Mar 25 2023 20:13:55 GMT-0600 (Mountain Daylight Time)","158389","","1577","","","","","offer","","<div class='trialBorder'><div class='vertical-center'><img style='vertical-align:center; align:center' src=img/fixation3.jpg></div><div class='cl'><div class='vertical-center'>$50<br>for<br>Michael M</div></div><div class='cr'><div class='vertical-center'>$34<br>for<br>yourself</div></div><div class='respDivL'><div class='vertical-center'>(E)</div></div><div class='respDivR'><div class='vertical-center'>(I)</div></div></div>","I","$34<br>for<br>yourself","$50<br>for<br>4","1","34","50","4","SELF"
"html-keyboard-response","28","118647","0.0-6.0-3.7","63d7a8a2591096e22405d64a","bdp_sd","Sat Mar 25 2023 20:13:55 GMT-0600 (Mountain Daylight Time)","158389","","null","","","","","offerFB","","<div class='trialBorder'><div class='vertical-center'><img style='vertical-align:center; align:center' src=img/fixation3.jpg></div><div class='cl'><div class='vertical-center'>$50<br>for<br>Michael M</div></div><div class='cr'><div class='vertical-center'><font style='color:orange'>$34<br>for<br>yourself</font></div></div><div class='respDivL'><div class='vertical-center'>(E)</div></div><div class='respDivR'><div class='vertical-center'><font style='color:orange'>(I)</font></div></div></div>","null","$34<br>for<br>yourself","$50<br>for<br>4","1","34","50","4",""
"html-keyboard-response","29","119149","0.0-6.0-1.8","63d7a8a2591096e22405d64a","bdp_sd","Sat Mar 25 2023 20:13:55 GMT-0600 (Mountain Daylight Time)","158389","","null","","","","","FIX","","<div class='trialBorder'><div class='vertical-center'><img style='vertical-align:center; align:center' src=img/fixation3.jpg></div></div>","null","","","","","","",""
"html-keyboard-response","30","121561","0.0-6.0-2.8","63d7a8a2591096e22405d64a","bdp_sd","Sat Mar 25 2023 20:13:55 GMT-0600 (Mountain Daylight Time)","158389","","2412","","","","","offer","","<div class='trialBorder'><div class='vertical-center'><img style='vertical-align:center; align:center' src=img/fixation3.jpg></div><div class='cl'><div class='vertical-center'>$25<br>for<br>yourself</div></div><div class='cr'><div class='vertical-center'>$60<br>for<br>Kriste R</div></div><div class='respDivL'><div class='vertical-center'>(E)</div></div><div class='respDivR'><div class='vertical-center'>(I)</div></div></div>","I","$25<br>for<br>yourself","$60<br>for<br>3","0","25","60","3","OTHER"
"html-keyboard-response","31","121812","0.0-6.0-3.8","63d7a8a2591096e22405d64a","bdp_sd","Sat Mar 25 2023 20:13:55 GMT-0600 (Mountain Daylight Time)","158389","","null","","","","","offerFB","","<div class='trialBorder'><div class='vertical-center'><img style='vertical-align:center; align:center' src=img/fixation3.jpg></div><div class='cl'><div class='vertical-center'>$25<br>for<br>yourself</div></div><div class='cr'><div class='vertical-center'><font style='color:orange'>$60<br>for<br>Kriste R</font></div></div><div class='respDivL'><div class='vertical-center'>(E)</div></div><div class='respDivR'><div class='vertical-center'><font style='color:orange'>(I)</font></div></div></div>","null","$25<br>for<br>yourself","$60<br>for<br>3","0","25","60","3",""
"html-keyboard-response","32","122314","0.0-6.0-1.9","63d7a8a2591096e22405d64a","bdp_sd","Sat Mar 25 2023 20:13:55 GMT-0600 (Mountain Daylight Time)","158389","","null","","","","","FIX","","<div class='trialBorder'><div class='vertical-center'><img style='vertical-align:center; align:center' src=img/fixation3.jpg></div></div>","null","","","","","","",""
"html-keyboard-response","33","123877","0.0-6.0-2.9","63d7a8a2591096e22405d64a","bdp_sd","Sat Mar 25 2023 20:13:55 GMT-0600 (Mountain Daylight Time)","158389","","1562","","","","","offer","","<div class='trialBorder'><div class='vertical-center'><img style='vertical-align:center; align:center' src=img/fixation3.jpg></div><div class='cl'><div class='vertical-center'>$85<br>for<br>Michael M</div></div><div class='cr'><div class='vertical-center'>$69<br>for<br>yourself</div></div><div class='respDivL'><div class='vertical-center'>(E)</div></div><div class='respDivR'><div class='vertical-center'>(I)</div></div></div>","I","$69<br>for<br>yourself","$85<br>for<br>4","1","69","85","4","SELF"
"html-keyboard-response","34","124128","0.0-6.0-3.9","63d7a8a2591096e22405d64a","bdp_sd","Sat Mar 25 2023 20:13:55 GMT-0600 (Mountain Daylight Time)","158389","","null","","","","","offerFB","","<div class='trialBorder'><div class='vertical-center'><img style='vertical-align:center; align:center' src=img/fixation3.jpg></div><div class='cl'><div class='vertical-center'>$85<br>for<br>Michael M</div></div><div class='cr'><div class='vertical-center'><font style='color:orange'>$69<br>for<br>yourself</font></div></div><div class='respDivL'><div class='vertical-center'>(E)</div></div><div class='respDivR'><div class='vertical-center'><font style='color:orange'>(I)</font></div></div></div>","null","$69<br>for<br>yourself","$85<br>for<br>4","1","69","85","4",""
"html-keyboard-response","35","124630","0.0-6.0-1.10","63d7a8a2591096e22405d64a","bdp_sd","Sat Mar 25 2023 20:13:55 GMT-0600 (Mountain Daylight Time)","158389","","null","","","","","FIX","","<div class='trialBorder'><div class='vertical-center'><img style='vertical-align:center; align:center' src=img/fixation3.jpg></div></div>","null","","","","","","",""
"html-keyboard-response","36","126521","0.0-6.0-2.10","63d7a8a2591096e22405d64a","bdp_sd","Sat Mar 25 2023 20:13:55 GMT-0600 (Mountain Daylight Time)","158389","","1891","","","","","offer","","<div class='trialBorder'><div class='vertical-center'><img style='vertical-align:center; align:center' src=img/fixation3.jpg></div><div class='cl'><div class='vertical-center'>$31<br>for<br>yourself</div></div><div class='cr'><div class='vertical-center'>$85<br>for<br>Aramis G</div></div><div class='respDivL'><div class='vertical-center'>(E)</div></div><div class='respDivR'><div class='vertical-center'>(I)</div></div></div>","I","$31<br>for<br>yourself","$85<br>for<br>1","0","31","85","1","OTHER"
"html-keyboard-response","37","126772","0.0-6.0-3.10","63d7a8a2591096e22405d64a","bdp_sd","Sat Mar 25 2023 20:13:55 GMT-0600 (Mountain Daylight Time)","158389","","null","","","","","offerFB","","<div class='trialBorder'><div class='vertical-center'><img style='vertical-align:center; align:center' src=img/fixation3.jpg></div><div class='cl'><div class='vertical-center'>$31<br>for<br>yourself</div></div><div class='cr'><div class='vertical-center'><font style='color:orange'>$85<br>for<br>Aramis G</font></div></div><div class='respDivL'><div class='vertical-center'>(E)</div></div><div class='respDivR'><div class='vertical-center'><font style='color:orange'>(I)</font></div></div></div>","null","$31<br>for<br>yourself","$85<br>for<br>1","0","31","85","1",""
"html-keyboard-response","38","127273","0.0-6.0-1.11","63d7a8a2591096e22405d64a","bdp_sd","Sat Mar 25 2023 20:13:55 GMT-0600 (Mountain Daylight Time)","158389","","null","","","","","FIX","","<div class='trialBorder'><div class='vertical-center'><img style='vertical-align:center; align:center' src=img/fixation3.jpg></div></div>","null","","","","","","",""
"html-keyboard-response","39","129294","0.0-6.0-2.11","63d7a8a2591096e22405d64a","bdp_sd","Sat Mar 25 2023 20:13:55 GMT-0600 (Mountain Daylight Time)","158389","","2021","","","","","offer","","<div class='trialBorder'><div class='vertical-center'><img style='vertical-align:center; align:center' src=img/fixation3.jpg></div><div class='cl'><div class='vertical-center'>$14<br>for<br>yourself</div></div><div class='cr'><div class='vertical-center'>$25<br>for<br>Kriste R</div></div><div class='respDivL'><div class='vertical-center'>(E)</div></div><div class='respDivR'><div class='vertical-center'>(I)</div></div></div>","E","$14<br>for<br>yourself","$25<br>for<br>3","0","14","25","3","SELF"
"html-keyboard-response","40","129546","0.0-6.0-3.11","63d7a8a2591096e22405d64a","bdp_sd","Sat Mar 25 2023 20:13:55 GMT-0600 (Mountain Daylight Time)","158389","","null","","","","","offerFB","","<div class='trialBorder'><div class='vertical-center'><img style='vertical-align:center; align:center' src=img/fixation3.jpg></div><div class='cl'><div class='vertical-center'><font style='color:orange'>$14<br>for<br>yourself</font></div></div><div class='cr'><div class='vertical-center'>$25<br>for<br>Kriste R</div></div><div class='respDivL'><div class='vertical-center'><font style='color:orange'>(E)</font></div></div><div class='respDivR'><div class='vertical-center'>(I)</div></div></div>","null","$14<br>for<br>yourself","$25<br>for<br>3","0","14","25","3",""
"html-keyboard-response","41","130047","0.0-6.0-1.12","63d7a8a2591096e22405d64a","bdp_sd","Sat Mar 25 2023 20:13:55 GMT-0600 (Mountain Daylight Time)","158389","","null","","","","","FIX","","<div class='trialBorder'><div class='vertical-center'><img style='vertical-align:center; align:center' src=img/fixation3.jpg></div></div>","null","","","","","","",""
"html-keyboard-response","42","131798","0.0-6.0-2.12","63d7a8a2591096e22405d64a","bdp_sd","Sat Mar 25 2023 20:13:55 GMT-0600 (Mountain Daylight Time)","158389","","1751","","","","","offer","","<div class='trialBorder'><div class='vertical-center'><img style='vertical-align:center; align:center' src=img/fixation3.jpg></div><div class='cl'><div class='vertical-center'>$25<br>for<br>Michael M</div></div><div class='cr'><div class='vertical-center'>$19<br>for<br>yourself</div></div><div class='respDivL'><div class='vertical-center'>(E)</div></div><div class='respDivR'><div class='vertical-center'>(I)</div></div></div>","I","$19<br>for<br>yourself","$25<br>for<br>4","1","19","25","4","SELF"
"html-keyboard-response","43","132050","0.0-6.0-3.12","63d7a8a2591096e22405d64a","bdp_sd","Sat Mar 25 2023 20:13:55 GMT-0600 (Mountain Daylight Time)","158389","","null","","","","","offerFB","","<div class='trialBorder'><div class='vertical-center'><img style='vertical-align:center; align:center' src=img/fixation3.jpg></div><div class='cl'><div class='vertical-center'>$25<br>for<br>Michael M</div></div><div class='cr'><div class='vertical-center'><font style='color:orange'>$19<br>for<br>yourself</font></div></div><div class='respDivL'><div class='vertical-center'>(E)</div></div><div class='respDivR'><div class='vertical-center'><font style='color:orange'>(I)</font></div></div></div>","null","$19<br>for<br>yourself","$25<br>for<br>4","1","19","25","4",""
"html-keyboard-response","44","132552","0.0-6.0-1.13","63d7a8a2591096e22405d64a","bdp_sd","Sat Mar 25 2023 20:13:55 GMT-0600 (Mountain Daylight Time)","158389","","null","","","","","FIX","","<div class='trialBorder'><div class='vertical-center'><img style='vertical-align:center; align:center' src=img/fixation3.jpg></div></div>","null","","","","","","",""
"html-keyboard-response","45","133930","0.0-6.0-2.13","63d7a8a2591096e22405d64a","bdp_sd","Sat Mar 25 2023 20:13:55 GMT-0600 (Mountain Daylight Time)","158389","","1378","","","","","offer","","<div class='trialBorder'><div class='vertical-center'><img style='vertical-align:center; align:center' src=img/fixation3.jpg></div><div class='cl'><div class='vertical-center'>$75<br>for<br>Michael M</div></div><div class='cr'><div class='vertical-center'>$55<br>for<br>yourself</div></div><div class='respDivL'><div class='vertical-center'>(E)</div></div><div class='respDivR'><div class='vertical-center'>(I)</div></div></div>","I","$55<br>for<br>yourself","$75<br>for<br>4","1","55","75","4","SELF"
"html-keyboard-response","46","134182","0.0-6.0-3.13","63d7a8a2591096e22405d64a","bdp_sd","Sat Mar 25 2023 20:13:55 GMT-0600 (Mountain Daylight Time)","158389","","null","","","","","offerFB","","<div class='trialBorder'><div class='vertical-center'><img style='vertical-align:center; align:center' src=img/fixation3.jpg></div><div class='cl'><div class='vertical-center'>$75<br>for<br>Michael M</div></div><div class='cr'><div class='vertical-center'><font style='color:orange'>$55<br>for<br>yourself</font></div></div><div class='respDivL'><div class='vertical-center'>(E)</div></div><div class='respDivR'><div class='vertical-center'><font style='color:orange'>(I)</font></div></div></div>","null","$55<br>for<br>yourself","$75<br>for<br>4","1","55","75","4",""
"html-keyboard-response","47","134685","0.0-6.0-1.14","63d7a8a2591096e22405d64a","bdp_sd","Sat Mar 25 2023 20:13:55 GMT-0600 (Mountain Daylight Time)","158389","","null","","","","","FIX","","<div class='trialBorder'><div class='vertical-center'><img style='vertical-align:center; align:center' src=img/fixation3.jpg></div></div>","null","","","","","","",""
"html-keyboard-response","48","135965","0.0-6.0-2.14","63d7a8a2591096e22405d64a","bdp_sd","Sat Mar 25 2023 20:13:55 GMT-0600 (Mountain Daylight Time)","158389","","1279","","","","","offer","","<div class='trialBorder'><div class='vertical-center'><img style='vertical-align:center; align:center' src=img/fixation3.jpg></div><div class='cl'><div class='vertical-center'>$30<br>for<br>Michael M</div></div><div class='cr'><div class='vertical-center'>$25<br>for<br>yourself</div></div><div class='respDivL'><div class='vertical-center'>(E)</div></div><div class='respDivR'><div class='vertical-center'>(I)</div></div></div>","I","$25<br>for<br>yourself","$30<br>for<br>4","1","25","30","4","SELF"
"html-keyboard-response","49","136216","0.0-6.0-3.14","63d7a8a2591096e22405d64a","bdp_sd","Sat Mar 25 2023 20:13:55 GMT-0600 (Mountain Daylight Time)","158389","","null","","","","","offerFB","","<div class='trialBorder'><div class='vertical-center'><img style='vertical-align:center; align:center' src=img/fixation3.jpg></div><div class='cl'><div class='vertical-center'>$30<br>for<br>Michael M</div></div><div class='cr'><div class='vertical-center'><font style='color:orange'>$25<br>for<br>yourself</font></div></div><div class='respDivL'><div class='vertical-center'>(E)</div></div><div class='respDivR'><div class='vertical-center'><font style='color:orange'>(I)</font></div></div></div>","null","$25<br>for<br>yourself","$30<br>for<br>4","1","25","30","4",""
"html-keyboard-response","50","136717","0.0-6.0-1.15","63d7a8a2591096e22405d64a","bdp_sd","Sat Mar 25 2023 20:13:55 GMT-0600 (Mountain Daylight Time)","158389","","null","","","","","FIX","","<div class='trialBorder'><div class='vertical-center'><img style='vertical-align:center; align:center' src=img/fixation3.jpg></div></div>","null","","","","","","",""
"html-keyboard-response","51","137962","0.0-6.0-2.15","63d7a8a2591096e22405d64a","bdp_sd","Sat Mar 25 2023 20:13:55 GMT-0600 (Mountain Daylight Time)","158389","","1244","","","","","offer","","<div class='trialBorder'><div class='vertical-center'><img style='vertical-align:center; align:center' src=img/fixation3.jpg></div><div class='cl'><div class='vertical-center'>$85<br>for<br>MINDY M</div></div><div class='cr'><div class='vertical-center'>$80<br>for<br>yourself</div></div><div class='respDivL'><div class='vertical-center'>(E)</div></div><div class='respDivR'><div class='vertical-center'>(I)</div></div></div>","I","$80<br>for<br>yourself","$85<br>for<br>5","1","80","85","5","SELF"
"html-keyboard-response","52","138213","0.0-6.0-3.15","63d7a8a2591096e22405d64a","bdp_sd","Sat Mar 25 2023 20:13:55 GMT-0600 (Mountain Daylight Time)","158389","","null","","","","","offerFB","","<div class='trialBorder'><div class='vertical-center'><img style='vertical-align:center; align:center' src=img/fixation3.jpg></div><div class='cl'><div class='vertical-center'>$85<br>for<br>MINDY M</div></div><div class='cr'><div class='vertical-center'><font style='color:orange'>$80<br>for<br>yourself</font></div></div><div class='respDivL'><div class='vertical-center'>(E)</div></div><div class='respDivR'><div class='vertical-center'><font style='color:orange'>(I)</font></div></div></div>","null","$80<br>for<br>yourself","$85<br>for<br>5","1","80","85","5",""
"html-keyboard-response","53","138715","0.0-6.0-1.16","63d7a8a2591096e22405d64a","bdp_sd","Sat Mar 25 2023 20:13:55 GMT-0600 (Mountain Daylight Time)","158389","","null","","","","","FIX","","<div class='trialBorder'><div class='vertical-center'><img style='vertical-align:center; align:center' src=img/fixation3.jpg></div></div>","null","","","","","","",""
"html-keyboard-response","54","140272","0.0-6.0-2.16","63d7a8a2591096e22405d64a","bdp_sd","Sat Mar 25 2023 20:13:55 GMT-0600 (Mountain Daylight Time)","158389","","1556","","","","","offer","","<div class='trialBorder'><div class='vertical-center'><img style='vertical-align:center; align:center' src=img/fixation3.jpg></div><div class='cl'><div class='vertical-center'>$34<br>for<br>yourself</div></div><div class='cr'><div class='vertical-center'>$35<br>for<br>MINDY M</div></div><div class='respDivL'><div class='vertical-center'>(E)</div></div><div class='respDivR'><div class='vertical-center'>(I)</div></div></div>","E","$34<br>for<br>yourself","$35<br>for<br>5","0","34","35","5","SELF"
"html-keyboard-response","55","140524","0.0-6.0-3.16","63d7a8a2591096e22405d64a","bdp_sd","Sat Mar 25 2023 20:13:55 GMT-0600 (Mountain Daylight Time)","158389","","null","","","","","offerFB","","<div class='trialBorder'><div class='vertical-center'><img style='vertical-align:center; align:center' src=img/fixation3.jpg></div><div class='cl'><div class='vertical-center'><font style='color:orange'>$34<br>for<br>yourself</font></div></div><div class='cr'><div class='vertical-center'>$35<br>for<br>MINDY M</div></div><div class='respDivL'><div class='vertical-center'><font style='color:orange'>(E)</font></div></div><div class='respDivR'><div class='vertical-center'>(I)</div></div></div>","null","$34<br>for<br>yourself","$35<br>for<br>5","0","34","35","5",""
"html-keyboard-response","56","141025","0.0-6.0-1.17","63d7a8a2591096e22405d64a","bdp_sd","Sat Mar 25 2023 20:13:55 GMT-0600 (Mountain Daylight Time)","158389","","null","","","","","FIX","","<div class='trialBorder'><div class='vertical-center'><img style='vertical-align:center; align:center' src=img/fixation3.jpg></div></div>","null","","","","","","",""
"html-keyboard-response","57","142436","0.0-6.0-2.17","63d7a8a2591096e22405d64a","bdp_sd","Sat Mar 25 2023 20:13:55 GMT-0600 (Mountain Daylight Time)","158389","","1410","","","","","offer","","<div class='trialBorder'><div class='vertical-center'><img style='vertical-align:center; align:center' src=img/fixation3.jpg></div><div class='cl'><div class='vertical-center'>$47<br>for<br>yourself</div></div><div class='cr'><div class='vertical-center'>$50<br>for<br>MINDY M</div></div><div class='respDivL'><div class='vertical-center'>(E)</div></div><div class='respDivR'><div class='vertical-center'>(I)</div></div></div>","E","$47<br>for<br>yourself","$50<br>for<br>5","0","47","50","5","SELF"
"html-keyboard-response","58","142688","0.0-6.0-3.17","63d7a8a2591096e22405d64a","bdp_sd","Sat Mar 25 2023 20:13:55 GMT-0600 (Mountain Daylight Time)","158389","","null","","","","","offerFB","","<div class='trialBorder'><div class='vertical-center'><img style='vertical-align:center; align:center' src=img/fixation3.jpg></div><div class='cl'><div class='vertical-center'><font style='color:orange'>$47<br>for<br>yourself</font></div></div><div class='cr'><div class='vertical-center'>$50<br>for<br>MINDY M</div></div><div class='respDivL'><div class='vertical-center'><font style='color:orange'>(E)</font></div></div><div class='respDivR'><div class='vertical-center'>(I)</div></div></div>","null","$47<br>for<br>yourself","$50<br>for<br>5","0","47","50","5",""
"html-keyboard-response","59","143189","0.0-6.0-1.18","63d7a8a2591096e22405d64a","bdp_sd","Sat Mar 25 2023 20:13:55 GMT-0600 (Mountain Daylight Time)","158389","","null","","","","","FIX","","<div class='trialBorder'><div class='vertical-center'><img style='vertical-align:center; align:center' src=img/fixation3.jpg></div></div>","null","","","","","","",""
"html-keyboard-response","60","143823","0.0-6.0-2.18","63d7a8a2591096e22405d64a","bdp_sd","Sat Mar 25 2023 20:13:55 GMT-0600 (Mountain Daylight Time)","158389","","633","","","","","offer","","<div class='trialBorder'><div class='vertical-center'><img style='vertical-align:center; align:center' src=img/fixation3.jpg></div><div class='cl'><div class='vertical-center'>$41<br>for<br>yourself</div></div><div class='cr'><div class='vertical-center'>$75<br>for<br>Kriste R</div></div><div class='respDivL'><div class='vertical-center'>(E)</div></div><div class='respDivR'><div class='vertical-center'>(I)</div></div></div>","E","$41<br>for<br>yourself","$75<br>for<br>3","0","41","75","3","SELF"
"html-keyboard-response","61","144074","0.0-6.0-3.18","63d7a8a2591096e22405d64a","bdp_sd","Sat Mar 25 2023 20:13:55 GMT-0600 (Mountain Daylight Time)","158389","","null","","","","","offerFB","","<div class='trialBorder'><div class='vertical-center'><img style='vertical-align:center; align:center' src=img/fixation3.jpg></div><div class='cl'><div class='vertical-center'><font style='color:orange'>$41<br>for<br>yourself</font></div></div><div class='cr'><div class='vertical-center'>$75<br>for<br>Kriste R</div></div><div class='respDivL'><div class='vertical-center'><font style='color:orange'>(E)</font></div></div><div class='respDivR'><div class='vertical-center'>(I)</div></div></div>","null","$41<br>for<br>yourself","$75<br>for<br>3","0","41","75","3",""
"html-keyboard-response","62","144576","0.0-6.0-1.19","63d7a8a2591096e22405d64a","bdp_sd","Sat Mar 25 2023 20:13:55 GMT-0600 (Mountain Daylight Time)","158389","","null","","","","","FIX","","<div class='trialBorder'><div class='vertical-center'><img style='vertical-align:center; align:center' src=img/fixation3.jpg></div></div>","null","","","","","","",""
"html-keyboard-response","63","145311","0.0-6.0-2.19","63d7a8a2591096e22405d64a","bdp_sd","Sat Mar 25 2023 20:13:55 GMT-0600 (Mountain Daylight Time)","158389","","734","","","","","offer","","<div class='trialBorder'><div class='vertical-center'><img style='vertical-align:center; align:center' src=img/fixation3.jpg></div><div class='cl'><div class='vertical-center'>$54<br>for<br>yourself</div></div><div class='cr'><div class='vertical-center'>$80<br>for<br>Kriste R</div></div><div class='respDivL'><div class='vertical-center'>(E)</div></div><div class='respDivR'><div class='vertical-center'>(I)</div></div></div>","E","$54<br>for<br>yourself","$80<br>for<br>3","0","54","80","3","SELF"
"html-keyboard-response","64","145562","0.0-6.0-3.19","63d7a8a2591096e22405d64a","bdp_sd","Sat Mar 25 2023 20:13:55 GMT-0600 (Mountain Daylight Time)","158389","","null","","","","","offerFB","","<div class='trialBorder'><div class='vertical-center'><img style='vertical-align:center; align:center' src=img/fixation3.jpg></div><div class='cl'><div class='vertical-center'><font style='color:orange'>$54<br>for<br>yourself</font></div></div><div class='cr'><div class='vertical-center'>$80<br>for<br>Kriste R</div></div><div class='respDivL'><div class='vertical-center'><font style='color:orange'>(E)</font></div></div><div class='respDivR'><div class='vertical-center'>(I)</div></div></div>","null","$54<br>for<br>yourself","$80<br>for<br>3","0","54","80","3",""
"html-keyboard-response","65","146065","0.0-6.0-1.20","63d7a8a2591096e22405d64a","bdp_sd","Sat Mar 25 2023 20:13:55 GMT-0600 (Mountain Daylight Time)","158389","","null","","","","","FIX","","<div class='trialBorder'><div class='vertical-center'><img style='vertical-align:center; align:center' src=img/fixation3.jpg></div></div>","null","","","","","","",""
"html-keyboard-response","66","146713","0.0-6.0-2.20","63d7a8a2591096e22405d64a","bdp_sd","Sat Mar 25 2023 20:13:55 GMT-0600 (Mountain Daylight Time)","158389","","648","","","","","offer","","<div class='trialBorder'><div class='vertical-center'><img style='vertical-align:center; align:center' src=img/fixation3.jpg></div><div class='cl'><div class='vertical-center'>$67<br>for<br>yourself</div></div><div class='cr'><div class='vertical-center'>$75<br>for<br>MINDY M</div></div><div class='respDivL'><div class='vertical-center'>(E)</div></div><div class='respDivR'><div class='vertical-center'>(I)</div></div></div>","E","$67<br>for<br>yourself","$75<br>for<br>5","0","67","75","5","SELF"
"html-keyboard-response","67","146965","0.0-6.0-3.20","63d7a8a2591096e22405d64a","bdp_sd","Sat Mar 25 2023 20:13:55 GMT-0600 (Mountain Daylight Time)","158389","","null","","","","","offerFB","","<div class='trialBorder'><div class='vertical-center'><img style='vertical-align:center; align:center' src=img/fixation3.jpg></div><div class='cl'><div class='vertical-center'><font style='color:orange'>$67<br>for<br>yourself</font></div></div><div class='cr'><div class='vertical-center'>$75<br>for<br>MINDY M</div></div><div class='respDivL'><div class='vertical-center'><font style='color:orange'>(E)</font></div></div><div class='respDivR'><div class='vertical-center'>(I)</div></div></div>","null","$67<br>for<br>yourself","$75<br>for<br>5","0","67","75","5",""
"html-keyboard-response","68","147467","0.0-6.0-1.21","63d7a8a2591096e22405d64a","bdp_sd","Sat Mar 25 2023 20:13:55 GMT-0600 (Mountain Daylight Time)","158389","","null","","","","","FIX","","<div class='trialBorder'><div class='vertical-center'><img style='vertical-align:center; align:center' src=img/fixation3.jpg></div></div>","null","","","","","","",""
"html-keyboard-response","69","148163","0.0-6.0-2.21","63d7a8a2591096e22405d64a","bdp_sd","Sat Mar 25 2023 20:13:55 GMT-0600 (Mountain Daylight Time)","158389","","696","","","","","offer","","<div class='trialBorder'><div class='vertical-center'><img style='vertical-align:center; align:center' src=img/fixation3.jpg></div><div class='cl'><div class='vertical-center'>$60<br>for<br>Michael M</div></div><div class='cr'><div class='vertical-center'>$49<br>for<br>yourself</div></div><div class='respDivL'><div class='vertical-center'>(E)</div></div><div class='respDivR'><div class='vertical-center'>(I)</div></div></div>","I","$49<br>for<br>yourself","$60<br>for<br>4","1","49","60","4","SELF"
"html-keyboard-response","70","148415","0.0-6.0-3.21","63d7a8a2591096e22405d64a","bdp_sd","Sat Mar 25 2023 20:13:55 GMT-0600 (Mountain Daylight Time)","158389","","null","","","","","offerFB","","<div class='trialBorder'><div class='vertical-center'><img style='vertical-align:center; align:center' src=img/fixation3.jpg></div><div class='cl'><div class='vertical-center'>$60<br>for<br>Michael M</div></div><div class='cr'><div class='vertical-center'><font style='color:orange'>$49<br>for<br>yourself</font></div></div><div class='respDivL'><div class='vertical-center'>(E)</div></div><div class='respDivR'><div class='vertical-center'><font style='color:orange'>(I)</font></div></div></div>","null","$49<br>for<br>yourself","$60<br>for<br>4","1","49","60","4",""
"html-keyboard-response","71","148917","0.0-6.0-1.22","63d7a8a2591096e22405d64a","bdp_sd","Sat Mar 25 2023 20:13:55 GMT-0600 (Mountain Daylight Time)","158389","","null","","","","","FIX","","<div class='trialBorder'><div class='vertical-center'><img style='vertical-align:center; align:center' src=img/fixation3.jpg></div></div>","null","","","","","","",""
"html-keyboard-response","72","149932","0.0-6.0-2.22","63d7a8a2591096e22405d64a","bdp_sd","Sat Mar 25 2023 20:13:55 GMT-0600 (Mountain Daylight Time)","158389","","1015","","","","","offer","","<div class='trialBorder'><div class='vertical-center'><img style='vertical-align:center; align:center' src=img/fixation3.jpg></div><div class='cl'><div class='vertical-center'>$55<br>for<br>Aramis G</div></div><div class='cr'><div class='vertical-center'>$20<br>for<br>yourself</div></div><div class='respDivL'><div class='vertical-center'>(E)</div></div><div class='respDivR'><div class='vertical-center'>(I)</div></div></div>","I","$20<br>for<br>yourself","$55<br>for<br>1","1","20","55","1","SELF"
"html-keyboard-response","73","150183","0.0-6.0-3.22","63d7a8a2591096e22405d64a","bdp_sd","Sat Mar 25 2023 20:13:55 GMT-0600 (Mountain Daylight Time)","158389","","null","","","","","offerFB","","<div class='trialBorder'><div class='vertical-center'><img style='vertical-align:center; align:center' src=img/fixation3.jpg></div><div class='cl'><div class='vertical-center'>$55<br>for<br>Aramis G</div></div><div class='cr'><div class='vertical-center'><font style='color:orange'>$20<br>for<br>yourself</font></div></div><div class='respDivL'><div class='vertical-center'>(E)</div></div><div class='respDivR'><div class='vertical-center'><font style='color:orange'>(I)</font></div></div></div>","null","$20<br>for<br>yourself","$55<br>for<br>1","1","20","55","1",""
"html-keyboard-response","74","150684","0.0-6.0-1.23","63d7a8a2591096e22405d64a","bdp_sd","Sat Mar 25 2023 20:13:55 GMT-0600 (Mountain Daylight Time)","158389","","null","","","","","FIX","","<div class='trialBorder'><div class='vertical-center'><img style='vertical-align:center; align:center' src=img/fixation3.jpg></div></div>","null","","","","","","",""
"html-keyboard-response","75","151887","0.0-6.0-2.23","63d7a8a2591096e22405d64a","bdp_sd","Sat Mar 25 2023 20:13:55 GMT-0600 (Mountain Daylight Time)","158389","","1202","","","","","offer","","<div class='trialBorder'><div class='vertical-center'><img style='vertical-align:center; align:center' src=img/fixation3.jpg></div><div class='cl'><div class='vertical-center'>$30<br>for<br>MINDY M</div></div><div class='cr'><div class='vertical-center'>$28<br>for<br>yourself</div></div><div class='respDivL'><div class='vertical-center'>(E)</div></div><div class='respDivR'><div class='vertical-center'>(I)</div></div></div>","I","$28<br>for<br>yourself","$30<br>for<br>5","1","28","30","5","SELF"
"html-keyboard-response","76","152138","0.0-6.0-3.23","63d7a8a2591096e22405d64a","bdp_sd","Sat Mar 25 2023 20:13:55 GMT-0600 (Mountain Daylight Time)","158389","","null","","","","","offerFB","","<div class='trialBorder'><div class='vertical-center'><img style='vertical-align:center; align:center' src=img/fixation3.jpg></div><div class='cl'><div class='vertical-center'>$30<br>for<br>MINDY M</div></div><div class='cr'><div class='vertical-center'><font style='color:orange'>$28<br>for<br>yourself</font></div></div><div class='respDivL'><div class='vertical-center'>(E)</div></div><div class='respDivR'><div class='vertical-center'><font style='color:orange'>(I)</font></div></div></div>","null","$28<br>for<br>yourself","$30<br>for<br>5","1","28","30","5",""
"html-keyboard-response","77","152639","0.0-6.0-1.24","63d7a8a2591096e22405d64a","bdp_sd","Sat Mar 25 2023 20:13:55 GMT-0600 (Mountain Daylight Time)","158389","","null","","","","","FIX","","<div class='trialBorder'><div class='vertical-center'><img style='vertical-align:center; align:center' src=img/fixation3.jpg></div></div>","null","","","","","","",""
"html-keyboard-response","78","153448","0.0-6.0-2.24","63d7a8a2591096e22405d64a","bdp_sd","Sat Mar 25 2023 20:13:55 GMT-0600 (Mountain Daylight Time)","158389","","808","","","","","offer","","<div class='trialBorder'><div class='vertical-center'><img style='vertical-align:center; align:center' src=img/fixation3.jpg></div><div class='cl'><div class='vertical-center'>$54<br>for<br>yourself</div></div><div class='cr'><div class='vertical-center'>$55<br>for<br>MINDY M</div></div><div class='respDivL'><div class='vertical-center'>(E)</div></div><div class='respDivR'><div class='vertical-center'>(I)</div></div></div>","E","$54<br>for<br>yourself","$55<br>for<br>5","0","54","55","5","SELF"
"html-keyboard-response","79","153700","0.0-6.0-3.24","63d7a8a2591096e22405d64a","bdp_sd","Sat Mar 25 2023 20:13:55 GMT-0600 (Mountain Daylight Time)","158389","","null","","","","","offerFB","","<div class='trialBorder'><div class='vertical-center'><img style='vertical-align:center; align:center' src=img/fixation3.jpg></div><div class='cl'><div class='vertical-center'><font style='color:orange'>$54<br>for<br>yourself</font></div></div><div class='cr'><div class='vertical-center'>$55<br>for<br>MINDY M</div></div><div class='respDivL'><div class='vertical-center'><font style='color:orange'>(E)</font></div></div><div class='respDivR'><div class='vertical-center'>(I)</div></div></div>","null","$54<br>for<br>yourself","$55<br>for<br>5","0","54","55","5",""
"html-keyboard-response","80","154201","0.0-6.0-1.25","63d7a8a2591096e22405d64a","bdp_sd","Sat Mar 25 2023 20:13:55 GMT-0600 (Mountain Daylight Time)","158389","","null","","","","","FIX","","<div class='trialBorder'><div class='vertical-center'><img style='vertical-align:center; align:center' src=img/fixation3.jpg></div></div>","null","","","","","","",""
"html-keyboard-response","81","154974","0.0-6.0-2.25","63d7a8a2591096e22405d64a","bdp_sd","Sat Mar 25 2023 20:13:55 GMT-0600 (Mountain Daylight Time)","158389","","772","","","","","offer","","<div class='trialBorder'><div class='vertical-center'><img style='vertical-align:center; align:center' src=img/fixation3.jpg></div><div class='cl'><div class='vertical-center'>$15<br>for<br>yourself</div></div><div class='cr'><div class='vertical-center'>$35<br>for<br>Marette R</div></div><div class='respDivL'><div class='vertical-center'>(E)</div></div><div class='respDivR'><div class='vertical-center'>(I)</div></div></div>","E","$15<br>for<br>yourself","$35<br>for<br>2","0","15","35","2","SELF"
"html-keyboard-response","82","155225","0.0-6.0-3.25","63d7a8a2591096e22405d64a","bdp_sd","Sat Mar 25 2023 20:13:55 GMT-0600 (Mountain Daylight Time)","158389","","null","","","","","offerFB","","<div class='trialBorder'><div class='vertical-center'><img style='vertical-align:center; align:center' src=img/fixation3.jpg></div><div class='cl'><div class='vertical-center'><font style='color:orange'>$15<br>for<br>yourself</font></div></div><div class='cr'><div class='vertical-center'>$35<br>for<br>Marette R</div></div><div class='respDivL'><div class='vertical-center'><font style='color:orange'>(E)</font></div></div><div class='respDivR'><div class='vertical-center'>(I)</div></div></div>","null","$15<br>for<br>yourself","$35<br>for<br>2","0","15","35","2",""
"html-keyboard-response","83","155727","0.0-6.0-1.26","63d7a8a2591096e22405d64a","bdp_sd","Sat Mar 25 2023 20:13:55 GMT-0600 (Mountain Daylight Time)","158389","","null","","","","","FIX","","<div class='trialBorder'><div class='vertical-center'><img style='vertical-align:center; align:center' src=img/fixation3.jpg></div></div>","null","","","","","","",""
"html-keyboard-response","84","157135","0.0-6.0-2.26","63d7a8a2591096e22405d64a","bdp_sd","Sat Mar 25 2023 20:13:55 GMT-0600 (Mountain Daylight Time)","158389","","1407","","","","","offer","","<div class='trialBorder'><div class='vertical-center'><img style='vertical-align:center; align:center' src=img/fixation3.jpg></div><div class='cl'><div class='vertical-center'>$35<br>for<br>Kriste R</div></div><div class='cr'><div class='vertical-center'>$24<br>for<br>yourself</div></div><div class='respDivL'><div class='vertical-center'>(E)</div></div><div class='respDivR'><div class='vertical-center'>(I)</div></div></div>","I","$24<br>for<br>yourself","$35<br>for<br>3","1","24","35","3","SELF"
"html-keyboard-response","85","157387","0.0-6.0-3.26","63d7a8a2591096e22405d64a","bdp_sd","Sat Mar 25 2023 20:13:55 GMT-0600 (Mountain Daylight Time)","158389","","null","","","","","offerFB","","<div class='trialBorder'><div class='vertical-center'><img style='vertical-align:center; align:center' src=img/fixation3.jpg></div><div class='cl'><div class='vertical-center'>$35<br>for<br>Kriste R</div></div><div class='cr'><div class='vertical-center'><font style='color:orange'>$24<br>for<br>yourself</font></div></div><div class='respDivL'><div class='vertical-center'>(E)</div></div><div class='respDivR'><div class='vertical-center'><font style='color:orange'>(I)</font></div></div></div>","null","$24<br>for<br>yourself","$35<br>for<br>3","1","24","35","3",""
"","","","","63d7a8a2591096e22405d64a","bdp_sd","Sat Mar 25 2023 20:13:55 GMT-0600 (Mountain Daylight Time)","158389","","","","fullscreenexit","86","157401","fullscreenexit","","","","","","","","","",""
"fullscreen","86","158389","0.0-7.0","63d7a8a2591096e22405d64a","bdp_sd","Sat Mar 25 2023 20:13:55 GMT-0600 (Mountain Daylight Time)","158389","","","","","","","","true","","","","","","","","",""
"html-keyboard-response","87","158891","0.0-8.0","","","","","","null","","","","","","","","null","","","","","","",""
