"trial_type","trial_index","time_elapsed","internal_node_id","subject_id","task","startTime","totalTime","view_history","rt","responses","event","trial","time","trialtype","success","stimulus","key_press","selfOffer","otherOffer","otherLeft","selfAmt","otherAmt","otherDist","chosen"
"pavlovia","0","2","0.0-0.0","63e5513398583a335b2a8bdd","bdp_sd","Mon Mar 27 2023 11:08:57 GMT-0400 (Eastern Daylight Time)","294678","","","","","","","","","","","","","","","","",""
"instructions","1","44691","0.0-1.0","63e5513398583a335b2a8bdd","bdp_sd","Mon Mar 27 2023 11:08:57 GMT-0400 (Eastern Daylight Time)","294678","[{""page_index"":0,""viewing_time"":44689}]","44689","","","","","","","","","","","","","","",""
"survey-text","2","145377","0.0-2.0","63e5513398583a335b2a8bdd","bdp_sd","Mon Mar 27 2023 11:08:57 GMT-0400 (Eastern Daylight Time)","294678","","100684","{""Q0"":""Tim M"",""Q1"":""Bill W"",""Q2"":""Brad S"",""Q3"":""Pat D"",""Q4"":""Dan H""}","","","","","","","","","","","","","",""
"","","","","63e5513398583a335b2a8bdd","bdp_sd","Mon Mar 27 2023 11:08:57 GMT-0400 (Eastern Daylight Time)","294678","","","","fullscreenenter","3","147893","fullscreenenter","","","","","","","","","",""
"fullscreen","3","148889","0.0-3.0","63e5513398583a335b2a8bdd","bdp_sd","Mon Mar 27 2023 11:08:57 GMT-0400 (Eastern Daylight Time)","294678","","","","","","","","true","","","","","","","","",""
"instructions","4","199963","0.0-5.0","63e5513398583a335b2a8bdd","bdp_sd","Mon Mar 27 2023 11:08:57 GMT-0400 (Eastern Daylight Time)","294678","[{""page_index"":0,""viewing_time"":8771},{""page_index"":1,""viewing_time"":29391},{""page_index"":2,""viewing_time"":12912}]","51074","","","","","","","","","","","","","","",""
"html-keyboard-response","5","200465","0.0-6.0-1.0","63e5513398583a335b2a8bdd","bdp_sd","Mon Mar 27 2023 11:08:57 GMT-0400 (Eastern Daylight Time)","294678","","null","","","","","FIX","","<div class='trialBorder'><div class='vertical-center'><img style='vertical-align:center; align:center' src=img/fixation3.jpg></div></div>","null","","","","","","",""
"html-keyboard-response","6","213985","0.0-6.0-2.0","63e5513398583a335b2a8bdd","bdp_sd","Mon Mar 27 2023 11:08:57 GMT-0400 (Eastern Daylight Time)","294678","","13519","","","","","offer","","<div class='trialBorder'><div class='vertical-center'><img style='vertical-align:center; align:center' src=img/fixation3.jpg></div><div class='cl'><div class='vertical-center'>$30<br>for<br>Bill W</div></div><div class='cr'><div class='vertical-center'>$11<br>for<br>yourself</div></div><div class='respDivL'><div class='vertical-center'>(E)</div></div><div class='respDivR'><div class='vertical-center'>(I)</div></div></div>","I","$11<br>for<br>yourself","$30<br>for<br>2","1","11","30","2","SELF"
"html-keyboard-response","7","214236","0.0-6.0-3.0","63e5513398583a335b2a8bdd","bdp_sd","Mon Mar 27 2023 11:08:57 GMT-0400 (Eastern Daylight Time)","294678","","null","","","","","offerFB","","<div class='trialBorder'><div class='vertical-center'><img style='vertical-align:center; align:center' src=img/fixation3.jpg></div><div class='cl'><div class='vertical-center'>$30<br>for<br>Bill W</div></div><div class='cr'><div class='vertical-center'><font style='color:orange'>$11<br>for<br>yourself</font></div></div><div class='respDivL'><div class='vertical-center'>(E)</div></div><div class='respDivR'><div class='vertical-center'><font style='color:orange'>(I)</font></div></div></div>","null","$11<br>for<br>yourself","$30<br>for<br>2","1","11","30","2",""
"html-keyboard-response","8","214737","0.0-6.0-1.1","63e5513398583a335b2a8bdd","bdp_sd","Mon Mar 27 2023 11:08:57 GMT-0400 (Eastern Daylight Time)","294678","","null","","","","","FIX","","<div class='trialBorder'><div class='vertical-center'><img style='vertical-align:center; align:center' src=img/fixation3.jpg></div></div>","null","","","","","","",""
"html-keyboard-response","9","217988","0.0-6.0-2.1","63e5513398583a335b2a8bdd","bdp_sd","Mon Mar 27 2023 11:08:57 GMT-0400 (Eastern Daylight Time)","294678","","3250","","","","","offer","","<div class='trialBorder'><div class='vertical-center'><img style='vertical-align:center; align:center' src=img/fixation3.jpg></div><div class='cl'><div class='vertical-center'>$54<br>for<br>yourself</div></div><div class='cr'><div class='vertical-center'>$55<br>for<br>Dan H</div></div><div class='respDivL'><div class='vertical-center'>(E)</div></div><div class='respDivR'><div class='vertical-center'>(I)</div></div></div>","E","$54<br>for<br>yourself","$55<br>for<br>5","0","54","55","5","SELF"
"html-keyboard-response","10","218240","0.0-6.0-3.1","63e5513398583a335b2a8bdd","bdp_sd","Mon Mar 27 2023 11:08:57 GMT-0400 (Eastern Daylight Time)","294678","","null","","","","","offerFB","","<div class='trialBorder'><div class='vertical-center'><img style='vertical-align:center; align:center' src=img/fixation3.jpg></div><div class='cl'><div class='vertical-center'><font style='color:orange'>$54<br>for<br>yourself</font></div></div><div class='cr'><div class='vertical-center'>$55<br>for<br>Dan H</div></div><div class='respDivL'><div class='vertical-center'><font style='color:orange'>(E)</font></div></div><div class='respDivR'><div class='vertical-center'>(I)</div></div></div>","null","$54<br>for<br>yourself","$55<br>for<br>5","0","54","55","5",""
"html-keyboard-response","11","218742","0.0-6.0-1.2","63e5513398583a335b2a8bdd","bdp_sd","Mon Mar 27 2023 11:08:57 GMT-0400 (Eastern Daylight Time)","294678","","null","","","","","FIX","","<div class='trialBorder'><div class='vertical-center'><img style='vertical-align:center; align:center' src=img/fixation3.jpg></div></div>","null","","","","","","",""
"html-keyboard-response","12","220535","0.0-6.0-2.2","63e5513398583a335b2a8bdd","bdp_sd","Mon Mar 27 2023 11:08:57 GMT-0400 (Eastern Daylight Time)","294678","","1793","","","","","offer","","<div class='trialBorder'><div class='vertical-center'><img style='vertical-align:center; align:center' src=img/fixation3.jpg></div><div class='cl'><div class='vertical-center'>$75<br>for<br>Brad S</div></div><div class='cr'><div class='vertical-center'>$41<br>for<br>yourself</div></div><div class='respDivL'><div class='vertical-center'>(E)</div></div><div class='respDivR'><div class='vertical-center'>(I)</div></div></div>","I","$41<br>for<br>yourself","$75<br>for<br>3","1","41","75","3","SELF"
"html-keyboard-response","13","220787","0.0-6.0-3.2","63e5513398583a335b2a8bdd","bdp_sd","Mon Mar 27 2023 11:08:57 GMT-0400 (Eastern Daylight Time)","294678","","null","","","","","offerFB","","<div class='trialBorder'><div class='vertical-center'><img style='vertical-align:center; align:center' src=img/fixation3.jpg></div><div class='cl'><div class='vertical-center'>$75<br>for<br>Brad S</div></div><div class='cr'><div class='vertical-center'><font style='color:orange'>$41<br>for<br>yourself</font></div></div><div class='respDivL'><div class='vertical-center'>(E)</div></div><div class='respDivR'><div class='vertical-center'><font style='color:orange'>(I)</font></div></div></div>","null","$41<br>for<br>yourself","$75<br>for<br>3","1","41","75","3",""
"html-keyboard-response","14","221289","0.0-6.0-1.3","63e5513398583a335b2a8bdd","bdp_sd","Mon Mar 27 2023 11:08:57 GMT-0400 (Eastern Daylight Time)","294678","","null","","","","","FIX","","<div class='trialBorder'><div class='vertical-center'><img style='vertical-align:center; align:center' src=img/fixation3.jpg></div></div>","null","","","","","","",""
"html-keyboard-response","15","227761","0.0-6.0-2.3","63e5513398583a335b2a8bdd","bdp_sd","Mon Mar 27 2023 11:08:57 GMT-0400 (Eastern Daylight Time)","294678","","6472","","","","","offer","","<div class='trialBorder'><div class='vertical-center'><img style='vertical-align:center; align:center' src=img/fixation3.jpg></div><div class='cl'><div class='vertical-center'>$34<br>for<br>yourself</div></div><div class='cr'><div class='vertical-center'>$50<br>for<br>Pat D</div></div><div class='respDivL'><div class='vertical-center'>(E)</div></div><div class='respDivR'><div class='vertical-center'>(I)</div></div></div>","E","$34<br>for<br>yourself","$50<br>for<br>4","0","34","50","4","SELF"
"html-keyboard-response","16","228013","0.0-6.0-3.3","63e5513398583a335b2a8bdd","bdp_sd","Mon Mar 27 2023 11:08:57 GMT-0400 (Eastern Daylight Time)","294678","","null","","","","","offerFB","","<div class='trialBorder'><div class='vertical-center'><img style='vertical-align:center; align:center' src=img/fixation3.jpg></div><div class='cl'><div class='vertical-center'><font style='color:orange'>$34<br>for<br>yourself</font></div></div><div class='cr'><div class='vertical-center'>$50<br>for<br>Pat D</div></div><div class='respDivL'><div class='vertical-center'><font style='color:orange'>(E)</font></div></div><div class='respDivR'><div class='vertical-center'>(I)</div></div></div>","null","$34<br>for<br>yourself","$50<br>for<br>4","0","34","50","4",""
"html-keyboard-response","17","228515","0.0-6.0-1.4","63e5513398583a335b2a8bdd","bdp_sd","Mon Mar 27 2023 11:08:57 GMT-0400 (Eastern Daylight Time)","294678","","null","","","","","FIX","","<div class='trialBorder'><div class='vertical-center'><img style='vertical-align:center; align:center' src=img/fixation3.jpg></div></div>","null","","","","","","",""
"html-keyboard-response","18","234834","0.0-6.0-2.4","63e5513398583a335b2a8bdd","bdp_sd","Mon Mar 27 2023 11:08:57 GMT-0400 (Eastern Daylight Time)","294678","","6319","","","","","offer","","<div class='trialBorder'><div class='vertical-center'><img style='vertical-align:center; align:center' src=img/fixation3.jpg></div><div class='cl'><div class='vertical-center'>$33<br>for<br>yourself</div></div><div class='cr'><div class='vertical-center'>$80<br>for<br>Bill W</div></div><div class='respDivL'><div class='vertical-center'>(E)</div></div><div class='respDivR'><div class='vertical-center'>(I)</div></div></div>","E","$33<br>for<br>yourself","$80<br>for<br>2","0","33","80","2","SELF"
"html-keyboard-response","19","235086","0.0-6.0-3.4","63e5513398583a335b2a8bdd","bdp_sd","Mon Mar 27 2023 11:08:57 GMT-0400 (Eastern Daylight Time)","294678","","null","","","","","offerFB","","<div class='trialBorder'><div class='vertical-center'><img style='vertical-align:center; align:center' src=img/fixation3.jpg></div><div class='cl'><div class='vertical-center'><font style='color:orange'>$33<br>for<br>yourself</font></div></div><div class='cr'><div class='vertical-center'>$80<br>for<br>Bill W</div></div><div class='respDivL'><div class='vertical-center'><font style='color:orange'>(E)</font></div></div><div class='respDivR'><div class='vertical-center'>(I)</div></div></div>","null","$33<br>for<br>yourself","$80<br>for<br>2","0","33","80","2",""
"html-keyboard-response","20","235588","0.0-6.0-1.5","63e5513398583a335b2a8bdd","bdp_sd","Mon Mar 27 2023 11:08:57 GMT-0400 (Eastern Daylight Time)","294678","","null","","","","","FIX","","<div class='trialBorder'><div class='vertical-center'><img style='vertical-align:center; align:center' src=img/fixation3.jpg></div></div>","null","","","","","","",""
"html-keyboard-response","21","237300","0.0-6.0-2.5","63e5513398583a335b2a8bdd","bdp_sd","Mon Mar 27 2023 11:08:57 GMT-0400 (Eastern Daylight Time)","294678","","1711","","","","","offer","","<div class='trialBorder'><div class='vertical-center'><img style='vertical-align:center; align:center' src=img/fixation3.jpg></div><div class='cl'><div class='vertical-center'>$50<br>for<br>Dan H</div></div><div class='cr'><div class='vertical-center'>$47<br>for<br>yourself</div></div><div class='respDivL'><div class='vertical-center'>(E)</div></div><div class='respDivR'><div class='vertical-center'>(I)</div></div></div>","I","$47<br>for<br>yourself","$50<br>for<br>5","1","47","50","5","SELF"
"html-keyboard-response","22","237551","0.0-6.0-3.5","63e5513398583a335b2a8bdd","bdp_sd","Mon Mar 27 2023 11:08:57 GMT-0400 (Eastern Daylight Time)","294678","","null","","","","","offerFB","","<div class='trialBorder'><div class='vertical-center'><img style='vertical-align:center; align:center' src=img/fixation3.jpg></div><div class='cl'><div class='vertical-center'>$50<br>for<br>Dan H</div></div><div class='cr'><div class='vertical-center'><font style='color:orange'>$47<br>for<br>yourself</font></div></div><div class='respDivL'><div class='vertical-center'>(E)</div></div><div class='respDivR'><div class='vertical-center'><font style='color:orange'>(I)</font></div></div></div>","null","$47<br>for<br>yourself","$50<br>for<br>5","1","47","50","5",""
"html-keyboard-response","23","238053","0.0-6.0-1.6","63e5513398583a335b2a8bdd","bdp_sd","Mon Mar 27 2023 11:08:57 GMT-0400 (Eastern Daylight Time)","294678","","null","","","","","FIX","","<div class='trialBorder'><div class='vertical-center'><img style='vertical-align:center; align:center' src=img/fixation3.jpg></div></div>","null","","","","","","",""
"html-keyboard-response","24","239434","0.0-6.0-2.6","63e5513398583a335b2a8bdd","bdp_sd","Mon Mar 27 2023 11:08:57 GMT-0400 (Eastern Daylight Time)","294678","","1381","","","","","offer","","<div class='trialBorder'><div class='vertical-center'><img style='vertical-align:center; align:center' src=img/fixation3.jpg></div><div class='cl'><div class='vertical-center'>$80<br>for<br>Brad S</div></div><div class='cr'><div class='vertical-center'>$54<br>for<br>yourself</div></div><div class='respDivL'><div class='vertical-center'>(E)</div></div><div class='respDivR'><div class='vertical-center'>(I)</div></div></div>","I","$54<br>for<br>yourself","$80<br>for<br>3","1","54","80","3","SELF"
"html-keyboard-response","25","239687","0.0-6.0-3.6","63e5513398583a335b2a8bdd","bdp_sd","Mon Mar 27 2023 11:08:57 GMT-0400 (Eastern Daylight Time)","294678","","null","","","","","offerFB","","<div class='trialBorder'><div class='vertical-center'><img style='vertical-align:center; align:center' src=img/fixation3.jpg></div><div class='cl'><div class='vertical-center'>$80<br>for<br>Brad S</div></div><div class='cr'><div class='vertical-center'><font style='color:orange'>$54<br>for<br>yourself</font></div></div><div class='respDivL'><div class='vertical-center'>(E)</div></div><div class='respDivR'><div class='vertical-center'><font style='color:orange'>(I)</font></div></div></div>","null","$54<br>for<br>yourself","$80<br>for<br>3","1","54","80","3",""
"html-keyboard-response","26","240188","0.0-6.0-1.7","63e5513398583a335b2a8bdd","bdp_sd","Mon Mar 27 2023 11:08:57 GMT-0400 (Eastern Daylight Time)","294678","","null","","","","","FIX","","<div class='trialBorder'><div class='vertical-center'><img style='vertical-align:center; align:center' src=img/fixation3.jpg></div></div>","null","","","","","","",""
"html-keyboard-response","27","241609","0.0-6.0-2.7","63e5513398583a335b2a8bdd","bdp_sd","Mon Mar 27 2023 11:08:57 GMT-0400 (Eastern Daylight Time)","294678","","1420","","","","","offer","","<div class='trialBorder'><div class='vertical-center'><img style='vertical-align:center; align:center' src=img/fixation3.jpg></div><div class='cl'><div class='vertical-center'>$49<br>for<br>yourself</div></div><div class='cr'><div class='vertical-center'>$60<br>for<br>Pat D</div></div><div class='respDivL'><div class='vertical-center'>(E)</div></div><div class='respDivR'><div class='vertical-center'>(I)</div></div></div>","E","$49<br>for<br>yourself","$60<br>for<br>4","0","49","60","4","SELF"
"html-keyboard-response","28","241860","0.0-6.0-3.7","63e5513398583a335b2a8bdd","bdp_sd","Mon Mar 27 2023 11:08:57 GMT-0400 (Eastern Daylight Time)","294678","","null","","","","","offerFB","","<div class='trialBorder'><div class='vertical-center'><img style='vertical-align:center; align:center' src=img/fixation3.jpg></div><div class='cl'><div class='vertical-center'><font style='color:orange'>$49<br>for<br>yourself</font></div></div><div class='cr'><div class='vertical-center'>$60<br>for<br>Pat D</div></div><div class='respDivL'><div class='vertical-center'><font style='color:orange'>(E)</font></div></div><div class='respDivR'><div class='vertical-center'>(I)</div></div></div>","null","$49<br>for<br>yourself","$60<br>for<br>4","0","49","60","4",""
"html-keyboard-response","29","242361","0.0-6.0-1.8","63e5513398583a335b2a8bdd","bdp_sd","Mon Mar 27 2023 11:08:57 GMT-0400 (Eastern Daylight Time)","294678","","null","","","","","FIX","","<div class='trialBorder'><div class='vertical-center'><img style='vertical-align:center; align:center' src=img/fixation3.jpg></div></div>","null","","","","","","",""
"html-keyboard-response","30","244187","0.0-6.0-2.8","63e5513398583a335b2a8bdd","bdp_sd","Mon Mar 27 2023 11:08:57 GMT-0400 (Eastern Daylight Time)","294678","","1825","","","","","offer","","<div class='trialBorder'><div class='vertical-center'><img style='vertical-align:center; align:center' src=img/fixation3.jpg></div><div class='cl'><div class='vertical-center'>$85<br>for<br>Pat D</div></div><div class='cr'><div class='vertical-center'>$69<br>for<br>yourself</div></div><div class='respDivL'><div class='vertical-center'>(E)</div></div><div class='respDivR'><div class='vertical-center'>(I)</div></div></div>","I","$69<br>for<br>yourself","$85<br>for<br>4","1","69","85","4","SELF"
"html-keyboard-response","31","244438","0.0-6.0-3.8","63e5513398583a335b2a8bdd","bdp_sd","Mon Mar 27 2023 11:08:57 GMT-0400 (Eastern Daylight Time)","294678","","null","","","","","offerFB","","<div class='trialBorder'><div class='vertical-center'><img style='vertical-align:center; align:center' src=img/fixation3.jpg></div><div class='cl'><div class='vertical-center'>$85<br>for<br>Pat D</div></div><div class='cr'><div class='vertical-center'><font style='color:orange'>$69<br>for<br>yourself</font></div></div><div class='respDivL'><div class='vertical-center'>(E)</div></div><div class='respDivR'><div class='vertical-center'><font style='color:orange'>(I)</font></div></div></div>","null","$69<br>for<br>yourself","$85<br>for<br>4","1","69","85","4",""
"html-keyboard-response","32","244940","0.0-6.0-1.9","63e5513398583a335b2a8bdd","bdp_sd","Mon Mar 27 2023 11:08:57 GMT-0400 (Eastern Daylight Time)","294678","","null","","","","","FIX","","<div class='trialBorder'><div class='vertical-center'><img style='vertical-align:center; align:center' src=img/fixation3.jpg></div></div>","null","","","","","","",""
"html-keyboard-response","33","247067","0.0-6.0-2.9","63e5513398583a335b2a8bdd","bdp_sd","Mon Mar 27 2023 11:08:57 GMT-0400 (Eastern Daylight Time)","294678","","2127","","","","","offer","","<div class='trialBorder'><div class='vertical-center'><img style='vertical-align:center; align:center' src=img/fixation3.jpg></div><div class='cl'><div class='vertical-center'>$14<br>for<br>yourself</div></div><div class='cr'><div class='vertical-center'>$25<br>for<br>Brad S</div></div><div class='respDivL'><div class='vertical-center'>(E)</div></div><div class='respDivR'><div class='vertical-center'>(I)</div></div></div>","E","$14<br>for<br>yourself","$25<br>for<br>3","0","14","25","3","SELF"
"html-keyboard-response","34","247318","0.0-6.0-3.9","63e5513398583a335b2a8bdd","bdp_sd","Mon Mar 27 2023 11:08:57 GMT-0400 (Eastern Daylight Time)","294678","","null","","","","","offerFB","","<div class='trialBorder'><div class='vertical-center'><img style='vertical-align:center; align:center' src=img/fixation3.jpg></div><div class='cl'><div class='vertical-center'><font style='color:orange'>$14<br>for<br>yourself</font></div></div><div class='cr'><div class='vertical-center'>$25<br>for<br>Brad S</div></div><div class='respDivL'><div class='vertical-center'><font style='color:orange'>(E)</font></div></div><div class='respDivR'><div class='vertical-center'>(I)</div></div></div>","null","$14<br>for<br>yourself","$25<br>for<br>3","0","14","25","3",""
"html-keyboard-response","35","247820","0.0-6.0-1.10","63e5513398583a335b2a8bdd","bdp_sd","Mon Mar 27 2023 11:08:57 GMT-0400 (Eastern Daylight Time)","294678","","null","","","","","FIX","","<div class='trialBorder'><div class='vertical-center'><img style='vertical-align:center; align:center' src=img/fixation3.jpg></div></div>","null","","","","","","",""
"html-keyboard-response","36","249620","0.0-6.0-2.10","63e5513398583a335b2a8bdd","bdp_sd","Mon Mar 27 2023 11:08:57 GMT-0400 (Eastern Daylight Time)","294678","","1800","","","","","offer","","<div class='trialBorder'><div class='vertical-center'><img style='vertical-align:center; align:center' src=img/fixation3.jpg></div><div class='cl'><div class='vertical-center'>$80<br>for<br>Dan H</div></div><div class='cr'><div class='vertical-center'>$78<br>for<br>yourself</div></div><div class='respDivL'><div class='vertical-center'>(E)</div></div><div class='respDivR'><div class='vertical-center'>(I)</div></div></div>","I","$78<br>for<br>yourself","$80<br>for<br>5","1","78","80","5","SELF"
"html-keyboard-response","37","249871","0.0-6.0-3.10","63e5513398583a335b2a8bdd","bdp_sd","Mon Mar 27 2023 11:08:57 GMT-0400 (Eastern Daylight Time)","294678","","null","","","","","offerFB","","<div class='trialBorder'><div class='vertical-center'><img style='vertical-align:center; align:center' src=img/fixation3.jpg></div><div class='cl'><div class='vertical-center'>$80<br>for<br>Dan H</div></div><div class='cr'><div class='vertical-center'><font style='color:orange'>$78<br>for<br>yourself</font></div></div><div class='respDivL'><div class='vertical-center'>(E)</div></div><div class='respDivR'><div class='vertical-center'><font style='color:orange'>(I)</font></div></div></div>","null","$78<br>for<br>yourself","$80<br>for<br>5","1","78","80","5",""
"html-keyboard-response","38","250373","0.0-6.0-1.11","63e5513398583a335b2a8bdd","bdp_sd","Mon Mar 27 2023 11:08:57 GMT-0400 (Eastern Daylight Time)","294678","","null","","","","","FIX","","<div class='trialBorder'><div class='vertical-center'><img style='vertical-align:center; align:center' src=img/fixation3.jpg></div></div>","null","","","","","","",""
"html-keyboard-response","39","253187","0.0-6.0-2.11","63e5513398583a335b2a8bdd","bdp_sd","Mon Mar 27 2023 11:08:57 GMT-0400 (Eastern Daylight Time)","294678","","2814","","","","","offer","","<div class='trialBorder'><div class='vertical-center'><img style='vertical-align:center; align:center' src=img/fixation3.jpg></div><div class='cl'><div class='vertical-center'>$25<br>for<br>Dan H</div></div><div class='cr'><div class='vertical-center'>$22<br>for<br>yourself</div></div><div class='respDivL'><div class='vertical-center'>(E)</div></div><div class='respDivR'><div class='vertical-center'>(I)</div></div></div>","I","$22<br>for<br>yourself","$25<br>for<br>5","1","22","25","5","SELF"
"html-keyboard-response","40","253439","0.0-6.0-3.11","63e5513398583a335b2a8bdd","bdp_sd","Mon Mar 27 2023 11:08:57 GMT-0400 (Eastern Daylight Time)","294678","","null","","","","","offerFB","","<div class='trialBorder'><div class='vertical-center'><img style='vertical-align:center; align:center' src=img/fixation3.jpg></div><div class='cl'><div class='vertical-center'>$25<br>for<br>Dan H</div></div><div class='cr'><div class='vertical-center'><font style='color:orange'>$22<br>for<br>yourself</font></div></div><div class='respDivL'><div class='vertical-center'>(E)</div></div><div class='respDivR'><div class='vertical-center'><font style='color:orange'>(I)</font></div></div></div>","null","$22<br>for<br>yourself","$25<br>for<br>5","1","22","25","5",""
"html-keyboard-response","41","253940","0.0-6.0-1.12","63e5513398583a335b2a8bdd","bdp_sd","Mon Mar 27 2023 11:08:57 GMT-0400 (Eastern Daylight Time)","294678","","null","","","","","FIX","","<div class='trialBorder'><div class='vertical-center'><img style='vertical-align:center; align:center' src=img/fixation3.jpg></div></div>","null","","","","","","",""
"html-keyboard-response","42","255319","0.0-6.0-2.12","63e5513398583a335b2a8bdd","bdp_sd","Mon Mar 27 2023 11:08:57 GMT-0400 (Eastern Daylight Time)","294678","","1378","","","","","offer","","<div class='trialBorder'><div class='vertical-center'><img style='vertical-align:center; align:center' src=img/fixation3.jpg></div><div class='cl'><div class='vertical-center'>$54<br>for<br>yourself</div></div><div class='cr'><div class='vertical-center'>$60<br>for<br>Dan H</div></div><div class='respDivL'><div class='vertical-center'>(E)</div></div><div class='respDivR'><div class='vertical-center'>(I)</div></div></div>","E","$54<br>for<br>yourself","$60<br>for<br>5","0","54","60","5","SELF"
"html-keyboard-response","43","255570","0.0-6.0-3.12","63e5513398583a335b2a8bdd","bdp_sd","Mon Mar 27 2023 11:08:57 GMT-0400 (Eastern Daylight Time)","294678","","null","","","","","offerFB","","<div class='trialBorder'><div class='vertical-center'><img style='vertical-align:center; align:center' src=img/fixation3.jpg></div><div class='cl'><div class='vertical-center'><font style='color:orange'>$54<br>for<br>yourself</font></div></div><div class='cr'><div class='vertical-center'>$60<br>for<br>Dan H</div></div><div class='respDivL'><div class='vertical-center'><font style='color:orange'>(E)</font></div></div><div class='respDivR'><div class='vertical-center'>(I)</div></div></div>","null","$54<br>for<br>yourself","$60<br>for<br>5","0","54","60","5",""
"html-keyboard-response","44","256072","0.0-6.0-1.13","63e5513398583a335b2a8bdd","bdp_sd","Mon Mar 27 2023 11:08:57 GMT-0400 (Eastern Daylight Time)","294678","","null","","","","","FIX","","<div class='trialBorder'><div class='vertical-center'><img style='vertical-align:center; align:center' src=img/fixation3.jpg></div></div>","null","","","","","","",""
"html-keyboard-response","45","257881","0.0-6.0-2.13","63e5513398583a335b2a8bdd","bdp_sd","Mon Mar 27 2023 11:08:57 GMT-0400 (Eastern Daylight Time)","294678","","1809","","","","","offer","","<div class='trialBorder'><div class='vertical-center'><img style='vertical-align:center; align:center' src=img/fixation3.jpg></div><div class='cl'><div class='vertical-center'>$25<br>for<br>Pat D</div></div><div class='cr'><div class='vertical-center'>$19<br>for<br>yourself</div></div><div class='respDivL'><div class='vertical-center'>(E)</div></div><div class='respDivR'><div class='vertical-center'>(I)</div></div></div>","I","$19<br>for<br>yourself","$25<br>for<br>4","1","19","25","4","SELF"
"html-keyboard-response","46","258132","0.0-6.0-3.13","63e5513398583a335b2a8bdd","bdp_sd","Mon Mar 27 2023 11:08:57 GMT-0400 (Eastern Daylight Time)","294678","","null","","","","","offerFB","","<div class='trialBorder'><div class='vertical-center'><img style='vertical-align:center; align:center' src=img/fixation3.jpg></div><div class='cl'><div class='vertical-center'>$25<br>for<br>Pat D</div></div><div class='cr'><div class='vertical-center'><font style='color:orange'>$19<br>for<br>yourself</font></div></div><div class='respDivL'><div class='vertical-center'>(E)</div></div><div class='respDivR'><div class='vertical-center'><font style='color:orange'>(I)</font></div></div></div>","null","$19<br>for<br>yourself","$25<br>for<br>4","1","19","25","4",""
"html-keyboard-response","47","258634","0.0-6.0-1.14","63e5513398583a335b2a8bdd","bdp_sd","Mon Mar 27 2023 11:08:57 GMT-0400 (Eastern Daylight Time)","294678","","null","","","","","FIX","","<div class='trialBorder'><div class='vertical-center'><img style='vertical-align:center; align:center' src=img/fixation3.jpg></div></div>","null","","","","","","",""
"html-keyboard-response","48","262202","0.0-6.0-2.14","63e5513398583a335b2a8bdd","bdp_sd","Mon Mar 27 2023 11:08:57 GMT-0400 (Eastern Daylight Time)","294678","","3568","","","","","offer","","<div class='trialBorder'><div class='vertical-center'><img style='vertical-align:center; align:center' src=img/fixation3.jpg></div><div class='cl'><div class='vertical-center'>$85<br>for<br>Tim M</div></div><div class='cr'><div class='vertical-center'>$31<br>for<br>yourself</div></div><div class='respDivL'><div class='vertical-center'>(E)</div></div><div class='respDivR'><div class='vertical-center'>(I)</div></div></div>","I","$31<br>for<br>yourself","$85<br>for<br>1","1","31","85","1","SELF"
"html-keyboard-response","49","262454","0.0-6.0-3.14","63e5513398583a335b2a8bdd","bdp_sd","Mon Mar 27 2023 11:08:57 GMT-0400 (Eastern Daylight Time)","294678","","null","","","","","offerFB","","<div class='trialBorder'><div class='vertical-center'><img style='vertical-align:center; align:center' src=img/fixation3.jpg></div><div class='cl'><div class='vertical-center'>$85<br>for<br>Tim M</div></div><div class='cr'><div class='vertical-center'><font style='color:orange'>$31<br>for<br>yourself</font></div></div><div class='respDivL'><div class='vertical-center'>(E)</div></div><div class='respDivR'><div class='vertical-center'><font style='color:orange'>(I)</font></div></div></div>","null","$31<br>for<br>yourself","$85<br>for<br>1","1","31","85","1",""
"html-keyboard-response","50","262955","0.0-6.0-1.15","63e5513398583a335b2a8bdd","bdp_sd","Mon Mar 27 2023 11:08:57 GMT-0400 (Eastern Daylight Time)","294678","","null","","","","","FIX","","<div class='trialBorder'><div class='vertical-center'><img style='vertical-align:center; align:center' src=img/fixation3.jpg></div></div>","null","","","","","","",""
"html-keyboard-response","51","265523","0.0-6.0-2.15","63e5513398583a335b2a8bdd","bdp_sd","Mon Mar 27 2023 11:08:57 GMT-0400 (Eastern Daylight Time)","294678","","2567","","","","","offer","","<div class='trialBorder'><div class='vertical-center'><img style='vertical-align:center; align:center' src=img/fixation3.jpg></div><div class='cl'><div class='vertical-center'>$28<br>for<br>yourself</div></div><div class='cr'><div class='vertical-center'>$30<br>for<br>Dan H</div></div><div class='respDivL'><div class='vertical-center'>(E)</div></div><div class='respDivR'><div class='vertical-center'>(I)</div></div></div>","E","$28<br>for<br>yourself","$30<br>for<br>5","0","28","30","5","SELF"
"html-keyboard-response","52","265775","0.0-6.0-3.15","63e5513398583a335b2a8bdd","bdp_sd","Mon Mar 27 2023 11:08:57 GMT-0400 (Eastern Daylight Time)","294678","","null","","","","","offerFB","","<div class='trialBorder'><div class='vertical-center'><img style='vertical-align:center; align:center' src=img/fixation3.jpg></div><div class='cl'><div class='vertical-center'><font style='color:orange'>$28<br>for<br>yourself</font></div></div><div class='cr'><div class='vertical-center'>$30<br>for<br>Dan H</div></div><div class='respDivL'><div class='vertical-center'><font style='color:orange'>(E)</font></div></div><div class='respDivR'><div class='vertical-center'>(I)</div></div></div>","null","$28<br>for<br>yourself","$30<br>for<br>5","0","28","30","5",""
"html-keyboard-response","53","266276","0.0-6.0-1.16","63e5513398583a335b2a8bdd","bdp_sd","Mon Mar 27 2023 11:08:57 GMT-0400 (Eastern Daylight Time)","294678","","null","","","","","FIX","","<div class='trialBorder'><div class='vertical-center'><img style='vertical-align:center; align:center' src=img/fixation3.jpg></div></div>","null","","","","","","",""
"html-keyboard-response","54","267652","0.0-6.0-2.16","63e5513398583a335b2a8bdd","bdp_sd","Mon Mar 27 2023 11:08:57 GMT-0400 (Eastern Daylight Time)","294678","","1374","","","","","offer","","<div class='trialBorder'><div class='vertical-center'><img style='vertical-align:center; align:center' src=img/fixation3.jpg></div><div class='cl'><div class='vertical-center'>$35<br>for<br>Dan H</div></div><div class='cr'><div class='vertical-center'>$34<br>for<br>yourself</div></div><div class='respDivL'><div class='vertical-center'>(E)</div></div><div class='respDivR'><div class='vertical-center'>(I)</div></div></div>","I","$34<br>for<br>yourself","$35<br>for<br>5","1","34","35","5","SELF"
"html-keyboard-response","55","267903","0.0-6.0-3.16","63e5513398583a335b2a8bdd","bdp_sd","Mon Mar 27 2023 11:08:57 GMT-0400 (Eastern Daylight Time)","294678","","null","","","","","offerFB","","<div class='trialBorder'><div class='vertical-center'><img style='vertical-align:center; align:center' src=img/fixation3.jpg></div><div class='cl'><div class='vertical-center'>$35<br>for<br>Dan H</div></div><div class='cr'><div class='vertical-center'><font style='color:orange'>$34<br>for<br>yourself</font></div></div><div class='respDivL'><div class='vertical-center'>(E)</div></div><div class='respDivR'><div class='vertical-center'><font style='color:orange'>(I)</font></div></div></div>","null","$34<br>for<br>yourself","$35<br>for<br>5","1","34","35","5",""
"html-keyboard-response","56","268405","0.0-6.0-1.17","63e5513398583a335b2a8bdd","bdp_sd","Mon Mar 27 2023 11:08:57 GMT-0400 (Eastern Daylight Time)","294678","","null","","","","","FIX","","<div class='trialBorder'><div class='vertical-center'><img style='vertical-align:center; align:center' src=img/fixation3.jpg></div></div>","null","","","","","","",""
"html-keyboard-response","57","269894","0.0-6.0-2.17","63e5513398583a335b2a8bdd","bdp_sd","Mon Mar 27 2023 11:08:57 GMT-0400 (Eastern Daylight Time)","294678","","1488","","","","","offer","","<div class='trialBorder'><div class='vertical-center'><img style='vertical-align:center; align:center' src=img/fixation3.jpg></div><div class='cl'><div class='vertical-center'>$55<br>for<br>yourself</div></div><div class='cr'><div class='vertical-center'>$75<br>for<br>Pat D</div></div><div class='respDivL'><div class='vertical-center'>(E)</div></div><div class='respDivR'><div class='vertical-center'>(I)</div></div></div>","E","$55<br>for<br>yourself","$75<br>for<br>4","0","55","75","4","SELF"
"html-keyboard-response","58","270145","0.0-6.0-3.17","63e5513398583a335b2a8bdd","bdp_sd","Mon Mar 27 2023 11:08:57 GMT-0400 (Eastern Daylight Time)","294678","","null","","","","","offerFB","","<div class='trialBorder'><div class='vertical-center'><img style='vertical-align:center; align:center' src=img/fixation3.jpg></div><div class='cl'><div class='vertical-center'><font style='color:orange'>$55<br>for<br>yourself</font></div></div><div class='cr'><div class='vertical-center'>$75<br>for<br>Pat D</div></div><div class='respDivL'><div class='vertical-center'><font style='color:orange'>(E)</font></div></div><div class='respDivR'><div class='vertical-center'>(I)</div></div></div>","null","$55<br>for<br>yourself","$75<br>for<br>4","0","55","75","4",""
"html-keyboard-response","59","270647","0.0-6.0-1.18","63e5513398583a335b2a8bdd","bdp_sd","Mon Mar 27 2023 11:08:57 GMT-0400 (Eastern Daylight Time)","294678","","null","","","","","FIX","","<div class='trialBorder'><div class='vertical-center'><img style='vertical-align:center; align:center' src=img/fixation3.jpg></div></div>","null","","","","","","",""
"html-keyboard-response","60","273042","0.0-6.0-2.18","63e5513398583a335b2a8bdd","bdp_sd","Mon Mar 27 2023 11:08:57 GMT-0400 (Eastern Daylight Time)","294678","","2395","","","","","offer","","<div class='trialBorder'><div class='vertical-center'><img style='vertical-align:center; align:center' src=img/fixation3.jpg></div><div class='cl'><div class='vertical-center'>$75<br>for<br>Dan H</div></div><div class='cr'><div class='vertical-center'>$67<br>for<br>yourself</div></div><div class='respDivL'><div class='vertical-center'>(E)</div></div><div class='respDivR'><div class='vertical-center'>(I)</div></div></div>","I","$67<br>for<br>yourself","$75<br>for<br>5","1","67","75","5","SELF"
"html-keyboard-response","61","273294","0.0-6.0-3.18","63e5513398583a335b2a8bdd","bdp_sd","Mon Mar 27 2023 11:08:57 GMT-0400 (Eastern Daylight Time)","294678","","null","","","","","offerFB","","<div class='trialBorder'><div class='vertical-center'><img style='vertical-align:center; align:center' src=img/fixation3.jpg></div><div class='cl'><div class='vertical-center'>$75<br>for<br>Dan H</div></div><div class='cr'><div class='vertical-center'><font style='color:orange'>$67<br>for<br>yourself</font></div></div><div class='respDivL'><div class='vertical-center'>(E)</div></div><div class='respDivR'><div class='vertical-center'><font style='color:orange'>(I)</font></div></div></div>","null","$67<br>for<br>yourself","$75<br>for<br>5","1","67","75","5",""
"html-keyboard-response","62","273795","0.0-6.0-1.19","63e5513398583a335b2a8bdd","bdp_sd","Mon Mar 27 2023 11:08:57 GMT-0400 (Eastern Daylight Time)","294678","","null","","","","","FIX","","<div class='trialBorder'><div class='vertical-center'><img style='vertical-align:center; align:center' src=img/fixation3.jpg></div></div>","null","","","","","","",""
"html-keyboard-response","63","276329","0.0-6.0-2.19","63e5513398583a335b2a8bdd","bdp_sd","Mon Mar 27 2023 11:08:57 GMT-0400 (Eastern Daylight Time)","294678","","2533","","","","","offer","","<div class='trialBorder'><div class='vertical-center'><img style='vertical-align:center; align:center' src=img/fixation3.jpg></div><div class='cl'><div class='vertical-center'>$20<br>for<br>yourself</div></div><div class='cr'><div class='vertical-center'>$55<br>for<br>Tim M</div></div><div class='respDivL'><div class='vertical-center'>(E)</div></div><div class='respDivR'><div class='vertical-center'>(I)</div></div></div>","E","$20<br>for<br>yourself","$55<br>for<br>1","0","20","55","1","SELF"
"html-keyboard-response","64","276581","0.0-6.0-3.19","63e5513398583a335b2a8bdd","bdp_sd","Mon Mar 27 2023 11:08:57 GMT-0400 (Eastern Daylight Time)","294678","","null","","","","","offerFB","","<div class='trialBorder'><div class='vertical-center'><img style='vertical-align:center; align:center' src=img/fixation3.jpg></div><div class='cl'><div class='vertical-center'><font style='color:orange'>$20<br>for<br>yourself</font></div></div><div class='cr'><div class='vertical-center'>$55<br>for<br>Tim M</div></div><div class='respDivL'><div class='vertical-center'><font style='color:orange'>(E)</font></div></div><div class='respDivR'><div class='vertical-center'>(I)</div></div></div>","null","$20<br>for<br>yourself","$55<br>for<br>1","0","20","55","1",""
"html-keyboard-response","65","277083","0.0-6.0-1.20","63e5513398583a335b2a8bdd","bdp_sd","Mon Mar 27 2023 11:08:57 GMT-0400 (Eastern Daylight Time)","294678","","null","","","","","FIX","","<div class='trialBorder'><div class='vertical-center'><img style='vertical-align:center; align:center' src=img/fixation3.jpg></div></div>","null","","","","","","",""
"html-keyboard-response","66","278225","0.0-6.0-2.20","63e5513398583a335b2a8bdd","bdp_sd","Mon Mar 27 2023 11:08:57 GMT-0400 (Eastern Daylight Time)","294678","","1142","","","","","offer","","<div class='trialBorder'><div class='vertical-center'><img style='vertical-align:center; align:center' src=img/fixation3.jpg></div><div class='cl'><div class='vertical-center'>$35<br>for<br>Brad S</div></div><div class='cr'><div class='vertical-center'>$24<br>for<br>yourself</div></div><div class='respDivL'><div class='vertical-center'>(E)</div></div><div class='respDivR'><div class='vertical-center'>(I)</div></div></div>","I","$24<br>for<br>yourself","$35<br>for<br>3","1","24","35","3","SELF"
"html-keyboard-response","67","278477","0.0-6.0-3.20","63e5513398583a335b2a8bdd","bdp_sd","Mon Mar 27 2023 11:08:57 GMT-0400 (Eastern Daylight Time)","294678","","null","","","","","offerFB","","<div class='trialBorder'><div class='vertical-center'><img style='vertical-align:center; align:center' src=img/fixation3.jpg></div><div class='cl'><div class='vertical-center'>$35<br>for<br>Brad S</div></div><div class='cr'><div class='vertical-center'><font style='color:orange'>$24<br>for<br>yourself</font></div></div><div class='respDivL'><div class='vertical-center'>(E)</div></div><div class='respDivR'><div class='vertical-center'><font style='color:orange'>(I)</font></div></div></div>","null","$24<br>for<br>yourself","$35<br>for<br>3","1","24","35","3",""
"html-keyboard-response","68","278978","0.0-6.0-1.21","63e5513398583a335b2a8bdd","bdp_sd","Mon Mar 27 2023 11:08:57 GMT-0400 (Eastern Daylight Time)","294678","","null","","","","","FIX","","<div class='trialBorder'><div class='vertical-center'><img style='vertical-align:center; align:center' src=img/fixation3.jpg></div></div>","null","","","","","","",""
"html-keyboard-response","69","279924","0.0-6.0-2.21","63e5513398583a335b2a8bdd","bdp_sd","Mon Mar 27 2023 11:08:57 GMT-0400 (Eastern Daylight Time)","294678","","945","","","","","offer","","<div class='trialBorder'><div class='vertical-center'><img style='vertical-align:center; align:center' src=img/fixation3.jpg></div><div class='cl'><div class='vertical-center'>$55<br>for<br>Pat D</div></div><div class='cr'><div class='vertical-center'>$40<br>for<br>yourself</div></div><div class='respDivL'><div class='vertical-center'>(E)</div></div><div class='respDivR'><div class='vertical-center'>(I)</div></div></div>","I","$40<br>for<br>yourself","$55<br>for<br>4","1","40","55","4","SELF"
"html-keyboard-response","70","280175","0.0-6.0-3.21","63e5513398583a335b2a8bdd","bdp_sd","Mon Mar 27 2023 11:08:57 GMT-0400 (Eastern Daylight Time)","294678","","null","","","","","offerFB","","<div class='trialBorder'><div class='vertical-center'><img style='vertical-align:center; align:center' src=img/fixation3.jpg></div><div class='cl'><div class='vertical-center'>$55<br>for<br>Pat D</div></div><div class='cr'><div class='vertical-center'><font style='color:orange'>$40<br>for<br>yourself</font></div></div><div class='respDivL'><div class='vertical-center'>(E)</div></div><div class='respDivR'><div class='vertical-center'><font style='color:orange'>(I)</font></div></div></div>","null","$40<br>for<br>yourself","$55<br>for<br>4","1","40","55","4",""
"html-keyboard-response","71","280677","0.0-6.0-1.22","63e5513398583a335b2a8bdd","bdp_sd","Mon Mar 27 2023 11:08:57 GMT-0400 (Eastern Daylight Time)","294678","","null","","","","","FIX","","<div class='trialBorder'><div class='vertical-center'><img style='vertical-align:center; align:center' src=img/fixation3.jpg></div></div>","null","","","","","","",""
"html-keyboard-response","72","283125","0.0-6.0-2.22","63e5513398583a335b2a8bdd","bdp_sd","Mon Mar 27 2023 11:08:57 GMT-0400 (Eastern Daylight Time)","294678","","2448","","","","","offer","","<div class='trialBorder'><div class='vertical-center'><img style='vertical-align:center; align:center' src=img/fixation3.jpg></div><div class='cl'><div class='vertical-center'>$27<br>for<br>yourself</div></div><div class='cr'><div class='vertical-center'>$50<br>for<br>Brad S</div></div><div class='respDivL'><div class='vertical-center'>(E)</div></div><div class='respDivR'><div class='vertical-center'>(I)</div></div></div>","E","$27<br>for<br>yourself","$50<br>for<br>3","0","27","50","3","SELF"
"html-keyboard-response","73","283377","0.0-6.0-3.22","63e5513398583a335b2a8bdd","bdp_sd","Mon Mar 27 2023 11:08:57 GMT-0400 (Eastern Daylight Time)","294678","","null","","","","","offerFB","","<div class='trialBorder'><div class='vertical-center'><img style='vertical-align:center; align:center' src=img/fixation3.jpg></div><div class='cl'><div class='vertical-center'><font style='color:orange'>$27<br>for<br>yourself</font></div></div><div class='cr'><div class='vertical-center'>$50<br>for<br>Brad S</div></div><div class='respDivL'><div class='vertical-center'><font style='color:orange'>(E)</font></div></div><div class='respDivR'><div class='vertical-center'>(I)</div></div></div>","null","$27<br>for<br>yourself","$50<br>for<br>3","0","27","50","3",""
"html-keyboard-response","74","283878","0.0-6.0-1.23","63e5513398583a335b2a8bdd","bdp_sd","Mon Mar 27 2023 11:08:57 GMT-0400 (Eastern Daylight Time)","294678","","null","","","","","FIX","","<div class='trialBorder'><div class='vertical-center'><img style='vertical-align:center; align:center' src=img/fixation3.jpg></div></div>","null","","","","","","",""
"html-keyboard-response","75","285230","0.0-6.0-2.23","63e5513398583a335b2a8bdd","bdp_sd","Mon Mar 27 2023 11:08:57 GMT-0400 (Eastern Daylight Time)","294678","","1351","","","","","offer","","<div class='trialBorder'><div class='vertical-center'><img style='vertical-align:center; align:center' src=img/fixation3.jpg></div><div class='cl'><div class='vertical-center'>$30<br>for<br>Pat D</div></div><div class='cr'><div class='vertical-center'>$25<br>for<br>yourself</div></div><div class='respDivL'><div class='vertical-center'>(E)</div></div><div class='respDivR'><div class='vertical-center'>(I)</div></div></div>","I","$25<br>for<br>yourself","$30<br>for<br>4","1","25","30","4","SELF"
"html-keyboard-response","76","285482","0.0-6.0-3.23","63e5513398583a335b2a8bdd","bdp_sd","Mon Mar 27 2023 11:08:57 GMT-0400 (Eastern Daylight Time)","294678","","null","","","","","offerFB","","<div class='trialBorder'><div class='vertical-center'><img style='vertical-align:center; align:center' src=img/fixation3.jpg></div><div class='cl'><div class='vertical-center'>$30<br>for<br>Pat D</div></div><div class='cr'><div class='vertical-center'><font style='color:orange'>$25<br>for<br>yourself</font></div></div><div class='respDivL'><div class='vertical-center'>(E)</div></div><div class='respDivR'><div class='vertical-center'><font style='color:orange'>(I)</font></div></div></div>","null","$25<br>for<br>yourself","$30<br>for<br>4","1","25","30","4",""
"html-keyboard-response","77","285984","0.0-6.0-1.24","63e5513398583a335b2a8bdd","bdp_sd","Mon Mar 27 2023 11:08:57 GMT-0400 (Eastern Daylight Time)","294678","","null","","","","","FIX","","<div class='trialBorder'><div class='vertical-center'><img style='vertical-align:center; align:center' src=img/fixation3.jpg></div></div>","null","","","","","","",""
"html-keyboard-response","78","287297","0.0-6.0-2.24","63e5513398583a335b2a8bdd","bdp_sd","Mon Mar 27 2023 11:08:57 GMT-0400 (Eastern Daylight Time)","294678","","1313","","","","","offer","","<div class='trialBorder'><div class='vertical-center'><img style='vertical-align:center; align:center' src=img/fixation3.jpg></div><div class='cl'><div class='vertical-center'>$80<br>for<br>yourself</div></div><div class='cr'><div class='vertical-center'>$85<br>for<br>Dan H</div></div><div class='respDivL'><div class='vertical-center'>(E)</div></div><div class='respDivR'><div class='vertical-center'>(I)</div></div></div>","E","$80<br>for<br>yourself","$85<br>for<br>5","0","80","85","5","SELF"
"html-keyboard-response","79","287548","0.0-6.0-3.24","63e5513398583a335b2a8bdd","bdp_sd","Mon Mar 27 2023 11:08:57 GMT-0400 (Eastern Daylight Time)","294678","","null","","","","","offerFB","","<div class='trialBorder'><div class='vertical-center'><img style='vertical-align:center; align:center' src=img/fixation3.jpg></div><div class='cl'><div class='vertical-center'><font style='color:orange'>$80<br>for<br>yourself</font></div></div><div class='cr'><div class='vertical-center'>$85<br>for<br>Dan H</div></div><div class='respDivL'><div class='vertical-center'><font style='color:orange'>(E)</font></div></div><div class='respDivR'><div class='vertical-center'>(I)</div></div></div>","null","$80<br>for<br>yourself","$85<br>for<br>5","0","80","85","5",""
"html-keyboard-response","80","288049","0.0-6.0-1.25","63e5513398583a335b2a8bdd","bdp_sd","Mon Mar 27 2023 11:08:57 GMT-0400 (Eastern Daylight Time)","294678","","null","","","","","FIX","","<div class='trialBorder'><div class='vertical-center'><img style='vertical-align:center; align:center' src=img/fixation3.jpg></div></div>","null","","","","","","",""
"html-keyboard-response","81","290161","0.0-6.0-2.25","63e5513398583a335b2a8bdd","bdp_sd","Mon Mar 27 2023 11:08:57 GMT-0400 (Eastern Daylight Time)","294678","","2111","","","","","offer","","<div class='trialBorder'><div class='vertical-center'><img style='vertical-align:center; align:center' src=img/fixation3.jpg></div><div class='cl'><div class='vertical-center'>$15<br>for<br>yourself</div></div><div class='cr'><div class='vertical-center'>$35<br>for<br>Bill W</div></div><div class='respDivL'><div class='vertical-center'>(E)</div></div><div class='respDivR'><div class='vertical-center'>(I)</div></div></div>","E","$15<br>for<br>yourself","$35<br>for<br>2","0","15","35","2","SELF"
"html-keyboard-response","82","290413","0.0-6.0-3.25","63e5513398583a335b2a8bdd","bdp_sd","Mon Mar 27 2023 11:08:57 GMT-0400 (Eastern Daylight Time)","294678","","null","","","","","offerFB","","<div class='trialBorder'><div class='vertical-center'><img style='vertical-align:center; align:center' src=img/fixation3.jpg></div><div class='cl'><div class='vertical-center'><font style='color:orange'>$15<br>for<br>yourself</font></div></div><div class='cr'><div class='vertical-center'>$35<br>for<br>Bill W</div></div><div class='respDivL'><div class='vertical-center'><font style='color:orange'>(E)</font></div></div><div class='respDivR'><div class='vertical-center'>(I)</div></div></div>","null","$15<br>for<br>yourself","$35<br>for<br>2","0","15","35","2",""
"html-keyboard-response","83","290915","0.0-6.0-1.26","63e5513398583a335b2a8bdd","bdp_sd","Mon Mar 27 2023 11:08:57 GMT-0400 (Eastern Daylight Time)","294678","","null","","","","","FIX","","<div class='trialBorder'><div class='vertical-center'><img style='vertical-align:center; align:center' src=img/fixation3.jpg></div></div>","null","","","","","","",""
"html-keyboard-response","84","293424","0.0-6.0-2.26","63e5513398583a335b2a8bdd","bdp_sd","Mon Mar 27 2023 11:08:57 GMT-0400 (Eastern Daylight Time)","294678","","2509","","","","","offer","","<div class='trialBorder'><div class='vertical-center'><img style='vertical-align:center; align:center' src=img/fixation3.jpg></div><div class='cl'><div class='vertical-center'>$25<br>for<br>yourself</div></div><div class='cr'><div class='vertical-center'>$60<br>for<br>Brad S</div></div><div class='respDivL'><div class='vertical-center'>(E)</div></div><div class='respDivR'><div class='vertical-center'>(I)</div></div></div>","E","$25<br>for<br>yourself","$60<br>for<br>3","0","25","60","3","SELF"
"html-keyboard-response","85","293676","0.0-6.0-3.26","63e5513398583a335b2a8bdd","bdp_sd","Mon Mar 27 2023 11:08:57 GMT-0400 (Eastern Daylight Time)","294678","","null","","","","","offerFB","","<div class='trialBorder'><div class='vertical-center'><img style='vertical-align:center; align:center' src=img/fixation3.jpg></div><div class='cl'><div class='vertical-center'><font style='color:orange'>$25<br>for<br>yourself</font></div></div><div class='cr'><div class='vertical-center'>$60<br>for<br>Brad S</div></div><div class='respDivL'><div class='vertical-center'><font style='color:orange'>(E)</font></div></div><div class='respDivR'><div class='vertical-center'>(I)</div></div></div>","null","$25<br>for<br>yourself","$60<br>for<br>3","0","25","60","3",""
"","","","","63e5513398583a335b2a8bdd","bdp_sd","Mon Mar 27 2023 11:08:57 GMT-0400 (Eastern Daylight Time)","294678","","","","fullscreenexit","86","293690","fullscreenexit","","","","","","","","","",""
"fullscreen","86","294677","0.0-7.0","63e5513398583a335b2a8bdd","bdp_sd","Mon Mar 27 2023 11:08:57 GMT-0400 (Eastern Daylight Time)","294678","","","","","","","","true","","","","","","","","",""
"html-keyboard-response","87","295179","0.0-8.0","","","","","","null","","","","","","","","null","","","","","","",""
