"event","trial","time","trialtype","subject_id","task","startTime","totalTime","trial_type","trial_index","time_elapsed","internal_node_id","view_history","rt","responses","success","stimulus","key_press","selfOffer","otherOffer","otherLeft","selfAmt","otherAmt","otherDist","chosen"
"focus","0","0","focusevent","627ea14463f25dce42e73d51","bdp_sd","Sun Mar 26 2023 12:58:38 GMT-0400 (Eastern Daylight Time)","219722","","","","","","","","","","","","","","","","",""
"","","","","627ea14463f25dce42e73d51","bdp_sd","Sun Mar 26 2023 12:58:38 GMT-0400 (Eastern Daylight Time)","219722","pavlovia","0","4","0.0-0.0","","","","","","","","","","","","",""
"","","","","627ea14463f25dce42e73d51","bdp_sd","Sun Mar 26 2023 12:58:38 GMT-0400 (Eastern Daylight Time)","219722","instructions","1","2181","0.0-1.0","[{""page_index"":0,""viewing_time"":2176}]","2177","","","","","","","","","","",""
"","","","","627ea14463f25dce42e73d51","bdp_sd","Sun Mar 26 2023 12:58:38 GMT-0400 (Eastern Daylight Time)","219722","survey-text","2","146604","0.0-2.0","","144420","{""Q0"":""jhon"",""Q1"":""blake"",""Q2"":""thamas"",""Q3"":""kate"",""Q4"":""tom""}","","","","","","","","","",""
"fullscreenexit","3","149276","fullscreenexit","627ea14463f25dce42e73d51","bdp_sd","Sun Mar 26 2023 12:58:38 GMT-0400 (Eastern Daylight Time)","219722","","","","","","","","","","","","","","","","",""
"","","","","627ea14463f25dce42e73d51","bdp_sd","Sun Mar 26 2023 12:58:38 GMT-0400 (Eastern Daylight Time)","219722","fullscreen","3","150069","0.0-3.0","","","","true","","","","","","","","",""
"","","","fullscreenfail","627ea14463f25dce42e73d51","bdp_sd","Sun Mar 26 2023 12:58:38 GMT-0400 (Eastern Daylight Time)","219722","image-keyboard-response","4","152310","0.0-4.0-0.0","","2237","","","","32","","","","","","",""
"","","","","627ea14463f25dce42e73d51","bdp_sd","Sun Mar 26 2023 12:58:38 GMT-0400 (Eastern Daylight Time)","219722","instructions","5","160921","0.0-5.0","[{""page_index"":0,""viewing_time"":3542},{""page_index"":1,""viewing_time"":2573},{""page_index"":2,""viewing_time"":2236}]","8352","","","","","","","","","","",""
"","","","FIX","627ea14463f25dce42e73d51","bdp_sd","Sun Mar 26 2023 12:58:38 GMT-0400 (Eastern Daylight Time)","219722","html-keyboard-response","6","161439","0.0-6.0-1.0","","null","","","<div class='trialBorder'><div class='vertical-center'><img style='vertical-align:center; align:center' src=img/fixation3.jpg></div></div>","null","","","","","","",""
"","","","offer","627ea14463f25dce42e73d51","bdp_sd","Sun Mar 26 2023 12:58:38 GMT-0400 (Eastern Daylight Time)","219722","html-keyboard-response","7","168535","0.0-6.0-2.0","","7092","","","<div class='trialBorder'><div class='vertical-center'><img style='vertical-align:center; align:center' src=img/fixation3.jpg></div><div class='cl'><div class='vertical-center'>$30<br>for<br>tom</div></div><div class='cr'><div class='vertical-center'>$28<br>for<br>yourself</div></div><div class='respDivL'><div class='vertical-center'>(E)</div></div><div class='respDivR'><div class='vertical-center'>(I)</div></div></div>","I","$28<br>for<br>yourself","$30<br>for<br>5","1","28","30","5","SELF"
"","","","offerFB","627ea14463f25dce42e73d51","bdp_sd","Sun Mar 26 2023 12:58:38 GMT-0400 (Eastern Daylight Time)","219722","html-keyboard-response","8","168788","0.0-6.0-3.0","","null","","","<div class='trialBorder'><div class='vertical-center'><img style='vertical-align:center; align:center' src=img/fixation3.jpg></div><div class='cl'><div class='vertical-center'>$30<br>for<br>tom</div></div><div class='cr'><div class='vertical-center'><font style='color:orange'>$28<br>for<br>yourself</font></div></div><div class='respDivL'><div class='vertical-center'>(E)</div></div><div class='respDivR'><div class='vertical-center'><font style='color:orange'>(I)</font></div></div></div>","null","$28<br>for<br>yourself","$30<br>for<br>5","1","28","30","5",""
"","","","FIX","627ea14463f25dce42e73d51","bdp_sd","Sun Mar 26 2023 12:58:38 GMT-0400 (Eastern Daylight Time)","219722","html-keyboard-response","9","169300","0.0-6.0-1.1","","null","","","<div class='trialBorder'><div class='vertical-center'><img style='vertical-align:center; align:center' src=img/fixation3.jpg></div></div>","null","","","","","","",""
"","","","offer","627ea14463f25dce42e73d51","bdp_sd","Sun Mar 26 2023 12:58:38 GMT-0400 (Eastern Daylight Time)","219722","html-keyboard-response","10","171736","0.0-6.0-2.1","","2433","","","<div class='trialBorder'><div class='vertical-center'><img style='vertical-align:center; align:center' src=img/fixation3.jpg></div><div class='cl'><div class='vertical-center'>$75<br>for<br>tom</div></div><div class='cr'><div class='vertical-center'>$67<br>for<br>yourself</div></div><div class='respDivL'><div class='vertical-center'>(E)</div></div><div class='respDivR'><div class='vertical-center'>(I)</div></div></div>","I","$67<br>for<br>yourself","$75<br>for<br>5","1","67","75","5","SELF"
"","","","offerFB","627ea14463f25dce42e73d51","bdp_sd","Sun Mar 26 2023 12:58:38 GMT-0400 (Eastern Daylight Time)","219722","html-keyboard-response","11","171997","0.0-6.0-3.1","","null","","","<div class='trialBorder'><div class='vertical-center'><img style='vertical-align:center; align:center' src=img/fixation3.jpg></div><div class='cl'><div class='vertical-center'>$75<br>for<br>tom</div></div><div class='cr'><div class='vertical-center'><font style='color:orange'>$67<br>for<br>yourself</font></div></div><div class='respDivL'><div class='vertical-center'>(E)</div></div><div class='respDivR'><div class='vertical-center'><font style='color:orange'>(I)</font></div></div></div>","null","$67<br>for<br>yourself","$75<br>for<br>5","1","67","75","5",""
"","","","FIX","627ea14463f25dce42e73d51","bdp_sd","Sun Mar 26 2023 12:58:38 GMT-0400 (Eastern Daylight Time)","219722","html-keyboard-response","12","172498","0.0-6.0-1.2","","null","","","<div class='trialBorder'><div class='vertical-center'><img style='vertical-align:center; align:center' src=img/fixation3.jpg></div></div>","null","","","","","","",""
"","","","offer","627ea14463f25dce42e73d51","bdp_sd","Sun Mar 26 2023 12:58:38 GMT-0400 (Eastern Daylight Time)","219722","html-keyboard-response","13","174263","0.0-6.0-2.2","","1762","","","<div class='trialBorder'><div class='vertical-center'><img style='vertical-align:center; align:center' src=img/fixation3.jpg></div><div class='cl'><div class='vertical-center'>$35<br>for<br>tom</div></div><div class='cr'><div class='vertical-center'>$34<br>for<br>yourself</div></div><div class='respDivL'><div class='vertical-center'>(E)</div></div><div class='respDivR'><div class='vertical-center'>(I)</div></div></div>","I","$34<br>for<br>yourself","$35<br>for<br>5","1","34","35","5","SELF"
"","","","offerFB","627ea14463f25dce42e73d51","bdp_sd","Sun Mar 26 2023 12:58:38 GMT-0400 (Eastern Daylight Time)","219722","html-keyboard-response","14","174517","0.0-6.0-3.2","","null","","","<div class='trialBorder'><div class='vertical-center'><img style='vertical-align:center; align:center' src=img/fixation3.jpg></div><div class='cl'><div class='vertical-center'>$35<br>for<br>tom</div></div><div class='cr'><div class='vertical-center'><font style='color:orange'>$34<br>for<br>yourself</font></div></div><div class='respDivL'><div class='vertical-center'>(E)</div></div><div class='respDivR'><div class='vertical-center'><font style='color:orange'>(I)</font></div></div></div>","null","$34<br>for<br>yourself","$35<br>for<br>5","1","34","35","5",""
"","","","FIX","627ea14463f25dce42e73d51","bdp_sd","Sun Mar 26 2023 12:58:38 GMT-0400 (Eastern Daylight Time)","219722","html-keyboard-response","15","175018","0.0-6.0-1.3","","null","","","<div class='trialBorder'><div class='vertical-center'><img style='vertical-align:center; align:center' src=img/fixation3.jpg></div></div>","null","","","","","","",""
"","","","offer","627ea14463f25dce42e73d51","bdp_sd","Sun Mar 26 2023 12:58:38 GMT-0400 (Eastern Daylight Time)","219722","html-keyboard-response","16","178147","0.0-6.0-2.3","","3126","","","<div class='trialBorder'><div class='vertical-center'><img style='vertical-align:center; align:center' src=img/fixation3.jpg></div><div class='cl'><div class='vertical-center'>$11<br>for<br>yourself</div></div><div class='cr'><div class='vertical-center'>$30<br>for<br>blake</div></div><div class='respDivL'><div class='vertical-center'>(E)</div></div><div class='respDivR'><div class='vertical-center'>(I)</div></div></div>","I","$11<br>for<br>yourself","$30<br>for<br>2","0","11","30","2","OTHER"
"","","","offerFB","627ea14463f25dce42e73d51","bdp_sd","Sun Mar 26 2023 12:58:38 GMT-0400 (Eastern Daylight Time)","219722","html-keyboard-response","17","178412","0.0-6.0-3.3","","null","","","<div class='trialBorder'><div class='vertical-center'><img style='vertical-align:center; align:center' src=img/fixation3.jpg></div><div class='cl'><div class='vertical-center'>$11<br>for<br>yourself</div></div><div class='cr'><div class='vertical-center'><font style='color:orange'>$30<br>for<br>blake</font></div></div><div class='respDivL'><div class='vertical-center'>(E)</div></div><div class='respDivR'><div class='vertical-center'><font style='color:orange'>(I)</font></div></div></div>","null","$11<br>for<br>yourself","$30<br>for<br>2","0","11","30","2",""
"","","","FIX","627ea14463f25dce42e73d51","bdp_sd","Sun Mar 26 2023 12:58:38 GMT-0400 (Eastern Daylight Time)","219722","html-keyboard-response","18","178923","0.0-6.0-1.4","","null","","","<div class='trialBorder'><div class='vertical-center'><img style='vertical-align:center; align:center' src=img/fixation3.jpg></div></div>","null","","","","","","",""
"","","","offer","627ea14463f25dce42e73d51","bdp_sd","Sun Mar 26 2023 12:58:38 GMT-0400 (Eastern Daylight Time)","219722","html-keyboard-response","19","179885","0.0-6.0-2.4","","959","","","<div class='trialBorder'><div class='vertical-center'><img style='vertical-align:center; align:center' src=img/fixation3.jpg></div><div class='cl'><div class='vertical-center'>$14<br>for<br>yourself</div></div><div class='cr'><div class='vertical-center'>$25<br>for<br>thamas</div></div><div class='respDivL'><div class='vertical-center'>(E)</div></div><div class='respDivR'><div class='vertical-center'>(I)</div></div></div>","E","$14<br>for<br>yourself","$25<br>for<br>3","0","14","25","3","SELF"
"","","","offerFB","627ea14463f25dce42e73d51","bdp_sd","Sun Mar 26 2023 12:58:38 GMT-0400 (Eastern Daylight Time)","219722","html-keyboard-response","20","180143","0.0-6.0-3.4","","null","","","<div class='trialBorder'><div class='vertical-center'><img style='vertical-align:center; align:center' src=img/fixation3.jpg></div><div class='cl'><div class='vertical-center'><font style='color:orange'>$14<br>for<br>yourself</font></div></div><div class='cr'><div class='vertical-center'>$25<br>for<br>thamas</div></div><div class='respDivL'><div class='vertical-center'><font style='color:orange'>(E)</font></div></div><div class='respDivR'><div class='vertical-center'>(I)</div></div></div>","null","$14<br>for<br>yourself","$25<br>for<br>3","0","14","25","3",""
"","","","FIX","627ea14463f25dce42e73d51","bdp_sd","Sun Mar 26 2023 12:58:38 GMT-0400 (Eastern Daylight Time)","219722","html-keyboard-response","21","180646","0.0-6.0-1.5","","null","","","<div class='trialBorder'><div class='vertical-center'><img style='vertical-align:center; align:center' src=img/fixation3.jpg></div></div>","null","","","","","","",""
"","","","offer","627ea14463f25dce42e73d51","bdp_sd","Sun Mar 26 2023 12:58:38 GMT-0400 (Eastern Daylight Time)","219722","html-keyboard-response","22","181405","0.0-6.0-2.5","","759","","","<div class='trialBorder'><div class='vertical-center'><img style='vertical-align:center; align:center' src=img/fixation3.jpg></div><div class='cl'><div class='vertical-center'>$20<br>for<br>yourself</div></div><div class='cr'><div class='vertical-center'>$55<br>for<br>jhon</div></div><div class='respDivL'><div class='vertical-center'>(E)</div></div><div class='respDivR'><div class='vertical-center'>(I)</div></div></div>","E","$20<br>for<br>yourself","$55<br>for<br>1","0","20","55","1","SELF"
"","","","offerFB","627ea14463f25dce42e73d51","bdp_sd","Sun Mar 26 2023 12:58:38 GMT-0400 (Eastern Daylight Time)","219722","html-keyboard-response","23","181660","0.0-6.0-3.5","","null","","","<div class='trialBorder'><div class='vertical-center'><img style='vertical-align:center; align:center' src=img/fixation3.jpg></div><div class='cl'><div class='vertical-center'><font style='color:orange'>$20<br>for<br>yourself</font></div></div><div class='cr'><div class='vertical-center'>$55<br>for<br>jhon</div></div><div class='respDivL'><div class='vertical-center'><font style='color:orange'>(E)</font></div></div><div class='respDivR'><div class='vertical-center'>(I)</div></div></div>","null","$20<br>for<br>yourself","$55<br>for<br>1","0","20","55","1",""
"","","","FIX","627ea14463f25dce42e73d51","bdp_sd","Sun Mar 26 2023 12:58:38 GMT-0400 (Eastern Daylight Time)","219722","html-keyboard-response","24","182162","0.0-6.0-1.6","","null","","","<div class='trialBorder'><div class='vertical-center'><img style='vertical-align:center; align:center' src=img/fixation3.jpg></div></div>","null","","","","","","",""
"","","","offer","627ea14463f25dce42e73d51","bdp_sd","Sun Mar 26 2023 12:58:38 GMT-0400 (Eastern Daylight Time)","219722","html-keyboard-response","25","183582","0.0-6.0-2.6","","1418","","","<div class='trialBorder'><div class='vertical-center'><img style='vertical-align:center; align:center' src=img/fixation3.jpg></div><div class='cl'><div class='vertical-center'>$25<br>for<br>yourself</div></div><div class='cr'><div class='vertical-center'>$30<br>for<br>kate</div></div><div class='respDivL'><div class='vertical-center'>(E)</div></div><div class='respDivR'><div class='vertical-center'>(I)</div></div></div>","I","$25<br>for<br>yourself","$30<br>for<br>4","0","25","30","4","OTHER"
"","","","offerFB","627ea14463f25dce42e73d51","bdp_sd","Sun Mar 26 2023 12:58:38 GMT-0400 (Eastern Daylight Time)","219722","html-keyboard-response","26","183834","0.0-6.0-3.6","","null","","","<div class='trialBorder'><div class='vertical-center'><img style='vertical-align:center; align:center' src=img/fixation3.jpg></div><div class='cl'><div class='vertical-center'>$25<br>for<br>yourself</div></div><div class='cr'><div class='vertical-center'><font style='color:orange'>$30<br>for<br>kate</font></div></div><div class='respDivL'><div class='vertical-center'>(E)</div></div><div class='respDivR'><div class='vertical-center'><font style='color:orange'>(I)</font></div></div></div>","null","$25<br>for<br>yourself","$30<br>for<br>4","0","25","30","4",""
"","","","FIX","627ea14463f25dce42e73d51","bdp_sd","Sun Mar 26 2023 12:58:38 GMT-0400 (Eastern Daylight Time)","219722","html-keyboard-response","27","184337","0.0-6.0-1.7","","null","","","<div class='trialBorder'><div class='vertical-center'><img style='vertical-align:center; align:center' src=img/fixation3.jpg></div></div>","null","","","","","","",""
"","","","offer","627ea14463f25dce42e73d51","bdp_sd","Sun Mar 26 2023 12:58:38 GMT-0400 (Eastern Daylight Time)","219722","html-keyboard-response","28","185248","0.0-6.0-2.7","","910","","","<div class='trialBorder'><div class='vertical-center'><img style='vertical-align:center; align:center' src=img/fixation3.jpg></div><div class='cl'><div class='vertical-center'>$25<br>for<br>tom</div></div><div class='cr'><div class='vertical-center'>$22<br>for<br>yourself</div></div><div class='respDivL'><div class='vertical-center'>(E)</div></div><div class='respDivR'><div class='vertical-center'>(I)</div></div></div>","E","$22<br>for<br>yourself","$25<br>for<br>5","1","22","25","5","OTHER"
"","","","offerFB","627ea14463f25dce42e73d51","bdp_sd","Sun Mar 26 2023 12:58:38 GMT-0400 (Eastern Daylight Time)","219722","html-keyboard-response","29","185507","0.0-6.0-3.7","","null","","","<div class='trialBorder'><div class='vertical-center'><img style='vertical-align:center; align:center' src=img/fixation3.jpg></div><div class='cl'><div class='vertical-center'><font style='color:orange'>$25<br>for<br>tom</font></div></div><div class='cr'><div class='vertical-center'>$22<br>for<br>yourself</div></div><div class='respDivL'><div class='vertical-center'><font style='color:orange'>(E)</font></div></div><div class='respDivR'><div class='vertical-center'>(I)</div></div></div>","null","$22<br>for<br>yourself","$25<br>for<br>5","1","22","25","5",""
"","","","FIX","627ea14463f25dce42e73d51","bdp_sd","Sun Mar 26 2023 12:58:38 GMT-0400 (Eastern Daylight Time)","219722","html-keyboard-response","30","186009","0.0-6.0-1.8","","null","","","<div class='trialBorder'><div class='vertical-center'><img style='vertical-align:center; align:center' src=img/fixation3.jpg></div></div>","null","","","","","","",""
"","","","offer","627ea14463f25dce42e73d51","bdp_sd","Sun Mar 26 2023 12:58:38 GMT-0400 (Eastern Daylight Time)","219722","html-keyboard-response","31","187268","0.0-6.0-2.8","","1258","","","<div class='trialBorder'><div class='vertical-center'><img style='vertical-align:center; align:center' src=img/fixation3.jpg></div><div class='cl'><div class='vertical-center'>$54<br>for<br>yourself</div></div><div class='cr'><div class='vertical-center'>$55<br>for<br>tom</div></div><div class='respDivL'><div class='vertical-center'>(E)</div></div><div class='respDivR'><div class='vertical-center'>(I)</div></div></div>","E","$54<br>for<br>yourself","$55<br>for<br>5","0","54","55","5","SELF"
"","","","offerFB","627ea14463f25dce42e73d51","bdp_sd","Sun Mar 26 2023 12:58:38 GMT-0400 (Eastern Daylight Time)","219722","html-keyboard-response","32","187530","0.0-6.0-3.8","","null","","","<div class='trialBorder'><div class='vertical-center'><img style='vertical-align:center; align:center' src=img/fixation3.jpg></div><div class='cl'><div class='vertical-center'><font style='color:orange'>$54<br>for<br>yourself</font></div></div><div class='cr'><div class='vertical-center'>$55<br>for<br>tom</div></div><div class='respDivL'><div class='vertical-center'><font style='color:orange'>(E)</font></div></div><div class='respDivR'><div class='vertical-center'>(I)</div></div></div>","null","$54<br>for<br>yourself","$55<br>for<br>5","0","54","55","5",""
"","","","FIX","627ea14463f25dce42e73d51","bdp_sd","Sun Mar 26 2023 12:58:38 GMT-0400 (Eastern Daylight Time)","219722","html-keyboard-response","33","188040","0.0-6.0-1.9","","null","","","<div class='trialBorder'><div class='vertical-center'><img style='vertical-align:center; align:center' src=img/fixation3.jpg></div></div>","null","","","","","","",""
"","","","offer","627ea14463f25dce42e73d51","bdp_sd","Sun Mar 26 2023 12:58:38 GMT-0400 (Eastern Daylight Time)","219722","html-keyboard-response","34","188503","0.0-6.0-2.9","","461","","","<div class='trialBorder'><div class='vertical-center'><img style='vertical-align:center; align:center' src=img/fixation3.jpg></div><div class='cl'><div class='vertical-center'>$31<br>for<br>yourself</div></div><div class='cr'><div class='vertical-center'>$85<br>for<br>jhon</div></div><div class='respDivL'><div class='vertical-center'>(E)</div></div><div class='respDivR'><div class='vertical-center'>(I)</div></div></div>","E","$31<br>for<br>yourself","$85<br>for<br>1","0","31","85","1","SELF"
"","","","offerFB","627ea14463f25dce42e73d51","bdp_sd","Sun Mar 26 2023 12:58:38 GMT-0400 (Eastern Daylight Time)","219722","html-keyboard-response","35","188762","0.0-6.0-3.9","","null","","","<div class='trialBorder'><div class='vertical-center'><img style='vertical-align:center; align:center' src=img/fixation3.jpg></div><div class='cl'><div class='vertical-center'><font style='color:orange'>$31<br>for<br>yourself</font></div></div><div class='cr'><div class='vertical-center'>$85<br>for<br>jhon</div></div><div class='respDivL'><div class='vertical-center'><font style='color:orange'>(E)</font></div></div><div class='respDivR'><div class='vertical-center'>(I)</div></div></div>","null","$31<br>for<br>yourself","$85<br>for<br>1","0","31","85","1",""
"","","","FIX","627ea14463f25dce42e73d51","bdp_sd","Sun Mar 26 2023 12:58:38 GMT-0400 (Eastern Daylight Time)","219722","html-keyboard-response","36","189266","0.0-6.0-1.10","","null","","","<div class='trialBorder'><div class='vertical-center'><img style='vertical-align:center; align:center' src=img/fixation3.jpg></div></div>","null","","","","","","",""
"","","","offer","627ea14463f25dce42e73d51","bdp_sd","Sun Mar 26 2023 12:58:38 GMT-0400 (Eastern Daylight Time)","219722","html-keyboard-response","37","189721","0.0-6.0-2.10","","454","","","<div class='trialBorder'><div class='vertical-center'><img style='vertical-align:center; align:center' src=img/fixation3.jpg></div><div class='cl'><div class='vertical-center'>$34<br>for<br>yourself</div></div><div class='cr'><div class='vertical-center'>$50<br>for<br>kate</div></div><div class='respDivL'><div class='vertical-center'>(E)</div></div><div class='respDivR'><div class='vertical-center'>(I)</div></div></div>","E","$34<br>for<br>yourself","$50<br>for<br>4","0","34","50","4","SELF"
"","","","offerFB","627ea14463f25dce42e73d51","bdp_sd","Sun Mar 26 2023 12:58:38 GMT-0400 (Eastern Daylight Time)","219722","html-keyboard-response","38","189976","0.0-6.0-3.10","","null","","","<div class='trialBorder'><div class='vertical-center'><img style='vertical-align:center; align:center' src=img/fixation3.jpg></div><div class='cl'><div class='vertical-center'><font style='color:orange'>$34<br>for<br>yourself</font></div></div><div class='cr'><div class='vertical-center'>$50<br>for<br>kate</div></div><div class='respDivL'><div class='vertical-center'><font style='color:orange'>(E)</font></div></div><div class='respDivR'><div class='vertical-center'>(I)</div></div></div>","null","$34<br>for<br>yourself","$50<br>for<br>4","0","34","50","4",""
"","","","FIX","627ea14463f25dce42e73d51","bdp_sd","Sun Mar 26 2023 12:58:38 GMT-0400 (Eastern Daylight Time)","219722","html-keyboard-response","39","190489","0.0-6.0-1.11","","null","","","<div class='trialBorder'><div class='vertical-center'><img style='vertical-align:center; align:center' src=img/fixation3.jpg></div></div>","null","","","","","","",""
"","","","offer","627ea14463f25dce42e73d51","bdp_sd","Sun Mar 26 2023 12:58:38 GMT-0400 (Eastern Daylight Time)","219722","html-keyboard-response","40","191348","0.0-6.0-2.11","","858","","","<div class='trialBorder'><div class='vertical-center'><img style='vertical-align:center; align:center' src=img/fixation3.jpg></div><div class='cl'><div class='vertical-center'>$41<br>for<br>yourself</div></div><div class='cr'><div class='vertical-center'>$75<br>for<br>thamas</div></div><div class='respDivL'><div class='vertical-center'>(E)</div></div><div class='respDivR'><div class='vertical-center'>(I)</div></div></div>","I","$41<br>for<br>yourself","$75<br>for<br>3","0","41","75","3","OTHER"
"","","","offerFB","627ea14463f25dce42e73d51","bdp_sd","Sun Mar 26 2023 12:58:38 GMT-0400 (Eastern Daylight Time)","219722","html-keyboard-response","41","191608","0.0-6.0-3.11","","null","","","<div class='trialBorder'><div class='vertical-center'><img style='vertical-align:center; align:center' src=img/fixation3.jpg></div><div class='cl'><div class='vertical-center'>$41<br>for<br>yourself</div></div><div class='cr'><div class='vertical-center'><font style='color:orange'>$75<br>for<br>thamas</font></div></div><div class='respDivL'><div class='vertical-center'>(E)</div></div><div class='respDivR'><div class='vertical-center'><font style='color:orange'>(I)</font></div></div></div>","null","$41<br>for<br>yourself","$75<br>for<br>3","0","41","75","3",""
"","","","FIX","627ea14463f25dce42e73d51","bdp_sd","Sun Mar 26 2023 12:58:38 GMT-0400 (Eastern Daylight Time)","219722","html-keyboard-response","42","192110","0.0-6.0-1.12","","null","","","<div class='trialBorder'><div class='vertical-center'><img style='vertical-align:center; align:center' src=img/fixation3.jpg></div></div>","null","","","","","","",""
"","","","offer","627ea14463f25dce42e73d51","bdp_sd","Sun Mar 26 2023 12:58:38 GMT-0400 (Eastern Daylight Time)","219722","html-keyboard-response","43","193086","0.0-6.0-2.12","","974","","","<div class='trialBorder'><div class='vertical-center'><img style='vertical-align:center; align:center' src=img/fixation3.jpg></div><div class='cl'><div class='vertical-center'>$80<br>for<br>tom</div></div><div class='cr'><div class='vertical-center'>$78<br>for<br>yourself</div></div><div class='respDivL'><div class='vertical-center'>(E)</div></div><div class='respDivR'><div class='vertical-center'>(I)</div></div></div>","I","$78<br>for<br>yourself","$80<br>for<br>5","1","78","80","5","SELF"
"","","","offerFB","627ea14463f25dce42e73d51","bdp_sd","Sun Mar 26 2023 12:58:38 GMT-0400 (Eastern Daylight Time)","219722","html-keyboard-response","44","193338","0.0-6.0-3.12","","null","","","<div class='trialBorder'><div class='vertical-center'><img style='vertical-align:center; align:center' src=img/fixation3.jpg></div><div class='cl'><div class='vertical-center'>$80<br>for<br>tom</div></div><div class='cr'><div class='vertical-center'><font style='color:orange'>$78<br>for<br>yourself</font></div></div><div class='respDivL'><div class='vertical-center'>(E)</div></div><div class='respDivR'><div class='vertical-center'><font style='color:orange'>(I)</font></div></div></div>","null","$78<br>for<br>yourself","$80<br>for<br>5","1","78","80","5",""
"","","","FIX","627ea14463f25dce42e73d51","bdp_sd","Sun Mar 26 2023 12:58:38 GMT-0400 (Eastern Daylight Time)","219722","html-keyboard-response","45","193840","0.0-6.0-1.13","","null","","","<div class='trialBorder'><div class='vertical-center'><img style='vertical-align:center; align:center' src=img/fixation3.jpg></div></div>","null","","","","","","",""
"","","","offer","627ea14463f25dce42e73d51","bdp_sd","Sun Mar 26 2023 12:58:38 GMT-0400 (Eastern Daylight Time)","219722","html-keyboard-response","46","194532","0.0-6.0-2.13","","692","","","<div class='trialBorder'><div class='vertical-center'><img style='vertical-align:center; align:center' src=img/fixation3.jpg></div><div class='cl'><div class='vertical-center'>$47<br>for<br>yourself</div></div><div class='cr'><div class='vertical-center'>$50<br>for<br>tom</div></div><div class='respDivL'><div class='vertical-center'>(E)</div></div><div class='respDivR'><div class='vertical-center'>(I)</div></div></div>","E","$47<br>for<br>yourself","$50<br>for<br>5","0","47","50","5","SELF"
"","","","offerFB","627ea14463f25dce42e73d51","bdp_sd","Sun Mar 26 2023 12:58:38 GMT-0400 (Eastern Daylight Time)","219722","html-keyboard-response","47","194797","0.0-6.0-3.13","","null","","","<div class='trialBorder'><div class='vertical-center'><img style='vertical-align:center; align:center' src=img/fixation3.jpg></div><div class='cl'><div class='vertical-center'><font style='color:orange'>$47<br>for<br>yourself</font></div></div><div class='cr'><div class='vertical-center'>$50<br>for<br>tom</div></div><div class='respDivL'><div class='vertical-center'><font style='color:orange'>(E)</font></div></div><div class='respDivR'><div class='vertical-center'>(I)</div></div></div>","null","$47<br>for<br>yourself","$50<br>for<br>5","0","47","50","5",""
"","","","FIX","627ea14463f25dce42e73d51","bdp_sd","Sun Mar 26 2023 12:58:38 GMT-0400 (Eastern Daylight Time)","219722","html-keyboard-response","48","195301","0.0-6.0-1.14","","null","","","<div class='trialBorder'><div class='vertical-center'><img style='vertical-align:center; align:center' src=img/fixation3.jpg></div></div>","null","","","","","","",""
"","","","offer","627ea14463f25dce42e73d51","bdp_sd","Sun Mar 26 2023 12:58:38 GMT-0400 (Eastern Daylight Time)","219722","html-keyboard-response","49","195798","0.0-6.0-2.14","","496","","","<div class='trialBorder'><div class='vertical-center'><img style='vertical-align:center; align:center' src=img/fixation3.jpg></div><div class='cl'><div class='vertical-center'>$54<br>for<br>yourself</div></div><div class='cr'><div class='vertical-center'>$60<br>for<br>tom</div></div><div class='respDivL'><div class='vertical-center'>(E)</div></div><div class='respDivR'><div class='vertical-center'>(I)</div></div></div>","E","$54<br>for<br>yourself","$60<br>for<br>5","0","54","60","5","SELF"
"","","","offerFB","627ea14463f25dce42e73d51","bdp_sd","Sun Mar 26 2023 12:58:38 GMT-0400 (Eastern Daylight Time)","219722","html-keyboard-response","50","196055","0.0-6.0-3.14","","null","","","<div class='trialBorder'><div class='vertical-center'><img style='vertical-align:center; align:center' src=img/fixation3.jpg></div><div class='cl'><div class='vertical-center'><font style='color:orange'>$54<br>for<br>yourself</font></div></div><div class='cr'><div class='vertical-center'>$60<br>for<br>tom</div></div><div class='respDivL'><div class='vertical-center'><font style='color:orange'>(E)</font></div></div><div class='respDivR'><div class='vertical-center'>(I)</div></div></div>","null","$54<br>for<br>yourself","$60<br>for<br>5","0","54","60","5",""
"","","","FIX","627ea14463f25dce42e73d51","bdp_sd","Sun Mar 26 2023 12:58:38 GMT-0400 (Eastern Daylight Time)","219722","html-keyboard-response","51","196560","0.0-6.0-1.15","","null","","","<div class='trialBorder'><div class='vertical-center'><img style='vertical-align:center; align:center' src=img/fixation3.jpg></div></div>","null","","","","","","",""
"","","","offer","627ea14463f25dce42e73d51","bdp_sd","Sun Mar 26 2023 12:58:38 GMT-0400 (Eastern Daylight Time)","219722","html-keyboard-response","52","198686","0.0-6.0-2.15","","2126","","","<div class='trialBorder'><div class='vertical-center'><img style='vertical-align:center; align:center' src=img/fixation3.jpg></div><div class='cl'><div class='vertical-center'>$35<br>for<br>blake</div></div><div class='cr'><div class='vertical-center'>$15<br>for<br>yourself</div></div><div class='respDivL'><div class='vertical-center'>(E)</div></div><div class='respDivR'><div class='vertical-center'>(I)</div></div></div>","E","$15<br>for<br>yourself","$35<br>for<br>2","1","15","35","2","OTHER"
"","","","offerFB","627ea14463f25dce42e73d51","bdp_sd","Sun Mar 26 2023 12:58:38 GMT-0400 (Eastern Daylight Time)","219722","html-keyboard-response","53","198951","0.0-6.0-3.15","","null","","","<div class='trialBorder'><div class='vertical-center'><img style='vertical-align:center; align:center' src=img/fixation3.jpg></div><div class='cl'><div class='vertical-center'><font style='color:orange'>$35<br>for<br>blake</font></div></div><div class='cr'><div class='vertical-center'>$15<br>for<br>yourself</div></div><div class='respDivL'><div class='vertical-center'><font style='color:orange'>(E)</font></div></div><div class='respDivR'><div class='vertical-center'>(I)</div></div></div>","null","$15<br>for<br>yourself","$35<br>for<br>2","1","15","35","2",""
"","","","FIX","627ea14463f25dce42e73d51","bdp_sd","Sun Mar 26 2023 12:58:38 GMT-0400 (Eastern Daylight Time)","219722","html-keyboard-response","54","199460","0.0-6.0-1.16","","null","","","<div class='trialBorder'><div class='vertical-center'><img style='vertical-align:center; align:center' src=img/fixation3.jpg></div></div>","null","","","","","","",""
"","","","offer","627ea14463f25dce42e73d51","bdp_sd","Sun Mar 26 2023 12:58:38 GMT-0400 (Eastern Daylight Time)","219722","html-keyboard-response","55","200709","0.0-6.0-2.16","","1248","","","<div class='trialBorder'><div class='vertical-center'><img style='vertical-align:center; align:center' src=img/fixation3.jpg></div><div class='cl'><div class='vertical-center'>$80<br>for<br>blake</div></div><div class='cr'><div class='vertical-center'>$33<br>for<br>yourself</div></div><div class='respDivL'><div class='vertical-center'>(E)</div></div><div class='respDivR'><div class='vertical-center'>(I)</div></div></div>","I","$33<br>for<br>yourself","$80<br>for<br>2","1","33","80","2","SELF"
"","","","offerFB","627ea14463f25dce42e73d51","bdp_sd","Sun Mar 26 2023 12:58:38 GMT-0400 (Eastern Daylight Time)","219722","html-keyboard-response","56","200962","0.0-6.0-3.16","","null","","","<div class='trialBorder'><div class='vertical-center'><img style='vertical-align:center; align:center' src=img/fixation3.jpg></div><div class='cl'><div class='vertical-center'>$80<br>for<br>blake</div></div><div class='cr'><div class='vertical-center'><font style='color:orange'>$33<br>for<br>yourself</font></div></div><div class='respDivL'><div class='vertical-center'>(E)</div></div><div class='respDivR'><div class='vertical-center'><font style='color:orange'>(I)</font></div></div></div>","null","$33<br>for<br>yourself","$80<br>for<br>2","1","33","80","2",""
"","","","FIX","627ea14463f25dce42e73d51","bdp_sd","Sun Mar 26 2023 12:58:38 GMT-0400 (Eastern Daylight Time)","219722","html-keyboard-response","57","201474","0.0-6.0-1.17","","null","","","<div class='trialBorder'><div class='vertical-center'><img style='vertical-align:center; align:center' src=img/fixation3.jpg></div></div>","null","","","","","","",""
"","","","offer","627ea14463f25dce42e73d51","bdp_sd","Sun Mar 26 2023 12:58:38 GMT-0400 (Eastern Daylight Time)","219722","html-keyboard-response","58","202920","0.0-6.0-2.17","","1446","","","<div class='trialBorder'><div class='vertical-center'><img style='vertical-align:center; align:center' src=img/fixation3.jpg></div><div class='cl'><div class='vertical-center'>$55<br>for<br>yourself</div></div><div class='cr'><div class='vertical-center'>$75<br>for<br>kate</div></div><div class='respDivL'><div class='vertical-center'>(E)</div></div><div class='respDivR'><div class='vertical-center'>(I)</div></div></div>","I","$55<br>for<br>yourself","$75<br>for<br>4","0","55","75","4","OTHER"
"","","","offerFB","627ea14463f25dce42e73d51","bdp_sd","Sun Mar 26 2023 12:58:38 GMT-0400 (Eastern Daylight Time)","219722","html-keyboard-response","59","203171","0.0-6.0-3.17","","null","","","<div class='trialBorder'><div class='vertical-center'><img style='vertical-align:center; align:center' src=img/fixation3.jpg></div><div class='cl'><div class='vertical-center'>$55<br>for<br>yourself</div></div><div class='cr'><div class='vertical-center'><font style='color:orange'>$75<br>for<br>kate</font></div></div><div class='respDivL'><div class='vertical-center'>(E)</div></div><div class='respDivR'><div class='vertical-center'><font style='color:orange'>(I)</font></div></div></div>","null","$55<br>for<br>yourself","$75<br>for<br>4","0","55","75","4",""
"","","","FIX","627ea14463f25dce42e73d51","bdp_sd","Sun Mar 26 2023 12:58:38 GMT-0400 (Eastern Daylight Time)","219722","html-keyboard-response","60","203681","0.0-6.0-1.18","","null","","","<div class='trialBorder'><div class='vertical-center'><img style='vertical-align:center; align:center' src=img/fixation3.jpg></div></div>","null","","","","","","",""
"","","","offer","627ea14463f25dce42e73d51","bdp_sd","Sun Mar 26 2023 12:58:38 GMT-0400 (Eastern Daylight Time)","219722","html-keyboard-response","61","204320","0.0-6.0-2.18","","638","","","<div class='trialBorder'><div class='vertical-center'><img style='vertical-align:center; align:center' src=img/fixation3.jpg></div><div class='cl'><div class='vertical-center'>$55<br>for<br>kate</div></div><div class='cr'><div class='vertical-center'>$40<br>for<br>yourself</div></div><div class='respDivL'><div class='vertical-center'>(E)</div></div><div class='respDivR'><div class='vertical-center'>(I)</div></div></div>","I","$40<br>for<br>yourself","$55<br>for<br>4","1","40","55","4","SELF"
"","","","offerFB","627ea14463f25dce42e73d51","bdp_sd","Sun Mar 26 2023 12:58:38 GMT-0400 (Eastern Daylight Time)","219722","html-keyboard-response","62","204572","0.0-6.0-3.18","","null","","","<div class='trialBorder'><div class='vertical-center'><img style='vertical-align:center; align:center' src=img/fixation3.jpg></div><div class='cl'><div class='vertical-center'>$55<br>for<br>kate</div></div><div class='cr'><div class='vertical-center'><font style='color:orange'>$40<br>for<br>yourself</font></div></div><div class='respDivL'><div class='vertical-center'>(E)</div></div><div class='respDivR'><div class='vertical-center'><font style='color:orange'>(I)</font></div></div></div>","null","$40<br>for<br>yourself","$55<br>for<br>4","1","40","55","4",""
"","","","FIX","627ea14463f25dce42e73d51","bdp_sd","Sun Mar 26 2023 12:58:38 GMT-0400 (Eastern Daylight Time)","219722","html-keyboard-response","63","205078","0.0-6.0-1.19","","null","","","<div class='trialBorder'><div class='vertical-center'><img style='vertical-align:center; align:center' src=img/fixation3.jpg></div></div>","null","","","","","","",""
"","","","offer","627ea14463f25dce42e73d51","bdp_sd","Sun Mar 26 2023 12:58:38 GMT-0400 (Eastern Daylight Time)","219722","html-keyboard-response","64","205777","0.0-6.0-2.19","","698","","","<div class='trialBorder'><div class='vertical-center'><img style='vertical-align:center; align:center' src=img/fixation3.jpg></div><div class='cl'><div class='vertical-center'>$60<br>for<br>kate</div></div><div class='cr'><div class='vertical-center'>$49<br>for<br>yourself</div></div><div class='respDivL'><div class='vertical-center'>(E)</div></div><div class='respDivR'><div class='vertical-center'>(I)</div></div></div>","I","$49<br>for<br>yourself","$60<br>for<br>4","1","49","60","4","SELF"
"","","","offerFB","627ea14463f25dce42e73d51","bdp_sd","Sun Mar 26 2023 12:58:38 GMT-0400 (Eastern Daylight Time)","219722","html-keyboard-response","65","206042","0.0-6.0-3.19","","null","","","<div class='trialBorder'><div class='vertical-center'><img style='vertical-align:center; align:center' src=img/fixation3.jpg></div><div class='cl'><div class='vertical-center'>$60<br>for<br>kate</div></div><div class='cr'><div class='vertical-center'><font style='color:orange'>$49<br>for<br>yourself</font></div></div><div class='respDivL'><div class='vertical-center'>(E)</div></div><div class='respDivR'><div class='vertical-center'><font style='color:orange'>(I)</font></div></div></div>","null","$49<br>for<br>yourself","$60<br>for<br>4","1","49","60","4",""
"","","","FIX","627ea14463f25dce42e73d51","bdp_sd","Sun Mar 26 2023 12:58:38 GMT-0400 (Eastern Daylight Time)","219722","html-keyboard-response","66","206557","0.0-6.0-1.20","","null","","","<div class='trialBorder'><div class='vertical-center'><img style='vertical-align:center; align:center' src=img/fixation3.jpg></div></div>","null","","","","","","",""
"","","","offer","627ea14463f25dce42e73d51","bdp_sd","Sun Mar 26 2023 12:58:38 GMT-0400 (Eastern Daylight Time)","219722","html-keyboard-response","67","207612","0.0-6.0-2.20","","1054","","","<div class='trialBorder'><div class='vertical-center'><img style='vertical-align:center; align:center' src=img/fixation3.jpg></div><div class='cl'><div class='vertical-center'>$85<br>for<br>kate</div></div><div class='cr'><div class='vertical-center'>$69<br>for<br>yourself</div></div><div class='respDivL'><div class='vertical-center'>(E)</div></div><div class='respDivR'><div class='vertical-center'>(I)</div></div></div>","E","$69<br>for<br>yourself","$85<br>for<br>4","1","69","85","4","OTHER"
"","","","offerFB","627ea14463f25dce42e73d51","bdp_sd","Sun Mar 26 2023 12:58:38 GMT-0400 (Eastern Daylight Time)","219722","html-keyboard-response","68","207864","0.0-6.0-3.20","","null","","","<div class='trialBorder'><div class='vertical-center'><img style='vertical-align:center; align:center' src=img/fixation3.jpg></div><div class='cl'><div class='vertical-center'><font style='color:orange'>$85<br>for<br>kate</font></div></div><div class='cr'><div class='vertical-center'>$69<br>for<br>yourself</div></div><div class='respDivL'><div class='vertical-center'><font style='color:orange'>(E)</font></div></div><div class='respDivR'><div class='vertical-center'>(I)</div></div></div>","null","$69<br>for<br>yourself","$85<br>for<br>4","1","69","85","4",""
"","","","FIX","627ea14463f25dce42e73d51","bdp_sd","Sun Mar 26 2023 12:58:38 GMT-0400 (Eastern Daylight Time)","219722","html-keyboard-response","69","208366","0.0-6.0-1.21","","null","","","<div class='trialBorder'><div class='vertical-center'><img style='vertical-align:center; align:center' src=img/fixation3.jpg></div></div>","null","","","","","","",""
"","","","offer","627ea14463f25dce42e73d51","bdp_sd","Sun Mar 26 2023 12:58:38 GMT-0400 (Eastern Daylight Time)","219722","html-keyboard-response","70","209779","0.0-6.0-2.21","","1413","","","<div class='trialBorder'><div class='vertical-center'><img style='vertical-align:center; align:center' src=img/fixation3.jpg></div><div class='cl'><div class='vertical-center'>$25<br>for<br>kate</div></div><div class='cr'><div class='vertical-center'>$19<br>for<br>yourself</div></div><div class='respDivL'><div class='vertical-center'>(E)</div></div><div class='respDivR'><div class='vertical-center'>(I)</div></div></div>","E","$19<br>for<br>yourself","$25<br>for<br>4","1","19","25","4","OTHER"
"","","","offerFB","627ea14463f25dce42e73d51","bdp_sd","Sun Mar 26 2023 12:58:38 GMT-0400 (Eastern Daylight Time)","219722","html-keyboard-response","71","210030","0.0-6.0-3.21","","null","","","<div class='trialBorder'><div class='vertical-center'><img style='vertical-align:center; align:center' src=img/fixation3.jpg></div><div class='cl'><div class='vertical-center'><font style='color:orange'>$25<br>for<br>kate</font></div></div><div class='cr'><div class='vertical-center'>$19<br>for<br>yourself</div></div><div class='respDivL'><div class='vertical-center'><font style='color:orange'>(E)</font></div></div><div class='respDivR'><div class='vertical-center'>(I)</div></div></div>","null","$19<br>for<br>yourself","$25<br>for<br>4","1","19","25","4",""
"","","","FIX","627ea14463f25dce42e73d51","bdp_sd","Sun Mar 26 2023 12:58:38 GMT-0400 (Eastern Daylight Time)","219722","html-keyboard-response","72","210543","0.0-6.0-1.22","","null","","","<div class='trialBorder'><div class='vertical-center'><img style='vertical-align:center; align:center' src=img/fixation3.jpg></div></div>","null","","","","","","",""
"","","","offer","627ea14463f25dce42e73d51","bdp_sd","Sun Mar 26 2023 12:58:38 GMT-0400 (Eastern Daylight Time)","219722","html-keyboard-response","73","212420","0.0-6.0-2.22","","1877","","","<div class='trialBorder'><div class='vertical-center'><img style='vertical-align:center; align:center' src=img/fixation3.jpg></div><div class='cl'><div class='vertical-center'>$25<br>for<br>yourself</div></div><div class='cr'><div class='vertical-center'>$60<br>for<br>thamas</div></div><div class='respDivL'><div class='vertical-center'>(E)</div></div><div class='respDivR'><div class='vertical-center'>(I)</div></div></div>","I","$25<br>for<br>yourself","$60<br>for<br>3","0","25","60","3","OTHER"
"","","","offerFB","627ea14463f25dce42e73d51","bdp_sd","Sun Mar 26 2023 12:58:38 GMT-0400 (Eastern Daylight Time)","219722","html-keyboard-response","74","212685","0.0-6.0-3.22","","null","","","<div class='trialBorder'><div class='vertical-center'><img style='vertical-align:center; align:center' src=img/fixation3.jpg></div><div class='cl'><div class='vertical-center'>$25<br>for<br>yourself</div></div><div class='cr'><div class='vertical-center'><font style='color:orange'>$60<br>for<br>thamas</font></div></div><div class='respDivL'><div class='vertical-center'>(E)</div></div><div class='respDivR'><div class='vertical-center'><font style='color:orange'>(I)</font></div></div></div>","null","$25<br>for<br>yourself","$60<br>for<br>3","0","25","60","3",""
"","","","FIX","627ea14463f25dce42e73d51","bdp_sd","Sun Mar 26 2023 12:58:38 GMT-0400 (Eastern Daylight Time)","219722","html-keyboard-response","75","213190","0.0-6.0-1.23","","null","","","<div class='trialBorder'><div class='vertical-center'><img style='vertical-align:center; align:center' src=img/fixation3.jpg></div></div>","null","","","","","","",""
"","","","offer","627ea14463f25dce42e73d51","bdp_sd","Sun Mar 26 2023 12:58:38 GMT-0400 (Eastern Daylight Time)","219722","html-keyboard-response","76","214438","0.0-6.0-2.23","","1247","","","<div class='trialBorder'><div class='vertical-center'><img style='vertical-align:center; align:center' src=img/fixation3.jpg></div><div class='cl'><div class='vertical-center'>$80<br>for<br>thamas</div></div><div class='cr'><div class='vertical-center'>$54<br>for<br>yourself</div></div><div class='respDivL'><div class='vertical-center'>(E)</div></div><div class='respDivR'><div class='vertical-center'>(I)</div></div></div>","E","$54<br>for<br>yourself","$80<br>for<br>3","1","54","80","3","OTHER"
"","","","offerFB","627ea14463f25dce42e73d51","bdp_sd","Sun Mar 26 2023 12:58:38 GMT-0400 (Eastern Daylight Time)","219722","html-keyboard-response","77","214691","0.0-6.0-3.23","","null","","","<div class='trialBorder'><div class='vertical-center'><img style='vertical-align:center; align:center' src=img/fixation3.jpg></div><div class='cl'><div class='vertical-center'><font style='color:orange'>$80<br>for<br>thamas</font></div></div><div class='cr'><div class='vertical-center'>$54<br>for<br>yourself</div></div><div class='respDivL'><div class='vertical-center'><font style='color:orange'>(E)</font></div></div><div class='respDivR'><div class='vertical-center'>(I)</div></div></div>","null","$54<br>for<br>yourself","$80<br>for<br>3","1","54","80","3",""
"","","","FIX","627ea14463f25dce42e73d51","bdp_sd","Sun Mar 26 2023 12:58:38 GMT-0400 (Eastern Daylight Time)","219722","html-keyboard-response","78","215194","0.0-6.0-1.24","","null","","","<div class='trialBorder'><div class='vertical-center'><img style='vertical-align:center; align:center' src=img/fixation3.jpg></div></div>","null","","","","","","",""
"","","","offer","627ea14463f25dce42e73d51","bdp_sd","Sun Mar 26 2023 12:58:38 GMT-0400 (Eastern Daylight Time)","219722","html-keyboard-response","79","216085","0.0-6.0-2.24","","890","","","<div class='trialBorder'><div class='vertical-center'><img style='vertical-align:center; align:center' src=img/fixation3.jpg></div><div class='cl'><div class='vertical-center'>$50<br>for<br>thamas</div></div><div class='cr'><div class='vertical-center'>$27<br>for<br>yourself</div></div><div class='respDivL'><div class='vertical-center'>(E)</div></div><div class='respDivR'><div class='vertical-center'>(I)</div></div></div>","I","$27<br>for<br>yourself","$50<br>for<br>3","1","27","50","3","SELF"
"","","","offerFB","627ea14463f25dce42e73d51","bdp_sd","Sun Mar 26 2023 12:58:38 GMT-0400 (Eastern Daylight Time)","219722","html-keyboard-response","80","216348","0.0-6.0-3.24","","null","","","<div class='trialBorder'><div class='vertical-center'><img style='vertical-align:center; align:center' src=img/fixation3.jpg></div><div class='cl'><div class='vertical-center'>$50<br>for<br>thamas</div></div><div class='cr'><div class='vertical-center'><font style='color:orange'>$27<br>for<br>yourself</font></div></div><div class='respDivL'><div class='vertical-center'>(E)</div></div><div class='respDivR'><div class='vertical-center'><font style='color:orange'>(I)</font></div></div></div>","null","$27<br>for<br>yourself","$50<br>for<br>3","1","27","50","3",""
"","","","FIX","627ea14463f25dce42e73d51","bdp_sd","Sun Mar 26 2023 12:58:38 GMT-0400 (Eastern Daylight Time)","219722","html-keyboard-response","81","216863","0.0-6.0-1.25","","null","","","<div class='trialBorder'><div class='vertical-center'><img style='vertical-align:center; align:center' src=img/fixation3.jpg></div></div>","null","","","","","","",""
"","","","offer","627ea14463f25dce42e73d51","bdp_sd","Sun Mar 26 2023 12:58:38 GMT-0400 (Eastern Daylight Time)","219722","html-keyboard-response","82","217509","0.0-6.0-2.25","","645","","","<div class='trialBorder'><div class='vertical-center'><img style='vertical-align:center; align:center' src=img/fixation3.jpg></div><div class='cl'><div class='vertical-center'>$80<br>for<br>yourself</div></div><div class='cr'><div class='vertical-center'>$85<br>for<br>tom</div></div><div class='respDivL'><div class='vertical-center'>(E)</div></div><div class='respDivR'><div class='vertical-center'>(I)</div></div></div>","E","$80<br>for<br>yourself","$85<br>for<br>5","0","80","85","5","SELF"
"","","","offerFB","627ea14463f25dce42e73d51","bdp_sd","Sun Mar 26 2023 12:58:38 GMT-0400 (Eastern Daylight Time)","219722","html-keyboard-response","83","217768","0.0-6.0-3.25","","null","","","<div class='trialBorder'><div class='vertical-center'><img style='vertical-align:center; align:center' src=img/fixation3.jpg></div><div class='cl'><div class='vertical-center'><font style='color:orange'>$80<br>for<br>yourself</font></div></div><div class='cr'><div class='vertical-center'>$85<br>for<br>tom</div></div><div class='respDivL'><div class='vertical-center'><font style='color:orange'>(E)</font></div></div><div class='respDivR'><div class='vertical-center'>(I)</div></div></div>","null","$80<br>for<br>yourself","$85<br>for<br>5","0","80","85","5",""
"","","","FIX","627ea14463f25dce42e73d51","bdp_sd","Sun Mar 26 2023 12:58:38 GMT-0400 (Eastern Daylight Time)","219722","html-keyboard-response","84","218278","0.0-6.0-1.26","","null","","","<div class='trialBorder'><div class='vertical-center'><img style='vertical-align:center; align:center' src=img/fixation3.jpg></div></div>","null","","","","","","",""
"","","","offer","627ea14463f25dce42e73d51","bdp_sd","Sun Mar 26 2023 12:58:38 GMT-0400 (Eastern Daylight Time)","219722","html-keyboard-response","85","218451","0.0-6.0-2.26","","171","","","<div class='trialBorder'><div class='vertical-center'><img style='vertical-align:center; align:center' src=img/fixation3.jpg></div><div class='cl'><div class='vertical-center'>$24<br>for<br>yourself</div></div><div class='cr'><div class='vertical-center'>$35<br>for<br>thamas</div></div><div class='respDivL'><div class='vertical-center'>(E)</div></div><div class='respDivR'><div class='vertical-center'>(I)</div></div></div>","I","$24<br>for<br>yourself","$35<br>for<br>3","0","24","35","3","OTHER"
"","","","offerFB","627ea14463f25dce42e73d51","bdp_sd","Sun Mar 26 2023 12:58:38 GMT-0400 (Eastern Daylight Time)","219722","html-keyboard-response","86","218710","0.0-6.0-3.26","","null","","","<div class='trialBorder'><div class='vertical-center'><img style='vertical-align:center; align:center' src=img/fixation3.jpg></div><div class='cl'><div class='vertical-center'>$24<br>for<br>yourself</div></div><div class='cr'><div class='vertical-center'><font style='color:orange'>$35<br>for<br>thamas</font></div></div><div class='respDivL'><div class='vertical-center'>(E)</div></div><div class='respDivR'><div class='vertical-center'><font style='color:orange'>(I)</font></div></div></div>","null","$24<br>for<br>yourself","$35<br>for<br>3","0","24","35","3",""
"fullscreenexit","87","218942","fullscreenexit","627ea14463f25dce42e73d51","bdp_sd","Sun Mar 26 2023 12:58:38 GMT-0400 (Eastern Daylight Time)","219722","","","","","","","","","","","","","","","","",""
"","","","","627ea14463f25dce42e73d51","bdp_sd","Sun Mar 26 2023 12:58:38 GMT-0400 (Eastern Daylight Time)","219722","fullscreen","87","219722","0.0-7.0","","","","true","","","","","","","","",""
"","","","","","","","","html-keyboard-response","88","220237","0.0-8.0","","null","","","","null","","","","","","",""
