"trial_type","trial_index","time_elapsed","internal_node_id","subject_id","task","startTime","totalTime","view_history","rt","responses","event","trial","time","trialtype","success","stimulus","key_press","selfOffer","otherOffer","otherLeft","selfAmt","otherAmt","otherDist","chosen"
"pavlovia","0","3","0.0-0.0","60761cf3cc35a2a9b127b414","bdp_sd","Sun Mar 26 2023 18:36:14 GMT-0400 (Eastern Daylight Time)","157424","","","","","","","","","","","","","","","","",""
"instructions","1","1224","0.0-1.0","60761cf3cc35a2a9b127b414","bdp_sd","Sun Mar 26 2023 18:36:14 GMT-0400 (Eastern Daylight Time)","157424","[{""page_index"":0,""viewing_time"":1221}]","1221","","","","","","","","","","","","","","",""
"survey-text","2","64140","0.0-2.0","60761cf3cc35a2a9b127b414","bdp_sd","Sun Mar 26 2023 18:36:14 GMT-0400 (Eastern Daylight Time)","157424","","62914","{""Q0"":""Ashley M"",""Q1"":""Nas F"",""Q2"":""Andy L"",""Q3"":""Ken M"",""Q4"":""George B""}","","","","","","","","","","","","","",""
"","","","","60761cf3cc35a2a9b127b414","bdp_sd","Sun Mar 26 2023 18:36:14 GMT-0400 (Eastern Daylight Time)","157424","","","","fullscreenenter","3","65984","fullscreenenter","","","","","","","","","",""
"fullscreen","3","66965","0.0-3.0","60761cf3cc35a2a9b127b414","bdp_sd","Sun Mar 26 2023 18:36:14 GMT-0400 (Eastern Daylight Time)","157424","","","","","","","","true","","","","","","","","",""
"instructions","4","88345","0.0-5.0","60761cf3cc35a2a9b127b414","bdp_sd","Sun Mar 26 2023 18:36:14 GMT-0400 (Eastern Daylight Time)","157424","[{""page_index"":0,""viewing_time"":5332},{""page_index"":1,""viewing_time"":7749},{""page_index"":2,""viewing_time"":8298}]","21379","","","","","","","","","","","","","","",""
"html-keyboard-response","5","88848","0.0-6.0-1.0","60761cf3cc35a2a9b127b414","bdp_sd","Sun Mar 26 2023 18:36:14 GMT-0400 (Eastern Daylight Time)","157424","","null","","","","","FIX","","<div class='trialBorder'><div class='vertical-center'><img style='vertical-align:center; align:center' src=img/fixation3.jpg></div></div>","null","","","","","","",""
"html-keyboard-response","6","91054","0.0-6.0-2.0","60761cf3cc35a2a9b127b414","bdp_sd","Sun Mar 26 2023 18:36:14 GMT-0400 (Eastern Daylight Time)","157424","","2204","","","","","offer","","<div class='trialBorder'><div class='vertical-center'><img style='vertical-align:center; align:center' src=img/fixation3.jpg></div><div class='cl'><div class='vertical-center'>$75<br>for<br>George B</div></div><div class='cr'><div class='vertical-center'>$67<br>for<br>yourself</div></div><div class='respDivL'><div class='vertical-center'>(E)</div></div><div class='respDivR'><div class='vertical-center'>(I)</div></div></div>","I","$67<br>for<br>yourself","$75<br>for<br>5","1","67","75","5","SELF"
"html-keyboard-response","7","91307","0.0-6.0-3.0","60761cf3cc35a2a9b127b414","bdp_sd","Sun Mar 26 2023 18:36:14 GMT-0400 (Eastern Daylight Time)","157424","","null","","","","","offerFB","","<div class='trialBorder'><div class='vertical-center'><img style='vertical-align:center; align:center' src=img/fixation3.jpg></div><div class='cl'><div class='vertical-center'>$75<br>for<br>George B</div></div><div class='cr'><div class='vertical-center'><font style='color:orange'>$67<br>for<br>yourself</font></div></div><div class='respDivL'><div class='vertical-center'>(E)</div></div><div class='respDivR'><div class='vertical-center'><font style='color:orange'>(I)</font></div></div></div>","null","$67<br>for<br>yourself","$75<br>for<br>5","1","67","75","5",""
"html-keyboard-response","8","91809","0.0-6.0-1.1","60761cf3cc35a2a9b127b414","bdp_sd","Sun Mar 26 2023 18:36:14 GMT-0400 (Eastern Daylight Time)","157424","","null","","","","","FIX","","<div class='trialBorder'><div class='vertical-center'><img style='vertical-align:center; align:center' src=img/fixation3.jpg></div></div>","null","","","","","","",""
"html-keyboard-response","9","94055","0.0-6.0-2.1","60761cf3cc35a2a9b127b414","bdp_sd","Sun Mar 26 2023 18:36:14 GMT-0400 (Eastern Daylight Time)","157424","","2244","","","","","offer","","<div class='trialBorder'><div class='vertical-center'><img style='vertical-align:center; align:center' src=img/fixation3.jpg></div><div class='cl'><div class='vertical-center'>$14<br>for<br>yourself</div></div><div class='cr'><div class='vertical-center'>$25<br>for<br>Andy L</div></div><div class='respDivL'><div class='vertical-center'>(E)</div></div><div class='respDivR'><div class='vertical-center'>(I)</div></div></div>","I","$14<br>for<br>yourself","$25<br>for<br>3","0","14","25","3","OTHER"
"html-keyboard-response","10","94307","0.0-6.0-3.1","60761cf3cc35a2a9b127b414","bdp_sd","Sun Mar 26 2023 18:36:14 GMT-0400 (Eastern Daylight Time)","157424","","null","","","","","offerFB","","<div class='trialBorder'><div class='vertical-center'><img style='vertical-align:center; align:center' src=img/fixation3.jpg></div><div class='cl'><div class='vertical-center'>$14<br>for<br>yourself</div></div><div class='cr'><div class='vertical-center'><font style='color:orange'>$25<br>for<br>Andy L</font></div></div><div class='respDivL'><div class='vertical-center'>(E)</div></div><div class='respDivR'><div class='vertical-center'><font style='color:orange'>(I)</font></div></div></div>","null","$14<br>for<br>yourself","$25<br>for<br>3","0","14","25","3",""
"html-keyboard-response","11","94809","0.0-6.0-1.2","60761cf3cc35a2a9b127b414","bdp_sd","Sun Mar 26 2023 18:36:14 GMT-0400 (Eastern Daylight Time)","157424","","null","","","","","FIX","","<div class='trialBorder'><div class='vertical-center'><img style='vertical-align:center; align:center' src=img/fixation3.jpg></div></div>","null","","","","","","",""
"html-keyboard-response","12","96457","0.0-6.0-2.2","60761cf3cc35a2a9b127b414","bdp_sd","Sun Mar 26 2023 18:36:14 GMT-0400 (Eastern Daylight Time)","157424","","1647","","","","","offer","","<div class='trialBorder'><div class='vertical-center'><img style='vertical-align:center; align:center' src=img/fixation3.jpg></div><div class='cl'><div class='vertical-center'>$47<br>for<br>yourself</div></div><div class='cr'><div class='vertical-center'>$50<br>for<br>George B</div></div><div class='respDivL'><div class='vertical-center'>(E)</div></div><div class='respDivR'><div class='vertical-center'>(I)</div></div></div>","E","$47<br>for<br>yourself","$50<br>for<br>5","0","47","50","5","SELF"
"html-keyboard-response","13","96710","0.0-6.0-3.2","60761cf3cc35a2a9b127b414","bdp_sd","Sun Mar 26 2023 18:36:14 GMT-0400 (Eastern Daylight Time)","157424","","null","","","","","offerFB","","<div class='trialBorder'><div class='vertical-center'><img style='vertical-align:center; align:center' src=img/fixation3.jpg></div><div class='cl'><div class='vertical-center'><font style='color:orange'>$47<br>for<br>yourself</font></div></div><div class='cr'><div class='vertical-center'>$50<br>for<br>George B</div></div><div class='respDivL'><div class='vertical-center'><font style='color:orange'>(E)</font></div></div><div class='respDivR'><div class='vertical-center'>(I)</div></div></div>","null","$47<br>for<br>yourself","$50<br>for<br>5","0","47","50","5",""
"html-keyboard-response","14","97213","0.0-6.0-1.3","60761cf3cc35a2a9b127b414","bdp_sd","Sun Mar 26 2023 18:36:14 GMT-0400 (Eastern Daylight Time)","157424","","null","","","","","FIX","","<div class='trialBorder'><div class='vertical-center'><img style='vertical-align:center; align:center' src=img/fixation3.jpg></div></div>","null","","","","","","",""
"html-keyboard-response","15","98927","0.0-6.0-2.3","60761cf3cc35a2a9b127b414","bdp_sd","Sun Mar 26 2023 18:36:14 GMT-0400 (Eastern Daylight Time)","157424","","1713","","","","","offer","","<div class='trialBorder'><div class='vertical-center'><img style='vertical-align:center; align:center' src=img/fixation3.jpg></div><div class='cl'><div class='vertical-center'>$11<br>for<br>yourself</div></div><div class='cr'><div class='vertical-center'>$30<br>for<br>Nas F</div></div><div class='respDivL'><div class='vertical-center'>(E)</div></div><div class='respDivR'><div class='vertical-center'>(I)</div></div></div>","I","$11<br>for<br>yourself","$30<br>for<br>2","0","11","30","2","OTHER"
"html-keyboard-response","16","99180","0.0-6.0-3.3","60761cf3cc35a2a9b127b414","bdp_sd","Sun Mar 26 2023 18:36:14 GMT-0400 (Eastern Daylight Time)","157424","","null","","","","","offerFB","","<div class='trialBorder'><div class='vertical-center'><img style='vertical-align:center; align:center' src=img/fixation3.jpg></div><div class='cl'><div class='vertical-center'>$11<br>for<br>yourself</div></div><div class='cr'><div class='vertical-center'><font style='color:orange'>$30<br>for<br>Nas F</font></div></div><div class='respDivL'><div class='vertical-center'>(E)</div></div><div class='respDivR'><div class='vertical-center'><font style='color:orange'>(I)</font></div></div></div>","null","$11<br>for<br>yourself","$30<br>for<br>2","0","11","30","2",""
"html-keyboard-response","17","99683","0.0-6.0-1.4","60761cf3cc35a2a9b127b414","bdp_sd","Sun Mar 26 2023 18:36:14 GMT-0400 (Eastern Daylight Time)","157424","","null","","","","","FIX","","<div class='trialBorder'><div class='vertical-center'><img style='vertical-align:center; align:center' src=img/fixation3.jpg></div></div>","null","","","","","","",""
"html-keyboard-response","18","101220","0.0-6.0-2.4","60761cf3cc35a2a9b127b414","bdp_sd","Sun Mar 26 2023 18:36:14 GMT-0400 (Eastern Daylight Time)","157424","","1536","","","","","offer","","<div class='trialBorder'><div class='vertical-center'><img style='vertical-align:center; align:center' src=img/fixation3.jpg></div><div class='cl'><div class='vertical-center'>$80<br>for<br>Andy L</div></div><div class='cr'><div class='vertical-center'>$54<br>for<br>yourself</div></div><div class='respDivL'><div class='vertical-center'>(E)</div></div><div class='respDivR'><div class='vertical-center'>(I)</div></div></div>","E","$54<br>for<br>yourself","$80<br>for<br>3","1","54","80","3","OTHER"
"html-keyboard-response","19","101472","0.0-6.0-3.4","60761cf3cc35a2a9b127b414","bdp_sd","Sun Mar 26 2023 18:36:14 GMT-0400 (Eastern Daylight Time)","157424","","null","","","","","offerFB","","<div class='trialBorder'><div class='vertical-center'><img style='vertical-align:center; align:center' src=img/fixation3.jpg></div><div class='cl'><div class='vertical-center'><font style='color:orange'>$80<br>for<br>Andy L</font></div></div><div class='cr'><div class='vertical-center'>$54<br>for<br>yourself</div></div><div class='respDivL'><div class='vertical-center'><font style='color:orange'>(E)</font></div></div><div class='respDivR'><div class='vertical-center'>(I)</div></div></div>","null","$54<br>for<br>yourself","$80<br>for<br>3","1","54","80","3",""
"html-keyboard-response","20","101975","0.0-6.0-1.5","60761cf3cc35a2a9b127b414","bdp_sd","Sun Mar 26 2023 18:36:14 GMT-0400 (Eastern Daylight Time)","157424","","null","","","","","FIX","","<div class='trialBorder'><div class='vertical-center'><img style='vertical-align:center; align:center' src=img/fixation3.jpg></div></div>","null","","","","","","",""
"html-keyboard-response","21","104447","0.0-6.0-2.5","60761cf3cc35a2a9b127b414","bdp_sd","Sun Mar 26 2023 18:36:14 GMT-0400 (Eastern Daylight Time)","157424","","2471","","","","","offer","","<div class='trialBorder'><div class='vertical-center'><img style='vertical-align:center; align:center' src=img/fixation3.jpg></div><div class='cl'><div class='vertical-center'>$25<br>for<br>George B</div></div><div class='cr'><div class='vertical-center'>$22<br>for<br>yourself</div></div><div class='respDivL'><div class='vertical-center'>(E)</div></div><div class='respDivR'><div class='vertical-center'>(I)</div></div></div>","E","$22<br>for<br>yourself","$25<br>for<br>5","1","22","25","5","OTHER"
"html-keyboard-response","22","104700","0.0-6.0-3.5","60761cf3cc35a2a9b127b414","bdp_sd","Sun Mar 26 2023 18:36:14 GMT-0400 (Eastern Daylight Time)","157424","","null","","","","","offerFB","","<div class='trialBorder'><div class='vertical-center'><img style='vertical-align:center; align:center' src=img/fixation3.jpg></div><div class='cl'><div class='vertical-center'><font style='color:orange'>$25<br>for<br>George B</font></div></div><div class='cr'><div class='vertical-center'>$22<br>for<br>yourself</div></div><div class='respDivL'><div class='vertical-center'><font style='color:orange'>(E)</font></div></div><div class='respDivR'><div class='vertical-center'>(I)</div></div></div>","null","$22<br>for<br>yourself","$25<br>for<br>5","1","22","25","5",""
"html-keyboard-response","23","105202","0.0-6.0-1.6","60761cf3cc35a2a9b127b414","bdp_sd","Sun Mar 26 2023 18:36:14 GMT-0400 (Eastern Daylight Time)","157424","","null","","","","","FIX","","<div class='trialBorder'><div class='vertical-center'><img style='vertical-align:center; align:center' src=img/fixation3.jpg></div></div>","null","","","","","","",""
"html-keyboard-response","24","106386","0.0-6.0-2.6","60761cf3cc35a2a9b127b414","bdp_sd","Sun Mar 26 2023 18:36:14 GMT-0400 (Eastern Daylight Time)","157424","","1182","","","","","offer","","<div class='trialBorder'><div class='vertical-center'><img style='vertical-align:center; align:center' src=img/fixation3.jpg></div><div class='cl'><div class='vertical-center'>$35<br>for<br>Andy L</div></div><div class='cr'><div class='vertical-center'>$24<br>for<br>yourself</div></div><div class='respDivL'><div class='vertical-center'>(E)</div></div><div class='respDivR'><div class='vertical-center'>(I)</div></div></div>","E","$24<br>for<br>yourself","$35<br>for<br>3","1","24","35","3","OTHER"
"html-keyboard-response","25","106639","0.0-6.0-3.6","60761cf3cc35a2a9b127b414","bdp_sd","Sun Mar 26 2023 18:36:14 GMT-0400 (Eastern Daylight Time)","157424","","null","","","","","offerFB","","<div class='trialBorder'><div class='vertical-center'><img style='vertical-align:center; align:center' src=img/fixation3.jpg></div><div class='cl'><div class='vertical-center'><font style='color:orange'>$35<br>for<br>Andy L</font></div></div><div class='cr'><div class='vertical-center'>$24<br>for<br>yourself</div></div><div class='respDivL'><div class='vertical-center'><font style='color:orange'>(E)</font></div></div><div class='respDivR'><div class='vertical-center'>(I)</div></div></div>","null","$24<br>for<br>yourself","$35<br>for<br>3","1","24","35","3",""
"html-keyboard-response","26","107141","0.0-6.0-1.7","60761cf3cc35a2a9b127b414","bdp_sd","Sun Mar 26 2023 18:36:14 GMT-0400 (Eastern Daylight Time)","157424","","null","","","","","FIX","","<div class='trialBorder'><div class='vertical-center'><img style='vertical-align:center; align:center' src=img/fixation3.jpg></div></div>","null","","","","","","",""
"html-keyboard-response","27","108555","0.0-6.0-2.7","60761cf3cc35a2a9b127b414","bdp_sd","Sun Mar 26 2023 18:36:14 GMT-0400 (Eastern Daylight Time)","157424","","1413","","","","","offer","","<div class='trialBorder'><div class='vertical-center'><img style='vertical-align:center; align:center' src=img/fixation3.jpg></div><div class='cl'><div class='vertical-center'>$35<br>for<br>George B</div></div><div class='cr'><div class='vertical-center'>$34<br>for<br>yourself</div></div><div class='respDivL'><div class='vertical-center'>(E)</div></div><div class='respDivR'><div class='vertical-center'>(I)</div></div></div>","I","$34<br>for<br>yourself","$35<br>for<br>5","1","34","35","5","SELF"
"html-keyboard-response","28","108809","0.0-6.0-3.7","60761cf3cc35a2a9b127b414","bdp_sd","Sun Mar 26 2023 18:36:14 GMT-0400 (Eastern Daylight Time)","157424","","null","","","","","offerFB","","<div class='trialBorder'><div class='vertical-center'><img style='vertical-align:center; align:center' src=img/fixation3.jpg></div><div class='cl'><div class='vertical-center'>$35<br>for<br>George B</div></div><div class='cr'><div class='vertical-center'><font style='color:orange'>$34<br>for<br>yourself</font></div></div><div class='respDivL'><div class='vertical-center'>(E)</div></div><div class='respDivR'><div class='vertical-center'><font style='color:orange'>(I)</font></div></div></div>","null","$34<br>for<br>yourself","$35<br>for<br>5","1","34","35","5",""
"html-keyboard-response","29","109310","0.0-6.0-1.8","60761cf3cc35a2a9b127b414","bdp_sd","Sun Mar 26 2023 18:36:14 GMT-0400 (Eastern Daylight Time)","157424","","null","","","","","FIX","","<div class='trialBorder'><div class='vertical-center'><img style='vertical-align:center; align:center' src=img/fixation3.jpg></div></div>","null","","","","","","",""
"html-keyboard-response","30","110509","0.0-6.0-2.8","60761cf3cc35a2a9b127b414","bdp_sd","Sun Mar 26 2023 18:36:14 GMT-0400 (Eastern Daylight Time)","157424","","1198","","","","","offer","","<div class='trialBorder'><div class='vertical-center'><img style='vertical-align:center; align:center' src=img/fixation3.jpg></div><div class='cl'><div class='vertical-center'>$80<br>for<br>Nas F</div></div><div class='cr'><div class='vertical-center'>$33<br>for<br>yourself</div></div><div class='respDivL'><div class='vertical-center'>(E)</div></div><div class='respDivR'><div class='vertical-center'>(I)</div></div></div>","E","$33<br>for<br>yourself","$80<br>for<br>2","1","33","80","2","OTHER"
"html-keyboard-response","31","110761","0.0-6.0-3.8","60761cf3cc35a2a9b127b414","bdp_sd","Sun Mar 26 2023 18:36:14 GMT-0400 (Eastern Daylight Time)","157424","","null","","","","","offerFB","","<div class='trialBorder'><div class='vertical-center'><img style='vertical-align:center; align:center' src=img/fixation3.jpg></div><div class='cl'><div class='vertical-center'><font style='color:orange'>$80<br>for<br>Nas F</font></div></div><div class='cr'><div class='vertical-center'>$33<br>for<br>yourself</div></div><div class='respDivL'><div class='vertical-center'><font style='color:orange'>(E)</font></div></div><div class='respDivR'><div class='vertical-center'>(I)</div></div></div>","null","$33<br>for<br>yourself","$80<br>for<br>2","1","33","80","2",""
"html-keyboard-response","32","111263","0.0-6.0-1.9","60761cf3cc35a2a9b127b414","bdp_sd","Sun Mar 26 2023 18:36:14 GMT-0400 (Eastern Daylight Time)","157424","","null","","","","","FIX","","<div class='trialBorder'><div class='vertical-center'><img style='vertical-align:center; align:center' src=img/fixation3.jpg></div></div>","null","","","","","","",""
"html-keyboard-response","33","114277","0.0-6.0-2.9","60761cf3cc35a2a9b127b414","bdp_sd","Sun Mar 26 2023 18:36:14 GMT-0400 (Eastern Daylight Time)","157424","","3013","","","","","offer","","<div class='trialBorder'><div class='vertical-center'><img style='vertical-align:center; align:center' src=img/fixation3.jpg></div><div class='cl'><div class='vertical-center'>$54<br>for<br>yourself</div></div><div class='cr'><div class='vertical-center'>$60<br>for<br>George B</div></div><div class='respDivL'><div class='vertical-center'>(E)</div></div><div class='respDivR'><div class='vertical-center'>(I)</div></div></div>","E","$54<br>for<br>yourself","$60<br>for<br>5","0","54","60","5","SELF"
"html-keyboard-response","34","114530","0.0-6.0-3.9","60761cf3cc35a2a9b127b414","bdp_sd","Sun Mar 26 2023 18:36:14 GMT-0400 (Eastern Daylight Time)","157424","","null","","","","","offerFB","","<div class='trialBorder'><div class='vertical-center'><img style='vertical-align:center; align:center' src=img/fixation3.jpg></div><div class='cl'><div class='vertical-center'><font style='color:orange'>$54<br>for<br>yourself</font></div></div><div class='cr'><div class='vertical-center'>$60<br>for<br>George B</div></div><div class='respDivL'><div class='vertical-center'><font style='color:orange'>(E)</font></div></div><div class='respDivR'><div class='vertical-center'>(I)</div></div></div>","null","$54<br>for<br>yourself","$60<br>for<br>5","0","54","60","5",""
"html-keyboard-response","35","115033","0.0-6.0-1.10","60761cf3cc35a2a9b127b414","bdp_sd","Sun Mar 26 2023 18:36:14 GMT-0400 (Eastern Daylight Time)","157424","","null","","","","","FIX","","<div class='trialBorder'><div class='vertical-center'><img style='vertical-align:center; align:center' src=img/fixation3.jpg></div></div>","null","","","","","","",""
"html-keyboard-response","36","116701","0.0-6.0-2.10","60761cf3cc35a2a9b127b414","bdp_sd","Sun Mar 26 2023 18:36:14 GMT-0400 (Eastern Daylight Time)","157424","","1667","","","","","offer","","<div class='trialBorder'><div class='vertical-center'><img style='vertical-align:center; align:center' src=img/fixation3.jpg></div><div class='cl'><div class='vertical-center'>$80<br>for<br>George B</div></div><div class='cr'><div class='vertical-center'>$78<br>for<br>yourself</div></div><div class='respDivL'><div class='vertical-center'>(E)</div></div><div class='respDivR'><div class='vertical-center'>(I)</div></div></div>","E","$78<br>for<br>yourself","$80<br>for<br>5","1","78","80","5","OTHER"
"html-keyboard-response","37","116953","0.0-6.0-3.10","60761cf3cc35a2a9b127b414","bdp_sd","Sun Mar 26 2023 18:36:14 GMT-0400 (Eastern Daylight Time)","157424","","null","","","","","offerFB","","<div class='trialBorder'><div class='vertical-center'><img style='vertical-align:center; align:center' src=img/fixation3.jpg></div><div class='cl'><div class='vertical-center'><font style='color:orange'>$80<br>for<br>George B</font></div></div><div class='cr'><div class='vertical-center'>$78<br>for<br>yourself</div></div><div class='respDivL'><div class='vertical-center'><font style='color:orange'>(E)</font></div></div><div class='respDivR'><div class='vertical-center'>(I)</div></div></div>","null","$78<br>for<br>yourself","$80<br>for<br>5","1","78","80","5",""
"html-keyboard-response","38","117455","0.0-6.0-1.11","60761cf3cc35a2a9b127b414","bdp_sd","Sun Mar 26 2023 18:36:14 GMT-0400 (Eastern Daylight Time)","157424","","null","","","","","FIX","","<div class='trialBorder'><div class='vertical-center'><img style='vertical-align:center; align:center' src=img/fixation3.jpg></div></div>","null","","","","","","",""
"html-keyboard-response","39","118714","0.0-6.0-2.11","60761cf3cc35a2a9b127b414","bdp_sd","Sun Mar 26 2023 18:36:14 GMT-0400 (Eastern Daylight Time)","157424","","1257","","","","","offer","","<div class='trialBorder'><div class='vertical-center'><img style='vertical-align:center; align:center' src=img/fixation3.jpg></div><div class='cl'><div class='vertical-center'>$55<br>for<br>George B</div></div><div class='cr'><div class='vertical-center'>$54<br>for<br>yourself</div></div><div class='respDivL'><div class='vertical-center'>(E)</div></div><div class='respDivR'><div class='vertical-center'>(I)</div></div></div>","I","$54<br>for<br>yourself","$55<br>for<br>5","1","54","55","5","SELF"
"html-keyboard-response","40","118966","0.0-6.0-3.11","60761cf3cc35a2a9b127b414","bdp_sd","Sun Mar 26 2023 18:36:14 GMT-0400 (Eastern Daylight Time)","157424","","null","","","","","offerFB","","<div class='trialBorder'><div class='vertical-center'><img style='vertical-align:center; align:center' src=img/fixation3.jpg></div><div class='cl'><div class='vertical-center'>$55<br>for<br>George B</div></div><div class='cr'><div class='vertical-center'><font style='color:orange'>$54<br>for<br>yourself</font></div></div><div class='respDivL'><div class='vertical-center'>(E)</div></div><div class='respDivR'><div class='vertical-center'><font style='color:orange'>(I)</font></div></div></div>","null","$54<br>for<br>yourself","$55<br>for<br>5","1","54","55","5",""
"html-keyboard-response","41","119467","0.0-6.0-1.12","60761cf3cc35a2a9b127b414","bdp_sd","Sun Mar 26 2023 18:36:14 GMT-0400 (Eastern Daylight Time)","157424","","null","","","","","FIX","","<div class='trialBorder'><div class='vertical-center'><img style='vertical-align:center; align:center' src=img/fixation3.jpg></div></div>","null","","","","","","",""
"html-keyboard-response","42","121171","0.0-6.0-2.12","60761cf3cc35a2a9b127b414","bdp_sd","Sun Mar 26 2023 18:36:14 GMT-0400 (Eastern Daylight Time)","157424","","1701","","","","","offer","","<div class='trialBorder'><div class='vertical-center'><img style='vertical-align:center; align:center' src=img/fixation3.jpg></div><div class='cl'><div class='vertical-center'>$60<br>for<br>Ken M</div></div><div class='cr'><div class='vertical-center'>$49<br>for<br>yourself</div></div><div class='respDivL'><div class='vertical-center'>(E)</div></div><div class='respDivR'><div class='vertical-center'>(I)</div></div></div>","E","$49<br>for<br>yourself","$60<br>for<br>4","1","49","60","4","OTHER"
"html-keyboard-response","43","121423","0.0-6.0-3.12","60761cf3cc35a2a9b127b414","bdp_sd","Sun Mar 26 2023 18:36:14 GMT-0400 (Eastern Daylight Time)","157424","","null","","","","","offerFB","","<div class='trialBorder'><div class='vertical-center'><img style='vertical-align:center; align:center' src=img/fixation3.jpg></div><div class='cl'><div class='vertical-center'><font style='color:orange'>$60<br>for<br>Ken M</font></div></div><div class='cr'><div class='vertical-center'>$49<br>for<br>yourself</div></div><div class='respDivL'><div class='vertical-center'><font style='color:orange'>(E)</font></div></div><div class='respDivR'><div class='vertical-center'>(I)</div></div></div>","null","$49<br>for<br>yourself","$60<br>for<br>4","1","49","60","4",""
"html-keyboard-response","44","121925","0.0-6.0-1.13","60761cf3cc35a2a9b127b414","bdp_sd","Sun Mar 26 2023 18:36:14 GMT-0400 (Eastern Daylight Time)","157424","","null","","","","","FIX","","<div class='trialBorder'><div class='vertical-center'><img style='vertical-align:center; align:center' src=img/fixation3.jpg></div></div>","null","","","","","","",""
"html-keyboard-response","45","123115","0.0-6.0-2.13","60761cf3cc35a2a9b127b414","bdp_sd","Sun Mar 26 2023 18:36:14 GMT-0400 (Eastern Daylight Time)","157424","","1189","","","","","offer","","<div class='trialBorder'><div class='vertical-center'><img style='vertical-align:center; align:center' src=img/fixation3.jpg></div><div class='cl'><div class='vertical-center'>$35<br>for<br>Nas F</div></div><div class='cr'><div class='vertical-center'>$15<br>for<br>yourself</div></div><div class='respDivL'><div class='vertical-center'>(E)</div></div><div class='respDivR'><div class='vertical-center'>(I)</div></div></div>","E","$15<br>for<br>yourself","$35<br>for<br>2","1","15","35","2","OTHER"
"html-keyboard-response","46","123367","0.0-6.0-3.13","60761cf3cc35a2a9b127b414","bdp_sd","Sun Mar 26 2023 18:36:14 GMT-0400 (Eastern Daylight Time)","157424","","null","","","","","offerFB","","<div class='trialBorder'><div class='vertical-center'><img style='vertical-align:center; align:center' src=img/fixation3.jpg></div><div class='cl'><div class='vertical-center'><font style='color:orange'>$35<br>for<br>Nas F</font></div></div><div class='cr'><div class='vertical-center'>$15<br>for<br>yourself</div></div><div class='respDivL'><div class='vertical-center'><font style='color:orange'>(E)</font></div></div><div class='respDivR'><div class='vertical-center'>(I)</div></div></div>","null","$15<br>for<br>yourself","$35<br>for<br>2","1","15","35","2",""
"html-keyboard-response","47","123869","0.0-6.0-1.14","60761cf3cc35a2a9b127b414","bdp_sd","Sun Mar 26 2023 18:36:14 GMT-0400 (Eastern Daylight Time)","157424","","null","","","","","FIX","","<div class='trialBorder'><div class='vertical-center'><img style='vertical-align:center; align:center' src=img/fixation3.jpg></div></div>","null","","","","","","",""
"html-keyboard-response","48","125617","0.0-6.0-2.14","60761cf3cc35a2a9b127b414","bdp_sd","Sun Mar 26 2023 18:36:14 GMT-0400 (Eastern Daylight Time)","157424","","1746","","","","","offer","","<div class='trialBorder'><div class='vertical-center'><img style='vertical-align:center; align:center' src=img/fixation3.jpg></div><div class='cl'><div class='vertical-center'>$40<br>for<br>yourself</div></div><div class='cr'><div class='vertical-center'>$55<br>for<br>Ken M</div></div><div class='respDivL'><div class='vertical-center'>(E)</div></div><div class='respDivR'><div class='vertical-center'>(I)</div></div></div>","I","$40<br>for<br>yourself","$55<br>for<br>4","0","40","55","4","OTHER"
"html-keyboard-response","49","125870","0.0-6.0-3.14","60761cf3cc35a2a9b127b414","bdp_sd","Sun Mar 26 2023 18:36:14 GMT-0400 (Eastern Daylight Time)","157424","","null","","","","","offerFB","","<div class='trialBorder'><div class='vertical-center'><img style='vertical-align:center; align:center' src=img/fixation3.jpg></div><div class='cl'><div class='vertical-center'>$40<br>for<br>yourself</div></div><div class='cr'><div class='vertical-center'><font style='color:orange'>$55<br>for<br>Ken M</font></div></div><div class='respDivL'><div class='vertical-center'>(E)</div></div><div class='respDivR'><div class='vertical-center'><font style='color:orange'>(I)</font></div></div></div>","null","$40<br>for<br>yourself","$55<br>for<br>4","0","40","55","4",""
"html-keyboard-response","50","126371","0.0-6.0-1.15","60761cf3cc35a2a9b127b414","bdp_sd","Sun Mar 26 2023 18:36:14 GMT-0400 (Eastern Daylight Time)","157424","","null","","","","","FIX","","<div class='trialBorder'><div class='vertical-center'><img style='vertical-align:center; align:center' src=img/fixation3.jpg></div></div>","null","","","","","","",""
"html-keyboard-response","51","128552","0.0-6.0-2.15","60761cf3cc35a2a9b127b414","bdp_sd","Sun Mar 26 2023 18:36:14 GMT-0400 (Eastern Daylight Time)","157424","","2180","","","","","offer","","<div class='trialBorder'><div class='vertical-center'><img style='vertical-align:center; align:center' src=img/fixation3.jpg></div><div class='cl'><div class='vertical-center'>$31<br>for<br>yourself</div></div><div class='cr'><div class='vertical-center'>$85<br>for<br>Ashley M</div></div><div class='respDivL'><div class='vertical-center'>(E)</div></div><div class='respDivR'><div class='vertical-center'>(I)</div></div></div>","I","$31<br>for<br>yourself","$85<br>for<br>1","0","31","85","1","OTHER"
"html-keyboard-response","52","128805","0.0-6.0-3.15","60761cf3cc35a2a9b127b414","bdp_sd","Sun Mar 26 2023 18:36:14 GMT-0400 (Eastern Daylight Time)","157424","","null","","","","","offerFB","","<div class='trialBorder'><div class='vertical-center'><img style='vertical-align:center; align:center' src=img/fixation3.jpg></div><div class='cl'><div class='vertical-center'>$31<br>for<br>yourself</div></div><div class='cr'><div class='vertical-center'><font style='color:orange'>$85<br>for<br>Ashley M</font></div></div><div class='respDivL'><div class='vertical-center'>(E)</div></div><div class='respDivR'><div class='vertical-center'><font style='color:orange'>(I)</font></div></div></div>","null","$31<br>for<br>yourself","$85<br>for<br>1","0","31","85","1",""
"html-keyboard-response","53","129306","0.0-6.0-1.16","60761cf3cc35a2a9b127b414","bdp_sd","Sun Mar 26 2023 18:36:14 GMT-0400 (Eastern Daylight Time)","157424","","null","","","","","FIX","","<div class='trialBorder'><div class='vertical-center'><img style='vertical-align:center; align:center' src=img/fixation3.jpg></div></div>","null","","","","","","",""
"html-keyboard-response","54","131170","0.0-6.0-2.16","60761cf3cc35a2a9b127b414","bdp_sd","Sun Mar 26 2023 18:36:14 GMT-0400 (Eastern Daylight Time)","157424","","1863","","","","","offer","","<div class='trialBorder'><div class='vertical-center'><img style='vertical-align:center; align:center' src=img/fixation3.jpg></div><div class='cl'><div class='vertical-center'>$20<br>for<br>yourself</div></div><div class='cr'><div class='vertical-center'>$55<br>for<br>Ashley M</div></div><div class='respDivL'><div class='vertical-center'>(E)</div></div><div class='respDivR'><div class='vertical-center'>(I)</div></div></div>","I","$20<br>for<br>yourself","$55<br>for<br>1","0","20","55","1","OTHER"
"html-keyboard-response","55","131422","0.0-6.0-3.16","60761cf3cc35a2a9b127b414","bdp_sd","Sun Mar 26 2023 18:36:14 GMT-0400 (Eastern Daylight Time)","157424","","null","","","","","offerFB","","<div class='trialBorder'><div class='vertical-center'><img style='vertical-align:center; align:center' src=img/fixation3.jpg></div><div class='cl'><div class='vertical-center'>$20<br>for<br>yourself</div></div><div class='cr'><div class='vertical-center'><font style='color:orange'>$55<br>for<br>Ashley M</font></div></div><div class='respDivL'><div class='vertical-center'>(E)</div></div><div class='respDivR'><div class='vertical-center'><font style='color:orange'>(I)</font></div></div></div>","null","$20<br>for<br>yourself","$55<br>for<br>1","0","20","55","1",""
"html-keyboard-response","56","131925","0.0-6.0-1.17","60761cf3cc35a2a9b127b414","bdp_sd","Sun Mar 26 2023 18:36:14 GMT-0400 (Eastern Daylight Time)","157424","","null","","","","","FIX","","<div class='trialBorder'><div class='vertical-center'><img style='vertical-align:center; align:center' src=img/fixation3.jpg></div></div>","null","","","","","","",""
"html-keyboard-response","57","133464","0.0-6.0-2.17","60761cf3cc35a2a9b127b414","bdp_sd","Sun Mar 26 2023 18:36:14 GMT-0400 (Eastern Daylight Time)","157424","","1537","","","","","offer","","<div class='trialBorder'><div class='vertical-center'><img style='vertical-align:center; align:center' src=img/fixation3.jpg></div><div class='cl'><div class='vertical-center'>$34<br>for<br>yourself</div></div><div class='cr'><div class='vertical-center'>$50<br>for<br>Ken M</div></div><div class='respDivL'><div class='vertical-center'>(E)</div></div><div class='respDivR'><div class='vertical-center'>(I)</div></div></div>","E","$34<br>for<br>yourself","$50<br>for<br>4","0","34","50","4","SELF"
"html-keyboard-response","58","133716","0.0-6.0-3.17","60761cf3cc35a2a9b127b414","bdp_sd","Sun Mar 26 2023 18:36:14 GMT-0400 (Eastern Daylight Time)","157424","","null","","","","","offerFB","","<div class='trialBorder'><div class='vertical-center'><img style='vertical-align:center; align:center' src=img/fixation3.jpg></div><div class='cl'><div class='vertical-center'><font style='color:orange'>$34<br>for<br>yourself</font></div></div><div class='cr'><div class='vertical-center'>$50<br>for<br>Ken M</div></div><div class='respDivL'><div class='vertical-center'><font style='color:orange'>(E)</font></div></div><div class='respDivR'><div class='vertical-center'>(I)</div></div></div>","null","$34<br>for<br>yourself","$50<br>for<br>4","0","34","50","4",""
"html-keyboard-response","59","134218","0.0-6.0-1.18","60761cf3cc35a2a9b127b414","bdp_sd","Sun Mar 26 2023 18:36:14 GMT-0400 (Eastern Daylight Time)","157424","","null","","","","","FIX","","<div class='trialBorder'><div class='vertical-center'><img style='vertical-align:center; align:center' src=img/fixation3.jpg></div></div>","null","","","","","","",""
"html-keyboard-response","60","135956","0.0-6.0-2.18","60761cf3cc35a2a9b127b414","bdp_sd","Sun Mar 26 2023 18:36:14 GMT-0400 (Eastern Daylight Time)","157424","","1737","","","","","offer","","<div class='trialBorder'><div class='vertical-center'><img style='vertical-align:center; align:center' src=img/fixation3.jpg></div><div class='cl'><div class='vertical-center'>$19<br>for<br>yourself</div></div><div class='cr'><div class='vertical-center'>$25<br>for<br>Ken M</div></div><div class='respDivL'><div class='vertical-center'>(E)</div></div><div class='respDivR'><div class='vertical-center'>(I)</div></div></div>","E","$19<br>for<br>yourself","$25<br>for<br>4","0","19","25","4","SELF"
"html-keyboard-response","61","136208","0.0-6.0-3.18","60761cf3cc35a2a9b127b414","bdp_sd","Sun Mar 26 2023 18:36:14 GMT-0400 (Eastern Daylight Time)","157424","","null","","","","","offerFB","","<div class='trialBorder'><div class='vertical-center'><img style='vertical-align:center; align:center' src=img/fixation3.jpg></div><div class='cl'><div class='vertical-center'><font style='color:orange'>$19<br>for<br>yourself</font></div></div><div class='cr'><div class='vertical-center'>$25<br>for<br>Ken M</div></div><div class='respDivL'><div class='vertical-center'><font style='color:orange'>(E)</font></div></div><div class='respDivR'><div class='vertical-center'>(I)</div></div></div>","null","$19<br>for<br>yourself","$25<br>for<br>4","0","19","25","4",""
"html-keyboard-response","62","136711","0.0-6.0-1.19","60761cf3cc35a2a9b127b414","bdp_sd","Sun Mar 26 2023 18:36:14 GMT-0400 (Eastern Daylight Time)","157424","","null","","","","","FIX","","<div class='trialBorder'><div class='vertical-center'><img style='vertical-align:center; align:center' src=img/fixation3.jpg></div></div>","null","","","","","","",""
"html-keyboard-response","63","138525","0.0-6.0-2.19","60761cf3cc35a2a9b127b414","bdp_sd","Sun Mar 26 2023 18:36:14 GMT-0400 (Eastern Daylight Time)","157424","","1813","","","","","offer","","<div class='trialBorder'><div class='vertical-center'><img style='vertical-align:center; align:center' src=img/fixation3.jpg></div><div class='cl'><div class='vertical-center'>$30<br>for<br>George B</div></div><div class='cr'><div class='vertical-center'>$28<br>for<br>yourself</div></div><div class='respDivL'><div class='vertical-center'>(E)</div></div><div class='respDivR'><div class='vertical-center'>(I)</div></div></div>","E","$28<br>for<br>yourself","$30<br>for<br>5","1","28","30","5","OTHER"
"html-keyboard-response","64","138777","0.0-6.0-3.19","60761cf3cc35a2a9b127b414","bdp_sd","Sun Mar 26 2023 18:36:14 GMT-0400 (Eastern Daylight Time)","157424","","null","","","","","offerFB","","<div class='trialBorder'><div class='vertical-center'><img style='vertical-align:center; align:center' src=img/fixation3.jpg></div><div class='cl'><div class='vertical-center'><font style='color:orange'>$30<br>for<br>George B</font></div></div><div class='cr'><div class='vertical-center'>$28<br>for<br>yourself</div></div><div class='respDivL'><div class='vertical-center'><font style='color:orange'>(E)</font></div></div><div class='respDivR'><div class='vertical-center'>(I)</div></div></div>","null","$28<br>for<br>yourself","$30<br>for<br>5","1","28","30","5",""
"html-keyboard-response","65","139278","0.0-6.0-1.20","60761cf3cc35a2a9b127b414","bdp_sd","Sun Mar 26 2023 18:36:14 GMT-0400 (Eastern Daylight Time)","157424","","null","","","","","FIX","","<div class='trialBorder'><div class='vertical-center'><img style='vertical-align:center; align:center' src=img/fixation3.jpg></div></div>","null","","","","","","",""
"html-keyboard-response","66","140735","0.0-6.0-2.20","60761cf3cc35a2a9b127b414","bdp_sd","Sun Mar 26 2023 18:36:14 GMT-0400 (Eastern Daylight Time)","157424","","1456","","","","","offer","","<div class='trialBorder'><div class='vertical-center'><img style='vertical-align:center; align:center' src=img/fixation3.jpg></div><div class='cl'><div class='vertical-center'>$55<br>for<br>yourself</div></div><div class='cr'><div class='vertical-center'>$75<br>for<br>Ken M</div></div><div class='respDivL'><div class='vertical-center'>(E)</div></div><div class='respDivR'><div class='vertical-center'>(I)</div></div></div>","E","$55<br>for<br>yourself","$75<br>for<br>4","0","55","75","4","SELF"
"html-keyboard-response","67","140988","0.0-6.0-3.20","60761cf3cc35a2a9b127b414","bdp_sd","Sun Mar 26 2023 18:36:14 GMT-0400 (Eastern Daylight Time)","157424","","null","","","","","offerFB","","<div class='trialBorder'><div class='vertical-center'><img style='vertical-align:center; align:center' src=img/fixation3.jpg></div><div class='cl'><div class='vertical-center'><font style='color:orange'>$55<br>for<br>yourself</font></div></div><div class='cr'><div class='vertical-center'>$75<br>for<br>Ken M</div></div><div class='respDivL'><div class='vertical-center'><font style='color:orange'>(E)</font></div></div><div class='respDivR'><div class='vertical-center'>(I)</div></div></div>","null","$55<br>for<br>yourself","$75<br>for<br>4","0","55","75","4",""
"html-keyboard-response","68","141490","0.0-6.0-1.21","60761cf3cc35a2a9b127b414","bdp_sd","Sun Mar 26 2023 18:36:14 GMT-0400 (Eastern Daylight Time)","157424","","null","","","","","FIX","","<div class='trialBorder'><div class='vertical-center'><img style='vertical-align:center; align:center' src=img/fixation3.jpg></div></div>","null","","","","","","",""
"html-keyboard-response","69","142768","0.0-6.0-2.21","60761cf3cc35a2a9b127b414","bdp_sd","Sun Mar 26 2023 18:36:14 GMT-0400 (Eastern Daylight Time)","157424","","1277","","","","","offer","","<div class='trialBorder'><div class='vertical-center'><img style='vertical-align:center; align:center' src=img/fixation3.jpg></div><div class='cl'><div class='vertical-center'>$41<br>for<br>yourself</div></div><div class='cr'><div class='vertical-center'>$75<br>for<br>Andy L</div></div><div class='respDivL'><div class='vertical-center'>(E)</div></div><div class='respDivR'><div class='vertical-center'>(I)</div></div></div>","I","$41<br>for<br>yourself","$75<br>for<br>3","0","41","75","3","OTHER"
"html-keyboard-response","70","143020","0.0-6.0-3.21","60761cf3cc35a2a9b127b414","bdp_sd","Sun Mar 26 2023 18:36:14 GMT-0400 (Eastern Daylight Time)","157424","","null","","","","","offerFB","","<div class='trialBorder'><div class='vertical-center'><img style='vertical-align:center; align:center' src=img/fixation3.jpg></div><div class='cl'><div class='vertical-center'>$41<br>for<br>yourself</div></div><div class='cr'><div class='vertical-center'><font style='color:orange'>$75<br>for<br>Andy L</font></div></div><div class='respDivL'><div class='vertical-center'>(E)</div></div><div class='respDivR'><div class='vertical-center'><font style='color:orange'>(I)</font></div></div></div>","null","$41<br>for<br>yourself","$75<br>for<br>3","0","41","75","3",""
"html-keyboard-response","71","143522","0.0-6.0-1.22","60761cf3cc35a2a9b127b414","bdp_sd","Sun Mar 26 2023 18:36:14 GMT-0400 (Eastern Daylight Time)","157424","","null","","","","","FIX","","<div class='trialBorder'><div class='vertical-center'><img style='vertical-align:center; align:center' src=img/fixation3.jpg></div></div>","null","","","","","","",""
"html-keyboard-response","72","146832","0.0-6.0-2.22","60761cf3cc35a2a9b127b414","bdp_sd","Sun Mar 26 2023 18:36:14 GMT-0400 (Eastern Daylight Time)","157424","","3309","","","","","offer","","<div class='trialBorder'><div class='vertical-center'><img style='vertical-align:center; align:center' src=img/fixation3.jpg></div><div class='cl'><div class='vertical-center'>$85<br>for<br>George B</div></div><div class='cr'><div class='vertical-center'>$80<br>for<br>yourself</div></div><div class='respDivL'><div class='vertical-center'>(E)</div></div><div class='respDivR'><div class='vertical-center'>(I)</div></div></div>","I","$80<br>for<br>yourself","$85<br>for<br>5","1","80","85","5","SELF"
"html-keyboard-response","73","147086","0.0-6.0-3.22","60761cf3cc35a2a9b127b414","bdp_sd","Sun Mar 26 2023 18:36:14 GMT-0400 (Eastern Daylight Time)","157424","","null","","","","","offerFB","","<div class='trialBorder'><div class='vertical-center'><img style='vertical-align:center; align:center' src=img/fixation3.jpg></div><div class='cl'><div class='vertical-center'>$85<br>for<br>George B</div></div><div class='cr'><div class='vertical-center'><font style='color:orange'>$80<br>for<br>yourself</font></div></div><div class='respDivL'><div class='vertical-center'>(E)</div></div><div class='respDivR'><div class='vertical-center'><font style='color:orange'>(I)</font></div></div></div>","null","$80<br>for<br>yourself","$85<br>for<br>5","1","80","85","5",""
"html-keyboard-response","74","147589","0.0-6.0-1.23","60761cf3cc35a2a9b127b414","bdp_sd","Sun Mar 26 2023 18:36:14 GMT-0400 (Eastern Daylight Time)","157424","","null","","","","","FIX","","<div class='trialBorder'><div class='vertical-center'><img style='vertical-align:center; align:center' src=img/fixation3.jpg></div></div>","null","","","","","","",""
"html-keyboard-response","75","149367","0.0-6.0-2.23","60761cf3cc35a2a9b127b414","bdp_sd","Sun Mar 26 2023 18:36:14 GMT-0400 (Eastern Daylight Time)","157424","","1777","","","","","offer","","<div class='trialBorder'><div class='vertical-center'><img style='vertical-align:center; align:center' src=img/fixation3.jpg></div><div class='cl'><div class='vertical-center'>$27<br>for<br>yourself</div></div><div class='cr'><div class='vertical-center'>$50<br>for<br>Andy L</div></div><div class='respDivL'><div class='vertical-center'>(E)</div></div><div class='respDivR'><div class='vertical-center'>(I)</div></div></div>","I","$27<br>for<br>yourself","$50<br>for<br>3","0","27","50","3","OTHER"
"html-keyboard-response","76","149619","0.0-6.0-3.23","60761cf3cc35a2a9b127b414","bdp_sd","Sun Mar 26 2023 18:36:14 GMT-0400 (Eastern Daylight Time)","157424","","null","","","","","offerFB","","<div class='trialBorder'><div class='vertical-center'><img style='vertical-align:center; align:center' src=img/fixation3.jpg></div><div class='cl'><div class='vertical-center'>$27<br>for<br>yourself</div></div><div class='cr'><div class='vertical-center'><font style='color:orange'>$50<br>for<br>Andy L</font></div></div><div class='respDivL'><div class='vertical-center'>(E)</div></div><div class='respDivR'><div class='vertical-center'><font style='color:orange'>(I)</font></div></div></div>","null","$27<br>for<br>yourself","$50<br>for<br>3","0","27","50","3",""
"html-keyboard-response","77","150122","0.0-6.0-1.24","60761cf3cc35a2a9b127b414","bdp_sd","Sun Mar 26 2023 18:36:14 GMT-0400 (Eastern Daylight Time)","157424","","null","","","","","FIX","","<div class='trialBorder'><div class='vertical-center'><img style='vertical-align:center; align:center' src=img/fixation3.jpg></div></div>","null","","","","","","",""
"html-keyboard-response","78","151307","0.0-6.0-2.24","60761cf3cc35a2a9b127b414","bdp_sd","Sun Mar 26 2023 18:36:14 GMT-0400 (Eastern Daylight Time)","157424","","1184","","","","","offer","","<div class='trialBorder'><div class='vertical-center'><img style='vertical-align:center; align:center' src=img/fixation3.jpg></div><div class='cl'><div class='vertical-center'>$25<br>for<br>yourself</div></div><div class='cr'><div class='vertical-center'>$30<br>for<br>Ken M</div></div><div class='respDivL'><div class='vertical-center'>(E)</div></div><div class='respDivR'><div class='vertical-center'>(I)</div></div></div>","E","$25<br>for<br>yourself","$30<br>for<br>4","0","25","30","4","SELF"
"html-keyboard-response","79","151558","0.0-6.0-3.24","60761cf3cc35a2a9b127b414","bdp_sd","Sun Mar 26 2023 18:36:14 GMT-0400 (Eastern Daylight Time)","157424","","null","","","","","offerFB","","<div class='trialBorder'><div class='vertical-center'><img style='vertical-align:center; align:center' src=img/fixation3.jpg></div><div class='cl'><div class='vertical-center'><font style='color:orange'>$25<br>for<br>yourself</font></div></div><div class='cr'><div class='vertical-center'>$30<br>for<br>Ken M</div></div><div class='respDivL'><div class='vertical-center'><font style='color:orange'>(E)</font></div></div><div class='respDivR'><div class='vertical-center'>(I)</div></div></div>","null","$25<br>for<br>yourself","$30<br>for<br>4","0","25","30","4",""
"html-keyboard-response","80","152059","0.0-6.0-1.25","60761cf3cc35a2a9b127b414","bdp_sd","Sun Mar 26 2023 18:36:14 GMT-0400 (Eastern Daylight Time)","157424","","null","","","","","FIX","","<div class='trialBorder'><div class='vertical-center'><img style='vertical-align:center; align:center' src=img/fixation3.jpg></div></div>","null","","","","","","",""
"html-keyboard-response","81","154029","0.0-6.0-2.25","60761cf3cc35a2a9b127b414","bdp_sd","Sun Mar 26 2023 18:36:14 GMT-0400 (Eastern Daylight Time)","157424","","1968","","","","","offer","","<div class='trialBorder'><div class='vertical-center'><img style='vertical-align:center; align:center' src=img/fixation3.jpg></div><div class='cl'><div class='vertical-center'>$25<br>for<br>yourself</div></div><div class='cr'><div class='vertical-center'>$60<br>for<br>Andy L</div></div><div class='respDivL'><div class='vertical-center'>(E)</div></div><div class='respDivR'><div class='vertical-center'>(I)</div></div></div>","I","$25<br>for<br>yourself","$60<br>for<br>3","0","25","60","3","OTHER"
"html-keyboard-response","82","154281","0.0-6.0-3.25","60761cf3cc35a2a9b127b414","bdp_sd","Sun Mar 26 2023 18:36:14 GMT-0400 (Eastern Daylight Time)","157424","","null","","","","","offerFB","","<div class='trialBorder'><div class='vertical-center'><img style='vertical-align:center; align:center' src=img/fixation3.jpg></div><div class='cl'><div class='vertical-center'>$25<br>for<br>yourself</div></div><div class='cr'><div class='vertical-center'><font style='color:orange'>$60<br>for<br>Andy L</font></div></div><div class='respDivL'><div class='vertical-center'>(E)</div></div><div class='respDivR'><div class='vertical-center'><font style='color:orange'>(I)</font></div></div></div>","null","$25<br>for<br>yourself","$60<br>for<br>3","0","25","60","3",""
"html-keyboard-response","83","154784","0.0-6.0-1.26","60761cf3cc35a2a9b127b414","bdp_sd","Sun Mar 26 2023 18:36:14 GMT-0400 (Eastern Daylight Time)","157424","","null","","","","","FIX","","<div class='trialBorder'><div class='vertical-center'><img style='vertical-align:center; align:center' src=img/fixation3.jpg></div></div>","null","","","","","","",""
"html-keyboard-response","84","156169","0.0-6.0-2.26","60761cf3cc35a2a9b127b414","bdp_sd","Sun Mar 26 2023 18:36:14 GMT-0400 (Eastern Daylight Time)","157424","","1384","","","","","offer","","<div class='trialBorder'><div class='vertical-center'><img style='vertical-align:center; align:center' src=img/fixation3.jpg></div><div class='cl'><div class='vertical-center'>$85<br>for<br>Ken M</div></div><div class='cr'><div class='vertical-center'>$69<br>for<br>yourself</div></div><div class='respDivL'><div class='vertical-center'>(E)</div></div><div class='respDivR'><div class='vertical-center'>(I)</div></div></div>","E","$69<br>for<br>yourself","$85<br>for<br>4","1","69","85","4","OTHER"
"html-keyboard-response","85","156422","0.0-6.0-3.26","60761cf3cc35a2a9b127b414","bdp_sd","Sun Mar 26 2023 18:36:14 GMT-0400 (Eastern Daylight Time)","157424","","null","","","","","offerFB","","<div class='trialBorder'><div class='vertical-center'><img style='vertical-align:center; align:center' src=img/fixation3.jpg></div><div class='cl'><div class='vertical-center'><font style='color:orange'>$85<br>for<br>Ken M</font></div></div><div class='cr'><div class='vertical-center'>$69<br>for<br>yourself</div></div><div class='respDivL'><div class='vertical-center'><font style='color:orange'>(E)</font></div></div><div class='respDivR'><div class='vertical-center'>(I)</div></div></div>","null","$69<br>for<br>yourself","$85<br>for<br>4","1","69","85","4",""
"","","","","60761cf3cc35a2a9b127b414","bdp_sd","Sun Mar 26 2023 18:36:14 GMT-0400 (Eastern Daylight Time)","157424","","","","fullscreenexit","86","156443","fullscreenexit","","","","","","","","","",""
"fullscreen","86","157423","0.0-7.0","60761cf3cc35a2a9b127b414","bdp_sd","Sun Mar 26 2023 18:36:14 GMT-0400 (Eastern Daylight Time)","157424","","","","","","","","true","","","","","","","","",""
"html-keyboard-response","87","157926","0.0-8.0","","","","","","null","","","","","","","","null","","","","","","",""
