"trial_type","trial_index","time_elapsed","internal_node_id","subject_id","task","startTime","totalTime","view_history","rt","responses","event","trial","time","trialtype","success","stimulus","key_press","selfOffer","otherOffer","otherLeft","selfAmt","otherAmt","otherDist","chosen"
"pavlovia","0","2","0.0-0.0","60c837327440575481e333ce","bdp_sd","Sat Mar 25 2023 16:56:05 GMT-0700 (Mountain Standard Time)","112563","","","","","","","","","","","","","","","","",""
"instructions","1","1314","0.0-1.0","60c837327440575481e333ce","bdp_sd","Sat Mar 25 2023 16:56:05 GMT-0700 (Mountain Standard Time)","112563","[{""page_index"":0,""viewing_time"":1311}]","1312","","","","","","","","","","","","","","",""
"survey-text","2","45625","0.0-2.0","60c837327440575481e333ce","bdp_sd","Sat Mar 25 2023 16:56:05 GMT-0700 (Mountain Standard Time)","112563","","44311","{""Q0"":""Josh M."",""Q1"":""Marrisa L."",""Q2"":""Alana S."",""Q3"":""April L."",""Q4"":""Zhong H.""}","","","","","","","","","","","","","",""
"","","","","60c837327440575481e333ce","bdp_sd","Sat Mar 25 2023 16:56:05 GMT-0700 (Mountain Standard Time)","112563","","","","fullscreenenter","3","47131","fullscreenenter","","","","","","","","","",""
"fullscreen","3","48112","0.0-3.0","60c837327440575481e333ce","bdp_sd","Sat Mar 25 2023 16:56:05 GMT-0700 (Mountain Standard Time)","112563","","","","","","","","true","","","","","","","","",""
"instructions","4","57255","0.0-5.0","60c837327440575481e333ce","bdp_sd","Sat Mar 25 2023 16:56:05 GMT-0700 (Mountain Standard Time)","112563","[{""page_index"":0,""viewing_time"":3812},{""page_index"":1,""viewing_time"":3034},{""page_index"":2,""viewing_time"":2296}]","9142","","","","","","","","","","","","","","",""
"html-keyboard-response","5","57757","0.0-6.0-1.0","60c837327440575481e333ce","bdp_sd","Sat Mar 25 2023 16:56:05 GMT-0700 (Mountain Standard Time)","112563","","null","","","","","FIX","","<div class='trialBorder'><div class='vertical-center'><img style='vertical-align:center; align:center' src=img/fixation3.jpg></div></div>","null","","","","","","",""
"html-keyboard-response","6","59806","0.0-6.0-2.0","60c837327440575481e333ce","bdp_sd","Sat Mar 25 2023 16:56:05 GMT-0700 (Mountain Standard Time)","112563","","2048","","","","","offer","","<div class='trialBorder'><div class='vertical-center'><img style='vertical-align:center; align:center' src=img/fixation3.jpg></div><div class='cl'><div class='vertical-center'>$60<br>for<br>April L.</div></div><div class='cr'><div class='vertical-center'>$49<br>for<br>yourself</div></div><div class='respDivL'><div class='vertical-center'>(E)</div></div><div class='respDivR'><div class='vertical-center'>(I)</div></div></div>","E","$49<br>for<br>yourself","$60<br>for<br>4","1","49","60","4","OTHER"
"html-keyboard-response","7","60058","0.0-6.0-3.0","60c837327440575481e333ce","bdp_sd","Sat Mar 25 2023 16:56:05 GMT-0700 (Mountain Standard Time)","112563","","null","","","","","offerFB","","<div class='trialBorder'><div class='vertical-center'><img style='vertical-align:center; align:center' src=img/fixation3.jpg></div><div class='cl'><div class='vertical-center'><font style='color:orange'>$60<br>for<br>April L.</font></div></div><div class='cr'><div class='vertical-center'>$49<br>for<br>yourself</div></div><div class='respDivL'><div class='vertical-center'><font style='color:orange'>(E)</font></div></div><div class='respDivR'><div class='vertical-center'>(I)</div></div></div>","null","$49<br>for<br>yourself","$60<br>for<br>4","1","49","60","4",""
"html-keyboard-response","8","60559","0.0-6.0-1.1","60c837327440575481e333ce","bdp_sd","Sat Mar 25 2023 16:56:05 GMT-0700 (Mountain Standard Time)","112563","","null","","","","","FIX","","<div class='trialBorder'><div class='vertical-center'><img style='vertical-align:center; align:center' src=img/fixation3.jpg></div></div>","null","","","","","","",""
"html-keyboard-response","9","61690","0.0-6.0-2.1","60c837327440575481e333ce","bdp_sd","Sat Mar 25 2023 16:56:05 GMT-0700 (Mountain Standard Time)","112563","","1131","","","","","offer","","<div class='trialBorder'><div class='vertical-center'><img style='vertical-align:center; align:center' src=img/fixation3.jpg></div><div class='cl'><div class='vertical-center'>$35<br>for<br>Marrisa L.</div></div><div class='cr'><div class='vertical-center'>$15<br>for<br>yourself</div></div><div class='respDivL'><div class='vertical-center'>(E)</div></div><div class='respDivR'><div class='vertical-center'>(I)</div></div></div>","I","$15<br>for<br>yourself","$35<br>for<br>2","1","15","35","2","SELF"
"html-keyboard-response","10","61942","0.0-6.0-3.1","60c837327440575481e333ce","bdp_sd","Sat Mar 25 2023 16:56:05 GMT-0700 (Mountain Standard Time)","112563","","null","","","","","offerFB","","<div class='trialBorder'><div class='vertical-center'><img style='vertical-align:center; align:center' src=img/fixation3.jpg></div><div class='cl'><div class='vertical-center'>$35<br>for<br>Marrisa L.</div></div><div class='cr'><div class='vertical-center'><font style='color:orange'>$15<br>for<br>yourself</font></div></div><div class='respDivL'><div class='vertical-center'>(E)</div></div><div class='respDivR'><div class='vertical-center'><font style='color:orange'>(I)</font></div></div></div>","null","$15<br>for<br>yourself","$35<br>for<br>2","1","15","35","2",""
"html-keyboard-response","11","62443","0.0-6.0-1.2","60c837327440575481e333ce","bdp_sd","Sat Mar 25 2023 16:56:05 GMT-0700 (Mountain Standard Time)","112563","","null","","","","","FIX","","<div class='trialBorder'><div class='vertical-center'><img style='vertical-align:center; align:center' src=img/fixation3.jpg></div></div>","null","","","","","","",""
"html-keyboard-response","12","65494","0.0-6.0-2.2","60c837327440575481e333ce","bdp_sd","Sat Mar 25 2023 16:56:05 GMT-0700 (Mountain Standard Time)","112563","","3049","","","","","offer","","<div class='trialBorder'><div class='vertical-center'><img style='vertical-align:center; align:center' src=img/fixation3.jpg></div><div class='cl'><div class='vertical-center'>$25<br>for<br>yourself</div></div><div class='cr'><div class='vertical-center'>$60<br>for<br>Alana S.</div></div><div class='respDivL'><div class='vertical-center'>(E)</div></div><div class='respDivR'><div class='vertical-center'>(I)</div></div></div>","E","$25<br>for<br>yourself","$60<br>for<br>3","0","25","60","3","SELF"
"html-keyboard-response","13","65746","0.0-6.0-3.2","60c837327440575481e333ce","bdp_sd","Sat Mar 25 2023 16:56:05 GMT-0700 (Mountain Standard Time)","112563","","null","","","","","offerFB","","<div class='trialBorder'><div class='vertical-center'><img style='vertical-align:center; align:center' src=img/fixation3.jpg></div><div class='cl'><div class='vertical-center'><font style='color:orange'>$25<br>for<br>yourself</font></div></div><div class='cr'><div class='vertical-center'>$60<br>for<br>Alana S.</div></div><div class='respDivL'><div class='vertical-center'><font style='color:orange'>(E)</font></div></div><div class='respDivR'><div class='vertical-center'>(I)</div></div></div>","null","$25<br>for<br>yourself","$60<br>for<br>3","0","25","60","3",""
"html-keyboard-response","14","66248","0.0-6.0-1.3","60c837327440575481e333ce","bdp_sd","Sat Mar 25 2023 16:56:05 GMT-0700 (Mountain Standard Time)","112563","","null","","","","","FIX","","<div class='trialBorder'><div class='vertical-center'><img style='vertical-align:center; align:center' src=img/fixation3.jpg></div></div>","null","","","","","","",""
"html-keyboard-response","15","67737","0.0-6.0-2.3","60c837327440575481e333ce","bdp_sd","Sat Mar 25 2023 16:56:05 GMT-0700 (Mountain Standard Time)","112563","","1489","","","","","offer","","<div class='trialBorder'><div class='vertical-center'><img style='vertical-align:center; align:center' src=img/fixation3.jpg></div><div class='cl'><div class='vertical-center'>$85<br>for<br>Josh M.</div></div><div class='cr'><div class='vertical-center'>$31<br>for<br>yourself</div></div><div class='respDivL'><div class='vertical-center'>(E)</div></div><div class='respDivR'><div class='vertical-center'>(I)</div></div></div>","E","$31<br>for<br>yourself","$85<br>for<br>1","1","31","85","1","OTHER"
"html-keyboard-response","16","67988","0.0-6.0-3.3","60c837327440575481e333ce","bdp_sd","Sat Mar 25 2023 16:56:05 GMT-0700 (Mountain Standard Time)","112563","","null","","","","","offerFB","","<div class='trialBorder'><div class='vertical-center'><img style='vertical-align:center; align:center' src=img/fixation3.jpg></div><div class='cl'><div class='vertical-center'><font style='color:orange'>$85<br>for<br>Josh M.</font></div></div><div class='cr'><div class='vertical-center'>$31<br>for<br>yourself</div></div><div class='respDivL'><div class='vertical-center'><font style='color:orange'>(E)</font></div></div><div class='respDivR'><div class='vertical-center'>(I)</div></div></div>","null","$31<br>for<br>yourself","$85<br>for<br>1","1","31","85","1",""
"html-keyboard-response","17","68489","0.0-6.0-1.4","60c837327440575481e333ce","bdp_sd","Sat Mar 25 2023 16:56:05 GMT-0700 (Mountain Standard Time)","112563","","null","","","","","FIX","","<div class='trialBorder'><div class='vertical-center'><img style='vertical-align:center; align:center' src=img/fixation3.jpg></div></div>","null","","","","","","",""
"html-keyboard-response","18","70227","0.0-6.0-2.4","60c837327440575481e333ce","bdp_sd","Sat Mar 25 2023 16:56:05 GMT-0700 (Mountain Standard Time)","112563","","1737","","","","","offer","","<div class='trialBorder'><div class='vertical-center'><img style='vertical-align:center; align:center' src=img/fixation3.jpg></div><div class='cl'><div class='vertical-center'>$67<br>for<br>yourself</div></div><div class='cr'><div class='vertical-center'>$75<br>for<br>Zhong H.</div></div><div class='respDivL'><div class='vertical-center'>(E)</div></div><div class='respDivR'><div class='vertical-center'>(I)</div></div></div>","I","$67<br>for<br>yourself","$75<br>for<br>5","0","67","75","5","OTHER"
"html-keyboard-response","19","70479","0.0-6.0-3.4","60c837327440575481e333ce","bdp_sd","Sat Mar 25 2023 16:56:05 GMT-0700 (Mountain Standard Time)","112563","","null","","","","","offerFB","","<div class='trialBorder'><div class='vertical-center'><img style='vertical-align:center; align:center' src=img/fixation3.jpg></div><div class='cl'><div class='vertical-center'>$67<br>for<br>yourself</div></div><div class='cr'><div class='vertical-center'><font style='color:orange'>$75<br>for<br>Zhong H.</font></div></div><div class='respDivL'><div class='vertical-center'>(E)</div></div><div class='respDivR'><div class='vertical-center'><font style='color:orange'>(I)</font></div></div></div>","null","$67<br>for<br>yourself","$75<br>for<br>5","0","67","75","5",""
"html-keyboard-response","20","70981","0.0-6.0-1.5","60c837327440575481e333ce","bdp_sd","Sat Mar 25 2023 16:56:05 GMT-0700 (Mountain Standard Time)","112563","","null","","","","","FIX","","<div class='trialBorder'><div class='vertical-center'><img style='vertical-align:center; align:center' src=img/fixation3.jpg></div></div>","null","","","","","","",""
"html-keyboard-response","21","71794","0.0-6.0-2.5","60c837327440575481e333ce","bdp_sd","Sat Mar 25 2023 16:56:05 GMT-0700 (Mountain Standard Time)","112563","","812","","","","","offer","","<div class='trialBorder'><div class='vertical-center'><img style='vertical-align:center; align:center' src=img/fixation3.jpg></div><div class='cl'><div class='vertical-center'>$75<br>for<br>Alana S.</div></div><div class='cr'><div class='vertical-center'>$41<br>for<br>yourself</div></div><div class='respDivL'><div class='vertical-center'>(E)</div></div><div class='respDivR'><div class='vertical-center'>(I)</div></div></div>","E","$41<br>for<br>yourself","$75<br>for<br>3","1","41","75","3","OTHER"
"html-keyboard-response","22","72046","0.0-6.0-3.5","60c837327440575481e333ce","bdp_sd","Sat Mar 25 2023 16:56:05 GMT-0700 (Mountain Standard Time)","112563","","null","","","","","offerFB","","<div class='trialBorder'><div class='vertical-center'><img style='vertical-align:center; align:center' src=img/fixation3.jpg></div><div class='cl'><div class='vertical-center'><font style='color:orange'>$75<br>for<br>Alana S.</font></div></div><div class='cr'><div class='vertical-center'>$41<br>for<br>yourself</div></div><div class='respDivL'><div class='vertical-center'><font style='color:orange'>(E)</font></div></div><div class='respDivR'><div class='vertical-center'>(I)</div></div></div>","null","$41<br>for<br>yourself","$75<br>for<br>3","1","41","75","3",""
"html-keyboard-response","23","72547","0.0-6.0-1.6","60c837327440575481e333ce","bdp_sd","Sat Mar 25 2023 16:56:05 GMT-0700 (Mountain Standard Time)","112563","","null","","","","","FIX","","<div class='trialBorder'><div class='vertical-center'><img style='vertical-align:center; align:center' src=img/fixation3.jpg></div></div>","null","","","","","","",""
"html-keyboard-response","24","74470","0.0-6.0-2.6","60c837327440575481e333ce","bdp_sd","Sat Mar 25 2023 16:56:05 GMT-0700 (Mountain Standard Time)","112563","","1922","","","","","offer","","<div class='trialBorder'><div class='vertical-center'><img style='vertical-align:center; align:center' src=img/fixation3.jpg></div><div class='cl'><div class='vertical-center'>$54<br>for<br>yourself</div></div><div class='cr'><div class='vertical-center'>$80<br>for<br>Alana S.</div></div><div class='respDivL'><div class='vertical-center'>(E)</div></div><div class='respDivR'><div class='vertical-center'>(I)</div></div></div>","E","$54<br>for<br>yourself","$80<br>for<br>3","0","54","80","3","SELF"
"html-keyboard-response","25","74721","0.0-6.0-3.6","60c837327440575481e333ce","bdp_sd","Sat Mar 25 2023 16:56:05 GMT-0700 (Mountain Standard Time)","112563","","null","","","","","offerFB","","<div class='trialBorder'><div class='vertical-center'><img style='vertical-align:center; align:center' src=img/fixation3.jpg></div><div class='cl'><div class='vertical-center'><font style='color:orange'>$54<br>for<br>yourself</font></div></div><div class='cr'><div class='vertical-center'>$80<br>for<br>Alana S.</div></div><div class='respDivL'><div class='vertical-center'><font style='color:orange'>(E)</font></div></div><div class='respDivR'><div class='vertical-center'>(I)</div></div></div>","null","$54<br>for<br>yourself","$80<br>for<br>3","0","54","80","3",""
"html-keyboard-response","26","75223","0.0-6.0-1.7","60c837327440575481e333ce","bdp_sd","Sat Mar 25 2023 16:56:05 GMT-0700 (Mountain Standard Time)","112563","","null","","","","","FIX","","<div class='trialBorder'><div class='vertical-center'><img style='vertical-align:center; align:center' src=img/fixation3.jpg></div></div>","null","","","","","","",""
"html-keyboard-response","27","76518","0.0-6.0-2.7","60c837327440575481e333ce","bdp_sd","Sat Mar 25 2023 16:56:05 GMT-0700 (Mountain Standard Time)","112563","","1294","","","","","offer","","<div class='trialBorder'><div class='vertical-center'><img style='vertical-align:center; align:center' src=img/fixation3.jpg></div><div class='cl'><div class='vertical-center'>$27<br>for<br>yourself</div></div><div class='cr'><div class='vertical-center'>$50<br>for<br>Alana S.</div></div><div class='respDivL'><div class='vertical-center'>(E)</div></div><div class='respDivR'><div class='vertical-center'>(I)</div></div></div>","E","$27<br>for<br>yourself","$50<br>for<br>3","0","27","50","3","SELF"
"html-keyboard-response","28","76769","0.0-6.0-3.7","60c837327440575481e333ce","bdp_sd","Sat Mar 25 2023 16:56:05 GMT-0700 (Mountain Standard Time)","112563","","null","","","","","offerFB","","<div class='trialBorder'><div class='vertical-center'><img style='vertical-align:center; align:center' src=img/fixation3.jpg></div><div class='cl'><div class='vertical-center'><font style='color:orange'>$27<br>for<br>yourself</font></div></div><div class='cr'><div class='vertical-center'>$50<br>for<br>Alana S.</div></div><div class='respDivL'><div class='vertical-center'><font style='color:orange'>(E)</font></div></div><div class='respDivR'><div class='vertical-center'>(I)</div></div></div>","null","$27<br>for<br>yourself","$50<br>for<br>3","0","27","50","3",""
"html-keyboard-response","29","77270","0.0-6.0-1.8","60c837327440575481e333ce","bdp_sd","Sat Mar 25 2023 16:56:05 GMT-0700 (Mountain Standard Time)","112563","","null","","","","","FIX","","<div class='trialBorder'><div class='vertical-center'><img style='vertical-align:center; align:center' src=img/fixation3.jpg></div></div>","null","","","","","","",""
"html-keyboard-response","30","78509","0.0-6.0-2.8","60c837327440575481e333ce","bdp_sd","Sat Mar 25 2023 16:56:05 GMT-0700 (Mountain Standard Time)","112563","","1237","","","","","offer","","<div class='trialBorder'><div class='vertical-center'><img style='vertical-align:center; align:center' src=img/fixation3.jpg></div><div class='cl'><div class='vertical-center'>$54<br>for<br>yourself</div></div><div class='cr'><div class='vertical-center'>$55<br>for<br>Zhong H.</div></div><div class='respDivL'><div class='vertical-center'>(E)</div></div><div class='respDivR'><div class='vertical-center'>(I)</div></div></div>","I","$54<br>for<br>yourself","$55<br>for<br>5","0","54","55","5","OTHER"
"html-keyboard-response","31","78760","0.0-6.0-3.8","60c837327440575481e333ce","bdp_sd","Sat Mar 25 2023 16:56:05 GMT-0700 (Mountain Standard Time)","112563","","null","","","","","offerFB","","<div class='trialBorder'><div class='vertical-center'><img style='vertical-align:center; align:center' src=img/fixation3.jpg></div><div class='cl'><div class='vertical-center'>$54<br>for<br>yourself</div></div><div class='cr'><div class='vertical-center'><font style='color:orange'>$55<br>for<br>Zhong H.</font></div></div><div class='respDivL'><div class='vertical-center'>(E)</div></div><div class='respDivR'><div class='vertical-center'><font style='color:orange'>(I)</font></div></div></div>","null","$54<br>for<br>yourself","$55<br>for<br>5","0","54","55","5",""
"html-keyboard-response","32","79261","0.0-6.0-1.9","60c837327440575481e333ce","bdp_sd","Sat Mar 25 2023 16:56:05 GMT-0700 (Mountain Standard Time)","112563","","null","","","","","FIX","","<div class='trialBorder'><div class='vertical-center'><img style='vertical-align:center; align:center' src=img/fixation3.jpg></div></div>","null","","","","","","",""
"html-keyboard-response","33","81043","0.0-6.0-2.9","60c837327440575481e333ce","bdp_sd","Sat Mar 25 2023 16:56:05 GMT-0700 (Mountain Standard Time)","112563","","1781","","","","","offer","","<div class='trialBorder'><div class='vertical-center'><img style='vertical-align:center; align:center' src=img/fixation3.jpg></div><div class='cl'><div class='vertical-center'>$30<br>for<br>Zhong H.</div></div><div class='cr'><div class='vertical-center'>$28<br>for<br>yourself</div></div><div class='respDivL'><div class='vertical-center'>(E)</div></div><div class='respDivR'><div class='vertical-center'>(I)</div></div></div>","I","$28<br>for<br>yourself","$30<br>for<br>5","1","28","30","5","SELF"
"html-keyboard-response","34","81294","0.0-6.0-3.9","60c837327440575481e333ce","bdp_sd","Sat Mar 25 2023 16:56:05 GMT-0700 (Mountain Standard Time)","112563","","null","","","","","offerFB","","<div class='trialBorder'><div class='vertical-center'><img style='vertical-align:center; align:center' src=img/fixation3.jpg></div><div class='cl'><div class='vertical-center'>$30<br>for<br>Zhong H.</div></div><div class='cr'><div class='vertical-center'><font style='color:orange'>$28<br>for<br>yourself</font></div></div><div class='respDivL'><div class='vertical-center'>(E)</div></div><div class='respDivR'><div class='vertical-center'><font style='color:orange'>(I)</font></div></div></div>","null","$28<br>for<br>yourself","$30<br>for<br>5","1","28","30","5",""
"html-keyboard-response","35","81796","0.0-6.0-1.10","60c837327440575481e333ce","bdp_sd","Sat Mar 25 2023 16:56:05 GMT-0700 (Mountain Standard Time)","112563","","null","","","","","FIX","","<div class='trialBorder'><div class='vertical-center'><img style='vertical-align:center; align:center' src=img/fixation3.jpg></div></div>","null","","","","","","",""
"html-keyboard-response","36","82874","0.0-6.0-2.10","60c837327440575481e333ce","bdp_sd","Sat Mar 25 2023 16:56:05 GMT-0700 (Mountain Standard Time)","112563","","1078","","","","","offer","","<div class='trialBorder'><div class='vertical-center'><img style='vertical-align:center; align:center' src=img/fixation3.jpg></div><div class='cl'><div class='vertical-center'>$22<br>for<br>yourself</div></div><div class='cr'><div class='vertical-center'>$25<br>for<br>Zhong H.</div></div><div class='respDivL'><div class='vertical-center'>(E)</div></div><div class='respDivR'><div class='vertical-center'>(I)</div></div></div>","E","$22<br>for<br>yourself","$25<br>for<br>5","0","22","25","5","SELF"
"html-keyboard-response","37","83126","0.0-6.0-3.10","60c837327440575481e333ce","bdp_sd","Sat Mar 25 2023 16:56:05 GMT-0700 (Mountain Standard Time)","112563","","null","","","","","offerFB","","<div class='trialBorder'><div class='vertical-center'><img style='vertical-align:center; align:center' src=img/fixation3.jpg></div><div class='cl'><div class='vertical-center'><font style='color:orange'>$22<br>for<br>yourself</font></div></div><div class='cr'><div class='vertical-center'>$25<br>for<br>Zhong H.</div></div><div class='respDivL'><div class='vertical-center'><font style='color:orange'>(E)</font></div></div><div class='respDivR'><div class='vertical-center'>(I)</div></div></div>","null","$22<br>for<br>yourself","$25<br>for<br>5","0","22","25","5",""
"html-keyboard-response","38","83627","0.0-6.0-1.11","60c837327440575481e333ce","bdp_sd","Sat Mar 25 2023 16:56:05 GMT-0700 (Mountain Standard Time)","112563","","null","","","","","FIX","","<div class='trialBorder'><div class='vertical-center'><img style='vertical-align:center; align:center' src=img/fixation3.jpg></div></div>","null","","","","","","",""
"html-keyboard-response","39","85104","0.0-6.0-2.11","60c837327440575481e333ce","bdp_sd","Sat Mar 25 2023 16:56:05 GMT-0700 (Mountain Standard Time)","112563","","1476","","","","","offer","","<div class='trialBorder'><div class='vertical-center'><img style='vertical-align:center; align:center' src=img/fixation3.jpg></div><div class='cl'><div class='vertical-center'>$85<br>for<br>April L.</div></div><div class='cr'><div class='vertical-center'>$69<br>for<br>yourself</div></div><div class='respDivL'><div class='vertical-center'>(E)</div></div><div class='respDivR'><div class='vertical-center'>(I)</div></div></div>","I","$69<br>for<br>yourself","$85<br>for<br>4","1","69","85","4","SELF"
"html-keyboard-response","40","85357","0.0-6.0-3.11","60c837327440575481e333ce","bdp_sd","Sat Mar 25 2023 16:56:05 GMT-0700 (Mountain Standard Time)","112563","","null","","","","","offerFB","","<div class='trialBorder'><div class='vertical-center'><img style='vertical-align:center; align:center' src=img/fixation3.jpg></div><div class='cl'><div class='vertical-center'>$85<br>for<br>April L.</div></div><div class='cr'><div class='vertical-center'><font style='color:orange'>$69<br>for<br>yourself</font></div></div><div class='respDivL'><div class='vertical-center'>(E)</div></div><div class='respDivR'><div class='vertical-center'><font style='color:orange'>(I)</font></div></div></div>","null","$69<br>for<br>yourself","$85<br>for<br>4","1","69","85","4",""
"html-keyboard-response","41","85857","0.0-6.0-1.12","60c837327440575481e333ce","bdp_sd","Sat Mar 25 2023 16:56:05 GMT-0700 (Mountain Standard Time)","112563","","null","","","","","FIX","","<div class='trialBorder'><div class='vertical-center'><img style='vertical-align:center; align:center' src=img/fixation3.jpg></div></div>","null","","","","","","",""
"html-keyboard-response","42","87712","0.0-6.0-2.12","60c837327440575481e333ce","bdp_sd","Sat Mar 25 2023 16:56:05 GMT-0700 (Mountain Standard Time)","112563","","1854","","","","","offer","","<div class='trialBorder'><div class='vertical-center'><img style='vertical-align:center; align:center' src=img/fixation3.jpg></div><div class='cl'><div class='vertical-center'>$55<br>for<br>April L.</div></div><div class='cr'><div class='vertical-center'>$40<br>for<br>yourself</div></div><div class='respDivL'><div class='vertical-center'>(E)</div></div><div class='respDivR'><div class='vertical-center'>(I)</div></div></div>","I","$40<br>for<br>yourself","$55<br>for<br>4","1","40","55","4","SELF"
"html-keyboard-response","43","87965","0.0-6.0-3.12","60c837327440575481e333ce","bdp_sd","Sat Mar 25 2023 16:56:05 GMT-0700 (Mountain Standard Time)","112563","","null","","","","","offerFB","","<div class='trialBorder'><div class='vertical-center'><img style='vertical-align:center; align:center' src=img/fixation3.jpg></div><div class='cl'><div class='vertical-center'>$55<br>for<br>April L.</div></div><div class='cr'><div class='vertical-center'><font style='color:orange'>$40<br>for<br>yourself</font></div></div><div class='respDivL'><div class='vertical-center'>(E)</div></div><div class='respDivR'><div class='vertical-center'><font style='color:orange'>(I)</font></div></div></div>","null","$40<br>for<br>yourself","$55<br>for<br>4","1","40","55","4",""
"html-keyboard-response","44","88466","0.0-6.0-1.13","60c837327440575481e333ce","bdp_sd","Sat Mar 25 2023 16:56:05 GMT-0700 (Mountain Standard Time)","112563","","null","","","","","FIX","","<div class='trialBorder'><div class='vertical-center'><img style='vertical-align:center; align:center' src=img/fixation3.jpg></div></div>","null","","","","","","",""
"html-keyboard-response","45","89573","0.0-6.0-2.13","60c837327440575481e333ce","bdp_sd","Sat Mar 25 2023 16:56:05 GMT-0700 (Mountain Standard Time)","112563","","1107","","","","","offer","","<div class='trialBorder'><div class='vertical-center'><img style='vertical-align:center; align:center' src=img/fixation3.jpg></div><div class='cl'><div class='vertical-center'>$54<br>for<br>yourself</div></div><div class='cr'><div class='vertical-center'>$60<br>for<br>Zhong H.</div></div><div class='respDivL'><div class='vertical-center'>(E)</div></div><div class='respDivR'><div class='vertical-center'>(I)</div></div></div>","E","$54<br>for<br>yourself","$60<br>for<br>5","0","54","60","5","SELF"
"html-keyboard-response","46","89825","0.0-6.0-3.13","60c837327440575481e333ce","bdp_sd","Sat Mar 25 2023 16:56:05 GMT-0700 (Mountain Standard Time)","112563","","null","","","","","offerFB","","<div class='trialBorder'><div class='vertical-center'><img style='vertical-align:center; align:center' src=img/fixation3.jpg></div><div class='cl'><div class='vertical-center'><font style='color:orange'>$54<br>for<br>yourself</font></div></div><div class='cr'><div class='vertical-center'>$60<br>for<br>Zhong H.</div></div><div class='respDivL'><div class='vertical-center'><font style='color:orange'>(E)</font></div></div><div class='respDivR'><div class='vertical-center'>(I)</div></div></div>","null","$54<br>for<br>yourself","$60<br>for<br>5","0","54","60","5",""
"html-keyboard-response","47","90327","0.0-6.0-1.14","60c837327440575481e333ce","bdp_sd","Sat Mar 25 2023 16:56:05 GMT-0700 (Mountain Standard Time)","112563","","null","","","","","FIX","","<div class='trialBorder'><div class='vertical-center'><img style='vertical-align:center; align:center' src=img/fixation3.jpg></div></div>","null","","","","","","",""
"html-keyboard-response","48","91182","0.0-6.0-2.14","60c837327440575481e333ce","bdp_sd","Sat Mar 25 2023 16:56:05 GMT-0700 (Mountain Standard Time)","112563","","854","","","","","offer","","<div class='trialBorder'><div class='vertical-center'><img style='vertical-align:center; align:center' src=img/fixation3.jpg></div><div class='cl'><div class='vertical-center'>$34<br>for<br>yourself</div></div><div class='cr'><div class='vertical-center'>$50<br>for<br>April L.</div></div><div class='respDivL'><div class='vertical-center'>(E)</div></div><div class='respDivR'><div class='vertical-center'>(I)</div></div></div>","E","$34<br>for<br>yourself","$50<br>for<br>4","0","34","50","4","SELF"
"html-keyboard-response","49","91434","0.0-6.0-3.14","60c837327440575481e333ce","bdp_sd","Sat Mar 25 2023 16:56:05 GMT-0700 (Mountain Standard Time)","112563","","null","","","","","offerFB","","<div class='trialBorder'><div class='vertical-center'><img style='vertical-align:center; align:center' src=img/fixation3.jpg></div><div class='cl'><div class='vertical-center'><font style='color:orange'>$34<br>for<br>yourself</font></div></div><div class='cr'><div class='vertical-center'>$50<br>for<br>April L.</div></div><div class='respDivL'><div class='vertical-center'><font style='color:orange'>(E)</font></div></div><div class='respDivR'><div class='vertical-center'>(I)</div></div></div>","null","$34<br>for<br>yourself","$50<br>for<br>4","0","34","50","4",""
"html-keyboard-response","50","91935","0.0-6.0-1.15","60c837327440575481e333ce","bdp_sd","Sat Mar 25 2023 16:56:05 GMT-0700 (Mountain Standard Time)","112563","","null","","","","","FIX","","<div class='trialBorder'><div class='vertical-center'><img style='vertical-align:center; align:center' src=img/fixation3.jpg></div></div>","null","","","","","","",""
"html-keyboard-response","51","92699","0.0-6.0-2.15","60c837327440575481e333ce","bdp_sd","Sat Mar 25 2023 16:56:05 GMT-0700 (Mountain Standard Time)","112563","","764","","","","","offer","","<div class='trialBorder'><div class='vertical-center'><img style='vertical-align:center; align:center' src=img/fixation3.jpg></div><div class='cl'><div class='vertical-center'>$85<br>for<br>Zhong H.</div></div><div class='cr'><div class='vertical-center'>$80<br>for<br>yourself</div></div><div class='respDivL'><div class='vertical-center'>(E)</div></div><div class='respDivR'><div class='vertical-center'>(I)</div></div></div>","I","$80<br>for<br>yourself","$85<br>for<br>5","1","80","85","5","SELF"
"html-keyboard-response","52","92951","0.0-6.0-3.15","60c837327440575481e333ce","bdp_sd","Sat Mar 25 2023 16:56:05 GMT-0700 (Mountain Standard Time)","112563","","null","","","","","offerFB","","<div class='trialBorder'><div class='vertical-center'><img style='vertical-align:center; align:center' src=img/fixation3.jpg></div><div class='cl'><div class='vertical-center'>$85<br>for<br>Zhong H.</div></div><div class='cr'><div class='vertical-center'><font style='color:orange'>$80<br>for<br>yourself</font></div></div><div class='respDivL'><div class='vertical-center'>(E)</div></div><div class='respDivR'><div class='vertical-center'><font style='color:orange'>(I)</font></div></div></div>","null","$80<br>for<br>yourself","$85<br>for<br>5","1","80","85","5",""
"html-keyboard-response","53","93453","0.0-6.0-1.16","60c837327440575481e333ce","bdp_sd","Sat Mar 25 2023 16:56:05 GMT-0700 (Mountain Standard Time)","112563","","null","","","","","FIX","","<div class='trialBorder'><div class='vertical-center'><img style='vertical-align:center; align:center' src=img/fixation3.jpg></div></div>","null","","","","","","",""
"html-keyboard-response","54","94508","0.0-6.0-2.16","60c837327440575481e333ce","bdp_sd","Sat Mar 25 2023 16:56:05 GMT-0700 (Mountain Standard Time)","112563","","1055","","","","","offer","","<div class='trialBorder'><div class='vertical-center'><img style='vertical-align:center; align:center' src=img/fixation3.jpg></div><div class='cl'><div class='vertical-center'>$78<br>for<br>yourself</div></div><div class='cr'><div class='vertical-center'>$80<br>for<br>Zhong H.</div></div><div class='respDivL'><div class='vertical-center'>(E)</div></div><div class='respDivR'><div class='vertical-center'>(I)</div></div></div>","E","$78<br>for<br>yourself","$80<br>for<br>5","0","78","80","5","SELF"
"html-keyboard-response","55","94760","0.0-6.0-3.16","60c837327440575481e333ce","bdp_sd","Sat Mar 25 2023 16:56:05 GMT-0700 (Mountain Standard Time)","112563","","null","","","","","offerFB","","<div class='trialBorder'><div class='vertical-center'><img style='vertical-align:center; align:center' src=img/fixation3.jpg></div><div class='cl'><div class='vertical-center'><font style='color:orange'>$78<br>for<br>yourself</font></div></div><div class='cr'><div class='vertical-center'>$80<br>for<br>Zhong H.</div></div><div class='respDivL'><div class='vertical-center'><font style='color:orange'>(E)</font></div></div><div class='respDivR'><div class='vertical-center'>(I)</div></div></div>","null","$78<br>for<br>yourself","$80<br>for<br>5","0","78","80","5",""
"html-keyboard-response","56","95261","0.0-6.0-1.17","60c837327440575481e333ce","bdp_sd","Sat Mar 25 2023 16:56:05 GMT-0700 (Mountain Standard Time)","112563","","null","","","","","FIX","","<div class='trialBorder'><div class='vertical-center'><img style='vertical-align:center; align:center' src=img/fixation3.jpg></div></div>","null","","","","","","",""
"html-keyboard-response","57","96098","0.0-6.0-2.17","60c837327440575481e333ce","bdp_sd","Sat Mar 25 2023 16:56:05 GMT-0700 (Mountain Standard Time)","112563","","836","","","","","offer","","<div class='trialBorder'><div class='vertical-center'><img style='vertical-align:center; align:center' src=img/fixation3.jpg></div><div class='cl'><div class='vertical-center'>$35<br>for<br>Alana S.</div></div><div class='cr'><div class='vertical-center'>$24<br>for<br>yourself</div></div><div class='respDivL'><div class='vertical-center'>(E)</div></div><div class='respDivR'><div class='vertical-center'>(I)</div></div></div>","I","$24<br>for<br>yourself","$35<br>for<br>3","1","24","35","3","SELF"
"html-keyboard-response","58","96349","0.0-6.0-3.17","60c837327440575481e333ce","bdp_sd","Sat Mar 25 2023 16:56:05 GMT-0700 (Mountain Standard Time)","112563","","null","","","","","offerFB","","<div class='trialBorder'><div class='vertical-center'><img style='vertical-align:center; align:center' src=img/fixation3.jpg></div><div class='cl'><div class='vertical-center'>$35<br>for<br>Alana S.</div></div><div class='cr'><div class='vertical-center'><font style='color:orange'>$24<br>for<br>yourself</font></div></div><div class='respDivL'><div class='vertical-center'>(E)</div></div><div class='respDivR'><div class='vertical-center'><font style='color:orange'>(I)</font></div></div></div>","null","$24<br>for<br>yourself","$35<br>for<br>3","1","24","35","3",""
"html-keyboard-response","59","96851","0.0-6.0-1.18","60c837327440575481e333ce","bdp_sd","Sat Mar 25 2023 16:56:05 GMT-0700 (Mountain Standard Time)","112563","","null","","","","","FIX","","<div class='trialBorder'><div class='vertical-center'><img style='vertical-align:center; align:center' src=img/fixation3.jpg></div></div>","null","","","","","","",""
"html-keyboard-response","60","97689","0.0-6.0-2.18","60c837327440575481e333ce","bdp_sd","Sat Mar 25 2023 16:56:05 GMT-0700 (Mountain Standard Time)","112563","","837","","","","","offer","","<div class='trialBorder'><div class='vertical-center'><img style='vertical-align:center; align:center' src=img/fixation3.jpg></div><div class='cl'><div class='vertical-center'>$25<br>for<br>April L.</div></div><div class='cr'><div class='vertical-center'>$19<br>for<br>yourself</div></div><div class='respDivL'><div class='vertical-center'>(E)</div></div><div class='respDivR'><div class='vertical-center'>(I)</div></div></div>","E","$19<br>for<br>yourself","$25<br>for<br>4","1","19","25","4","OTHER"
"html-keyboard-response","61","97941","0.0-6.0-3.18","60c837327440575481e333ce","bdp_sd","Sat Mar 25 2023 16:56:05 GMT-0700 (Mountain Standard Time)","112563","","null","","","","","offerFB","","<div class='trialBorder'><div class='vertical-center'><img style='vertical-align:center; align:center' src=img/fixation3.jpg></div><div class='cl'><div class='vertical-center'><font style='color:orange'>$25<br>for<br>April L.</font></div></div><div class='cr'><div class='vertical-center'>$19<br>for<br>yourself</div></div><div class='respDivL'><div class='vertical-center'><font style='color:orange'>(E)</font></div></div><div class='respDivR'><div class='vertical-center'>(I)</div></div></div>","null","$19<br>for<br>yourself","$25<br>for<br>4","1","19","25","4",""
"html-keyboard-response","62","98444","0.0-6.0-1.19","60c837327440575481e333ce","bdp_sd","Sat Mar 25 2023 16:56:05 GMT-0700 (Mountain Standard Time)","112563","","null","","","","","FIX","","<div class='trialBorder'><div class='vertical-center'><img style='vertical-align:center; align:center' src=img/fixation3.jpg></div></div>","null","","","","","","",""
"html-keyboard-response","63","99286","0.0-6.0-2.19","60c837327440575481e333ce","bdp_sd","Sat Mar 25 2023 16:56:05 GMT-0700 (Mountain Standard Time)","112563","","842","","","","","offer","","<div class='trialBorder'><div class='vertical-center'><img style='vertical-align:center; align:center' src=img/fixation3.jpg></div><div class='cl'><div class='vertical-center'>$14<br>for<br>yourself</div></div><div class='cr'><div class='vertical-center'>$25<br>for<br>Alana S.</div></div><div class='respDivL'><div class='vertical-center'>(E)</div></div><div class='respDivR'><div class='vertical-center'>(I)</div></div></div>","I","$14<br>for<br>yourself","$25<br>for<br>3","0","14","25","3","OTHER"
"html-keyboard-response","64","99538","0.0-6.0-3.19","60c837327440575481e333ce","bdp_sd","Sat Mar 25 2023 16:56:05 GMT-0700 (Mountain Standard Time)","112563","","null","","","","","offerFB","","<div class='trialBorder'><div class='vertical-center'><img style='vertical-align:center; align:center' src=img/fixation3.jpg></div><div class='cl'><div class='vertical-center'>$14<br>for<br>yourself</div></div><div class='cr'><div class='vertical-center'><font style='color:orange'>$25<br>for<br>Alana S.</font></div></div><div class='respDivL'><div class='vertical-center'>(E)</div></div><div class='respDivR'><div class='vertical-center'><font style='color:orange'>(I)</font></div></div></div>","null","$14<br>for<br>yourself","$25<br>for<br>3","0","14","25","3",""
"html-keyboard-response","65","100039","0.0-6.0-1.20","60c837327440575481e333ce","bdp_sd","Sat Mar 25 2023 16:56:05 GMT-0700 (Mountain Standard Time)","112563","","null","","","","","FIX","","<div class='trialBorder'><div class='vertical-center'><img style='vertical-align:center; align:center' src=img/fixation3.jpg></div></div>","null","","","","","","",""
"html-keyboard-response","66","100721","0.0-6.0-2.20","60c837327440575481e333ce","bdp_sd","Sat Mar 25 2023 16:56:05 GMT-0700 (Mountain Standard Time)","112563","","681","","","","","offer","","<div class='trialBorder'><div class='vertical-center'><img style='vertical-align:center; align:center' src=img/fixation3.jpg></div><div class='cl'><div class='vertical-center'>$30<br>for<br>April L.</div></div><div class='cr'><div class='vertical-center'>$25<br>for<br>yourself</div></div><div class='respDivL'><div class='vertical-center'>(E)</div></div><div class='respDivR'><div class='vertical-center'>(I)</div></div></div>","E","$25<br>for<br>yourself","$30<br>for<br>4","1","25","30","4","OTHER"
"html-keyboard-response","67","100972","0.0-6.0-3.20","60c837327440575481e333ce","bdp_sd","Sat Mar 25 2023 16:56:05 GMT-0700 (Mountain Standard Time)","112563","","null","","","","","offerFB","","<div class='trialBorder'><div class='vertical-center'><img style='vertical-align:center; align:center' src=img/fixation3.jpg></div><div class='cl'><div class='vertical-center'><font style='color:orange'>$30<br>for<br>April L.</font></div></div><div class='cr'><div class='vertical-center'>$25<br>for<br>yourself</div></div><div class='respDivL'><div class='vertical-center'><font style='color:orange'>(E)</font></div></div><div class='respDivR'><div class='vertical-center'>(I)</div></div></div>","null","$25<br>for<br>yourself","$30<br>for<br>4","1","25","30","4",""
"html-keyboard-response","68","101473","0.0-6.0-1.21","60c837327440575481e333ce","bdp_sd","Sat Mar 25 2023 16:56:05 GMT-0700 (Mountain Standard Time)","112563","","null","","","","","FIX","","<div class='trialBorder'><div class='vertical-center'><img style='vertical-align:center; align:center' src=img/fixation3.jpg></div></div>","null","","","","","","",""
"html-keyboard-response","69","102133","0.0-6.0-2.21","60c837327440575481e333ce","bdp_sd","Sat Mar 25 2023 16:56:05 GMT-0700 (Mountain Standard Time)","112563","","659","","","","","offer","","<div class='trialBorder'><div class='vertical-center'><img style='vertical-align:center; align:center' src=img/fixation3.jpg></div><div class='cl'><div class='vertical-center'>$55<br>for<br>Josh M.</div></div><div class='cr'><div class='vertical-center'>$20<br>for<br>yourself</div></div><div class='respDivL'><div class='vertical-center'>(E)</div></div><div class='respDivR'><div class='vertical-center'>(I)</div></div></div>","E","$20<br>for<br>yourself","$55<br>for<br>1","1","20","55","1","OTHER"
"html-keyboard-response","70","102384","0.0-6.0-3.21","60c837327440575481e333ce","bdp_sd","Sat Mar 25 2023 16:56:05 GMT-0700 (Mountain Standard Time)","112563","","null","","","","","offerFB","","<div class='trialBorder'><div class='vertical-center'><img style='vertical-align:center; align:center' src=img/fixation3.jpg></div><div class='cl'><div class='vertical-center'><font style='color:orange'>$55<br>for<br>Josh M.</font></div></div><div class='cr'><div class='vertical-center'>$20<br>for<br>yourself</div></div><div class='respDivL'><div class='vertical-center'><font style='color:orange'>(E)</font></div></div><div class='respDivR'><div class='vertical-center'>(I)</div></div></div>","null","$20<br>for<br>yourself","$55<br>for<br>1","1","20","55","1",""
"html-keyboard-response","71","102886","0.0-6.0-1.22","60c837327440575481e333ce","bdp_sd","Sat Mar 25 2023 16:56:05 GMT-0700 (Mountain Standard Time)","112563","","null","","","","","FIX","","<div class='trialBorder'><div class='vertical-center'><img style='vertical-align:center; align:center' src=img/fixation3.jpg></div></div>","null","","","","","","",""
"html-keyboard-response","72","103752","0.0-6.0-2.22","60c837327440575481e333ce","bdp_sd","Sat Mar 25 2023 16:56:05 GMT-0700 (Mountain Standard Time)","112563","","866","","","","","offer","","<div class='trialBorder'><div class='vertical-center'><img style='vertical-align:center; align:center' src=img/fixation3.jpg></div><div class='cl'><div class='vertical-center'>$75<br>for<br>April L.</div></div><div class='cr'><div class='vertical-center'>$55<br>for<br>yourself</div></div><div class='respDivL'><div class='vertical-center'>(E)</div></div><div class='respDivR'><div class='vertical-center'>(I)</div></div></div>","I","$55<br>for<br>yourself","$75<br>for<br>4","1","55","75","4","SELF"
"html-keyboard-response","73","104003","0.0-6.0-3.22","60c837327440575481e333ce","bdp_sd","Sat Mar 25 2023 16:56:05 GMT-0700 (Mountain Standard Time)","112563","","null","","","","","offerFB","","<div class='trialBorder'><div class='vertical-center'><img style='vertical-align:center; align:center' src=img/fixation3.jpg></div><div class='cl'><div class='vertical-center'>$75<br>for<br>April L.</div></div><div class='cr'><div class='vertical-center'><font style='color:orange'>$55<br>for<br>yourself</font></div></div><div class='respDivL'><div class='vertical-center'>(E)</div></div><div class='respDivR'><div class='vertical-center'><font style='color:orange'>(I)</font></div></div></div>","null","$55<br>for<br>yourself","$75<br>for<br>4","1","55","75","4",""
"html-keyboard-response","74","104504","0.0-6.0-1.23","60c837327440575481e333ce","bdp_sd","Sat Mar 25 2023 16:56:05 GMT-0700 (Mountain Standard Time)","112563","","null","","","","","FIX","","<div class='trialBorder'><div class='vertical-center'><img style='vertical-align:center; align:center' src=img/fixation3.jpg></div></div>","null","","","","","","",""
"html-keyboard-response","75","106398","0.0-6.0-2.23","60c837327440575481e333ce","bdp_sd","Sat Mar 25 2023 16:56:05 GMT-0700 (Mountain Standard Time)","112563","","1893","","","","","offer","","<div class='trialBorder'><div class='vertical-center'><img style='vertical-align:center; align:center' src=img/fixation3.jpg></div><div class='cl'><div class='vertical-center'>$34<br>for<br>yourself</div></div><div class='cr'><div class='vertical-center'>$35<br>for<br>Zhong H.</div></div><div class='respDivL'><div class='vertical-center'>(E)</div></div><div class='respDivR'><div class='vertical-center'>(I)</div></div></div>","E","$34<br>for<br>yourself","$35<br>for<br>5","0","34","35","5","SELF"
"html-keyboard-response","76","106650","0.0-6.0-3.23","60c837327440575481e333ce","bdp_sd","Sat Mar 25 2023 16:56:05 GMT-0700 (Mountain Standard Time)","112563","","null","","","","","offerFB","","<div class='trialBorder'><div class='vertical-center'><img style='vertical-align:center; align:center' src=img/fixation3.jpg></div><div class='cl'><div class='vertical-center'><font style='color:orange'>$34<br>for<br>yourself</font></div></div><div class='cr'><div class='vertical-center'>$35<br>for<br>Zhong H.</div></div><div class='respDivL'><div class='vertical-center'><font style='color:orange'>(E)</font></div></div><div class='respDivR'><div class='vertical-center'>(I)</div></div></div>","null","$34<br>for<br>yourself","$35<br>for<br>5","0","34","35","5",""
"html-keyboard-response","77","107152","0.0-6.0-1.24","60c837327440575481e333ce","bdp_sd","Sat Mar 25 2023 16:56:05 GMT-0700 (Mountain Standard Time)","112563","","null","","","","","FIX","","<div class='trialBorder'><div class='vertical-center'><img style='vertical-align:center; align:center' src=img/fixation3.jpg></div></div>","null","","","","","","",""
"html-keyboard-response","78","108293","0.0-6.0-2.24","60c837327440575481e333ce","bdp_sd","Sat Mar 25 2023 16:56:05 GMT-0700 (Mountain Standard Time)","112563","","1141","","","","","offer","","<div class='trialBorder'><div class='vertical-center'><img style='vertical-align:center; align:center' src=img/fixation3.jpg></div><div class='cl'><div class='vertical-center'>$33<br>for<br>yourself</div></div><div class='cr'><div class='vertical-center'>$80<br>for<br>Marrisa L.</div></div><div class='respDivL'><div class='vertical-center'>(E)</div></div><div class='respDivR'><div class='vertical-center'>(I)</div></div></div>","E","$33<br>for<br>yourself","$80<br>for<br>2","0","33","80","2","SELF"
"html-keyboard-response","79","108544","0.0-6.0-3.24","60c837327440575481e333ce","bdp_sd","Sat Mar 25 2023 16:56:05 GMT-0700 (Mountain Standard Time)","112563","","null","","","","","offerFB","","<div class='trialBorder'><div class='vertical-center'><img style='vertical-align:center; align:center' src=img/fixation3.jpg></div><div class='cl'><div class='vertical-center'><font style='color:orange'>$33<br>for<br>yourself</font></div></div><div class='cr'><div class='vertical-center'>$80<br>for<br>Marrisa L.</div></div><div class='respDivL'><div class='vertical-center'><font style='color:orange'>(E)</font></div></div><div class='respDivR'><div class='vertical-center'>(I)</div></div></div>","null","$33<br>for<br>yourself","$80<br>for<br>2","0","33","80","2",""
"html-keyboard-response","80","109046","0.0-6.0-1.25","60c837327440575481e333ce","bdp_sd","Sat Mar 25 2023 16:56:05 GMT-0700 (Mountain Standard Time)","112563","","null","","","","","FIX","","<div class='trialBorder'><div class='vertical-center'><img style='vertical-align:center; align:center' src=img/fixation3.jpg></div></div>","null","","","","","","",""
"html-keyboard-response","81","109900","0.0-6.0-2.25","60c837327440575481e333ce","bdp_sd","Sat Mar 25 2023 16:56:05 GMT-0700 (Mountain Standard Time)","112563","","854","","","","","offer","","<div class='trialBorder'><div class='vertical-center'><img style='vertical-align:center; align:center' src=img/fixation3.jpg></div><div class='cl'><div class='vertical-center'>$11<br>for<br>yourself</div></div><div class='cr'><div class='vertical-center'>$30<br>for<br>Marrisa L.</div></div><div class='respDivL'><div class='vertical-center'>(E)</div></div><div class='respDivR'><div class='vertical-center'>(I)</div></div></div>","E","$11<br>for<br>yourself","$30<br>for<br>2","0","11","30","2","SELF"
"html-keyboard-response","82","110152","0.0-6.0-3.25","60c837327440575481e333ce","bdp_sd","Sat Mar 25 2023 16:56:05 GMT-0700 (Mountain Standard Time)","112563","","null","","","","","offerFB","","<div class='trialBorder'><div class='vertical-center'><img style='vertical-align:center; align:center' src=img/fixation3.jpg></div><div class='cl'><div class='vertical-center'><font style='color:orange'>$11<br>for<br>yourself</font></div></div><div class='cr'><div class='vertical-center'>$30<br>for<br>Marrisa L.</div></div><div class='respDivL'><div class='vertical-center'><font style='color:orange'>(E)</font></div></div><div class='respDivR'><div class='vertical-center'>(I)</div></div></div>","null","$11<br>for<br>yourself","$30<br>for<br>2","0","11","30","2",""
"html-keyboard-response","83","110652","0.0-6.0-1.26","60c837327440575481e333ce","bdp_sd","Sat Mar 25 2023 16:56:05 GMT-0700 (Mountain Standard Time)","112563","","null","","","","","FIX","","<div class='trialBorder'><div class='vertical-center'><img style='vertical-align:center; align:center' src=img/fixation3.jpg></div></div>","null","","","","","","",""
"html-keyboard-response","84","111310","0.0-6.0-2.26","60c837327440575481e333ce","bdp_sd","Sat Mar 25 2023 16:56:05 GMT-0700 (Mountain Standard Time)","112563","","657","","","","","offer","","<div class='trialBorder'><div class='vertical-center'><img style='vertical-align:center; align:center' src=img/fixation3.jpg></div><div class='cl'><div class='vertical-center'>$47<br>for<br>yourself</div></div><div class='cr'><div class='vertical-center'>$50<br>for<br>Zhong H.</div></div><div class='respDivL'><div class='vertical-center'>(E)</div></div><div class='respDivR'><div class='vertical-center'>(I)</div></div></div>","E","$47<br>for<br>yourself","$50<br>for<br>5","0","47","50","5","SELF"
"html-keyboard-response","85","111561","0.0-6.0-3.26","60c837327440575481e333ce","bdp_sd","Sat Mar 25 2023 16:56:05 GMT-0700 (Mountain Standard Time)","112563","","null","","","","","offerFB","","<div class='trialBorder'><div class='vertical-center'><img style='vertical-align:center; align:center' src=img/fixation3.jpg></div><div class='cl'><div class='vertical-center'><font style='color:orange'>$47<br>for<br>yourself</font></div></div><div class='cr'><div class='vertical-center'>$50<br>for<br>Zhong H.</div></div><div class='respDivL'><div class='vertical-center'><font style='color:orange'>(E)</font></div></div><div class='respDivR'><div class='vertical-center'>(I)</div></div></div>","null","$47<br>for<br>yourself","$50<br>for<br>5","0","47","50","5",""
"","","","","60c837327440575481e333ce","bdp_sd","Sat Mar 25 2023 16:56:05 GMT-0700 (Mountain Standard Time)","112563","","","","fullscreenexit","86","111585","fullscreenexit","","","","","","","","","",""
"fullscreen","86","112562","0.0-7.0","60c837327440575481e333ce","bdp_sd","Sat Mar 25 2023 16:56:05 GMT-0700 (Mountain Standard Time)","112563","","","","","","","","true","","","","","","","","",""
"html-keyboard-response","87","113064","0.0-8.0","","","","","","null","","","","","","","","null","","","","","","",""
