"trial_type","trial_index","time_elapsed","internal_node_id","subject_id","task","startTime","totalTime","view_history","rt","responses","event","trial","time","trialtype","success","stimulus","key_press","selfOffer","otherOffer","otherLeft","selfAmt","otherAmt","otherDist","chosen"
"pavlovia","0","25","0.0-0.0","5c4e31b37065de00011f795d","bdp_sd","Sun Apr 02 2023 11:17:50 GMT-0600 (Mountain Daylight Time)","269310","","","","","","","","","","","","","","","","",""
"instructions","1","5485","0.0-1.0","5c4e31b37065de00011f795d","bdp_sd","Sun Apr 02 2023 11:17:50 GMT-0600 (Mountain Daylight Time)","269310","[{""page_index"":0,""viewing_time"":5457}]","5457","","","","","","","","","","","","","","",""
"survey-text","2","153878","0.0-2.0","5c4e31b37065de00011f795d","bdp_sd","Sun Apr 02 2023 11:17:50 GMT-0600 (Mountain Daylight Time)","269310","","148384","{""Q0"":""Stephanie S"",""Q1"":""Shanelle C"",""Q2"":""Mira J"",""Q3"":""Machelle M"",""Q4"":""Mckenna A""}","","","","","","","","","","","","","",""
"","","","","5c4e31b37065de00011f795d","bdp_sd","Sun Apr 02 2023 11:17:50 GMT-0600 (Mountain Daylight Time)","269310","","","","fullscreenenter","3","156203","fullscreenenter","","","","","","","","","",""
"fullscreen","3","157195","0.0-3.0","5c4e31b37065de00011f795d","bdp_sd","Sun Apr 02 2023 11:17:50 GMT-0600 (Mountain Daylight Time)","269310","","","","","","","","true","","","","","","","","",""
"instructions","4","200228","0.0-5.0","5c4e31b37065de00011f795d","bdp_sd","Sun Apr 02 2023 11:17:50 GMT-0600 (Mountain Daylight Time)","269310","[{""page_index"":0,""viewing_time"":12828},{""page_index"":1,""viewing_time"":19365},{""page_index"":2,""viewing_time"":10832}]","43026","","","","","","","","","","","","","","",""
"html-keyboard-response","5","200738","0.0-6.0-1.0","5c4e31b37065de00011f795d","bdp_sd","Sun Apr 02 2023 11:17:50 GMT-0600 (Mountain Daylight Time)","269310","","null","","","","","FIX","","<div class='trialBorder'><div class='vertical-center'><img style='vertical-align:center; align:center' src=img/fixation3.jpg></div></div>","null","","","","","","",""
"html-keyboard-response","6","208010","0.0-6.0-2.0","5c4e31b37065de00011f795d","bdp_sd","Sun Apr 02 2023 11:17:50 GMT-0600 (Mountain Daylight Time)","269310","","7266","","","","","offer","","<div class='trialBorder'><div class='vertical-center'><img style='vertical-align:center; align:center' src=img/fixation3.jpg></div><div class='cl'><div class='vertical-center'>$34<br>for<br>yourself</div></div><div class='cr'><div class='vertical-center'>$50<br>for<br>Machelle M</div></div><div class='respDivL'><div class='vertical-center'>(E)</div></div><div class='respDivR'><div class='vertical-center'>(I)</div></div></div>","E","$34<br>for<br>yourself","$50<br>for<br>4","0","34","50","4","SELF"
"html-keyboard-response","7","208275","0.0-6.0-3.0","5c4e31b37065de00011f795d","bdp_sd","Sun Apr 02 2023 11:17:50 GMT-0600 (Mountain Daylight Time)","269310","","null","","","","","offerFB","","<div class='trialBorder'><div class='vertical-center'><img style='vertical-align:center; align:center' src=img/fixation3.jpg></div><div class='cl'><div class='vertical-center'><font style='color:orange'>$34<br>for<br>yourself</font></div></div><div class='cr'><div class='vertical-center'>$50<br>for<br>Machelle M</div></div><div class='respDivL'><div class='vertical-center'><font style='color:orange'>(E)</font></div></div><div class='respDivR'><div class='vertical-center'>(I)</div></div></div>","null","$34<br>for<br>yourself","$50<br>for<br>4","0","34","50","4",""
"html-keyboard-response","8","208780","0.0-6.0-1.1","5c4e31b37065de00011f795d","bdp_sd","Sun Apr 02 2023 11:17:50 GMT-0600 (Mountain Daylight Time)","269310","","null","","","","","FIX","","<div class='trialBorder'><div class='vertical-center'><img style='vertical-align:center; align:center' src=img/fixation3.jpg></div></div>","null","","","","","","",""
"html-keyboard-response","9","212664","0.0-6.0-2.1","5c4e31b37065de00011f795d","bdp_sd","Sun Apr 02 2023 11:17:50 GMT-0600 (Mountain Daylight Time)","269310","","3880","","","","","offer","","<div class='trialBorder'><div class='vertical-center'><img style='vertical-align:center; align:center' src=img/fixation3.jpg></div><div class='cl'><div class='vertical-center'>$34<br>for<br>yourself</div></div><div class='cr'><div class='vertical-center'>$35<br>for<br>Mckenna A</div></div><div class='respDivL'><div class='vertical-center'>(E)</div></div><div class='respDivR'><div class='vertical-center'>(I)</div></div></div>","E","$34<br>for<br>yourself","$35<br>for<br>5","0","34","35","5","SELF"
"html-keyboard-response","10","212923","0.0-6.0-3.1","5c4e31b37065de00011f795d","bdp_sd","Sun Apr 02 2023 11:17:50 GMT-0600 (Mountain Daylight Time)","269310","","null","","","","","offerFB","","<div class='trialBorder'><div class='vertical-center'><img style='vertical-align:center; align:center' src=img/fixation3.jpg></div><div class='cl'><div class='vertical-center'><font style='color:orange'>$34<br>for<br>yourself</font></div></div><div class='cr'><div class='vertical-center'>$35<br>for<br>Mckenna A</div></div><div class='respDivL'><div class='vertical-center'><font style='color:orange'>(E)</font></div></div><div class='respDivR'><div class='vertical-center'>(I)</div></div></div>","null","$34<br>for<br>yourself","$35<br>for<br>5","0","34","35","5",""
"html-keyboard-response","11","213426","0.0-6.0-1.2","5c4e31b37065de00011f795d","bdp_sd","Sun Apr 02 2023 11:17:50 GMT-0600 (Mountain Daylight Time)","269310","","null","","","","","FIX","","<div class='trialBorder'><div class='vertical-center'><img style='vertical-align:center; align:center' src=img/fixation3.jpg></div></div>","null","","","","","","",""
"html-keyboard-response","12","215103","0.0-6.0-2.2","5c4e31b37065de00011f795d","bdp_sd","Sun Apr 02 2023 11:17:50 GMT-0600 (Mountain Daylight Time)","269310","","1673","","","","","offer","","<div class='trialBorder'><div class='vertical-center'><img style='vertical-align:center; align:center' src=img/fixation3.jpg></div><div class='cl'><div class='vertical-center'>$54<br>for<br>yourself</div></div><div class='cr'><div class='vertical-center'>$60<br>for<br>Mckenna A</div></div><div class='respDivL'><div class='vertical-center'>(E)</div></div><div class='respDivR'><div class='vertical-center'>(I)</div></div></div>","E","$54<br>for<br>yourself","$60<br>for<br>5","0","54","60","5","SELF"
"html-keyboard-response","13","215361","0.0-6.0-3.2","5c4e31b37065de00011f795d","bdp_sd","Sun Apr 02 2023 11:17:50 GMT-0600 (Mountain Daylight Time)","269310","","null","","","","","offerFB","","<div class='trialBorder'><div class='vertical-center'><img style='vertical-align:center; align:center' src=img/fixation3.jpg></div><div class='cl'><div class='vertical-center'><font style='color:orange'>$54<br>for<br>yourself</font></div></div><div class='cr'><div class='vertical-center'>$60<br>for<br>Mckenna A</div></div><div class='respDivL'><div class='vertical-center'><font style='color:orange'>(E)</font></div></div><div class='respDivR'><div class='vertical-center'>(I)</div></div></div>","null","$54<br>for<br>yourself","$60<br>for<br>5","0","54","60","5",""
"html-keyboard-response","14","215865","0.0-6.0-1.3","5c4e31b37065de00011f795d","bdp_sd","Sun Apr 02 2023 11:17:50 GMT-0600 (Mountain Daylight Time)","269310","","null","","","","","FIX","","<div class='trialBorder'><div class='vertical-center'><img style='vertical-align:center; align:center' src=img/fixation3.jpg></div></div>","null","","","","","","",""
"html-keyboard-response","15","217725","0.0-6.0-2.3","5c4e31b37065de00011f795d","bdp_sd","Sun Apr 02 2023 11:17:50 GMT-0600 (Mountain Daylight Time)","269310","","1855","","","","","offer","","<div class='trialBorder'><div class='vertical-center'><img style='vertical-align:center; align:center' src=img/fixation3.jpg></div><div class='cl'><div class='vertical-center'>$41<br>for<br>yourself</div></div><div class='cr'><div class='vertical-center'>$75<br>for<br>Mira J</div></div><div class='respDivL'><div class='vertical-center'>(E)</div></div><div class='respDivR'><div class='vertical-center'>(I)</div></div></div>","E","$41<br>for<br>yourself","$75<br>for<br>3","0","41","75","3","SELF"
"html-keyboard-response","16","217980","0.0-6.0-3.3","5c4e31b37065de00011f795d","bdp_sd","Sun Apr 02 2023 11:17:50 GMT-0600 (Mountain Daylight Time)","269310","","null","","","","","offerFB","","<div class='trialBorder'><div class='vertical-center'><img style='vertical-align:center; align:center' src=img/fixation3.jpg></div><div class='cl'><div class='vertical-center'><font style='color:orange'>$41<br>for<br>yourself</font></div></div><div class='cr'><div class='vertical-center'>$75<br>for<br>Mira J</div></div><div class='respDivL'><div class='vertical-center'><font style='color:orange'>(E)</font></div></div><div class='respDivR'><div class='vertical-center'>(I)</div></div></div>","null","$41<br>for<br>yourself","$75<br>for<br>3","0","41","75","3",""
"html-keyboard-response","17","218485","0.0-6.0-1.4","5c4e31b37065de00011f795d","bdp_sd","Sun Apr 02 2023 11:17:50 GMT-0600 (Mountain Daylight Time)","269310","","null","","","","","FIX","","<div class='trialBorder'><div class='vertical-center'><img style='vertical-align:center; align:center' src=img/fixation3.jpg></div></div>","null","","","","","","",""
"html-keyboard-response","18","220262","0.0-6.0-2.4","5c4e31b37065de00011f795d","bdp_sd","Sun Apr 02 2023 11:17:50 GMT-0600 (Mountain Daylight Time)","269310","","1772","","","","","offer","","<div class='trialBorder'><div class='vertical-center'><img style='vertical-align:center; align:center' src=img/fixation3.jpg></div><div class='cl'><div class='vertical-center'>$75<br>for<br>Mckenna A</div></div><div class='cr'><div class='vertical-center'>$67<br>for<br>yourself</div></div><div class='respDivL'><div class='vertical-center'>(E)</div></div><div class='respDivR'><div class='vertical-center'>(I)</div></div></div>","I","$67<br>for<br>yourself","$75<br>for<br>5","1","67","75","5","SELF"
"html-keyboard-response","19","220524","0.0-6.0-3.4","5c4e31b37065de00011f795d","bdp_sd","Sun Apr 02 2023 11:17:50 GMT-0600 (Mountain Daylight Time)","269310","","null","","","","","offerFB","","<div class='trialBorder'><div class='vertical-center'><img style='vertical-align:center; align:center' src=img/fixation3.jpg></div><div class='cl'><div class='vertical-center'>$75<br>for<br>Mckenna A</div></div><div class='cr'><div class='vertical-center'><font style='color:orange'>$67<br>for<br>yourself</font></div></div><div class='respDivL'><div class='vertical-center'>(E)</div></div><div class='respDivR'><div class='vertical-center'><font style='color:orange'>(I)</font></div></div></div>","null","$67<br>for<br>yourself","$75<br>for<br>5","1","67","75","5",""
"html-keyboard-response","20","221027","0.0-6.0-1.5","5c4e31b37065de00011f795d","bdp_sd","Sun Apr 02 2023 11:17:50 GMT-0600 (Mountain Daylight Time)","269310","","null","","","","","FIX","","<div class='trialBorder'><div class='vertical-center'><img style='vertical-align:center; align:center' src=img/fixation3.jpg></div></div>","null","","","","","","",""
"html-keyboard-response","21","222963","0.0-6.0-2.5","5c4e31b37065de00011f795d","bdp_sd","Sun Apr 02 2023 11:17:50 GMT-0600 (Mountain Daylight Time)","269310","","1931","","","","","offer","","<div class='trialBorder'><div class='vertical-center'><img style='vertical-align:center; align:center' src=img/fixation3.jpg></div><div class='cl'><div class='vertical-center'>$55<br>for<br>Machelle M</div></div><div class='cr'><div class='vertical-center'>$40<br>for<br>yourself</div></div><div class='respDivL'><div class='vertical-center'>(E)</div></div><div class='respDivR'><div class='vertical-center'>(I)</div></div></div>","I","$40<br>for<br>yourself","$55<br>for<br>4","1","40","55","4","SELF"
"html-keyboard-response","22","223223","0.0-6.0-3.5","5c4e31b37065de00011f795d","bdp_sd","Sun Apr 02 2023 11:17:50 GMT-0600 (Mountain Daylight Time)","269310","","null","","","","","offerFB","","<div class='trialBorder'><div class='vertical-center'><img style='vertical-align:center; align:center' src=img/fixation3.jpg></div><div class='cl'><div class='vertical-center'>$55<br>for<br>Machelle M</div></div><div class='cr'><div class='vertical-center'><font style='color:orange'>$40<br>for<br>yourself</font></div></div><div class='respDivL'><div class='vertical-center'>(E)</div></div><div class='respDivR'><div class='vertical-center'><font style='color:orange'>(I)</font></div></div></div>","null","$40<br>for<br>yourself","$55<br>for<br>4","1","40","55","4",""
"html-keyboard-response","23","223726","0.0-6.0-1.6","5c4e31b37065de00011f795d","bdp_sd","Sun Apr 02 2023 11:17:50 GMT-0600 (Mountain Daylight Time)","269310","","null","","","","","FIX","","<div class='trialBorder'><div class='vertical-center'><img style='vertical-align:center; align:center' src=img/fixation3.jpg></div></div>","null","","","","","","",""
"html-keyboard-response","24","225434","0.0-6.0-2.6","5c4e31b37065de00011f795d","bdp_sd","Sun Apr 02 2023 11:17:50 GMT-0600 (Mountain Daylight Time)","269310","","1704","","","","","offer","","<div class='trialBorder'><div class='vertical-center'><img style='vertical-align:center; align:center' src=img/fixation3.jpg></div><div class='cl'><div class='vertical-center'>$30<br>for<br>Machelle M</div></div><div class='cr'><div class='vertical-center'>$25<br>for<br>yourself</div></div><div class='respDivL'><div class='vertical-center'>(E)</div></div><div class='respDivR'><div class='vertical-center'>(I)</div></div></div>","I","$25<br>for<br>yourself","$30<br>for<br>4","1","25","30","4","SELF"
"html-keyboard-response","25","225691","0.0-6.0-3.6","5c4e31b37065de00011f795d","bdp_sd","Sun Apr 02 2023 11:17:50 GMT-0600 (Mountain Daylight Time)","269310","","null","","","","","offerFB","","<div class='trialBorder'><div class='vertical-center'><img style='vertical-align:center; align:center' src=img/fixation3.jpg></div><div class='cl'><div class='vertical-center'>$30<br>for<br>Machelle M</div></div><div class='cr'><div class='vertical-center'><font style='color:orange'>$25<br>for<br>yourself</font></div></div><div class='respDivL'><div class='vertical-center'>(E)</div></div><div class='respDivR'><div class='vertical-center'><font style='color:orange'>(I)</font></div></div></div>","null","$25<br>for<br>yourself","$30<br>for<br>4","1","25","30","4",""
"html-keyboard-response","26","226196","0.0-6.0-1.7","5c4e31b37065de00011f795d","bdp_sd","Sun Apr 02 2023 11:17:50 GMT-0600 (Mountain Daylight Time)","269310","","null","","","","","FIX","","<div class='trialBorder'><div class='vertical-center'><img style='vertical-align:center; align:center' src=img/fixation3.jpg></div></div>","null","","","","","","",""
"html-keyboard-response","27","227310","0.0-6.0-2.7","5c4e31b37065de00011f795d","bdp_sd","Sun Apr 02 2023 11:17:50 GMT-0600 (Mountain Daylight Time)","269310","","1108","","","","","offer","","<div class='trialBorder'><div class='vertical-center'><img style='vertical-align:center; align:center' src=img/fixation3.jpg></div><div class='cl'><div class='vertical-center'>$30<br>for<br>Mckenna A</div></div><div class='cr'><div class='vertical-center'>$28<br>for<br>yourself</div></div><div class='respDivL'><div class='vertical-center'>(E)</div></div><div class='respDivR'><div class='vertical-center'>(I)</div></div></div>","I","$28<br>for<br>yourself","$30<br>for<br>5","1","28","30","5","SELF"
"html-keyboard-response","28","227570","0.0-6.0-3.7","5c4e31b37065de00011f795d","bdp_sd","Sun Apr 02 2023 11:17:50 GMT-0600 (Mountain Daylight Time)","269310","","null","","","","","offerFB","","<div class='trialBorder'><div class='vertical-center'><img style='vertical-align:center; align:center' src=img/fixation3.jpg></div><div class='cl'><div class='vertical-center'>$30<br>for<br>Mckenna A</div></div><div class='cr'><div class='vertical-center'><font style='color:orange'>$28<br>for<br>yourself</font></div></div><div class='respDivL'><div class='vertical-center'>(E)</div></div><div class='respDivR'><div class='vertical-center'><font style='color:orange'>(I)</font></div></div></div>","null","$28<br>for<br>yourself","$30<br>for<br>5","1","28","30","5",""
"html-keyboard-response","29","228078","0.0-6.0-1.8","5c4e31b37065de00011f795d","bdp_sd","Sun Apr 02 2023 11:17:50 GMT-0600 (Mountain Daylight Time)","269310","","null","","","","","FIX","","<div class='trialBorder'><div class='vertical-center'><img style='vertical-align:center; align:center' src=img/fixation3.jpg></div></div>","null","","","","","","",""
"html-keyboard-response","30","229691","0.0-6.0-2.8","5c4e31b37065de00011f795d","bdp_sd","Sun Apr 02 2023 11:17:50 GMT-0600 (Mountain Daylight Time)","269310","","1607","","","","","offer","","<div class='trialBorder'><div class='vertical-center'><img style='vertical-align:center; align:center' src=img/fixation3.jpg></div><div class='cl'><div class='vertical-center'>$49<br>for<br>yourself</div></div><div class='cr'><div class='vertical-center'>$60<br>for<br>Machelle M</div></div><div class='respDivL'><div class='vertical-center'>(E)</div></div><div class='respDivR'><div class='vertical-center'>(I)</div></div></div>","E","$49<br>for<br>yourself","$60<br>for<br>4","0","49","60","4","SELF"
"html-keyboard-response","31","229947","0.0-6.0-3.8","5c4e31b37065de00011f795d","bdp_sd","Sun Apr 02 2023 11:17:50 GMT-0600 (Mountain Daylight Time)","269310","","null","","","","","offerFB","","<div class='trialBorder'><div class='vertical-center'><img style='vertical-align:center; align:center' src=img/fixation3.jpg></div><div class='cl'><div class='vertical-center'><font style='color:orange'>$49<br>for<br>yourself</font></div></div><div class='cr'><div class='vertical-center'>$60<br>for<br>Machelle M</div></div><div class='respDivL'><div class='vertical-center'><font style='color:orange'>(E)</font></div></div><div class='respDivR'><div class='vertical-center'>(I)</div></div></div>","null","$49<br>for<br>yourself","$60<br>for<br>4","0","49","60","4",""
"html-keyboard-response","32","230453","0.0-6.0-1.9","5c4e31b37065de00011f795d","bdp_sd","Sun Apr 02 2023 11:17:50 GMT-0600 (Mountain Daylight Time)","269310","","null","","","","","FIX","","<div class='trialBorder'><div class='vertical-center'><img style='vertical-align:center; align:center' src=img/fixation3.jpg></div></div>","null","","","","","","",""
"html-keyboard-response","33","231480","0.0-6.0-2.9","5c4e31b37065de00011f795d","bdp_sd","Sun Apr 02 2023 11:17:50 GMT-0600 (Mountain Daylight Time)","269310","","1021","","","","","offer","","<div class='trialBorder'><div class='vertical-center'><img style='vertical-align:center; align:center' src=img/fixation3.jpg></div><div class='cl'><div class='vertical-center'>$20<br>for<br>yourself</div></div><div class='cr'><div class='vertical-center'>$55<br>for<br>Stephanie S</div></div><div class='respDivL'><div class='vertical-center'>(E)</div></div><div class='respDivR'><div class='vertical-center'>(I)</div></div></div>","E","$20<br>for<br>yourself","$55<br>for<br>1","0","20","55","1","SELF"
"html-keyboard-response","34","231736","0.0-6.0-3.9","5c4e31b37065de00011f795d","bdp_sd","Sun Apr 02 2023 11:17:50 GMT-0600 (Mountain Daylight Time)","269310","","null","","","","","offerFB","","<div class='trialBorder'><div class='vertical-center'><img style='vertical-align:center; align:center' src=img/fixation3.jpg></div><div class='cl'><div class='vertical-center'><font style='color:orange'>$20<br>for<br>yourself</font></div></div><div class='cr'><div class='vertical-center'>$55<br>for<br>Stephanie S</div></div><div class='respDivL'><div class='vertical-center'><font style='color:orange'>(E)</font></div></div><div class='respDivR'><div class='vertical-center'>(I)</div></div></div>","null","$20<br>for<br>yourself","$55<br>for<br>1","0","20","55","1",""
"html-keyboard-response","35","232240","0.0-6.0-1.10","5c4e31b37065de00011f795d","bdp_sd","Sun Apr 02 2023 11:17:50 GMT-0600 (Mountain Daylight Time)","269310","","null","","","","","FIX","","<div class='trialBorder'><div class='vertical-center'><img style='vertical-align:center; align:center' src=img/fixation3.jpg></div></div>","null","","","","","","",""
"html-keyboard-response","36","234199","0.0-6.0-2.10","5c4e31b37065de00011f795d","bdp_sd","Sun Apr 02 2023 11:17:50 GMT-0600 (Mountain Daylight Time)","269310","","1954","","","","","offer","","<div class='trialBorder'><div class='vertical-center'><img style='vertical-align:center; align:center' src=img/fixation3.jpg></div><div class='cl'><div class='vertical-center'>$85<br>for<br>Stephanie S</div></div><div class='cr'><div class='vertical-center'>$31<br>for<br>yourself</div></div><div class='respDivL'><div class='vertical-center'>(E)</div></div><div class='respDivR'><div class='vertical-center'>(I)</div></div></div>","I","$31<br>for<br>yourself","$85<br>for<br>1","1","31","85","1","SELF"
"html-keyboard-response","37","234456","0.0-6.0-3.10","5c4e31b37065de00011f795d","bdp_sd","Sun Apr 02 2023 11:17:50 GMT-0600 (Mountain Daylight Time)","269310","","null","","","","","offerFB","","<div class='trialBorder'><div class='vertical-center'><img style='vertical-align:center; align:center' src=img/fixation3.jpg></div><div class='cl'><div class='vertical-center'>$85<br>for<br>Stephanie S</div></div><div class='cr'><div class='vertical-center'><font style='color:orange'>$31<br>for<br>yourself</font></div></div><div class='respDivL'><div class='vertical-center'>(E)</div></div><div class='respDivR'><div class='vertical-center'><font style='color:orange'>(I)</font></div></div></div>","null","$31<br>for<br>yourself","$85<br>for<br>1","1","31","85","1",""
"html-keyboard-response","38","234963","0.0-6.0-1.11","5c4e31b37065de00011f795d","bdp_sd","Sun Apr 02 2023 11:17:50 GMT-0600 (Mountain Daylight Time)","269310","","null","","","","","FIX","","<div class='trialBorder'><div class='vertical-center'><img style='vertical-align:center; align:center' src=img/fixation3.jpg></div></div>","null","","","","","","",""
"html-keyboard-response","39","236526","0.0-6.0-2.11","5c4e31b37065de00011f795d","bdp_sd","Sun Apr 02 2023 11:17:50 GMT-0600 (Mountain Daylight Time)","269310","","1558","","","","","offer","","<div class='trialBorder'><div class='vertical-center'><img style='vertical-align:center; align:center' src=img/fixation3.jpg></div><div class='cl'><div class='vertical-center'>$24<br>for<br>yourself</div></div><div class='cr'><div class='vertical-center'>$35<br>for<br>Mira J</div></div><div class='respDivL'><div class='vertical-center'>(E)</div></div><div class='respDivR'><div class='vertical-center'>(I)</div></div></div>","E","$24<br>for<br>yourself","$35<br>for<br>3","0","24","35","3","SELF"
"html-keyboard-response","40","236785","0.0-6.0-3.11","5c4e31b37065de00011f795d","bdp_sd","Sun Apr 02 2023 11:17:50 GMT-0600 (Mountain Daylight Time)","269310","","null","","","","","offerFB","","<div class='trialBorder'><div class='vertical-center'><img style='vertical-align:center; align:center' src=img/fixation3.jpg></div><div class='cl'><div class='vertical-center'><font style='color:orange'>$24<br>for<br>yourself</font></div></div><div class='cr'><div class='vertical-center'>$35<br>for<br>Mira J</div></div><div class='respDivL'><div class='vertical-center'><font style='color:orange'>(E)</font></div></div><div class='respDivR'><div class='vertical-center'>(I)</div></div></div>","null","$24<br>for<br>yourself","$35<br>for<br>3","0","24","35","3",""
"html-keyboard-response","41","237291","0.0-6.0-1.12","5c4e31b37065de00011f795d","bdp_sd","Sun Apr 02 2023 11:17:50 GMT-0600 (Mountain Daylight Time)","269310","","null","","","","","FIX","","<div class='trialBorder'><div class='vertical-center'><img style='vertical-align:center; align:center' src=img/fixation3.jpg></div></div>","null","","","","","","",""
"html-keyboard-response","42","238693","0.0-6.0-2.12","5c4e31b37065de00011f795d","bdp_sd","Sun Apr 02 2023 11:17:50 GMT-0600 (Mountain Daylight Time)","269310","","1396","","","","","offer","","<div class='trialBorder'><div class='vertical-center'><img style='vertical-align:center; align:center' src=img/fixation3.jpg></div><div class='cl'><div class='vertical-center'>$30<br>for<br>Shanelle C</div></div><div class='cr'><div class='vertical-center'>$11<br>for<br>yourself</div></div><div class='respDivL'><div class='vertical-center'>(E)</div></div><div class='respDivR'><div class='vertical-center'>(I)</div></div></div>","I","$11<br>for<br>yourself","$30<br>for<br>2","1","11","30","2","SELF"
"html-keyboard-response","43","238948","0.0-6.0-3.12","5c4e31b37065de00011f795d","bdp_sd","Sun Apr 02 2023 11:17:50 GMT-0600 (Mountain Daylight Time)","269310","","null","","","","","offerFB","","<div class='trialBorder'><div class='vertical-center'><img style='vertical-align:center; align:center' src=img/fixation3.jpg></div><div class='cl'><div class='vertical-center'>$30<br>for<br>Shanelle C</div></div><div class='cr'><div class='vertical-center'><font style='color:orange'>$11<br>for<br>yourself</font></div></div><div class='respDivL'><div class='vertical-center'>(E)</div></div><div class='respDivR'><div class='vertical-center'><font style='color:orange'>(I)</font></div></div></div>","null","$11<br>for<br>yourself","$30<br>for<br>2","1","11","30","2",""
"html-keyboard-response","44","239453","0.0-6.0-1.13","5c4e31b37065de00011f795d","bdp_sd","Sun Apr 02 2023 11:17:50 GMT-0600 (Mountain Daylight Time)","269310","","null","","","","","FIX","","<div class='trialBorder'><div class='vertical-center'><img style='vertical-align:center; align:center' src=img/fixation3.jpg></div></div>","null","","","","","","",""
"html-keyboard-response","45","241083","0.0-6.0-2.13","5c4e31b37065de00011f795d","bdp_sd","Sun Apr 02 2023 11:17:50 GMT-0600 (Mountain Daylight Time)","269310","","1623","","","","","offer","","<div class='trialBorder'><div class='vertical-center'><img style='vertical-align:center; align:center' src=img/fixation3.jpg></div><div class='cl'><div class='vertical-center'>$50<br>for<br>Mira J</div></div><div class='cr'><div class='vertical-center'>$27<br>for<br>yourself</div></div><div class='respDivL'><div class='vertical-center'>(E)</div></div><div class='respDivR'><div class='vertical-center'>(I)</div></div></div>","I","$27<br>for<br>yourself","$50<br>for<br>3","1","27","50","3","SELF"
"html-keyboard-response","46","241339","0.0-6.0-3.13","5c4e31b37065de00011f795d","bdp_sd","Sun Apr 02 2023 11:17:50 GMT-0600 (Mountain Daylight Time)","269310","","null","","","","","offerFB","","<div class='trialBorder'><div class='vertical-center'><img style='vertical-align:center; align:center' src=img/fixation3.jpg></div><div class='cl'><div class='vertical-center'>$50<br>for<br>Mira J</div></div><div class='cr'><div class='vertical-center'><font style='color:orange'>$27<br>for<br>yourself</font></div></div><div class='respDivL'><div class='vertical-center'>(E)</div></div><div class='respDivR'><div class='vertical-center'><font style='color:orange'>(I)</font></div></div></div>","null","$27<br>for<br>yourself","$50<br>for<br>3","1","27","50","3",""
"html-keyboard-response","47","241842","0.0-6.0-1.14","5c4e31b37065de00011f795d","bdp_sd","Sun Apr 02 2023 11:17:50 GMT-0600 (Mountain Daylight Time)","269310","","null","","","","","FIX","","<div class='trialBorder'><div class='vertical-center'><img style='vertical-align:center; align:center' src=img/fixation3.jpg></div></div>","null","","","","","","",""
"html-keyboard-response","48","242784","0.0-6.0-2.14","5c4e31b37065de00011f795d","bdp_sd","Sun Apr 02 2023 11:17:50 GMT-0600 (Mountain Daylight Time)","269310","","936","","","","","offer","","<div class='trialBorder'><div class='vertical-center'><img style='vertical-align:center; align:center' src=img/fixation3.jpg></div><div class='cl'><div class='vertical-center'>$80<br>for<br>Shanelle C</div></div><div class='cr'><div class='vertical-center'>$33<br>for<br>yourself</div></div><div class='respDivL'><div class='vertical-center'>(E)</div></div><div class='respDivR'><div class='vertical-center'>(I)</div></div></div>","I","$33<br>for<br>yourself","$80<br>for<br>2","1","33","80","2","SELF"
"html-keyboard-response","49","243042","0.0-6.0-3.14","5c4e31b37065de00011f795d","bdp_sd","Sun Apr 02 2023 11:17:50 GMT-0600 (Mountain Daylight Time)","269310","","null","","","","","offerFB","","<div class='trialBorder'><div class='vertical-center'><img style='vertical-align:center; align:center' src=img/fixation3.jpg></div><div class='cl'><div class='vertical-center'>$80<br>for<br>Shanelle C</div></div><div class='cr'><div class='vertical-center'><font style='color:orange'>$33<br>for<br>yourself</font></div></div><div class='respDivL'><div class='vertical-center'>(E)</div></div><div class='respDivR'><div class='vertical-center'><font style='color:orange'>(I)</font></div></div></div>","null","$33<br>for<br>yourself","$80<br>for<br>2","1","33","80","2",""
"html-keyboard-response","50","243547","0.0-6.0-1.15","5c4e31b37065de00011f795d","bdp_sd","Sun Apr 02 2023 11:17:50 GMT-0600 (Mountain Daylight Time)","269310","","null","","","","","FIX","","<div class='trialBorder'><div class='vertical-center'><img style='vertical-align:center; align:center' src=img/fixation3.jpg></div></div>","null","","","","","","",""
"html-keyboard-response","51","244639","0.0-6.0-2.15","5c4e31b37065de00011f795d","bdp_sd","Sun Apr 02 2023 11:17:50 GMT-0600 (Mountain Daylight Time)","269310","","1086","","","","","offer","","<div class='trialBorder'><div class='vertical-center'><img style='vertical-align:center; align:center' src=img/fixation3.jpg></div><div class='cl'><div class='vertical-center'>$55<br>for<br>yourself</div></div><div class='cr'><div class='vertical-center'>$75<br>for<br>Machelle M</div></div><div class='respDivL'><div class='vertical-center'>(E)</div></div><div class='respDivR'><div class='vertical-center'>(I)</div></div></div>","E","$55<br>for<br>yourself","$75<br>for<br>4","0","55","75","4","SELF"
"html-keyboard-response","52","244898","0.0-6.0-3.15","5c4e31b37065de00011f795d","bdp_sd","Sun Apr 02 2023 11:17:50 GMT-0600 (Mountain Daylight Time)","269310","","null","","","","","offerFB","","<div class='trialBorder'><div class='vertical-center'><img style='vertical-align:center; align:center' src=img/fixation3.jpg></div><div class='cl'><div class='vertical-center'><font style='color:orange'>$55<br>for<br>yourself</font></div></div><div class='cr'><div class='vertical-center'>$75<br>for<br>Machelle M</div></div><div class='respDivL'><div class='vertical-center'><font style='color:orange'>(E)</font></div></div><div class='respDivR'><div class='vertical-center'>(I)</div></div></div>","null","$55<br>for<br>yourself","$75<br>for<br>4","0","55","75","4",""
"html-keyboard-response","53","245405","0.0-6.0-1.16","5c4e31b37065de00011f795d","bdp_sd","Sun Apr 02 2023 11:17:50 GMT-0600 (Mountain Daylight Time)","269310","","null","","","","","FIX","","<div class='trialBorder'><div class='vertical-center'><img style='vertical-align:center; align:center' src=img/fixation3.jpg></div></div>","null","","","","","","",""
"html-keyboard-response","54","246400","0.0-6.0-2.16","5c4e31b37065de00011f795d","bdp_sd","Sun Apr 02 2023 11:17:50 GMT-0600 (Mountain Daylight Time)","269310","","985","","","","","offer","","<div class='trialBorder'><div class='vertical-center'><img style='vertical-align:center; align:center' src=img/fixation3.jpg></div><div class='cl'><div class='vertical-center'>$14<br>for<br>yourself</div></div><div class='cr'><div class='vertical-center'>$25<br>for<br>Mira J</div></div><div class='respDivL'><div class='vertical-center'>(E)</div></div><div class='respDivR'><div class='vertical-center'>(I)</div></div></div>","E","$14<br>for<br>yourself","$25<br>for<br>3","0","14","25","3","SELF"
"html-keyboard-response","55","246658","0.0-6.0-3.16","5c4e31b37065de00011f795d","bdp_sd","Sun Apr 02 2023 11:17:50 GMT-0600 (Mountain Daylight Time)","269310","","null","","","","","offerFB","","<div class='trialBorder'><div class='vertical-center'><img style='vertical-align:center; align:center' src=img/fixation3.jpg></div><div class='cl'><div class='vertical-center'><font style='color:orange'>$14<br>for<br>yourself</font></div></div><div class='cr'><div class='vertical-center'>$25<br>for<br>Mira J</div></div><div class='respDivL'><div class='vertical-center'><font style='color:orange'>(E)</font></div></div><div class='respDivR'><div class='vertical-center'>(I)</div></div></div>","null","$14<br>for<br>yourself","$25<br>for<br>3","0","14","25","3",""
"html-keyboard-response","56","247165","0.0-6.0-1.17","5c4e31b37065de00011f795d","bdp_sd","Sun Apr 02 2023 11:17:50 GMT-0600 (Mountain Daylight Time)","269310","","null","","","","","FIX","","<div class='trialBorder'><div class='vertical-center'><img style='vertical-align:center; align:center' src=img/fixation3.jpg></div></div>","null","","","","","","",""
"html-keyboard-response","57","248297","0.0-6.0-2.17","5c4e31b37065de00011f795d","bdp_sd","Sun Apr 02 2023 11:17:50 GMT-0600 (Mountain Daylight Time)","269310","","1126","","","","","offer","","<div class='trialBorder'><div class='vertical-center'><img style='vertical-align:center; align:center' src=img/fixation3.jpg></div><div class='cl'><div class='vertical-center'>$55<br>for<br>Mckenna A</div></div><div class='cr'><div class='vertical-center'>$54<br>for<br>yourself</div></div><div class='respDivL'><div class='vertical-center'>(E)</div></div><div class='respDivR'><div class='vertical-center'>(I)</div></div></div>","I","$54<br>for<br>yourself","$55<br>for<br>5","1","54","55","5","SELF"
"html-keyboard-response","58","248553","0.0-6.0-3.17","5c4e31b37065de00011f795d","bdp_sd","Sun Apr 02 2023 11:17:50 GMT-0600 (Mountain Daylight Time)","269310","","null","","","","","offerFB","","<div class='trialBorder'><div class='vertical-center'><img style='vertical-align:center; align:center' src=img/fixation3.jpg></div><div class='cl'><div class='vertical-center'>$55<br>for<br>Mckenna A</div></div><div class='cr'><div class='vertical-center'><font style='color:orange'>$54<br>for<br>yourself</font></div></div><div class='respDivL'><div class='vertical-center'>(E)</div></div><div class='respDivR'><div class='vertical-center'><font style='color:orange'>(I)</font></div></div></div>","null","$54<br>for<br>yourself","$55<br>for<br>5","1","54","55","5",""
"html-keyboard-response","59","249058","0.0-6.0-1.18","5c4e31b37065de00011f795d","bdp_sd","Sun Apr 02 2023 11:17:50 GMT-0600 (Mountain Daylight Time)","269310","","null","","","","","FIX","","<div class='trialBorder'><div class='vertical-center'><img style='vertical-align:center; align:center' src=img/fixation3.jpg></div></div>","null","","","","","","",""
"html-keyboard-response","60","250488","0.0-6.0-2.18","5c4e31b37065de00011f795d","bdp_sd","Sun Apr 02 2023 11:17:50 GMT-0600 (Mountain Daylight Time)","269310","","1425","","","","","offer","","<div class='trialBorder'><div class='vertical-center'><img style='vertical-align:center; align:center' src=img/fixation3.jpg></div><div class='cl'><div class='vertical-center'>$78<br>for<br>yourself</div></div><div class='cr'><div class='vertical-center'>$80<br>for<br>Mckenna A</div></div><div class='respDivL'><div class='vertical-center'>(E)</div></div><div class='respDivR'><div class='vertical-center'>(I)</div></div></div>","E","$78<br>for<br>yourself","$80<br>for<br>5","0","78","80","5","SELF"
"html-keyboard-response","61","250743","0.0-6.0-3.18","5c4e31b37065de00011f795d","bdp_sd","Sun Apr 02 2023 11:17:50 GMT-0600 (Mountain Daylight Time)","269310","","null","","","","","offerFB","","<div class='trialBorder'><div class='vertical-center'><img style='vertical-align:center; align:center' src=img/fixation3.jpg></div><div class='cl'><div class='vertical-center'><font style='color:orange'>$78<br>for<br>yourself</font></div></div><div class='cr'><div class='vertical-center'>$80<br>for<br>Mckenna A</div></div><div class='respDivL'><div class='vertical-center'><font style='color:orange'>(E)</font></div></div><div class='respDivR'><div class='vertical-center'>(I)</div></div></div>","null","$78<br>for<br>yourself","$80<br>for<br>5","0","78","80","5",""
"html-keyboard-response","62","251248","0.0-6.0-1.19","5c4e31b37065de00011f795d","bdp_sd","Sun Apr 02 2023 11:17:50 GMT-0600 (Mountain Daylight Time)","269310","","null","","","","","FIX","","<div class='trialBorder'><div class='vertical-center'><img style='vertical-align:center; align:center' src=img/fixation3.jpg></div></div>","null","","","","","","",""
"html-keyboard-response","63","252435","0.0-6.0-2.19","5c4e31b37065de00011f795d","bdp_sd","Sun Apr 02 2023 11:17:50 GMT-0600 (Mountain Daylight Time)","269310","","1180","","","","","offer","","<div class='trialBorder'><div class='vertical-center'><img style='vertical-align:center; align:center' src=img/fixation3.jpg></div><div class='cl'><div class='vertical-center'>$19<br>for<br>yourself</div></div><div class='cr'><div class='vertical-center'>$25<br>for<br>Machelle M</div></div><div class='respDivL'><div class='vertical-center'>(E)</div></div><div class='respDivR'><div class='vertical-center'>(I)</div></div></div>","E","$19<br>for<br>yourself","$25<br>for<br>4","0","19","25","4","SELF"
"html-keyboard-response","64","252693","0.0-6.0-3.19","5c4e31b37065de00011f795d","bdp_sd","Sun Apr 02 2023 11:17:50 GMT-0600 (Mountain Daylight Time)","269310","","null","","","","","offerFB","","<div class='trialBorder'><div class='vertical-center'><img style='vertical-align:center; align:center' src=img/fixation3.jpg></div><div class='cl'><div class='vertical-center'><font style='color:orange'>$19<br>for<br>yourself</font></div></div><div class='cr'><div class='vertical-center'>$25<br>for<br>Machelle M</div></div><div class='respDivL'><div class='vertical-center'><font style='color:orange'>(E)</font></div></div><div class='respDivR'><div class='vertical-center'>(I)</div></div></div>","null","$19<br>for<br>yourself","$25<br>for<br>4","0","19","25","4",""
"html-keyboard-response","65","253197","0.0-6.0-1.20","5c4e31b37065de00011f795d","bdp_sd","Sun Apr 02 2023 11:17:50 GMT-0600 (Mountain Daylight Time)","269310","","null","","","","","FIX","","<div class='trialBorder'><div class='vertical-center'><img style='vertical-align:center; align:center' src=img/fixation3.jpg></div></div>","null","","","","","","",""
"html-keyboard-response","66","255533","0.0-6.0-2.20","5c4e31b37065de00011f795d","bdp_sd","Sun Apr 02 2023 11:17:50 GMT-0600 (Mountain Daylight Time)","269310","","2331","","","","","offer","","<div class='trialBorder'><div class='vertical-center'><img style='vertical-align:center; align:center' src=img/fixation3.jpg></div><div class='cl'><div class='vertical-center'>$85<br>for<br>Mckenna A</div></div><div class='cr'><div class='vertical-center'>$80<br>for<br>yourself</div></div><div class='respDivL'><div class='vertical-center'>(E)</div></div><div class='respDivR'><div class='vertical-center'>(I)</div></div></div>","I","$80<br>for<br>yourself","$85<br>for<br>5","1","80","85","5","SELF"
"html-keyboard-response","67","255791","0.0-6.0-3.20","5c4e31b37065de00011f795d","bdp_sd","Sun Apr 02 2023 11:17:50 GMT-0600 (Mountain Daylight Time)","269310","","null","","","","","offerFB","","<div class='trialBorder'><div class='vertical-center'><img style='vertical-align:center; align:center' src=img/fixation3.jpg></div><div class='cl'><div class='vertical-center'>$85<br>for<br>Mckenna A</div></div><div class='cr'><div class='vertical-center'><font style='color:orange'>$80<br>for<br>yourself</font></div></div><div class='respDivL'><div class='vertical-center'>(E)</div></div><div class='respDivR'><div class='vertical-center'><font style='color:orange'>(I)</font></div></div></div>","null","$80<br>for<br>yourself","$85<br>for<br>5","1","80","85","5",""
"html-keyboard-response","68","256298","0.0-6.0-1.21","5c4e31b37065de00011f795d","bdp_sd","Sun Apr 02 2023 11:17:50 GMT-0600 (Mountain Daylight Time)","269310","","null","","","","","FIX","","<div class='trialBorder'><div class='vertical-center'><img style='vertical-align:center; align:center' src=img/fixation3.jpg></div></div>","null","","","","","","",""
"html-keyboard-response","69","257287","0.0-6.0-2.21","5c4e31b37065de00011f795d","bdp_sd","Sun Apr 02 2023 11:17:50 GMT-0600 (Mountain Daylight Time)","269310","","982","","","","","offer","","<div class='trialBorder'><div class='vertical-center'><img style='vertical-align:center; align:center' src=img/fixation3.jpg></div><div class='cl'><div class='vertical-center'>$60<br>for<br>Mira J</div></div><div class='cr'><div class='vertical-center'>$25<br>for<br>yourself</div></div><div class='respDivL'><div class='vertical-center'>(E)</div></div><div class='respDivR'><div class='vertical-center'>(I)</div></div></div>","I","$25<br>for<br>yourself","$60<br>for<br>3","1","25","60","3","SELF"
"html-keyboard-response","70","257548","0.0-6.0-3.21","5c4e31b37065de00011f795d","bdp_sd","Sun Apr 02 2023 11:17:50 GMT-0600 (Mountain Daylight Time)","269310","","null","","","","","offerFB","","<div class='trialBorder'><div class='vertical-center'><img style='vertical-align:center; align:center' src=img/fixation3.jpg></div><div class='cl'><div class='vertical-center'>$60<br>for<br>Mira J</div></div><div class='cr'><div class='vertical-center'><font style='color:orange'>$25<br>for<br>yourself</font></div></div><div class='respDivL'><div class='vertical-center'>(E)</div></div><div class='respDivR'><div class='vertical-center'><font style='color:orange'>(I)</font></div></div></div>","null","$25<br>for<br>yourself","$60<br>for<br>3","1","25","60","3",""
"html-keyboard-response","71","258056","0.0-6.0-1.22","5c4e31b37065de00011f795d","bdp_sd","Sun Apr 02 2023 11:17:50 GMT-0600 (Mountain Daylight Time)","269310","","null","","","","","FIX","","<div class='trialBorder'><div class='vertical-center'><img style='vertical-align:center; align:center' src=img/fixation3.jpg></div></div>","null","","","","","","",""
"html-keyboard-response","72","259613","0.0-6.0-2.22","5c4e31b37065de00011f795d","bdp_sd","Sun Apr 02 2023 11:17:50 GMT-0600 (Mountain Daylight Time)","269310","","1547","","","","","offer","","<div class='trialBorder'><div class='vertical-center'><img style='vertical-align:center; align:center' src=img/fixation3.jpg></div><div class='cl'><div class='vertical-center'>$35<br>for<br>Shanelle C</div></div><div class='cr'><div class='vertical-center'>$15<br>for<br>yourself</div></div><div class='respDivL'><div class='vertical-center'>(E)</div></div><div class='respDivR'><div class='vertical-center'>(I)</div></div></div>","I","$15<br>for<br>yourself","$35<br>for<br>2","1","15","35","2","SELF"
"html-keyboard-response","73","259874","0.0-6.0-3.22","5c4e31b37065de00011f795d","bdp_sd","Sun Apr 02 2023 11:17:50 GMT-0600 (Mountain Daylight Time)","269310","","null","","","","","offerFB","","<div class='trialBorder'><div class='vertical-center'><img style='vertical-align:center; align:center' src=img/fixation3.jpg></div><div class='cl'><div class='vertical-center'>$35<br>for<br>Shanelle C</div></div><div class='cr'><div class='vertical-center'><font style='color:orange'>$15<br>for<br>yourself</font></div></div><div class='respDivL'><div class='vertical-center'>(E)</div></div><div class='respDivR'><div class='vertical-center'><font style='color:orange'>(I)</font></div></div></div>","null","$15<br>for<br>yourself","$35<br>for<br>2","1","15","35","2",""
"html-keyboard-response","74","260379","0.0-6.0-1.23","5c4e31b37065de00011f795d","bdp_sd","Sun Apr 02 2023 11:17:50 GMT-0600 (Mountain Daylight Time)","269310","","null","","","","","FIX","","<div class='trialBorder'><div class='vertical-center'><img style='vertical-align:center; align:center' src=img/fixation3.jpg></div></div>","null","","","","","","",""
"html-keyboard-response","75","261323","0.0-6.0-2.23","5c4e31b37065de00011f795d","bdp_sd","Sun Apr 02 2023 11:17:50 GMT-0600 (Mountain Daylight Time)","269310","","940","","","","","offer","","<div class='trialBorder'><div class='vertical-center'><img style='vertical-align:center; align:center' src=img/fixation3.jpg></div><div class='cl'><div class='vertical-center'>$22<br>for<br>yourself</div></div><div class='cr'><div class='vertical-center'>$25<br>for<br>Mckenna A</div></div><div class='respDivL'><div class='vertical-center'>(E)</div></div><div class='respDivR'><div class='vertical-center'>(I)</div></div></div>","E","$22<br>for<br>yourself","$25<br>for<br>5","0","22","25","5","SELF"
"html-keyboard-response","76","261580","0.0-6.0-3.23","5c4e31b37065de00011f795d","bdp_sd","Sun Apr 02 2023 11:17:50 GMT-0600 (Mountain Daylight Time)","269310","","null","","","","","offerFB","","<div class='trialBorder'><div class='vertical-center'><img style='vertical-align:center; align:center' src=img/fixation3.jpg></div><div class='cl'><div class='vertical-center'><font style='color:orange'>$22<br>for<br>yourself</font></div></div><div class='cr'><div class='vertical-center'>$25<br>for<br>Mckenna A</div></div><div class='respDivL'><div class='vertical-center'><font style='color:orange'>(E)</font></div></div><div class='respDivR'><div class='vertical-center'>(I)</div></div></div>","null","$22<br>for<br>yourself","$25<br>for<br>5","0","22","25","5",""
"html-keyboard-response","77","262087","0.0-6.0-1.24","5c4e31b37065de00011f795d","bdp_sd","Sun Apr 02 2023 11:17:50 GMT-0600 (Mountain Daylight Time)","269310","","null","","","","","FIX","","<div class='trialBorder'><div class='vertical-center'><img style='vertical-align:center; align:center' src=img/fixation3.jpg></div></div>","null","","","","","","",""
"html-keyboard-response","78","263449","0.0-6.0-2.24","5c4e31b37065de00011f795d","bdp_sd","Sun Apr 02 2023 11:17:50 GMT-0600 (Mountain Daylight Time)","269310","","1356","","","","","offer","","<div class='trialBorder'><div class='vertical-center'><img style='vertical-align:center; align:center' src=img/fixation3.jpg></div><div class='cl'><div class='vertical-center'>$69<br>for<br>yourself</div></div><div class='cr'><div class='vertical-center'>$85<br>for<br>Machelle M</div></div><div class='respDivL'><div class='vertical-center'>(E)</div></div><div class='respDivR'><div class='vertical-center'>(I)</div></div></div>","E","$69<br>for<br>yourself","$85<br>for<br>4","0","69","85","4","SELF"
"html-keyboard-response","79","263709","0.0-6.0-3.24","5c4e31b37065de00011f795d","bdp_sd","Sun Apr 02 2023 11:17:50 GMT-0600 (Mountain Daylight Time)","269310","","null","","","","","offerFB","","<div class='trialBorder'><div class='vertical-center'><img style='vertical-align:center; align:center' src=img/fixation3.jpg></div><div class='cl'><div class='vertical-center'><font style='color:orange'>$69<br>for<br>yourself</font></div></div><div class='cr'><div class='vertical-center'>$85<br>for<br>Machelle M</div></div><div class='respDivL'><div class='vertical-center'><font style='color:orange'>(E)</font></div></div><div class='respDivR'><div class='vertical-center'>(I)</div></div></div>","null","$69<br>for<br>yourself","$85<br>for<br>4","0","69","85","4",""
"html-keyboard-response","80","264221","0.0-6.0-1.25","5c4e31b37065de00011f795d","bdp_sd","Sun Apr 02 2023 11:17:50 GMT-0600 (Mountain Daylight Time)","269310","","null","","","","","FIX","","<div class='trialBorder'><div class='vertical-center'><img style='vertical-align:center; align:center' src=img/fixation3.jpg></div></div>","null","","","","","","",""
"html-keyboard-response","81","265225","0.0-6.0-2.25","5c4e31b37065de00011f795d","bdp_sd","Sun Apr 02 2023 11:17:50 GMT-0600 (Mountain Daylight Time)","269310","","1000","","","","","offer","","<div class='trialBorder'><div class='vertical-center'><img style='vertical-align:center; align:center' src=img/fixation3.jpg></div><div class='cl'><div class='vertical-center'>$54<br>for<br>yourself</div></div><div class='cr'><div class='vertical-center'>$80<br>for<br>Mira J</div></div><div class='respDivL'><div class='vertical-center'>(E)</div></div><div class='respDivR'><div class='vertical-center'>(I)</div></div></div>","E","$54<br>for<br>yourself","$80<br>for<br>3","0","54","80","3","SELF"
"html-keyboard-response","82","265482","0.0-6.0-3.25","5c4e31b37065de00011f795d","bdp_sd","Sun Apr 02 2023 11:17:50 GMT-0600 (Mountain Daylight Time)","269310","","null","","","","","offerFB","","<div class='trialBorder'><div class='vertical-center'><img style='vertical-align:center; align:center' src=img/fixation3.jpg></div><div class='cl'><div class='vertical-center'><font style='color:orange'>$54<br>for<br>yourself</font></div></div><div class='cr'><div class='vertical-center'>$80<br>for<br>Mira J</div></div><div class='respDivL'><div class='vertical-center'><font style='color:orange'>(E)</font></div></div><div class='respDivR'><div class='vertical-center'>(I)</div></div></div>","null","$54<br>for<br>yourself","$80<br>for<br>3","0","54","80","3",""
"html-keyboard-response","83","265987","0.0-6.0-1.26","5c4e31b37065de00011f795d","bdp_sd","Sun Apr 02 2023 11:17:50 GMT-0600 (Mountain Daylight Time)","269310","","null","","","","","FIX","","<div class='trialBorder'><div class='vertical-center'><img style='vertical-align:center; align:center' src=img/fixation3.jpg></div></div>","null","","","","","","",""
"html-keyboard-response","84","268041","0.0-6.0-2.26","5c4e31b37065de00011f795d","bdp_sd","Sun Apr 02 2023 11:17:50 GMT-0600 (Mountain Daylight Time)","269310","","2049","","","","","offer","","<div class='trialBorder'><div class='vertical-center'><img style='vertical-align:center; align:center' src=img/fixation3.jpg></div><div class='cl'><div class='vertical-center'>$50<br>for<br>Mckenna A</div></div><div class='cr'><div class='vertical-center'>$47<br>for<br>yourself</div></div><div class='respDivL'><div class='vertical-center'>(E)</div></div><div class='respDivR'><div class='vertical-center'>(I)</div></div></div>","I","$47<br>for<br>yourself","$50<br>for<br>5","1","47","50","5","SELF"
"html-keyboard-response","85","268299","0.0-6.0-3.26","5c4e31b37065de00011f795d","bdp_sd","Sun Apr 02 2023 11:17:50 GMT-0600 (Mountain Daylight Time)","269310","","null","","","","","offerFB","","<div class='trialBorder'><div class='vertical-center'><img style='vertical-align:center; align:center' src=img/fixation3.jpg></div><div class='cl'><div class='vertical-center'>$50<br>for<br>Mckenna A</div></div><div class='cr'><div class='vertical-center'><font style='color:orange'>$47<br>for<br>yourself</font></div></div><div class='respDivL'><div class='vertical-center'>(E)</div></div><div class='respDivR'><div class='vertical-center'><font style='color:orange'>(I)</font></div></div></div>","null","$47<br>for<br>yourself","$50<br>for<br>5","1","47","50","5",""
"","","","","5c4e31b37065de00011f795d","bdp_sd","Sun Apr 02 2023 11:17:50 GMT-0600 (Mountain Daylight Time)","269310","","","","fullscreenexit","86","268333","fullscreenexit","","","","","","","","","",""
"fullscreen","86","269309","0.0-7.0","5c4e31b37065de00011f795d","bdp_sd","Sun Apr 02 2023 11:17:50 GMT-0600 (Mountain Daylight Time)","269310","","","","","","","","true","","","","","","","","",""
"html-keyboard-response","87","269823","0.0-8.0","","","","","","null","","","","","","","","null","","","","","","",""
