"trial_type","trial_index","time_elapsed","internal_node_id","subject_id","task","startTime","totalTime","view_history","rt","responses","event","trial","time","trialtype","success","stimulus","key_press","selfOffer","otherOffer","otherLeft","selfAmt","otherAmt","otherDist","chosen"
"pavlovia","0","4","0.0-0.0","570fa921f895a7000f38ca6f","bdp_sd","Tue Mar 28 2023 23:28:09 GMT-0400 (Eastern Daylight Time)","165172","","","","","","","","","","","","","","","","",""
"instructions","1","1192","0.0-1.0","570fa921f895a7000f38ca6f","bdp_sd","Tue Mar 28 2023 23:28:09 GMT-0400 (Eastern Daylight Time)","165172","[{""page_index"":0,""viewing_time"":1187}]","1188","","","","","","","","","","","","","","",""
"survey-text","2","91716","0.0-2.0","570fa921f895a7000f38ca6f","bdp_sd","Tue Mar 28 2023 23:28:09 GMT-0400 (Eastern Daylight Time)","165172","","90522","{""Q0"":""robert m"",""Q1"":""ashley w"",""Q2"":""karla r"",""Q3"":""faith l"",""Q4"":""danny b""}","","","","","","","","","","","","","",""
"","","","","570fa921f895a7000f38ca6f","bdp_sd","Tue Mar 28 2023 23:28:09 GMT-0400 (Eastern Daylight Time)","165172","","","","fullscreenenter","3","93302","fullscreenenter","","","","","","","","","",""
"fullscreen","3","94293","0.0-3.0","570fa921f895a7000f38ca6f","bdp_sd","Tue Mar 28 2023 23:28:09 GMT-0400 (Eastern Daylight Time)","165172","","","","","","","","true","","","","","","","","",""
"instructions","4","105811","0.0-5.0","570fa921f895a7000f38ca6f","bdp_sd","Tue Mar 28 2023 23:28:09 GMT-0400 (Eastern Daylight Time)","165172","[{""page_index"":0,""viewing_time"":7347},{""page_index"":1,""viewing_time"":3248},{""page_index"":2,""viewing_time"":923}]","11518","","","","","","","","","","","","","","",""
"html-keyboard-response","5","106316","0.0-6.0-1.0","570fa921f895a7000f38ca6f","bdp_sd","Tue Mar 28 2023 23:28:09 GMT-0400 (Eastern Daylight Time)","165172","","null","","","","","FIX","","<div class='trialBorder'><div class='vertical-center'><img style='vertical-align:center; align:center' src=img/fixation3.jpg></div></div>","null","","","","","","",""
"html-keyboard-response","6","107668","0.0-6.0-2.0","570fa921f895a7000f38ca6f","bdp_sd","Tue Mar 28 2023 23:28:09 GMT-0400 (Eastern Daylight Time)","165172","","1350","","","","","offer","","<div class='trialBorder'><div class='vertical-center'><img style='vertical-align:center; align:center' src=img/fixation3.jpg></div><div class='cl'><div class='vertical-center'>$15<br>for<br>yourself</div></div><div class='cr'><div class='vertical-center'>$35<br>for<br>ashley w</div></div><div class='respDivL'><div class='vertical-center'>(E)</div></div><div class='respDivR'><div class='vertical-center'>(I)</div></div></div>","I","$15<br>for<br>yourself","$35<br>for<br>2","0","15","35","2","OTHER"
"html-keyboard-response","7","107921","0.0-6.0-3.0","570fa921f895a7000f38ca6f","bdp_sd","Tue Mar 28 2023 23:28:09 GMT-0400 (Eastern Daylight Time)","165172","","null","","","","","offerFB","","<div class='trialBorder'><div class='vertical-center'><img style='vertical-align:center; align:center' src=img/fixation3.jpg></div><div class='cl'><div class='vertical-center'>$15<br>for<br>yourself</div></div><div class='cr'><div class='vertical-center'><font style='color:orange'>$35<br>for<br>ashley w</font></div></div><div class='respDivL'><div class='vertical-center'>(E)</div></div><div class='respDivR'><div class='vertical-center'><font style='color:orange'>(I)</font></div></div></div>","null","$15<br>for<br>yourself","$35<br>for<br>2","0","15","35","2",""
"html-keyboard-response","8","108424","0.0-6.0-1.1","570fa921f895a7000f38ca6f","bdp_sd","Tue Mar 28 2023 23:28:09 GMT-0400 (Eastern Daylight Time)","165172","","null","","","","","FIX","","<div class='trialBorder'><div class='vertical-center'><img style='vertical-align:center; align:center' src=img/fixation3.jpg></div></div>","null","","","","","","",""
"html-keyboard-response","9","110356","0.0-6.0-2.1","570fa921f895a7000f38ca6f","bdp_sd","Tue Mar 28 2023 23:28:09 GMT-0400 (Eastern Daylight Time)","165172","","1930","","","","","offer","","<div class='trialBorder'><div class='vertical-center'><img style='vertical-align:center; align:center' src=img/fixation3.jpg></div><div class='cl'><div class='vertical-center'>$50<br>for<br>danny b</div></div><div class='cr'><div class='vertical-center'>$47<br>for<br>yourself</div></div><div class='respDivL'><div class='vertical-center'>(E)</div></div><div class='respDivR'><div class='vertical-center'>(I)</div></div></div>","I","$47<br>for<br>yourself","$50<br>for<br>5","1","47","50","5","SELF"
"html-keyboard-response","10","110608","0.0-6.0-3.1","570fa921f895a7000f38ca6f","bdp_sd","Tue Mar 28 2023 23:28:09 GMT-0400 (Eastern Daylight Time)","165172","","null","","","","","offerFB","","<div class='trialBorder'><div class='vertical-center'><img style='vertical-align:center; align:center' src=img/fixation3.jpg></div><div class='cl'><div class='vertical-center'>$50<br>for<br>danny b</div></div><div class='cr'><div class='vertical-center'><font style='color:orange'>$47<br>for<br>yourself</font></div></div><div class='respDivL'><div class='vertical-center'>(E)</div></div><div class='respDivR'><div class='vertical-center'><font style='color:orange'>(I)</font></div></div></div>","null","$47<br>for<br>yourself","$50<br>for<br>5","1","47","50","5",""
"html-keyboard-response","11","111110","0.0-6.0-1.2","570fa921f895a7000f38ca6f","bdp_sd","Tue Mar 28 2023 23:28:09 GMT-0400 (Eastern Daylight Time)","165172","","null","","","","","FIX","","<div class='trialBorder'><div class='vertical-center'><img style='vertical-align:center; align:center' src=img/fixation3.jpg></div></div>","null","","","","","","",""
"html-keyboard-response","12","112918","0.0-6.0-2.2","570fa921f895a7000f38ca6f","bdp_sd","Tue Mar 28 2023 23:28:09 GMT-0400 (Eastern Daylight Time)","165172","","1806","","","","","offer","","<div class='trialBorder'><div class='vertical-center'><img style='vertical-align:center; align:center' src=img/fixation3.jpg></div><div class='cl'><div class='vertical-center'>$80<br>for<br>ashley w</div></div><div class='cr'><div class='vertical-center'>$33<br>for<br>yourself</div></div><div class='respDivL'><div class='vertical-center'>(E)</div></div><div class='respDivR'><div class='vertical-center'>(I)</div></div></div>","E","$33<br>for<br>yourself","$80<br>for<br>2","1","33","80","2","OTHER"
"html-keyboard-response","13","113171","0.0-6.0-3.2","570fa921f895a7000f38ca6f","bdp_sd","Tue Mar 28 2023 23:28:09 GMT-0400 (Eastern Daylight Time)","165172","","null","","","","","offerFB","","<div class='trialBorder'><div class='vertical-center'><img style='vertical-align:center; align:center' src=img/fixation3.jpg></div><div class='cl'><div class='vertical-center'><font style='color:orange'>$80<br>for<br>ashley w</font></div></div><div class='cr'><div class='vertical-center'>$33<br>for<br>yourself</div></div><div class='respDivL'><div class='vertical-center'><font style='color:orange'>(E)</font></div></div><div class='respDivR'><div class='vertical-center'>(I)</div></div></div>","null","$33<br>for<br>yourself","$80<br>for<br>2","1","33","80","2",""
"html-keyboard-response","14","113672","0.0-6.0-1.3","570fa921f895a7000f38ca6f","bdp_sd","Tue Mar 28 2023 23:28:09 GMT-0400 (Eastern Daylight Time)","165172","","null","","","","","FIX","","<div class='trialBorder'><div class='vertical-center'><img style='vertical-align:center; align:center' src=img/fixation3.jpg></div></div>","null","","","","","","",""
"html-keyboard-response","15","114952","0.0-6.0-2.3","570fa921f895a7000f38ca6f","bdp_sd","Tue Mar 28 2023 23:28:09 GMT-0400 (Eastern Daylight Time)","165172","","1279","","","","","offer","","<div class='trialBorder'><div class='vertical-center'><img style='vertical-align:center; align:center' src=img/fixation3.jpg></div><div class='cl'><div class='vertical-center'>$25<br>for<br>yourself</div></div><div class='cr'><div class='vertical-center'>$60<br>for<br>karla r</div></div><div class='respDivL'><div class='vertical-center'>(E)</div></div><div class='respDivR'><div class='vertical-center'>(I)</div></div></div>","I","$25<br>for<br>yourself","$60<br>for<br>3","0","25","60","3","OTHER"
"html-keyboard-response","16","115205","0.0-6.0-3.3","570fa921f895a7000f38ca6f","bdp_sd","Tue Mar 28 2023 23:28:09 GMT-0400 (Eastern Daylight Time)","165172","","null","","","","","offerFB","","<div class='trialBorder'><div class='vertical-center'><img style='vertical-align:center; align:center' src=img/fixation3.jpg></div><div class='cl'><div class='vertical-center'>$25<br>for<br>yourself</div></div><div class='cr'><div class='vertical-center'><font style='color:orange'>$60<br>for<br>karla r</font></div></div><div class='respDivL'><div class='vertical-center'>(E)</div></div><div class='respDivR'><div class='vertical-center'><font style='color:orange'>(I)</font></div></div></div>","null","$25<br>for<br>yourself","$60<br>for<br>3","0","25","60","3",""
"html-keyboard-response","17","115707","0.0-6.0-1.4","570fa921f895a7000f38ca6f","bdp_sd","Tue Mar 28 2023 23:28:09 GMT-0400 (Eastern Daylight Time)","165172","","null","","","","","FIX","","<div class='trialBorder'><div class='vertical-center'><img style='vertical-align:center; align:center' src=img/fixation3.jpg></div></div>","null","","","","","","",""
"html-keyboard-response","18","116860","0.0-6.0-2.4","570fa921f895a7000f38ca6f","bdp_sd","Tue Mar 28 2023 23:28:09 GMT-0400 (Eastern Daylight Time)","165172","","1151","","","","","offer","","<div class='trialBorder'><div class='vertical-center'><img style='vertical-align:center; align:center' src=img/fixation3.jpg></div><div class='cl'><div class='vertical-center'>$85<br>for<br>robert m</div></div><div class='cr'><div class='vertical-center'>$31<br>for<br>yourself</div></div><div class='respDivL'><div class='vertical-center'>(E)</div></div><div class='respDivR'><div class='vertical-center'>(I)</div></div></div>","E","$31<br>for<br>yourself","$85<br>for<br>1","1","31","85","1","OTHER"
"html-keyboard-response","19","117113","0.0-6.0-3.4","570fa921f895a7000f38ca6f","bdp_sd","Tue Mar 28 2023 23:28:09 GMT-0400 (Eastern Daylight Time)","165172","","null","","","","","offerFB","","<div class='trialBorder'><div class='vertical-center'><img style='vertical-align:center; align:center' src=img/fixation3.jpg></div><div class='cl'><div class='vertical-center'><font style='color:orange'>$85<br>for<br>robert m</font></div></div><div class='cr'><div class='vertical-center'>$31<br>for<br>yourself</div></div><div class='respDivL'><div class='vertical-center'><font style='color:orange'>(E)</font></div></div><div class='respDivR'><div class='vertical-center'>(I)</div></div></div>","null","$31<br>for<br>yourself","$85<br>for<br>1","1","31","85","1",""
"html-keyboard-response","20","117615","0.0-6.0-1.5","570fa921f895a7000f38ca6f","bdp_sd","Tue Mar 28 2023 23:28:09 GMT-0400 (Eastern Daylight Time)","165172","","null","","","","","FIX","","<div class='trialBorder'><div class='vertical-center'><img style='vertical-align:center; align:center' src=img/fixation3.jpg></div></div>","null","","","","","","",""
"html-keyboard-response","21","118681","0.0-6.0-2.5","570fa921f895a7000f38ca6f","bdp_sd","Tue Mar 28 2023 23:28:09 GMT-0400 (Eastern Daylight Time)","165172","","1066","","","","","offer","","<div class='trialBorder'><div class='vertical-center'><img style='vertical-align:center; align:center' src=img/fixation3.jpg></div><div class='cl'><div class='vertical-center'>$80<br>for<br>danny b</div></div><div class='cr'><div class='vertical-center'>$78<br>for<br>yourself</div></div><div class='respDivL'><div class='vertical-center'>(E)</div></div><div class='respDivR'><div class='vertical-center'>(I)</div></div></div>","I","$78<br>for<br>yourself","$80<br>for<br>5","1","78","80","5","SELF"
"html-keyboard-response","22","118933","0.0-6.0-3.5","570fa921f895a7000f38ca6f","bdp_sd","Tue Mar 28 2023 23:28:09 GMT-0400 (Eastern Daylight Time)","165172","","null","","","","","offerFB","","<div class='trialBorder'><div class='vertical-center'><img style='vertical-align:center; align:center' src=img/fixation3.jpg></div><div class='cl'><div class='vertical-center'>$80<br>for<br>danny b</div></div><div class='cr'><div class='vertical-center'><font style='color:orange'>$78<br>for<br>yourself</font></div></div><div class='respDivL'><div class='vertical-center'>(E)</div></div><div class='respDivR'><div class='vertical-center'><font style='color:orange'>(I)</font></div></div></div>","null","$78<br>for<br>yourself","$80<br>for<br>5","1","78","80","5",""
"html-keyboard-response","23","119436","0.0-6.0-1.6","570fa921f895a7000f38ca6f","bdp_sd","Tue Mar 28 2023 23:28:09 GMT-0400 (Eastern Daylight Time)","165172","","null","","","","","FIX","","<div class='trialBorder'><div class='vertical-center'><img style='vertical-align:center; align:center' src=img/fixation3.jpg></div></div>","null","","","","","","",""
"html-keyboard-response","24","120576","0.0-6.0-2.6","570fa921f895a7000f38ca6f","bdp_sd","Tue Mar 28 2023 23:28:09 GMT-0400 (Eastern Daylight Time)","165172","","1140","","","","","offer","","<div class='trialBorder'><div class='vertical-center'><img style='vertical-align:center; align:center' src=img/fixation3.jpg></div><div class='cl'><div class='vertical-center'>$20<br>for<br>yourself</div></div><div class='cr'><div class='vertical-center'>$55<br>for<br>robert m</div></div><div class='respDivL'><div class='vertical-center'>(E)</div></div><div class='respDivR'><div class='vertical-center'>(I)</div></div></div>","I","$20<br>for<br>yourself","$55<br>for<br>1","0","20","55","1","OTHER"
"html-keyboard-response","25","120829","0.0-6.0-3.6","570fa921f895a7000f38ca6f","bdp_sd","Tue Mar 28 2023 23:28:09 GMT-0400 (Eastern Daylight Time)","165172","","null","","","","","offerFB","","<div class='trialBorder'><div class='vertical-center'><img style='vertical-align:center; align:center' src=img/fixation3.jpg></div><div class='cl'><div class='vertical-center'>$20<br>for<br>yourself</div></div><div class='cr'><div class='vertical-center'><font style='color:orange'>$55<br>for<br>robert m</font></div></div><div class='respDivL'><div class='vertical-center'>(E)</div></div><div class='respDivR'><div class='vertical-center'><font style='color:orange'>(I)</font></div></div></div>","null","$20<br>for<br>yourself","$55<br>for<br>1","0","20","55","1",""
"html-keyboard-response","26","121330","0.0-6.0-1.7","570fa921f895a7000f38ca6f","bdp_sd","Tue Mar 28 2023 23:28:09 GMT-0400 (Eastern Daylight Time)","165172","","null","","","","","FIX","","<div class='trialBorder'><div class='vertical-center'><img style='vertical-align:center; align:center' src=img/fixation3.jpg></div></div>","null","","","","","","",""
"html-keyboard-response","27","123547","0.0-6.0-2.7","570fa921f895a7000f38ca6f","bdp_sd","Tue Mar 28 2023 23:28:09 GMT-0400 (Eastern Daylight Time)","165172","","2216","","","","","offer","","<div class='trialBorder'><div class='vertical-center'><img style='vertical-align:center; align:center' src=img/fixation3.jpg></div><div class='cl'><div class='vertical-center'>$25<br>for<br>danny b</div></div><div class='cr'><div class='vertical-center'>$22<br>for<br>yourself</div></div><div class='respDivL'><div class='vertical-center'>(E)</div></div><div class='respDivR'><div class='vertical-center'>(I)</div></div></div>","I","$22<br>for<br>yourself","$25<br>for<br>5","1","22","25","5","SELF"
"html-keyboard-response","28","123799","0.0-6.0-3.7","570fa921f895a7000f38ca6f","bdp_sd","Tue Mar 28 2023 23:28:09 GMT-0400 (Eastern Daylight Time)","165172","","null","","","","","offerFB","","<div class='trialBorder'><div class='vertical-center'><img style='vertical-align:center; align:center' src=img/fixation3.jpg></div><div class='cl'><div class='vertical-center'>$25<br>for<br>danny b</div></div><div class='cr'><div class='vertical-center'><font style='color:orange'>$22<br>for<br>yourself</font></div></div><div class='respDivL'><div class='vertical-center'>(E)</div></div><div class='respDivR'><div class='vertical-center'><font style='color:orange'>(I)</font></div></div></div>","null","$22<br>for<br>yourself","$25<br>for<br>5","1","22","25","5",""
"html-keyboard-response","29","124300","0.0-6.0-1.8","570fa921f895a7000f38ca6f","bdp_sd","Tue Mar 28 2023 23:28:09 GMT-0400 (Eastern Daylight Time)","165172","","null","","","","","FIX","","<div class='trialBorder'><div class='vertical-center'><img style='vertical-align:center; align:center' src=img/fixation3.jpg></div></div>","null","","","","","","",""
"html-keyboard-response","30","126100","0.0-6.0-2.8","570fa921f895a7000f38ca6f","bdp_sd","Tue Mar 28 2023 23:28:09 GMT-0400 (Eastern Daylight Time)","165172","","1799","","","","","offer","","<div class='trialBorder'><div class='vertical-center'><img style='vertical-align:center; align:center' src=img/fixation3.jpg></div><div class='cl'><div class='vertical-center'>$40<br>for<br>yourself</div></div><div class='cr'><div class='vertical-center'>$55<br>for<br>faith l</div></div><div class='respDivL'><div class='vertical-center'>(E)</div></div><div class='respDivR'><div class='vertical-center'>(I)</div></div></div>","I","$40<br>for<br>yourself","$55<br>for<br>4","0","40","55","4","OTHER"
"html-keyboard-response","31","126352","0.0-6.0-3.8","570fa921f895a7000f38ca6f","bdp_sd","Tue Mar 28 2023 23:28:09 GMT-0400 (Eastern Daylight Time)","165172","","null","","","","","offerFB","","<div class='trialBorder'><div class='vertical-center'><img style='vertical-align:center; align:center' src=img/fixation3.jpg></div><div class='cl'><div class='vertical-center'>$40<br>for<br>yourself</div></div><div class='cr'><div class='vertical-center'><font style='color:orange'>$55<br>for<br>faith l</font></div></div><div class='respDivL'><div class='vertical-center'>(E)</div></div><div class='respDivR'><div class='vertical-center'><font style='color:orange'>(I)</font></div></div></div>","null","$40<br>for<br>yourself","$55<br>for<br>4","0","40","55","4",""
"html-keyboard-response","32","126854","0.0-6.0-1.9","570fa921f895a7000f38ca6f","bdp_sd","Tue Mar 28 2023 23:28:09 GMT-0400 (Eastern Daylight Time)","165172","","null","","","","","FIX","","<div class='trialBorder'><div class='vertical-center'><img style='vertical-align:center; align:center' src=img/fixation3.jpg></div></div>","null","","","","","","",""
"html-keyboard-response","33","128938","0.0-6.0-2.9","570fa921f895a7000f38ca6f","bdp_sd","Tue Mar 28 2023 23:28:09 GMT-0400 (Eastern Daylight Time)","165172","","2082","","","","","offer","","<div class='trialBorder'><div class='vertical-center'><img style='vertical-align:center; align:center' src=img/fixation3.jpg></div><div class='cl'><div class='vertical-center'>$30<br>for<br>danny b</div></div><div class='cr'><div class='vertical-center'>$28<br>for<br>yourself</div></div><div class='respDivL'><div class='vertical-center'>(E)</div></div><div class='respDivR'><div class='vertical-center'>(I)</div></div></div>","I","$28<br>for<br>yourself","$30<br>for<br>5","1","28","30","5","SELF"
"html-keyboard-response","34","129189","0.0-6.0-3.9","570fa921f895a7000f38ca6f","bdp_sd","Tue Mar 28 2023 23:28:09 GMT-0400 (Eastern Daylight Time)","165172","","null","","","","","offerFB","","<div class='trialBorder'><div class='vertical-center'><img style='vertical-align:center; align:center' src=img/fixation3.jpg></div><div class='cl'><div class='vertical-center'>$30<br>for<br>danny b</div></div><div class='cr'><div class='vertical-center'><font style='color:orange'>$28<br>for<br>yourself</font></div></div><div class='respDivL'><div class='vertical-center'>(E)</div></div><div class='respDivR'><div class='vertical-center'><font style='color:orange'>(I)</font></div></div></div>","null","$28<br>for<br>yourself","$30<br>for<br>5","1","28","30","5",""
"html-keyboard-response","35","129700","0.0-6.0-1.10","570fa921f895a7000f38ca6f","bdp_sd","Tue Mar 28 2023 23:28:09 GMT-0400 (Eastern Daylight Time)","165172","","null","","","","","FIX","","<div class='trialBorder'><div class='vertical-center'><img style='vertical-align:center; align:center' src=img/fixation3.jpg></div></div>","null","","","","","","",""
"html-keyboard-response","36","131164","0.0-6.0-2.10","570fa921f895a7000f38ca6f","bdp_sd","Tue Mar 28 2023 23:28:09 GMT-0400 (Eastern Daylight Time)","165172","","1463","","","","","offer","","<div class='trialBorder'><div class='vertical-center'><img style='vertical-align:center; align:center' src=img/fixation3.jpg></div><div class='cl'><div class='vertical-center'>$49<br>for<br>yourself</div></div><div class='cr'><div class='vertical-center'>$60<br>for<br>faith l</div></div><div class='respDivL'><div class='vertical-center'>(E)</div></div><div class='respDivR'><div class='vertical-center'>(I)</div></div></div>","I","$49<br>for<br>yourself","$60<br>for<br>4","0","49","60","4","OTHER"
"html-keyboard-response","37","131417","0.0-6.0-3.10","570fa921f895a7000f38ca6f","bdp_sd","Tue Mar 28 2023 23:28:09 GMT-0400 (Eastern Daylight Time)","165172","","null","","","","","offerFB","","<div class='trialBorder'><div class='vertical-center'><img style='vertical-align:center; align:center' src=img/fixation3.jpg></div><div class='cl'><div class='vertical-center'>$49<br>for<br>yourself</div></div><div class='cr'><div class='vertical-center'><font style='color:orange'>$60<br>for<br>faith l</font></div></div><div class='respDivL'><div class='vertical-center'>(E)</div></div><div class='respDivR'><div class='vertical-center'><font style='color:orange'>(I)</font></div></div></div>","null","$49<br>for<br>yourself","$60<br>for<br>4","0","49","60","4",""
"html-keyboard-response","38","131919","0.0-6.0-1.11","570fa921f895a7000f38ca6f","bdp_sd","Tue Mar 28 2023 23:28:09 GMT-0400 (Eastern Daylight Time)","165172","","null","","","","","FIX","","<div class='trialBorder'><div class='vertical-center'><img style='vertical-align:center; align:center' src=img/fixation3.jpg></div></div>","null","","","","","","",""
"html-keyboard-response","39","133080","0.0-6.0-2.11","570fa921f895a7000f38ca6f","bdp_sd","Tue Mar 28 2023 23:28:09 GMT-0400 (Eastern Daylight Time)","165172","","1159","","","","","offer","","<div class='trialBorder'><div class='vertical-center'><img style='vertical-align:center; align:center' src=img/fixation3.jpg></div><div class='cl'><div class='vertical-center'>$55<br>for<br>yourself</div></div><div class='cr'><div class='vertical-center'>$75<br>for<br>faith l</div></div><div class='respDivL'><div class='vertical-center'>(E)</div></div><div class='respDivR'><div class='vertical-center'>(I)</div></div></div>","I","$55<br>for<br>yourself","$75<br>for<br>4","0","55","75","4","OTHER"
"html-keyboard-response","40","133333","0.0-6.0-3.11","570fa921f895a7000f38ca6f","bdp_sd","Tue Mar 28 2023 23:28:09 GMT-0400 (Eastern Daylight Time)","165172","","null","","","","","offerFB","","<div class='trialBorder'><div class='vertical-center'><img style='vertical-align:center; align:center' src=img/fixation3.jpg></div><div class='cl'><div class='vertical-center'>$55<br>for<br>yourself</div></div><div class='cr'><div class='vertical-center'><font style='color:orange'>$75<br>for<br>faith l</font></div></div><div class='respDivL'><div class='vertical-center'>(E)</div></div><div class='respDivR'><div class='vertical-center'><font style='color:orange'>(I)</font></div></div></div>","null","$55<br>for<br>yourself","$75<br>for<br>4","0","55","75","4",""
"html-keyboard-response","41","133835","0.0-6.0-1.12","570fa921f895a7000f38ca6f","bdp_sd","Tue Mar 28 2023 23:28:09 GMT-0400 (Eastern Daylight Time)","165172","","null","","","","","FIX","","<div class='trialBorder'><div class='vertical-center'><img style='vertical-align:center; align:center' src=img/fixation3.jpg></div></div>","null","","","","","","",""
"html-keyboard-response","42","135867","0.0-6.0-2.12","570fa921f895a7000f38ca6f","bdp_sd","Tue Mar 28 2023 23:28:09 GMT-0400 (Eastern Daylight Time)","165172","","2031","","","","","offer","","<div class='trialBorder'><div class='vertical-center'><img style='vertical-align:center; align:center' src=img/fixation3.jpg></div><div class='cl'><div class='vertical-center'>$25<br>for<br>yourself</div></div><div class='cr'><div class='vertical-center'>$30<br>for<br>faith l</div></div><div class='respDivL'><div class='vertical-center'>(E)</div></div><div class='respDivR'><div class='vertical-center'>(I)</div></div></div>","I","$25<br>for<br>yourself","$30<br>for<br>4","0","25","30","4","OTHER"
"html-keyboard-response","43","136120","0.0-6.0-3.12","570fa921f895a7000f38ca6f","bdp_sd","Tue Mar 28 2023 23:28:09 GMT-0400 (Eastern Daylight Time)","165172","","null","","","","","offerFB","","<div class='trialBorder'><div class='vertical-center'><img style='vertical-align:center; align:center' src=img/fixation3.jpg></div><div class='cl'><div class='vertical-center'>$25<br>for<br>yourself</div></div><div class='cr'><div class='vertical-center'><font style='color:orange'>$30<br>for<br>faith l</font></div></div><div class='respDivL'><div class='vertical-center'>(E)</div></div><div class='respDivR'><div class='vertical-center'><font style='color:orange'>(I)</font></div></div></div>","null","$25<br>for<br>yourself","$30<br>for<br>4","0","25","30","4",""
"html-keyboard-response","44","136621","0.0-6.0-1.13","570fa921f895a7000f38ca6f","bdp_sd","Tue Mar 28 2023 23:28:09 GMT-0400 (Eastern Daylight Time)","165172","","null","","","","","FIX","","<div class='trialBorder'><div class='vertical-center'><img style='vertical-align:center; align:center' src=img/fixation3.jpg></div></div>","null","","","","","","",""
"html-keyboard-response","45","138881","0.0-6.0-2.13","570fa921f895a7000f38ca6f","bdp_sd","Tue Mar 28 2023 23:28:09 GMT-0400 (Eastern Daylight Time)","165172","","2259","","","","","offer","","<div class='trialBorder'><div class='vertical-center'><img style='vertical-align:center; align:center' src=img/fixation3.jpg></div><div class='cl'><div class='vertical-center'>$80<br>for<br>yourself</div></div><div class='cr'><div class='vertical-center'>$85<br>for<br>danny b</div></div><div class='respDivL'><div class='vertical-center'>(E)</div></div><div class='respDivR'><div class='vertical-center'>(I)</div></div></div>","E","$80<br>for<br>yourself","$85<br>for<br>5","0","80","85","5","SELF"
"html-keyboard-response","46","139134","0.0-6.0-3.13","570fa921f895a7000f38ca6f","bdp_sd","Tue Mar 28 2023 23:28:09 GMT-0400 (Eastern Daylight Time)","165172","","null","","","","","offerFB","","<div class='trialBorder'><div class='vertical-center'><img style='vertical-align:center; align:center' src=img/fixation3.jpg></div><div class='cl'><div class='vertical-center'><font style='color:orange'>$80<br>for<br>yourself</font></div></div><div class='cr'><div class='vertical-center'>$85<br>for<br>danny b</div></div><div class='respDivL'><div class='vertical-center'><font style='color:orange'>(E)</font></div></div><div class='respDivR'><div class='vertical-center'>(I)</div></div></div>","null","$80<br>for<br>yourself","$85<br>for<br>5","0","80","85","5",""
"html-keyboard-response","47","139636","0.0-6.0-1.14","570fa921f895a7000f38ca6f","bdp_sd","Tue Mar 28 2023 23:28:09 GMT-0400 (Eastern Daylight Time)","165172","","null","","","","","FIX","","<div class='trialBorder'><div class='vertical-center'><img style='vertical-align:center; align:center' src=img/fixation3.jpg></div></div>","null","","","","","","",""
"html-keyboard-response","48","140994","0.0-6.0-2.14","570fa921f895a7000f38ca6f","bdp_sd","Tue Mar 28 2023 23:28:09 GMT-0400 (Eastern Daylight Time)","165172","","1357","","","","","offer","","<div class='trialBorder'><div class='vertical-center'><img style='vertical-align:center; align:center' src=img/fixation3.jpg></div><div class='cl'><div class='vertical-center'>$75<br>for<br>karla r</div></div><div class='cr'><div class='vertical-center'>$41<br>for<br>yourself</div></div><div class='respDivL'><div class='vertical-center'>(E)</div></div><div class='respDivR'><div class='vertical-center'>(I)</div></div></div>","E","$41<br>for<br>yourself","$75<br>for<br>3","1","41","75","3","OTHER"
"html-keyboard-response","49","141246","0.0-6.0-3.14","570fa921f895a7000f38ca6f","bdp_sd","Tue Mar 28 2023 23:28:09 GMT-0400 (Eastern Daylight Time)","165172","","null","","","","","offerFB","","<div class='trialBorder'><div class='vertical-center'><img style='vertical-align:center; align:center' src=img/fixation3.jpg></div><div class='cl'><div class='vertical-center'><font style='color:orange'>$75<br>for<br>karla r</font></div></div><div class='cr'><div class='vertical-center'>$41<br>for<br>yourself</div></div><div class='respDivL'><div class='vertical-center'><font style='color:orange'>(E)</font></div></div><div class='respDivR'><div class='vertical-center'>(I)</div></div></div>","null","$41<br>for<br>yourself","$75<br>for<br>3","1","41","75","3",""
"html-keyboard-response","50","141748","0.0-6.0-1.15","570fa921f895a7000f38ca6f","bdp_sd","Tue Mar 28 2023 23:28:09 GMT-0400 (Eastern Daylight Time)","165172","","null","","","","","FIX","","<div class='trialBorder'><div class='vertical-center'><img style='vertical-align:center; align:center' src=img/fixation3.jpg></div></div>","null","","","","","","",""
"html-keyboard-response","51","143051","0.0-6.0-2.15","570fa921f895a7000f38ca6f","bdp_sd","Tue Mar 28 2023 23:28:09 GMT-0400 (Eastern Daylight Time)","165172","","1302","","","","","offer","","<div class='trialBorder'><div class='vertical-center'><img style='vertical-align:center; align:center' src=img/fixation3.jpg></div><div class='cl'><div class='vertical-center'>$14<br>for<br>yourself</div></div><div class='cr'><div class='vertical-center'>$25<br>for<br>karla r</div></div><div class='respDivL'><div class='vertical-center'>(E)</div></div><div class='respDivR'><div class='vertical-center'>(I)</div></div></div>","I","$14<br>for<br>yourself","$25<br>for<br>3","0","14","25","3","OTHER"
"html-keyboard-response","52","143304","0.0-6.0-3.15","570fa921f895a7000f38ca6f","bdp_sd","Tue Mar 28 2023 23:28:09 GMT-0400 (Eastern Daylight Time)","165172","","null","","","","","offerFB","","<div class='trialBorder'><div class='vertical-center'><img style='vertical-align:center; align:center' src=img/fixation3.jpg></div><div class='cl'><div class='vertical-center'>$14<br>for<br>yourself</div></div><div class='cr'><div class='vertical-center'><font style='color:orange'>$25<br>for<br>karla r</font></div></div><div class='respDivL'><div class='vertical-center'>(E)</div></div><div class='respDivR'><div class='vertical-center'><font style='color:orange'>(I)</font></div></div></div>","null","$14<br>for<br>yourself","$25<br>for<br>3","0","14","25","3",""
"html-keyboard-response","53","143806","0.0-6.0-1.16","570fa921f895a7000f38ca6f","bdp_sd","Tue Mar 28 2023 23:28:09 GMT-0400 (Eastern Daylight Time)","165172","","null","","","","","FIX","","<div class='trialBorder'><div class='vertical-center'><img style='vertical-align:center; align:center' src=img/fixation3.jpg></div></div>","null","","","","","","",""
"html-keyboard-response","54","144916","0.0-6.0-2.16","570fa921f895a7000f38ca6f","bdp_sd","Tue Mar 28 2023 23:28:09 GMT-0400 (Eastern Daylight Time)","165172","","1109","","","","","offer","","<div class='trialBorder'><div class='vertical-center'><img style='vertical-align:center; align:center' src=img/fixation3.jpg></div><div class='cl'><div class='vertical-center'>$55<br>for<br>danny b</div></div><div class='cr'><div class='vertical-center'>$54<br>for<br>yourself</div></div><div class='respDivL'><div class='vertical-center'>(E)</div></div><div class='respDivR'><div class='vertical-center'>(I)</div></div></div>","I","$54<br>for<br>yourself","$55<br>for<br>5","1","54","55","5","SELF"
"html-keyboard-response","55","145168","0.0-6.0-3.16","570fa921f895a7000f38ca6f","bdp_sd","Tue Mar 28 2023 23:28:09 GMT-0400 (Eastern Daylight Time)","165172","","null","","","","","offerFB","","<div class='trialBorder'><div class='vertical-center'><img style='vertical-align:center; align:center' src=img/fixation3.jpg></div><div class='cl'><div class='vertical-center'>$55<br>for<br>danny b</div></div><div class='cr'><div class='vertical-center'><font style='color:orange'>$54<br>for<br>yourself</font></div></div><div class='respDivL'><div class='vertical-center'>(E)</div></div><div class='respDivR'><div class='vertical-center'><font style='color:orange'>(I)</font></div></div></div>","null","$54<br>for<br>yourself","$55<br>for<br>5","1","54","55","5",""
"html-keyboard-response","56","145669","0.0-6.0-1.17","570fa921f895a7000f38ca6f","bdp_sd","Tue Mar 28 2023 23:28:09 GMT-0400 (Eastern Daylight Time)","165172","","null","","","","","FIX","","<div class='trialBorder'><div class='vertical-center'><img style='vertical-align:center; align:center' src=img/fixation3.jpg></div></div>","null","","","","","","",""
"html-keyboard-response","57","147059","0.0-6.0-2.17","570fa921f895a7000f38ca6f","bdp_sd","Tue Mar 28 2023 23:28:09 GMT-0400 (Eastern Daylight Time)","165172","","1389","","","","","offer","","<div class='trialBorder'><div class='vertical-center'><img style='vertical-align:center; align:center' src=img/fixation3.jpg></div><div class='cl'><div class='vertical-center'>$25<br>for<br>faith l</div></div><div class='cr'><div class='vertical-center'>$19<br>for<br>yourself</div></div><div class='respDivL'><div class='vertical-center'>(E)</div></div><div class='respDivR'><div class='vertical-center'>(I)</div></div></div>","E","$19<br>for<br>yourself","$25<br>for<br>4","1","19","25","4","OTHER"
"html-keyboard-response","58","147312","0.0-6.0-3.17","570fa921f895a7000f38ca6f","bdp_sd","Tue Mar 28 2023 23:28:09 GMT-0400 (Eastern Daylight Time)","165172","","null","","","","","offerFB","","<div class='trialBorder'><div class='vertical-center'><img style='vertical-align:center; align:center' src=img/fixation3.jpg></div><div class='cl'><div class='vertical-center'><font style='color:orange'>$25<br>for<br>faith l</font></div></div><div class='cr'><div class='vertical-center'>$19<br>for<br>yourself</div></div><div class='respDivL'><div class='vertical-center'><font style='color:orange'>(E)</font></div></div><div class='respDivR'><div class='vertical-center'>(I)</div></div></div>","null","$19<br>for<br>yourself","$25<br>for<br>4","1","19","25","4",""
"html-keyboard-response","59","147827","0.0-6.0-1.18","570fa921f895a7000f38ca6f","bdp_sd","Tue Mar 28 2023 23:28:09 GMT-0400 (Eastern Daylight Time)","165172","","null","","","","","FIX","","<div class='trialBorder'><div class='vertical-center'><img style='vertical-align:center; align:center' src=img/fixation3.jpg></div></div>","null","","","","","","",""
"html-keyboard-response","60","148738","0.0-6.0-2.18","570fa921f895a7000f38ca6f","bdp_sd","Tue Mar 28 2023 23:28:09 GMT-0400 (Eastern Daylight Time)","165172","","910","","","","","offer","","<div class='trialBorder'><div class='vertical-center'><img style='vertical-align:center; align:center' src=img/fixation3.jpg></div><div class='cl'><div class='vertical-center'>$54<br>for<br>yourself</div></div><div class='cr'><div class='vertical-center'>$80<br>for<br>karla r</div></div><div class='respDivL'><div class='vertical-center'>(E)</div></div><div class='respDivR'><div class='vertical-center'>(I)</div></div></div>","I","$54<br>for<br>yourself","$80<br>for<br>3","0","54","80","3","OTHER"
"html-keyboard-response","61","148989","0.0-6.0-3.18","570fa921f895a7000f38ca6f","bdp_sd","Tue Mar 28 2023 23:28:09 GMT-0400 (Eastern Daylight Time)","165172","","null","","","","","offerFB","","<div class='trialBorder'><div class='vertical-center'><img style='vertical-align:center; align:center' src=img/fixation3.jpg></div><div class='cl'><div class='vertical-center'>$54<br>for<br>yourself</div></div><div class='cr'><div class='vertical-center'><font style='color:orange'>$80<br>for<br>karla r</font></div></div><div class='respDivL'><div class='vertical-center'>(E)</div></div><div class='respDivR'><div class='vertical-center'><font style='color:orange'>(I)</font></div></div></div>","null","$54<br>for<br>yourself","$80<br>for<br>3","0","54","80","3",""
"html-keyboard-response","62","149498","0.0-6.0-1.19","570fa921f895a7000f38ca6f","bdp_sd","Tue Mar 28 2023 23:28:09 GMT-0400 (Eastern Daylight Time)","165172","","null","","","","","FIX","","<div class='trialBorder'><div class='vertical-center'><img style='vertical-align:center; align:center' src=img/fixation3.jpg></div></div>","null","","","","","","",""
"html-keyboard-response","63","150577","0.0-6.0-2.19","570fa921f895a7000f38ca6f","bdp_sd","Tue Mar 28 2023 23:28:09 GMT-0400 (Eastern Daylight Time)","165172","","1078","","","","","offer","","<div class='trialBorder'><div class='vertical-center'><img style='vertical-align:center; align:center' src=img/fixation3.jpg></div><div class='cl'><div class='vertical-center'>$24<br>for<br>yourself</div></div><div class='cr'><div class='vertical-center'>$35<br>for<br>karla r</div></div><div class='respDivL'><div class='vertical-center'>(E)</div></div><div class='respDivR'><div class='vertical-center'>(I)</div></div></div>","I","$24<br>for<br>yourself","$35<br>for<br>3","0","24","35","3","OTHER"
"html-keyboard-response","64","150830","0.0-6.0-3.19","570fa921f895a7000f38ca6f","bdp_sd","Tue Mar 28 2023 23:28:09 GMT-0400 (Eastern Daylight Time)","165172","","null","","","","","offerFB","","<div class='trialBorder'><div class='vertical-center'><img style='vertical-align:center; align:center' src=img/fixation3.jpg></div><div class='cl'><div class='vertical-center'>$24<br>for<br>yourself</div></div><div class='cr'><div class='vertical-center'><font style='color:orange'>$35<br>for<br>karla r</font></div></div><div class='respDivL'><div class='vertical-center'>(E)</div></div><div class='respDivR'><div class='vertical-center'><font style='color:orange'>(I)</font></div></div></div>","null","$24<br>for<br>yourself","$35<br>for<br>3","0","24","35","3",""
"html-keyboard-response","65","151332","0.0-6.0-1.20","570fa921f895a7000f38ca6f","bdp_sd","Tue Mar 28 2023 23:28:09 GMT-0400 (Eastern Daylight Time)","165172","","null","","","","","FIX","","<div class='trialBorder'><div class='vertical-center'><img style='vertical-align:center; align:center' src=img/fixation3.jpg></div></div>","null","","","","","","",""
"html-keyboard-response","66","152248","0.0-6.0-2.20","570fa921f895a7000f38ca6f","bdp_sd","Tue Mar 28 2023 23:28:09 GMT-0400 (Eastern Daylight Time)","165172","","915","","","","","offer","","<div class='trialBorder'><div class='vertical-center'><img style='vertical-align:center; align:center' src=img/fixation3.jpg></div><div class='cl'><div class='vertical-center'>$85<br>for<br>faith l</div></div><div class='cr'><div class='vertical-center'>$69<br>for<br>yourself</div></div><div class='respDivL'><div class='vertical-center'>(E)</div></div><div class='respDivR'><div class='vertical-center'>(I)</div></div></div>","E","$69<br>for<br>yourself","$85<br>for<br>4","1","69","85","4","OTHER"
"html-keyboard-response","67","152514","0.0-6.0-3.20","570fa921f895a7000f38ca6f","bdp_sd","Tue Mar 28 2023 23:28:09 GMT-0400 (Eastern Daylight Time)","165172","","null","","","","","offerFB","","<div class='trialBorder'><div class='vertical-center'><img style='vertical-align:center; align:center' src=img/fixation3.jpg></div><div class='cl'><div class='vertical-center'><font style='color:orange'>$85<br>for<br>faith l</font></div></div><div class='cr'><div class='vertical-center'>$69<br>for<br>yourself</div></div><div class='respDivL'><div class='vertical-center'><font style='color:orange'>(E)</font></div></div><div class='respDivR'><div class='vertical-center'>(I)</div></div></div>","null","$69<br>for<br>yourself","$85<br>for<br>4","1","69","85","4",""
"html-keyboard-response","68","153015","0.0-6.0-1.21","570fa921f895a7000f38ca6f","bdp_sd","Tue Mar 28 2023 23:28:09 GMT-0400 (Eastern Daylight Time)","165172","","null","","","","","FIX","","<div class='trialBorder'><div class='vertical-center'><img style='vertical-align:center; align:center' src=img/fixation3.jpg></div></div>","null","","","","","","",""
"html-keyboard-response","69","154093","0.0-6.0-2.21","570fa921f895a7000f38ca6f","bdp_sd","Tue Mar 28 2023 23:28:09 GMT-0400 (Eastern Daylight Time)","165172","","1077","","","","","offer","","<div class='trialBorder'><div class='vertical-center'><img style='vertical-align:center; align:center' src=img/fixation3.jpg></div><div class='cl'><div class='vertical-center'>$67<br>for<br>yourself</div></div><div class='cr'><div class='vertical-center'>$75<br>for<br>danny b</div></div><div class='respDivL'><div class='vertical-center'>(E)</div></div><div class='respDivR'><div class='vertical-center'>(I)</div></div></div>","I","$67<br>for<br>yourself","$75<br>for<br>5","0","67","75","5","OTHER"
"html-keyboard-response","70","154347","0.0-6.0-3.21","570fa921f895a7000f38ca6f","bdp_sd","Tue Mar 28 2023 23:28:09 GMT-0400 (Eastern Daylight Time)","165172","","null","","","","","offerFB","","<div class='trialBorder'><div class='vertical-center'><img style='vertical-align:center; align:center' src=img/fixation3.jpg></div><div class='cl'><div class='vertical-center'>$67<br>for<br>yourself</div></div><div class='cr'><div class='vertical-center'><font style='color:orange'>$75<br>for<br>danny b</font></div></div><div class='respDivL'><div class='vertical-center'>(E)</div></div><div class='respDivR'><div class='vertical-center'><font style='color:orange'>(I)</font></div></div></div>","null","$67<br>for<br>yourself","$75<br>for<br>5","0","67","75","5",""
"html-keyboard-response","71","154848","0.0-6.0-1.22","570fa921f895a7000f38ca6f","bdp_sd","Tue Mar 28 2023 23:28:09 GMT-0400 (Eastern Daylight Time)","165172","","null","","","","","FIX","","<div class='trialBorder'><div class='vertical-center'><img style='vertical-align:center; align:center' src=img/fixation3.jpg></div></div>","null","","","","","","",""
"html-keyboard-response","72","155938","0.0-6.0-2.22","570fa921f895a7000f38ca6f","bdp_sd","Tue Mar 28 2023 23:28:09 GMT-0400 (Eastern Daylight Time)","165172","","1089","","","","","offer","","<div class='trialBorder'><div class='vertical-center'><img style='vertical-align:center; align:center' src=img/fixation3.jpg></div><div class='cl'><div class='vertical-center'>$54<br>for<br>yourself</div></div><div class='cr'><div class='vertical-center'>$60<br>for<br>danny b</div></div><div class='respDivL'><div class='vertical-center'>(E)</div></div><div class='respDivR'><div class='vertical-center'>(I)</div></div></div>","I","$54<br>for<br>yourself","$60<br>for<br>5","0","54","60","5","OTHER"
"html-keyboard-response","73","156190","0.0-6.0-3.22","570fa921f895a7000f38ca6f","bdp_sd","Tue Mar 28 2023 23:28:09 GMT-0400 (Eastern Daylight Time)","165172","","null","","","","","offerFB","","<div class='trialBorder'><div class='vertical-center'><img style='vertical-align:center; align:center' src=img/fixation3.jpg></div><div class='cl'><div class='vertical-center'>$54<br>for<br>yourself</div></div><div class='cr'><div class='vertical-center'><font style='color:orange'>$60<br>for<br>danny b</font></div></div><div class='respDivL'><div class='vertical-center'>(E)</div></div><div class='respDivR'><div class='vertical-center'><font style='color:orange'>(I)</font></div></div></div>","null","$54<br>for<br>yourself","$60<br>for<br>5","0","54","60","5",""
"html-keyboard-response","74","156692","0.0-6.0-1.23","570fa921f895a7000f38ca6f","bdp_sd","Tue Mar 28 2023 23:28:09 GMT-0400 (Eastern Daylight Time)","165172","","null","","","","","FIX","","<div class='trialBorder'><div class='vertical-center'><img style='vertical-align:center; align:center' src=img/fixation3.jpg></div></div>","null","","","","","","",""
"html-keyboard-response","75","157570","0.0-6.0-2.23","570fa921f895a7000f38ca6f","bdp_sd","Tue Mar 28 2023 23:28:09 GMT-0400 (Eastern Daylight Time)","165172","","877","","","","","offer","","<div class='trialBorder'><div class='vertical-center'><img style='vertical-align:center; align:center' src=img/fixation3.jpg></div><div class='cl'><div class='vertical-center'>$50<br>for<br>karla r</div></div><div class='cr'><div class='vertical-center'>$27<br>for<br>yourself</div></div><div class='respDivL'><div class='vertical-center'>(E)</div></div><div class='respDivR'><div class='vertical-center'>(I)</div></div></div>","E","$27<br>for<br>yourself","$50<br>for<br>3","1","27","50","3","OTHER"
"html-keyboard-response","76","157822","0.0-6.0-3.23","570fa921f895a7000f38ca6f","bdp_sd","Tue Mar 28 2023 23:28:09 GMT-0400 (Eastern Daylight Time)","165172","","null","","","","","offerFB","","<div class='trialBorder'><div class='vertical-center'><img style='vertical-align:center; align:center' src=img/fixation3.jpg></div><div class='cl'><div class='vertical-center'><font style='color:orange'>$50<br>for<br>karla r</font></div></div><div class='cr'><div class='vertical-center'>$27<br>for<br>yourself</div></div><div class='respDivL'><div class='vertical-center'><font style='color:orange'>(E)</font></div></div><div class='respDivR'><div class='vertical-center'>(I)</div></div></div>","null","$27<br>for<br>yourself","$50<br>for<br>3","1","27","50","3",""
"html-keyboard-response","77","158324","0.0-6.0-1.24","570fa921f895a7000f38ca6f","bdp_sd","Tue Mar 28 2023 23:28:09 GMT-0400 (Eastern Daylight Time)","165172","","null","","","","","FIX","","<div class='trialBorder'><div class='vertical-center'><img style='vertical-align:center; align:center' src=img/fixation3.jpg></div></div>","null","","","","","","",""
"html-keyboard-response","78","159655","0.0-6.0-2.24","570fa921f895a7000f38ca6f","bdp_sd","Tue Mar 28 2023 23:28:09 GMT-0400 (Eastern Daylight Time)","165172","","1329","","","","","offer","","<div class='trialBorder'><div class='vertical-center'><img style='vertical-align:center; align:center' src=img/fixation3.jpg></div><div class='cl'><div class='vertical-center'>$35<br>for<br>danny b</div></div><div class='cr'><div class='vertical-center'>$34<br>for<br>yourself</div></div><div class='respDivL'><div class='vertical-center'>(E)</div></div><div class='respDivR'><div class='vertical-center'>(I)</div></div></div>","I","$34<br>for<br>yourself","$35<br>for<br>5","1","34","35","5","SELF"
"html-keyboard-response","79","159907","0.0-6.0-3.24","570fa921f895a7000f38ca6f","bdp_sd","Tue Mar 28 2023 23:28:09 GMT-0400 (Eastern Daylight Time)","165172","","null","","","","","offerFB","","<div class='trialBorder'><div class='vertical-center'><img style='vertical-align:center; align:center' src=img/fixation3.jpg></div><div class='cl'><div class='vertical-center'>$35<br>for<br>danny b</div></div><div class='cr'><div class='vertical-center'><font style='color:orange'>$34<br>for<br>yourself</font></div></div><div class='respDivL'><div class='vertical-center'>(E)</div></div><div class='respDivR'><div class='vertical-center'><font style='color:orange'>(I)</font></div></div></div>","null","$34<br>for<br>yourself","$35<br>for<br>5","1","34","35","5",""
"html-keyboard-response","80","160409","0.0-6.0-1.25","570fa921f895a7000f38ca6f","bdp_sd","Tue Mar 28 2023 23:28:09 GMT-0400 (Eastern Daylight Time)","165172","","null","","","","","FIX","","<div class='trialBorder'><div class='vertical-center'><img style='vertical-align:center; align:center' src=img/fixation3.jpg></div></div>","null","","","","","","",""
"html-keyboard-response","81","162284","0.0-6.0-2.25","570fa921f895a7000f38ca6f","bdp_sd","Tue Mar 28 2023 23:28:09 GMT-0400 (Eastern Daylight Time)","165172","","1874","","","","","offer","","<div class='trialBorder'><div class='vertical-center'><img style='vertical-align:center; align:center' src=img/fixation3.jpg></div><div class='cl'><div class='vertical-center'>$34<br>for<br>yourself</div></div><div class='cr'><div class='vertical-center'>$50<br>for<br>faith l</div></div><div class='respDivL'><div class='vertical-center'>(E)</div></div><div class='respDivR'><div class='vertical-center'>(I)</div></div></div>","E","$34<br>for<br>yourself","$50<br>for<br>4","0","34","50","4","SELF"
"html-keyboard-response","82","162536","0.0-6.0-3.25","570fa921f895a7000f38ca6f","bdp_sd","Tue Mar 28 2023 23:28:09 GMT-0400 (Eastern Daylight Time)","165172","","null","","","","","offerFB","","<div class='trialBorder'><div class='vertical-center'><img style='vertical-align:center; align:center' src=img/fixation3.jpg></div><div class='cl'><div class='vertical-center'><font style='color:orange'>$34<br>for<br>yourself</font></div></div><div class='cr'><div class='vertical-center'>$50<br>for<br>faith l</div></div><div class='respDivL'><div class='vertical-center'><font style='color:orange'>(E)</font></div></div><div class='respDivR'><div class='vertical-center'>(I)</div></div></div>","null","$34<br>for<br>yourself","$50<br>for<br>4","0","34","50","4",""
"html-keyboard-response","83","163038","0.0-6.0-1.26","570fa921f895a7000f38ca6f","bdp_sd","Tue Mar 28 2023 23:28:09 GMT-0400 (Eastern Daylight Time)","165172","","null","","","","","FIX","","<div class='trialBorder'><div class='vertical-center'><img style='vertical-align:center; align:center' src=img/fixation3.jpg></div></div>","null","","","","","","",""
"html-keyboard-response","84","163909","0.0-6.0-2.26","570fa921f895a7000f38ca6f","bdp_sd","Tue Mar 28 2023 23:28:09 GMT-0400 (Eastern Daylight Time)","165172","","870","","","","","offer","","<div class='trialBorder'><div class='vertical-center'><img style='vertical-align:center; align:center' src=img/fixation3.jpg></div><div class='cl'><div class='vertical-center'>$30<br>for<br>ashley w</div></div><div class='cr'><div class='vertical-center'>$11<br>for<br>yourself</div></div><div class='respDivL'><div class='vertical-center'>(E)</div></div><div class='respDivR'><div class='vertical-center'>(I)</div></div></div>","E","$11<br>for<br>yourself","$30<br>for<br>2","1","11","30","2","OTHER"
"html-keyboard-response","85","164170","0.0-6.0-3.26","570fa921f895a7000f38ca6f","bdp_sd","Tue Mar 28 2023 23:28:09 GMT-0400 (Eastern Daylight Time)","165172","","null","","","","","offerFB","","<div class='trialBorder'><div class='vertical-center'><img style='vertical-align:center; align:center' src=img/fixation3.jpg></div><div class='cl'><div class='vertical-center'><font style='color:orange'>$30<br>for<br>ashley w</font></div></div><div class='cr'><div class='vertical-center'>$11<br>for<br>yourself</div></div><div class='respDivL'><div class='vertical-center'><font style='color:orange'>(E)</font></div></div><div class='respDivR'><div class='vertical-center'>(I)</div></div></div>","null","$11<br>for<br>yourself","$30<br>for<br>2","1","11","30","2",""
"","","","","570fa921f895a7000f38ca6f","bdp_sd","Tue Mar 28 2023 23:28:09 GMT-0400 (Eastern Daylight Time)","165172","","","","fullscreenexit","86","164185","fullscreenexit","","","","","","","","","",""
"fullscreen","86","165171","0.0-7.0","570fa921f895a7000f38ca6f","bdp_sd","Tue Mar 28 2023 23:28:09 GMT-0400 (Eastern Daylight Time)","165172","","","","","","","","true","","","","","","","","",""
"html-keyboard-response","87","165674","0.0-8.0","","","","","","null","","","","","","","","null","","","","","","",""
