"trial_type","trial_index","time_elapsed","internal_node_id","subject_id","task","startTime","totalTime","view_history","rt","responses","event","trial","time","trialtype","success","stimulus","key_press","selfOffer","otherOffer","otherLeft","selfAmt","otherAmt","otherDist","chosen"
"pavlovia","0","11","0.0-0.0","5ede9b80b8a141131edabbe1","bdp_sd","Wed Mar 29 2023 19:56:27 GMT-0700 (Pacific Daylight Time)","199728","","","","","","","","","","","","","","","","",""
"instructions","1","1126","0.0-1.0","5ede9b80b8a141131edabbe1","bdp_sd","Wed Mar 29 2023 19:56:27 GMT-0700 (Pacific Daylight Time)","199728","[{""page_index"":0,""viewing_time"":1111}]","1112","","","","","","","","","","","","","","",""
"survey-text","2","74541","0.0-2.0","5ede9b80b8a141131edabbe1","bdp_sd","Wed Mar 29 2023 19:56:27 GMT-0700 (Pacific Daylight Time)","199728","","73409","{""Q0"":""Ree A"",""Q1"":""Sal A"",""Q2"":""Kai K"",""Q3"":""Rou A"",""Q4"":""Sar A""}","","","","","","","","","","","","","",""
"","","","","5ede9b80b8a141131edabbe1","bdp_sd","Wed Mar 29 2023 19:56:27 GMT-0700 (Pacific Daylight Time)","199728","","","","fullscreenenter","3","76477","fullscreenenter","","","","","","","","","",""
"fullscreen","3","77401","0.0-3.0","5ede9b80b8a141131edabbe1","bdp_sd","Wed Mar 29 2023 19:56:27 GMT-0700 (Pacific Daylight Time)","199728","","","","","","","","true","","","","","","","","",""
"instructions","4","112916","0.0-5.0","5ede9b80b8a141131edabbe1","bdp_sd","Wed Mar 29 2023 19:56:27 GMT-0700 (Pacific Daylight Time)","199728","[{""page_index"":0,""viewing_time"":12202},{""page_index"":1,""viewing_time"":15476},{""page_index"":2,""viewing_time"":7831}]","35511","","","","","","","","","","","","","","",""
"html-keyboard-response","5","113430","0.0-6.0-1.0","5ede9b80b8a141131edabbe1","bdp_sd","Wed Mar 29 2023 19:56:27 GMT-0700 (Pacific Daylight Time)","199728","","null","","","","","FIX","","<div class='trialBorder'><div class='vertical-center'><img style='vertical-align:center; align:center' src=img/fixation3.jpg></div></div>","null","","","","","","",""
"html-keyboard-response","6","116952","0.0-6.0-2.0","5ede9b80b8a141131edabbe1","bdp_sd","Wed Mar 29 2023 19:56:27 GMT-0700 (Pacific Daylight Time)","199728","","3514","","","","","offer","","<div class='trialBorder'><div class='vertical-center'><img style='vertical-align:center; align:center' src=img/fixation3.jpg></div><div class='cl'><div class='vertical-center'>$54<br>for<br>yourself</div></div><div class='cr'><div class='vertical-center'>$60<br>for<br>Sar A</div></div><div class='respDivL'><div class='vertical-center'>(E)</div></div><div class='respDivR'><div class='vertical-center'>(I)</div></div></div>","E","$54<br>for<br>yourself","$60<br>for<br>5","0","54","60","5","SELF"
"html-keyboard-response","7","117213","0.0-6.0-3.0","5ede9b80b8a141131edabbe1","bdp_sd","Wed Mar 29 2023 19:56:27 GMT-0700 (Pacific Daylight Time)","199728","","null","","","","","offerFB","","<div class='trialBorder'><div class='vertical-center'><img style='vertical-align:center; align:center' src=img/fixation3.jpg></div><div class='cl'><div class='vertical-center'><font style='color:orange'>$54<br>for<br>yourself</font></div></div><div class='cr'><div class='vertical-center'>$60<br>for<br>Sar A</div></div><div class='respDivL'><div class='vertical-center'><font style='color:orange'>(E)</font></div></div><div class='respDivR'><div class='vertical-center'>(I)</div></div></div>","null","$54<br>for<br>yourself","$60<br>for<br>5","0","54","60","5",""
"html-keyboard-response","8","117718","0.0-6.0-1.1","5ede9b80b8a141131edabbe1","bdp_sd","Wed Mar 29 2023 19:56:27 GMT-0700 (Pacific Daylight Time)","199728","","null","","","","","FIX","","<div class='trialBorder'><div class='vertical-center'><img style='vertical-align:center; align:center' src=img/fixation3.jpg></div></div>","null","","","","","","",""
"html-keyboard-response","9","119946","0.0-6.0-2.1","5ede9b80b8a141131edabbe1","bdp_sd","Wed Mar 29 2023 19:56:27 GMT-0700 (Pacific Daylight Time)","199728","","2223","","","","","offer","","<div class='trialBorder'><div class='vertical-center'><img style='vertical-align:center; align:center' src=img/fixation3.jpg></div><div class='cl'><div class='vertical-center'>$80<br>for<br>Sar A</div></div><div class='cr'><div class='vertical-center'>$78<br>for<br>yourself</div></div><div class='respDivL'><div class='vertical-center'>(E)</div></div><div class='respDivR'><div class='vertical-center'>(I)</div></div></div>","I","$78<br>for<br>yourself","$80<br>for<br>5","1","78","80","5","SELF"
"html-keyboard-response","10","120201","0.0-6.0-3.1","5ede9b80b8a141131edabbe1","bdp_sd","Wed Mar 29 2023 19:56:27 GMT-0700 (Pacific Daylight Time)","199728","","null","","","","","offerFB","","<div class='trialBorder'><div class='vertical-center'><img style='vertical-align:center; align:center' src=img/fixation3.jpg></div><div class='cl'><div class='vertical-center'>$80<br>for<br>Sar A</div></div><div class='cr'><div class='vertical-center'><font style='color:orange'>$78<br>for<br>yourself</font></div></div><div class='respDivL'><div class='vertical-center'>(E)</div></div><div class='respDivR'><div class='vertical-center'><font style='color:orange'>(I)</font></div></div></div>","null","$78<br>for<br>yourself","$80<br>for<br>5","1","78","80","5",""
"html-keyboard-response","11","120705","0.0-6.0-1.2","5ede9b80b8a141131edabbe1","bdp_sd","Wed Mar 29 2023 19:56:27 GMT-0700 (Pacific Daylight Time)","199728","","null","","","","","FIX","","<div class='trialBorder'><div class='vertical-center'><img style='vertical-align:center; align:center' src=img/fixation3.jpg></div></div>","null","","","","","","",""
"html-keyboard-response","12","122960","0.0-6.0-2.2","5ede9b80b8a141131edabbe1","bdp_sd","Wed Mar 29 2023 19:56:27 GMT-0700 (Pacific Daylight Time)","199728","","2251","","","","","offer","","<div class='trialBorder'><div class='vertical-center'><img style='vertical-align:center; align:center' src=img/fixation3.jpg></div><div class='cl'><div class='vertical-center'>$34<br>for<br>yourself</div></div><div class='cr'><div class='vertical-center'>$50<br>for<br>Rou A</div></div><div class='respDivL'><div class='vertical-center'>(E)</div></div><div class='respDivR'><div class='vertical-center'>(I)</div></div></div>","I","$34<br>for<br>yourself","$50<br>for<br>4","0","34","50","4","OTHER"
"html-keyboard-response","13","123216","0.0-6.0-3.2","5ede9b80b8a141131edabbe1","bdp_sd","Wed Mar 29 2023 19:56:27 GMT-0700 (Pacific Daylight Time)","199728","","null","","","","","offerFB","","<div class='trialBorder'><div class='vertical-center'><img style='vertical-align:center; align:center' src=img/fixation3.jpg></div><div class='cl'><div class='vertical-center'>$34<br>for<br>yourself</div></div><div class='cr'><div class='vertical-center'><font style='color:orange'>$50<br>for<br>Rou A</font></div></div><div class='respDivL'><div class='vertical-center'>(E)</div></div><div class='respDivR'><div class='vertical-center'><font style='color:orange'>(I)</font></div></div></div>","null","$34<br>for<br>yourself","$50<br>for<br>4","0","34","50","4",""
"html-keyboard-response","14","123720","0.0-6.0-1.3","5ede9b80b8a141131edabbe1","bdp_sd","Wed Mar 29 2023 19:56:27 GMT-0700 (Pacific Daylight Time)","199728","","null","","","","","FIX","","<div class='trialBorder'><div class='vertical-center'><img style='vertical-align:center; align:center' src=img/fixation3.jpg></div></div>","null","","","","","","",""
"html-keyboard-response","15","125859","0.0-6.0-2.3","5ede9b80b8a141131edabbe1","bdp_sd","Wed Mar 29 2023 19:56:27 GMT-0700 (Pacific Daylight Time)","199728","","2134","","","","","offer","","<div class='trialBorder'><div class='vertical-center'><img style='vertical-align:center; align:center' src=img/fixation3.jpg></div><div class='cl'><div class='vertical-center'>$75<br>for<br>Sar A</div></div><div class='cr'><div class='vertical-center'>$67<br>for<br>yourself</div></div><div class='respDivL'><div class='vertical-center'>(E)</div></div><div class='respDivR'><div class='vertical-center'>(I)</div></div></div>","I","$67<br>for<br>yourself","$75<br>for<br>5","1","67","75","5","SELF"
"html-keyboard-response","16","126115","0.0-6.0-3.3","5ede9b80b8a141131edabbe1","bdp_sd","Wed Mar 29 2023 19:56:27 GMT-0700 (Pacific Daylight Time)","199728","","null","","","","","offerFB","","<div class='trialBorder'><div class='vertical-center'><img style='vertical-align:center; align:center' src=img/fixation3.jpg></div><div class='cl'><div class='vertical-center'>$75<br>for<br>Sar A</div></div><div class='cr'><div class='vertical-center'><font style='color:orange'>$67<br>for<br>yourself</font></div></div><div class='respDivL'><div class='vertical-center'>(E)</div></div><div class='respDivR'><div class='vertical-center'><font style='color:orange'>(I)</font></div></div></div>","null","$67<br>for<br>yourself","$75<br>for<br>5","1","67","75","5",""
"html-keyboard-response","17","126618","0.0-6.0-1.4","5ede9b80b8a141131edabbe1","bdp_sd","Wed Mar 29 2023 19:56:27 GMT-0700 (Pacific Daylight Time)","199728","","null","","","","","FIX","","<div class='trialBorder'><div class='vertical-center'><img style='vertical-align:center; align:center' src=img/fixation3.jpg></div></div>","null","","","","","","",""
"html-keyboard-response","18","130302","0.0-6.0-2.4","5ede9b80b8a141131edabbe1","bdp_sd","Wed Mar 29 2023 19:56:27 GMT-0700 (Pacific Daylight Time)","199728","","3680","","","","","offer","","<div class='trialBorder'><div class='vertical-center'><img style='vertical-align:center; align:center' src=img/fixation3.jpg></div><div class='cl'><div class='vertical-center'>$14<br>for<br>yourself</div></div><div class='cr'><div class='vertical-center'>$25<br>for<br>Kai K</div></div><div class='respDivL'><div class='vertical-center'>(E)</div></div><div class='respDivR'><div class='vertical-center'>(I)</div></div></div>","I","$14<br>for<br>yourself","$25<br>for<br>3","0","14","25","3","OTHER"
"html-keyboard-response","19","130564","0.0-6.0-3.4","5ede9b80b8a141131edabbe1","bdp_sd","Wed Mar 29 2023 19:56:27 GMT-0700 (Pacific Daylight Time)","199728","","null","","","","","offerFB","","<div class='trialBorder'><div class='vertical-center'><img style='vertical-align:center; align:center' src=img/fixation3.jpg></div><div class='cl'><div class='vertical-center'>$14<br>for<br>yourself</div></div><div class='cr'><div class='vertical-center'><font style='color:orange'>$25<br>for<br>Kai K</font></div></div><div class='respDivL'><div class='vertical-center'>(E)</div></div><div class='respDivR'><div class='vertical-center'><font style='color:orange'>(I)</font></div></div></div>","null","$14<br>for<br>yourself","$25<br>for<br>3","0","14","25","3",""
"html-keyboard-response","20","131068","0.0-6.0-1.5","5ede9b80b8a141131edabbe1","bdp_sd","Wed Mar 29 2023 19:56:27 GMT-0700 (Pacific Daylight Time)","199728","","null","","","","","FIX","","<div class='trialBorder'><div class='vertical-center'><img style='vertical-align:center; align:center' src=img/fixation3.jpg></div></div>","null","","","","","","",""
"html-keyboard-response","21","133749","0.0-6.0-2.5","5ede9b80b8a141131edabbe1","bdp_sd","Wed Mar 29 2023 19:56:27 GMT-0700 (Pacific Daylight Time)","199728","","2676","","","","","offer","","<div class='trialBorder'><div class='vertical-center'><img style='vertical-align:center; align:center' src=img/fixation3.jpg></div><div class='cl'><div class='vertical-center'>$55<br>for<br>Rou A</div></div><div class='cr'><div class='vertical-center'>$40<br>for<br>yourself</div></div><div class='respDivL'><div class='vertical-center'>(E)</div></div><div class='respDivR'><div class='vertical-center'>(I)</div></div></div>","I","$40<br>for<br>yourself","$55<br>for<br>4","1","40","55","4","SELF"
"html-keyboard-response","22","134005","0.0-6.0-3.5","5ede9b80b8a141131edabbe1","bdp_sd","Wed Mar 29 2023 19:56:27 GMT-0700 (Pacific Daylight Time)","199728","","null","","","","","offerFB","","<div class='trialBorder'><div class='vertical-center'><img style='vertical-align:center; align:center' src=img/fixation3.jpg></div><div class='cl'><div class='vertical-center'>$55<br>for<br>Rou A</div></div><div class='cr'><div class='vertical-center'><font style='color:orange'>$40<br>for<br>yourself</font></div></div><div class='respDivL'><div class='vertical-center'>(E)</div></div><div class='respDivR'><div class='vertical-center'><font style='color:orange'>(I)</font></div></div></div>","null","$40<br>for<br>yourself","$55<br>for<br>4","1","40","55","4",""
"html-keyboard-response","23","134508","0.0-6.0-1.6","5ede9b80b8a141131edabbe1","bdp_sd","Wed Mar 29 2023 19:56:27 GMT-0700 (Pacific Daylight Time)","199728","","null","","","","","FIX","","<div class='trialBorder'><div class='vertical-center'><img style='vertical-align:center; align:center' src=img/fixation3.jpg></div></div>","null","","","","","","",""
"html-keyboard-response","24","136251","0.0-6.0-2.6","5ede9b80b8a141131edabbe1","bdp_sd","Wed Mar 29 2023 19:56:27 GMT-0700 (Pacific Daylight Time)","199728","","1740","","","","","offer","","<div class='trialBorder'><div class='vertical-center'><img style='vertical-align:center; align:center' src=img/fixation3.jpg></div><div class='cl'><div class='vertical-center'>$35<br>for<br>Sar A</div></div><div class='cr'><div class='vertical-center'>$34<br>for<br>yourself</div></div><div class='respDivL'><div class='vertical-center'>(E)</div></div><div class='respDivR'><div class='vertical-center'>(I)</div></div></div>","I","$34<br>for<br>yourself","$35<br>for<br>5","1","34","35","5","SELF"
"html-keyboard-response","25","136508","0.0-6.0-3.6","5ede9b80b8a141131edabbe1","bdp_sd","Wed Mar 29 2023 19:56:27 GMT-0700 (Pacific Daylight Time)","199728","","null","","","","","offerFB","","<div class='trialBorder'><div class='vertical-center'><img style='vertical-align:center; align:center' src=img/fixation3.jpg></div><div class='cl'><div class='vertical-center'>$35<br>for<br>Sar A</div></div><div class='cr'><div class='vertical-center'><font style='color:orange'>$34<br>for<br>yourself</font></div></div><div class='respDivL'><div class='vertical-center'>(E)</div></div><div class='respDivR'><div class='vertical-center'><font style='color:orange'>(I)</font></div></div></div>","null","$34<br>for<br>yourself","$35<br>for<br>5","1","34","35","5",""
"html-keyboard-response","26","137011","0.0-6.0-1.7","5ede9b80b8a141131edabbe1","bdp_sd","Wed Mar 29 2023 19:56:27 GMT-0700 (Pacific Daylight Time)","199728","","null","","","","","FIX","","<div class='trialBorder'><div class='vertical-center'><img style='vertical-align:center; align:center' src=img/fixation3.jpg></div></div>","null","","","","","","",""
"html-keyboard-response","27","138697","0.0-6.0-2.7","5ede9b80b8a141131edabbe1","bdp_sd","Wed Mar 29 2023 19:56:27 GMT-0700 (Pacific Daylight Time)","199728","","1682","","","","","offer","","<div class='trialBorder'><div class='vertical-center'><img style='vertical-align:center; align:center' src=img/fixation3.jpg></div><div class='cl'><div class='vertical-center'>$75<br>for<br>Rou A</div></div><div class='cr'><div class='vertical-center'>$55<br>for<br>yourself</div></div><div class='respDivL'><div class='vertical-center'>(E)</div></div><div class='respDivR'><div class='vertical-center'>(I)</div></div></div>","I","$55<br>for<br>yourself","$75<br>for<br>4","1","55","75","4","SELF"
"html-keyboard-response","28","138950","0.0-6.0-3.7","5ede9b80b8a141131edabbe1","bdp_sd","Wed Mar 29 2023 19:56:27 GMT-0700 (Pacific Daylight Time)","199728","","null","","","","","offerFB","","<div class='trialBorder'><div class='vertical-center'><img style='vertical-align:center; align:center' src=img/fixation3.jpg></div><div class='cl'><div class='vertical-center'>$75<br>for<br>Rou A</div></div><div class='cr'><div class='vertical-center'><font style='color:orange'>$55<br>for<br>yourself</font></div></div><div class='respDivL'><div class='vertical-center'>(E)</div></div><div class='respDivR'><div class='vertical-center'><font style='color:orange'>(I)</font></div></div></div>","null","$55<br>for<br>yourself","$75<br>for<br>4","1","55","75","4",""
"html-keyboard-response","29","139456","0.0-6.0-1.8","5ede9b80b8a141131edabbe1","bdp_sd","Wed Mar 29 2023 19:56:27 GMT-0700 (Pacific Daylight Time)","199728","","null","","","","","FIX","","<div class='trialBorder'><div class='vertical-center'><img style='vertical-align:center; align:center' src=img/fixation3.jpg></div></div>","null","","","","","","",""
"html-keyboard-response","30","143847","0.0-6.0-2.8","5ede9b80b8a141131edabbe1","bdp_sd","Wed Mar 29 2023 19:56:27 GMT-0700 (Pacific Daylight Time)","199728","","4386","","","","","offer","","<div class='trialBorder'><div class='vertical-center'><img style='vertical-align:center; align:center' src=img/fixation3.jpg></div><div class='cl'><div class='vertical-center'>$33<br>for<br>yourself</div></div><div class='cr'><div class='vertical-center'>$80<br>for<br>Sal A</div></div><div class='respDivL'><div class='vertical-center'>(E)</div></div><div class='respDivR'><div class='vertical-center'>(I)</div></div></div>","I","$33<br>for<br>yourself","$80<br>for<br>2","0","33","80","2","OTHER"
"html-keyboard-response","31","144106","0.0-6.0-3.8","5ede9b80b8a141131edabbe1","bdp_sd","Wed Mar 29 2023 19:56:27 GMT-0700 (Pacific Daylight Time)","199728","","null","","","","","offerFB","","<div class='trialBorder'><div class='vertical-center'><img style='vertical-align:center; align:center' src=img/fixation3.jpg></div><div class='cl'><div class='vertical-center'>$33<br>for<br>yourself</div></div><div class='cr'><div class='vertical-center'><font style='color:orange'>$80<br>for<br>Sal A</font></div></div><div class='respDivL'><div class='vertical-center'>(E)</div></div><div class='respDivR'><div class='vertical-center'><font style='color:orange'>(I)</font></div></div></div>","null","$33<br>for<br>yourself","$80<br>for<br>2","0","33","80","2",""
"html-keyboard-response","32","144610","0.0-6.0-1.9","5ede9b80b8a141131edabbe1","bdp_sd","Wed Mar 29 2023 19:56:27 GMT-0700 (Pacific Daylight Time)","199728","","null","","","","","FIX","","<div class='trialBorder'><div class='vertical-center'><img style='vertical-align:center; align:center' src=img/fixation3.jpg></div></div>","null","","","","","","",""
"html-keyboard-response","33","148035","0.0-6.0-2.9","5ede9b80b8a141131edabbe1","bdp_sd","Wed Mar 29 2023 19:56:27 GMT-0700 (Pacific Daylight Time)","199728","","3422","","","","","offer","","<div class='trialBorder'><div class='vertical-center'><img style='vertical-align:center; align:center' src=img/fixation3.jpg></div><div class='cl'><div class='vertical-center'>$41<br>for<br>yourself</div></div><div class='cr'><div class='vertical-center'>$75<br>for<br>Kai K</div></div><div class='respDivL'><div class='vertical-center'>(E)</div></div><div class='respDivR'><div class='vertical-center'>(I)</div></div></div>","I","$41<br>for<br>yourself","$75<br>for<br>3","0","41","75","3","OTHER"
"html-keyboard-response","34","148293","0.0-6.0-3.9","5ede9b80b8a141131edabbe1","bdp_sd","Wed Mar 29 2023 19:56:27 GMT-0700 (Pacific Daylight Time)","199728","","null","","","","","offerFB","","<div class='trialBorder'><div class='vertical-center'><img style='vertical-align:center; align:center' src=img/fixation3.jpg></div><div class='cl'><div class='vertical-center'>$41<br>for<br>yourself</div></div><div class='cr'><div class='vertical-center'><font style='color:orange'>$75<br>for<br>Kai K</font></div></div><div class='respDivL'><div class='vertical-center'>(E)</div></div><div class='respDivR'><div class='vertical-center'><font style='color:orange'>(I)</font></div></div></div>","null","$41<br>for<br>yourself","$75<br>for<br>3","0","41","75","3",""
"html-keyboard-response","35","148797","0.0-6.0-1.10","5ede9b80b8a141131edabbe1","bdp_sd","Wed Mar 29 2023 19:56:27 GMT-0700 (Pacific Daylight Time)","199728","","null","","","","","FIX","","<div class='trialBorder'><div class='vertical-center'><img style='vertical-align:center; align:center' src=img/fixation3.jpg></div></div>","null","","","","","","",""
"html-keyboard-response","36","153166","0.0-6.0-2.10","5ede9b80b8a141131edabbe1","bdp_sd","Wed Mar 29 2023 19:56:27 GMT-0700 (Pacific Daylight Time)","199728","","4365","","","","","offer","","<div class='trialBorder'><div class='vertical-center'><img style='vertical-align:center; align:center' src=img/fixation3.jpg></div><div class='cl'><div class='vertical-center'>$30<br>for<br>Sar A</div></div><div class='cr'><div class='vertical-center'>$28<br>for<br>yourself</div></div><div class='respDivL'><div class='vertical-center'>(E)</div></div><div class='respDivR'><div class='vertical-center'>(I)</div></div></div>","I","$28<br>for<br>yourself","$30<br>for<br>5","1","28","30","5","SELF"
"html-keyboard-response","37","153421","0.0-6.0-3.10","5ede9b80b8a141131edabbe1","bdp_sd","Wed Mar 29 2023 19:56:27 GMT-0700 (Pacific Daylight Time)","199728","","null","","","","","offerFB","","<div class='trialBorder'><div class='vertical-center'><img style='vertical-align:center; align:center' src=img/fixation3.jpg></div><div class='cl'><div class='vertical-center'>$30<br>for<br>Sar A</div></div><div class='cr'><div class='vertical-center'><font style='color:orange'>$28<br>for<br>yourself</font></div></div><div class='respDivL'><div class='vertical-center'>(E)</div></div><div class='respDivR'><div class='vertical-center'><font style='color:orange'>(I)</font></div></div></div>","null","$28<br>for<br>yourself","$30<br>for<br>5","1","28","30","5",""
"html-keyboard-response","38","153926","0.0-6.0-1.11","5ede9b80b8a141131edabbe1","bdp_sd","Wed Mar 29 2023 19:56:27 GMT-0700 (Pacific Daylight Time)","199728","","null","","","","","FIX","","<div class='trialBorder'><div class='vertical-center'><img style='vertical-align:center; align:center' src=img/fixation3.jpg></div></div>","null","","","","","","",""
"html-keyboard-response","39","155514","0.0-6.0-2.11","5ede9b80b8a141131edabbe1","bdp_sd","Wed Mar 29 2023 19:56:27 GMT-0700 (Pacific Daylight Time)","199728","","1585","","","","","offer","","<div class='trialBorder'><div class='vertical-center'><img style='vertical-align:center; align:center' src=img/fixation3.jpg></div><div class='cl'><div class='vertical-center'>$69<br>for<br>yourself</div></div><div class='cr'><div class='vertical-center'>$85<br>for<br>Rou A</div></div><div class='respDivL'><div class='vertical-center'>(E)</div></div><div class='respDivR'><div class='vertical-center'>(I)</div></div></div>","E","$69<br>for<br>yourself","$85<br>for<br>4","0","69","85","4","SELF"
"html-keyboard-response","40","155770","0.0-6.0-3.11","5ede9b80b8a141131edabbe1","bdp_sd","Wed Mar 29 2023 19:56:27 GMT-0700 (Pacific Daylight Time)","199728","","null","","","","","offerFB","","<div class='trialBorder'><div class='vertical-center'><img style='vertical-align:center; align:center' src=img/fixation3.jpg></div><div class='cl'><div class='vertical-center'><font style='color:orange'>$69<br>for<br>yourself</font></div></div><div class='cr'><div class='vertical-center'>$85<br>for<br>Rou A</div></div><div class='respDivL'><div class='vertical-center'><font style='color:orange'>(E)</font></div></div><div class='respDivR'><div class='vertical-center'>(I)</div></div></div>","null","$69<br>for<br>yourself","$85<br>for<br>4","0","69","85","4",""
"html-keyboard-response","41","156275","0.0-6.0-1.12","5ede9b80b8a141131edabbe1","bdp_sd","Wed Mar 29 2023 19:56:27 GMT-0700 (Pacific Daylight Time)","199728","","null","","","","","FIX","","<div class='trialBorder'><div class='vertical-center'><img style='vertical-align:center; align:center' src=img/fixation3.jpg></div></div>","null","","","","","","",""
"html-keyboard-response","42","159616","0.0-6.0-2.12","5ede9b80b8a141131edabbe1","bdp_sd","Wed Mar 29 2023 19:56:27 GMT-0700 (Pacific Daylight Time)","199728","","3338","","","","","offer","","<div class='trialBorder'><div class='vertical-center'><img style='vertical-align:center; align:center' src=img/fixation3.jpg></div><div class='cl'><div class='vertical-center'>$50<br>for<br>Kai K</div></div><div class='cr'><div class='vertical-center'>$27<br>for<br>yourself</div></div><div class='respDivL'><div class='vertical-center'>(E)</div></div><div class='respDivR'><div class='vertical-center'>(I)</div></div></div>","E","$27<br>for<br>yourself","$50<br>for<br>3","1","27","50","3","OTHER"
"html-keyboard-response","43","159872","0.0-6.0-3.12","5ede9b80b8a141131edabbe1","bdp_sd","Wed Mar 29 2023 19:56:27 GMT-0700 (Pacific Daylight Time)","199728","","null","","","","","offerFB","","<div class='trialBorder'><div class='vertical-center'><img style='vertical-align:center; align:center' src=img/fixation3.jpg></div><div class='cl'><div class='vertical-center'><font style='color:orange'>$50<br>for<br>Kai K</font></div></div><div class='cr'><div class='vertical-center'>$27<br>for<br>yourself</div></div><div class='respDivL'><div class='vertical-center'><font style='color:orange'>(E)</font></div></div><div class='respDivR'><div class='vertical-center'>(I)</div></div></div>","null","$27<br>for<br>yourself","$50<br>for<br>3","1","27","50","3",""
"html-keyboard-response","44","160376","0.0-6.0-1.13","5ede9b80b8a141131edabbe1","bdp_sd","Wed Mar 29 2023 19:56:27 GMT-0700 (Pacific Daylight Time)","199728","","null","","","","","FIX","","<div class='trialBorder'><div class='vertical-center'><img style='vertical-align:center; align:center' src=img/fixation3.jpg></div></div>","null","","","","","","",""
"html-keyboard-response","45","164567","0.0-6.0-2.13","5ede9b80b8a141131edabbe1","bdp_sd","Wed Mar 29 2023 19:56:27 GMT-0700 (Pacific Daylight Time)","199728","","4187","","","","","offer","","<div class='trialBorder'><div class='vertical-center'><img style='vertical-align:center; align:center' src=img/fixation3.jpg></div><div class='cl'><div class='vertical-center'>$22<br>for<br>yourself</div></div><div class='cr'><div class='vertical-center'>$25<br>for<br>Sar A</div></div><div class='respDivL'><div class='vertical-center'>(E)</div></div><div class='respDivR'><div class='vertical-center'>(I)</div></div></div>","E","$22<br>for<br>yourself","$25<br>for<br>5","0","22","25","5","SELF"
"html-keyboard-response","46","164824","0.0-6.0-3.13","5ede9b80b8a141131edabbe1","bdp_sd","Wed Mar 29 2023 19:56:27 GMT-0700 (Pacific Daylight Time)","199728","","null","","","","","offerFB","","<div class='trialBorder'><div class='vertical-center'><img style='vertical-align:center; align:center' src=img/fixation3.jpg></div><div class='cl'><div class='vertical-center'><font style='color:orange'>$22<br>for<br>yourself</font></div></div><div class='cr'><div class='vertical-center'>$25<br>for<br>Sar A</div></div><div class='respDivL'><div class='vertical-center'><font style='color:orange'>(E)</font></div></div><div class='respDivR'><div class='vertical-center'>(I)</div></div></div>","null","$22<br>for<br>yourself","$25<br>for<br>5","0","22","25","5",""
"html-keyboard-response","47","165327","0.0-6.0-1.14","5ede9b80b8a141131edabbe1","bdp_sd","Wed Mar 29 2023 19:56:27 GMT-0700 (Pacific Daylight Time)","199728","","null","","","","","FIX","","<div class='trialBorder'><div class='vertical-center'><img style='vertical-align:center; align:center' src=img/fixation3.jpg></div></div>","null","","","","","","",""
"html-keyboard-response","48","167243","0.0-6.0-2.14","5ede9b80b8a141131edabbe1","bdp_sd","Wed Mar 29 2023 19:56:27 GMT-0700 (Pacific Daylight Time)","199728","","1912","","","","","offer","","<div class='trialBorder'><div class='vertical-center'><img style='vertical-align:center; align:center' src=img/fixation3.jpg></div><div class='cl'><div class='vertical-center'>$60<br>for<br>Kai K</div></div><div class='cr'><div class='vertical-center'>$25<br>for<br>yourself</div></div><div class='respDivL'><div class='vertical-center'>(E)</div></div><div class='respDivR'><div class='vertical-center'>(I)</div></div></div>","E","$25<br>for<br>yourself","$60<br>for<br>3","1","25","60","3","OTHER"
"html-keyboard-response","49","167498","0.0-6.0-3.14","5ede9b80b8a141131edabbe1","bdp_sd","Wed Mar 29 2023 19:56:27 GMT-0700 (Pacific Daylight Time)","199728","","null","","","","","offerFB","","<div class='trialBorder'><div class='vertical-center'><img style='vertical-align:center; align:center' src=img/fixation3.jpg></div><div class='cl'><div class='vertical-center'><font style='color:orange'>$60<br>for<br>Kai K</font></div></div><div class='cr'><div class='vertical-center'>$25<br>for<br>yourself</div></div><div class='respDivL'><div class='vertical-center'><font style='color:orange'>(E)</font></div></div><div class='respDivR'><div class='vertical-center'>(I)</div></div></div>","null","$25<br>for<br>yourself","$60<br>for<br>3","1","25","60","3",""
"html-keyboard-response","50","168001","0.0-6.0-1.15","5ede9b80b8a141131edabbe1","bdp_sd","Wed Mar 29 2023 19:56:27 GMT-0700 (Pacific Daylight Time)","199728","","null","","","","","FIX","","<div class='trialBorder'><div class='vertical-center'><img style='vertical-align:center; align:center' src=img/fixation3.jpg></div></div>","null","","","","","","",""
"html-keyboard-response","51","169747","0.0-6.0-2.15","5ede9b80b8a141131edabbe1","bdp_sd","Wed Mar 29 2023 19:56:27 GMT-0700 (Pacific Daylight Time)","199728","","1740","","","","","offer","","<div class='trialBorder'><div class='vertical-center'><img style='vertical-align:center; align:center' src=img/fixation3.jpg></div><div class='cl'><div class='vertical-center'>$25<br>for<br>yourself</div></div><div class='cr'><div class='vertical-center'>$30<br>for<br>Rou A</div></div><div class='respDivL'><div class='vertical-center'>(E)</div></div><div class='respDivR'><div class='vertical-center'>(I)</div></div></div>","E","$25<br>for<br>yourself","$30<br>for<br>4","0","25","30","4","SELF"
"html-keyboard-response","52","170003","0.0-6.0-3.15","5ede9b80b8a141131edabbe1","bdp_sd","Wed Mar 29 2023 19:56:27 GMT-0700 (Pacific Daylight Time)","199728","","null","","","","","offerFB","","<div class='trialBorder'><div class='vertical-center'><img style='vertical-align:center; align:center' src=img/fixation3.jpg></div><div class='cl'><div class='vertical-center'><font style='color:orange'>$25<br>for<br>yourself</font></div></div><div class='cr'><div class='vertical-center'>$30<br>for<br>Rou A</div></div><div class='respDivL'><div class='vertical-center'><font style='color:orange'>(E)</font></div></div><div class='respDivR'><div class='vertical-center'>(I)</div></div></div>","null","$25<br>for<br>yourself","$30<br>for<br>4","0","25","30","4",""
"html-keyboard-response","53","170508","0.0-6.0-1.16","5ede9b80b8a141131edabbe1","bdp_sd","Wed Mar 29 2023 19:56:27 GMT-0700 (Pacific Daylight Time)","199728","","null","","","","","FIX","","<div class='trialBorder'><div class='vertical-center'><img style='vertical-align:center; align:center' src=img/fixation3.jpg></div></div>","null","","","","","","",""
"html-keyboard-response","54","172351","0.0-6.0-2.16","5ede9b80b8a141131edabbe1","bdp_sd","Wed Mar 29 2023 19:56:27 GMT-0700 (Pacific Daylight Time)","199728","","1839","","","","","offer","","<div class='trialBorder'><div class='vertical-center'><img style='vertical-align:center; align:center' src=img/fixation3.jpg></div><div class='cl'><div class='vertical-center'>$11<br>for<br>yourself</div></div><div class='cr'><div class='vertical-center'>$30<br>for<br>Sal A</div></div><div class='respDivL'><div class='vertical-center'>(E)</div></div><div class='respDivR'><div class='vertical-center'>(I)</div></div></div>","I","$11<br>for<br>yourself","$30<br>for<br>2","0","11","30","2","OTHER"
"html-keyboard-response","55","172606","0.0-6.0-3.16","5ede9b80b8a141131edabbe1","bdp_sd","Wed Mar 29 2023 19:56:27 GMT-0700 (Pacific Daylight Time)","199728","","null","","","","","offerFB","","<div class='trialBorder'><div class='vertical-center'><img style='vertical-align:center; align:center' src=img/fixation3.jpg></div><div class='cl'><div class='vertical-center'>$11<br>for<br>yourself</div></div><div class='cr'><div class='vertical-center'><font style='color:orange'>$30<br>for<br>Sal A</font></div></div><div class='respDivL'><div class='vertical-center'>(E)</div></div><div class='respDivR'><div class='vertical-center'><font style='color:orange'>(I)</font></div></div></div>","null","$11<br>for<br>yourself","$30<br>for<br>2","0","11","30","2",""
"html-keyboard-response","56","173113","0.0-6.0-1.17","5ede9b80b8a141131edabbe1","bdp_sd","Wed Mar 29 2023 19:56:27 GMT-0700 (Pacific Daylight Time)","199728","","null","","","","","FIX","","<div class='trialBorder'><div class='vertical-center'><img style='vertical-align:center; align:center' src=img/fixation3.jpg></div></div>","null","","","","","","",""
"html-keyboard-response","57","174751","0.0-6.0-2.17","5ede9b80b8a141131edabbe1","bdp_sd","Wed Mar 29 2023 19:56:27 GMT-0700 (Pacific Daylight Time)","199728","","1634","","","","","offer","","<div class='trialBorder'><div class='vertical-center'><img style='vertical-align:center; align:center' src=img/fixation3.jpg></div><div class='cl'><div class='vertical-center'>$80<br>for<br>Kai K</div></div><div class='cr'><div class='vertical-center'>$54<br>for<br>yourself</div></div><div class='respDivL'><div class='vertical-center'>(E)</div></div><div class='respDivR'><div class='vertical-center'>(I)</div></div></div>","E","$54<br>for<br>yourself","$80<br>for<br>3","1","54","80","3","OTHER"
"html-keyboard-response","58","175006","0.0-6.0-3.17","5ede9b80b8a141131edabbe1","bdp_sd","Wed Mar 29 2023 19:56:27 GMT-0700 (Pacific Daylight Time)","199728","","null","","","","","offerFB","","<div class='trialBorder'><div class='vertical-center'><img style='vertical-align:center; align:center' src=img/fixation3.jpg></div><div class='cl'><div class='vertical-center'><font style='color:orange'>$80<br>for<br>Kai K</font></div></div><div class='cr'><div class='vertical-center'>$54<br>for<br>yourself</div></div><div class='respDivL'><div class='vertical-center'><font style='color:orange'>(E)</font></div></div><div class='respDivR'><div class='vertical-center'>(I)</div></div></div>","null","$54<br>for<br>yourself","$80<br>for<br>3","1","54","80","3",""
"html-keyboard-response","59","175509","0.0-6.0-1.18","5ede9b80b8a141131edabbe1","bdp_sd","Wed Mar 29 2023 19:56:27 GMT-0700 (Pacific Daylight Time)","199728","","null","","","","","FIX","","<div class='trialBorder'><div class='vertical-center'><img style='vertical-align:center; align:center' src=img/fixation3.jpg></div></div>","null","","","","","","",""
"html-keyboard-response","60","177539","0.0-6.0-2.18","5ede9b80b8a141131edabbe1","bdp_sd","Wed Mar 29 2023 19:56:27 GMT-0700 (Pacific Daylight Time)","199728","","2025","","","","","offer","","<div class='trialBorder'><div class='vertical-center'><img style='vertical-align:center; align:center' src=img/fixation3.jpg></div><div class='cl'><div class='vertical-center'>$85<br>for<br>Ree A</div></div><div class='cr'><div class='vertical-center'>$31<br>for<br>yourself</div></div><div class='respDivL'><div class='vertical-center'>(E)</div></div><div class='respDivR'><div class='vertical-center'>(I)</div></div></div>","E","$31<br>for<br>yourself","$85<br>for<br>1","1","31","85","1","OTHER"
"html-keyboard-response","61","177794","0.0-6.0-3.18","5ede9b80b8a141131edabbe1","bdp_sd","Wed Mar 29 2023 19:56:27 GMT-0700 (Pacific Daylight Time)","199728","","null","","","","","offerFB","","<div class='trialBorder'><div class='vertical-center'><img style='vertical-align:center; align:center' src=img/fixation3.jpg></div><div class='cl'><div class='vertical-center'><font style='color:orange'>$85<br>for<br>Ree A</font></div></div><div class='cr'><div class='vertical-center'>$31<br>for<br>yourself</div></div><div class='respDivL'><div class='vertical-center'><font style='color:orange'>(E)</font></div></div><div class='respDivR'><div class='vertical-center'>(I)</div></div></div>","null","$31<br>for<br>yourself","$85<br>for<br>1","1","31","85","1",""
"html-keyboard-response","62","178298","0.0-6.0-1.19","5ede9b80b8a141131edabbe1","bdp_sd","Wed Mar 29 2023 19:56:27 GMT-0700 (Pacific Daylight Time)","199728","","null","","","","","FIX","","<div class='trialBorder'><div class='vertical-center'><img style='vertical-align:center; align:center' src=img/fixation3.jpg></div></div>","null","","","","","","",""
"html-keyboard-response","63","180718","0.0-6.0-2.19","5ede9b80b8a141131edabbe1","bdp_sd","Wed Mar 29 2023 19:56:27 GMT-0700 (Pacific Daylight Time)","199728","","2416","","","","","offer","","<div class='trialBorder'><div class='vertical-center'><img style='vertical-align:center; align:center' src=img/fixation3.jpg></div><div class='cl'><div class='vertical-center'>$15<br>for<br>yourself</div></div><div class='cr'><div class='vertical-center'>$35<br>for<br>Sal A</div></div><div class='respDivL'><div class='vertical-center'>(E)</div></div><div class='respDivR'><div class='vertical-center'>(I)</div></div></div>","I","$15<br>for<br>yourself","$35<br>for<br>2","0","15","35","2","OTHER"
"html-keyboard-response","64","180974","0.0-6.0-3.19","5ede9b80b8a141131edabbe1","bdp_sd","Wed Mar 29 2023 19:56:27 GMT-0700 (Pacific Daylight Time)","199728","","null","","","","","offerFB","","<div class='trialBorder'><div class='vertical-center'><img style='vertical-align:center; align:center' src=img/fixation3.jpg></div><div class='cl'><div class='vertical-center'>$15<br>for<br>yourself</div></div><div class='cr'><div class='vertical-center'><font style='color:orange'>$35<br>for<br>Sal A</font></div></div><div class='respDivL'><div class='vertical-center'>(E)</div></div><div class='respDivR'><div class='vertical-center'><font style='color:orange'>(I)</font></div></div></div>","null","$15<br>for<br>yourself","$35<br>for<br>2","0","15","35","2",""
"html-keyboard-response","65","181479","0.0-6.0-1.20","5ede9b80b8a141131edabbe1","bdp_sd","Wed Mar 29 2023 19:56:27 GMT-0700 (Pacific Daylight Time)","199728","","null","","","","","FIX","","<div class='trialBorder'><div class='vertical-center'><img style='vertical-align:center; align:center' src=img/fixation3.jpg></div></div>","null","","","","","","",""
"html-keyboard-response","66","182907","0.0-6.0-2.20","5ede9b80b8a141131edabbe1","bdp_sd","Wed Mar 29 2023 19:56:27 GMT-0700 (Pacific Daylight Time)","199728","","1425","","","","","offer","","<div class='trialBorder'><div class='vertical-center'><img style='vertical-align:center; align:center' src=img/fixation3.jpg></div><div class='cl'><div class='vertical-center'>$54<br>for<br>yourself</div></div><div class='cr'><div class='vertical-center'>$55<br>for<br>Sar A</div></div><div class='respDivL'><div class='vertical-center'>(E)</div></div><div class='respDivR'><div class='vertical-center'>(I)</div></div></div>","E","$54<br>for<br>yourself","$55<br>for<br>5","0","54","55","5","SELF"
"html-keyboard-response","67","183163","0.0-6.0-3.20","5ede9b80b8a141131edabbe1","bdp_sd","Wed Mar 29 2023 19:56:27 GMT-0700 (Pacific Daylight Time)","199728","","null","","","","","offerFB","","<div class='trialBorder'><div class='vertical-center'><img style='vertical-align:center; align:center' src=img/fixation3.jpg></div><div class='cl'><div class='vertical-center'><font style='color:orange'>$54<br>for<br>yourself</font></div></div><div class='cr'><div class='vertical-center'>$55<br>for<br>Sar A</div></div><div class='respDivL'><div class='vertical-center'><font style='color:orange'>(E)</font></div></div><div class='respDivR'><div class='vertical-center'>(I)</div></div></div>","null","$54<br>for<br>yourself","$55<br>for<br>5","0","54","55","5",""
"html-keyboard-response","68","183666","0.0-6.0-1.21","5ede9b80b8a141131edabbe1","bdp_sd","Wed Mar 29 2023 19:56:27 GMT-0700 (Pacific Daylight Time)","199728","","null","","","","","FIX","","<div class='trialBorder'><div class='vertical-center'><img style='vertical-align:center; align:center' src=img/fixation3.jpg></div></div>","null","","","","","","",""
"html-keyboard-response","69","185482","0.0-6.0-2.21","5ede9b80b8a141131edabbe1","bdp_sd","Wed Mar 29 2023 19:56:27 GMT-0700 (Pacific Daylight Time)","199728","","1812","","","","","offer","","<div class='trialBorder'><div class='vertical-center'><img style='vertical-align:center; align:center' src=img/fixation3.jpg></div><div class='cl'><div class='vertical-center'>$25<br>for<br>Rou A</div></div><div class='cr'><div class='vertical-center'>$19<br>for<br>yourself</div></div><div class='respDivL'><div class='vertical-center'>(E)</div></div><div class='respDivR'><div class='vertical-center'>(I)</div></div></div>","I","$19<br>for<br>yourself","$25<br>for<br>4","1","19","25","4","SELF"
"html-keyboard-response","70","185738","0.0-6.0-3.21","5ede9b80b8a141131edabbe1","bdp_sd","Wed Mar 29 2023 19:56:27 GMT-0700 (Pacific Daylight Time)","199728","","null","","","","","offerFB","","<div class='trialBorder'><div class='vertical-center'><img style='vertical-align:center; align:center' src=img/fixation3.jpg></div><div class='cl'><div class='vertical-center'>$25<br>for<br>Rou A</div></div><div class='cr'><div class='vertical-center'><font style='color:orange'>$19<br>for<br>yourself</font></div></div><div class='respDivL'><div class='vertical-center'>(E)</div></div><div class='respDivR'><div class='vertical-center'><font style='color:orange'>(I)</font></div></div></div>","null","$19<br>for<br>yourself","$25<br>for<br>4","1","19","25","4",""
"html-keyboard-response","71","186242","0.0-6.0-1.22","5ede9b80b8a141131edabbe1","bdp_sd","Wed Mar 29 2023 19:56:27 GMT-0700 (Pacific Daylight Time)","199728","","null","","","","","FIX","","<div class='trialBorder'><div class='vertical-center'><img style='vertical-align:center; align:center' src=img/fixation3.jpg></div></div>","null","","","","","","",""
"html-keyboard-response","72","188416","0.0-6.0-2.22","5ede9b80b8a141131edabbe1","bdp_sd","Wed Mar 29 2023 19:56:27 GMT-0700 (Pacific Daylight Time)","199728","","2169","","","","","offer","","<div class='trialBorder'><div class='vertical-center'><img style='vertical-align:center; align:center' src=img/fixation3.jpg></div><div class='cl'><div class='vertical-center'>$20<br>for<br>yourself</div></div><div class='cr'><div class='vertical-center'>$55<br>for<br>Ree A</div></div><div class='respDivL'><div class='vertical-center'>(E)</div></div><div class='respDivR'><div class='vertical-center'>(I)</div></div></div>","I","$20<br>for<br>yourself","$55<br>for<br>1","0","20","55","1","OTHER"
"html-keyboard-response","73","188672","0.0-6.0-3.22","5ede9b80b8a141131edabbe1","bdp_sd","Wed Mar 29 2023 19:56:27 GMT-0700 (Pacific Daylight Time)","199728","","null","","","","","offerFB","","<div class='trialBorder'><div class='vertical-center'><img style='vertical-align:center; align:center' src=img/fixation3.jpg></div><div class='cl'><div class='vertical-center'>$20<br>for<br>yourself</div></div><div class='cr'><div class='vertical-center'><font style='color:orange'>$55<br>for<br>Ree A</font></div></div><div class='respDivL'><div class='vertical-center'>(E)</div></div><div class='respDivR'><div class='vertical-center'><font style='color:orange'>(I)</font></div></div></div>","null","$20<br>for<br>yourself","$55<br>for<br>1","0","20","55","1",""
"html-keyboard-response","74","189176","0.0-6.0-1.23","5ede9b80b8a141131edabbe1","bdp_sd","Wed Mar 29 2023 19:56:27 GMT-0700 (Pacific Daylight Time)","199728","","null","","","","","FIX","","<div class='trialBorder'><div class='vertical-center'><img style='vertical-align:center; align:center' src=img/fixation3.jpg></div></div>","null","","","","","","",""
"html-keyboard-response","75","191345","0.0-6.0-2.23","5ede9b80b8a141131edabbe1","bdp_sd","Wed Mar 29 2023 19:56:27 GMT-0700 (Pacific Daylight Time)","199728","","2165","","","","","offer","","<div class='trialBorder'><div class='vertical-center'><img style='vertical-align:center; align:center' src=img/fixation3.jpg></div><div class='cl'><div class='vertical-center'>$50<br>for<br>Sar A</div></div><div class='cr'><div class='vertical-center'>$47<br>for<br>yourself</div></div><div class='respDivL'><div class='vertical-center'>(E)</div></div><div class='respDivR'><div class='vertical-center'>(I)</div></div></div>","I","$47<br>for<br>yourself","$50<br>for<br>5","1","47","50","5","SELF"
"html-keyboard-response","76","191600","0.0-6.0-3.23","5ede9b80b8a141131edabbe1","bdp_sd","Wed Mar 29 2023 19:56:27 GMT-0700 (Pacific Daylight Time)","199728","","null","","","","","offerFB","","<div class='trialBorder'><div class='vertical-center'><img style='vertical-align:center; align:center' src=img/fixation3.jpg></div><div class='cl'><div class='vertical-center'>$50<br>for<br>Sar A</div></div><div class='cr'><div class='vertical-center'><font style='color:orange'>$47<br>for<br>yourself</font></div></div><div class='respDivL'><div class='vertical-center'>(E)</div></div><div class='respDivR'><div class='vertical-center'><font style='color:orange'>(I)</font></div></div></div>","null","$47<br>for<br>yourself","$50<br>for<br>5","1","47","50","5",""
"html-keyboard-response","77","192105","0.0-6.0-1.24","5ede9b80b8a141131edabbe1","bdp_sd","Wed Mar 29 2023 19:56:27 GMT-0700 (Pacific Daylight Time)","199728","","null","","","","","FIX","","<div class='trialBorder'><div class='vertical-center'><img style='vertical-align:center; align:center' src=img/fixation3.jpg></div></div>","null","","","","","","",""
"html-keyboard-response","78","194046","0.0-6.0-2.24","5ede9b80b8a141131edabbe1","bdp_sd","Wed Mar 29 2023 19:56:27 GMT-0700 (Pacific Daylight Time)","199728","","1936","","","","","offer","","<div class='trialBorder'><div class='vertical-center'><img style='vertical-align:center; align:center' src=img/fixation3.jpg></div><div class='cl'><div class='vertical-center'>$35<br>for<br>Kai K</div></div><div class='cr'><div class='vertical-center'>$24<br>for<br>yourself</div></div><div class='respDivL'><div class='vertical-center'>(E)</div></div><div class='respDivR'><div class='vertical-center'>(I)</div></div></div>","I","$24<br>for<br>yourself","$35<br>for<br>3","1","24","35","3","SELF"
"html-keyboard-response","79","194301","0.0-6.0-3.24","5ede9b80b8a141131edabbe1","bdp_sd","Wed Mar 29 2023 19:56:27 GMT-0700 (Pacific Daylight Time)","199728","","null","","","","","offerFB","","<div class='trialBorder'><div class='vertical-center'><img style='vertical-align:center; align:center' src=img/fixation3.jpg></div><div class='cl'><div class='vertical-center'>$35<br>for<br>Kai K</div></div><div class='cr'><div class='vertical-center'><font style='color:orange'>$24<br>for<br>yourself</font></div></div><div class='respDivL'><div class='vertical-center'>(E)</div></div><div class='respDivR'><div class='vertical-center'><font style='color:orange'>(I)</font></div></div></div>","null","$24<br>for<br>yourself","$35<br>for<br>3","1","24","35","3",""
"html-keyboard-response","80","194806","0.0-6.0-1.25","5ede9b80b8a141131edabbe1","bdp_sd","Wed Mar 29 2023 19:56:27 GMT-0700 (Pacific Daylight Time)","199728","","null","","","","","FIX","","<div class='trialBorder'><div class='vertical-center'><img style='vertical-align:center; align:center' src=img/fixation3.jpg></div></div>","null","","","","","","",""
"html-keyboard-response","81","196358","0.0-6.0-2.25","5ede9b80b8a141131edabbe1","bdp_sd","Wed Mar 29 2023 19:56:27 GMT-0700 (Pacific Daylight Time)","199728","","1548","","","","","offer","","<div class='trialBorder'><div class='vertical-center'><img style='vertical-align:center; align:center' src=img/fixation3.jpg></div><div class='cl'><div class='vertical-center'>$60<br>for<br>Rou A</div></div><div class='cr'><div class='vertical-center'>$49<br>for<br>yourself</div></div><div class='respDivL'><div class='vertical-center'>(E)</div></div><div class='respDivR'><div class='vertical-center'>(I)</div></div></div>","I","$49<br>for<br>yourself","$60<br>for<br>4","1","49","60","4","SELF"
"html-keyboard-response","82","196613","0.0-6.0-3.25","5ede9b80b8a141131edabbe1","bdp_sd","Wed Mar 29 2023 19:56:27 GMT-0700 (Pacific Daylight Time)","199728","","null","","","","","offerFB","","<div class='trialBorder'><div class='vertical-center'><img style='vertical-align:center; align:center' src=img/fixation3.jpg></div><div class='cl'><div class='vertical-center'>$60<br>for<br>Rou A</div></div><div class='cr'><div class='vertical-center'><font style='color:orange'>$49<br>for<br>yourself</font></div></div><div class='respDivL'><div class='vertical-center'>(E)</div></div><div class='respDivR'><div class='vertical-center'><font style='color:orange'>(I)</font></div></div></div>","null","$49<br>for<br>yourself","$60<br>for<br>4","1","49","60","4",""
"html-keyboard-response","83","197117","0.0-6.0-1.26","5ede9b80b8a141131edabbe1","bdp_sd","Wed Mar 29 2023 19:56:27 GMT-0700 (Pacific Daylight Time)","199728","","null","","","","","FIX","","<div class='trialBorder'><div class='vertical-center'><img style='vertical-align:center; align:center' src=img/fixation3.jpg></div></div>","null","","","","","","",""
"html-keyboard-response","84","198460","0.0-6.0-2.26","5ede9b80b8a141131edabbe1","bdp_sd","Wed Mar 29 2023 19:56:27 GMT-0700 (Pacific Daylight Time)","199728","","1339","","","","","offer","","<div class='trialBorder'><div class='vertical-center'><img style='vertical-align:center; align:center' src=img/fixation3.jpg></div><div class='cl'><div class='vertical-center'>$80<br>for<br>yourself</div></div><div class='cr'><div class='vertical-center'>$85<br>for<br>Sar A</div></div><div class='respDivL'><div class='vertical-center'>(E)</div></div><div class='respDivR'><div class='vertical-center'>(I)</div></div></div>","E","$80<br>for<br>yourself","$85<br>for<br>5","0","80","85","5","SELF"
"html-keyboard-response","85","198717","0.0-6.0-3.26","5ede9b80b8a141131edabbe1","bdp_sd","Wed Mar 29 2023 19:56:27 GMT-0700 (Pacific Daylight Time)","199728","","null","","","","","offerFB","","<div class='trialBorder'><div class='vertical-center'><img style='vertical-align:center; align:center' src=img/fixation3.jpg></div><div class='cl'><div class='vertical-center'><font style='color:orange'>$80<br>for<br>yourself</font></div></div><div class='cr'><div class='vertical-center'>$85<br>for<br>Sar A</div></div><div class='respDivL'><div class='vertical-center'><font style='color:orange'>(E)</font></div></div><div class='respDivR'><div class='vertical-center'>(I)</div></div></div>","null","$80<br>for<br>yourself","$85<br>for<br>5","0","80","85","5",""
"","","","","5ede9b80b8a141131edabbe1","bdp_sd","Wed Mar 29 2023 19:56:27 GMT-0700 (Pacific Daylight Time)","199728","","","","fullscreenexit","86","198812","fullscreenexit","","","","","","","","","",""
"fullscreen","86","199725","0.0-7.0","5ede9b80b8a141131edabbe1","bdp_sd","Wed Mar 29 2023 19:56:27 GMT-0700 (Pacific Daylight Time)","199728","","","","","","","","true","","","","","","","","",""
"html-keyboard-response","87","200231","0.0-8.0","","","","","","null","","","","","","","","null","","","","","","",""
