"event","trial","time","trialtype","subject_id","task","startTime","totalTime","trial_type","trial_index","time_elapsed","internal_node_id","view_history","rt","responses","success","stimulus","key_press","selfOffer","otherOffer","otherLeft","selfAmt","otherAmt","otherDist","chosen"
"focus","0","0","focusevent","63f78c9346da47f7f8f3aef9","bdp_sd","Sun Apr 09 2023 16:56:03 GMT-0600 (Mountain Daylight Time)","174748","","","","","","","","","","","","","","","","",""
"","","","","63f78c9346da47f7f8f3aef9","bdp_sd","Sun Apr 09 2023 16:56:03 GMT-0600 (Mountain Daylight Time)","174748","pavlovia","0","8","0.0-0.0","","","","","","","","","","","","",""
"","","","","63f78c9346da47f7f8f3aef9","bdp_sd","Sun Apr 09 2023 16:56:03 GMT-0600 (Mountain Daylight Time)","174748","instructions","1","688","0.0-1.0","[{""page_index"":0,""viewing_time"":680}]","680","","","","","","","","","","",""
"","","","","63f78c9346da47f7f8f3aef9","bdp_sd","Sun Apr 09 2023 16:56:03 GMT-0600 (Mountain Daylight Time)","174748","survey-text","2","60676","0.0-2.0","","59985","{""Q0"":""ari d"",""Q1"":""pepper l"",""Q2"":""nadiya m"",""Q3"":""kai t"",""Q4"":""ree b""}","","","","","","","","","",""
"fullscreenexit","3","63654","fullscreenexit","63f78c9346da47f7f8f3aef9","bdp_sd","Sun Apr 09 2023 16:56:03 GMT-0600 (Mountain Daylight Time)","174748","","","","","","","","","","","","","","","","",""
"","","","","63f78c9346da47f7f8f3aef9","bdp_sd","Sun Apr 09 2023 16:56:03 GMT-0600 (Mountain Daylight Time)","174748","fullscreen","3","64453","0.0-3.0","","","","true","","","","","","","","",""
"","","","fullscreenfail","63f78c9346da47f7f8f3aef9","bdp_sd","Sun Apr 09 2023 16:56:03 GMT-0600 (Mountain Daylight Time)","174748","image-keyboard-response","4","65808","0.0-4.0-0.0","","1348","","","","32","","","","","","",""
"","","","","63f78c9346da47f7f8f3aef9","bdp_sd","Sun Apr 09 2023 16:56:03 GMT-0600 (Mountain Daylight Time)","174748","instructions","5","119698","0.0-5.0","[{""page_index"":0,""viewing_time"":31314},{""page_index"":1,""viewing_time"":8839},{""page_index"":2,""viewing_time"":13480}]","53634","","","","","","","","","","",""
"","","","FIX","63f78c9346da47f7f8f3aef9","bdp_sd","Sun Apr 09 2023 16:56:03 GMT-0600 (Mountain Daylight Time)","174748","html-keyboard-response","6","120206","0.0-6.0-1.0","","null","","","<div class='trialBorder'><div class='vertical-center'><img style='vertical-align:center; align:center' src=img/fixation3.jpg></div></div>","null","","","","","","",""
"","","","offer","63f78c9346da47f7f8f3aef9","bdp_sd","Sun Apr 09 2023 16:56:03 GMT-0600 (Mountain Daylight Time)","174748","html-keyboard-response","7","122433","0.0-6.0-2.0","","2220","","","<div class='trialBorder'><div class='vertical-center'><img style='vertical-align:center; align:center' src=img/fixation3.jpg></div><div class='cl'><div class='vertical-center'>$80<br>for<br>pepper l</div></div><div class='cr'><div class='vertical-center'>$33<br>for<br>yourself</div></div><div class='respDivL'><div class='vertical-center'>(E)</div></div><div class='respDivR'><div class='vertical-center'>(I)</div></div></div>","E","$33<br>for<br>yourself","$80<br>for<br>2","1","33","80","2","OTHER"
"","","","offerFB","63f78c9346da47f7f8f3aef9","bdp_sd","Sun Apr 09 2023 16:56:03 GMT-0600 (Mountain Daylight Time)","174748","html-keyboard-response","8","122695","0.0-6.0-3.0","","null","","","<div class='trialBorder'><div class='vertical-center'><img style='vertical-align:center; align:center' src=img/fixation3.jpg></div><div class='cl'><div class='vertical-center'><font style='color:orange'>$80<br>for<br>pepper l</font></div></div><div class='cr'><div class='vertical-center'>$33<br>for<br>yourself</div></div><div class='respDivL'><div class='vertical-center'><font style='color:orange'>(E)</font></div></div><div class='respDivR'><div class='vertical-center'>(I)</div></div></div>","null","$33<br>for<br>yourself","$80<br>for<br>2","1","33","80","2",""
"","","","FIX","63f78c9346da47f7f8f3aef9","bdp_sd","Sun Apr 09 2023 16:56:03 GMT-0600 (Mountain Daylight Time)","174748","html-keyboard-response","9","123205","0.0-6.0-1.1","","null","","","<div class='trialBorder'><div class='vertical-center'><img style='vertical-align:center; align:center' src=img/fixation3.jpg></div></div>","null","","","","","","",""
"","","","offer","63f78c9346da47f7f8f3aef9","bdp_sd","Sun Apr 09 2023 16:56:03 GMT-0600 (Mountain Daylight Time)","174748","html-keyboard-response","10","126337","0.0-6.0-2.1","","3127","","","<div class='trialBorder'><div class='vertical-center'><img style='vertical-align:center; align:center' src=img/fixation3.jpg></div><div class='cl'><div class='vertical-center'>$85<br>for<br>kai t</div></div><div class='cr'><div class='vertical-center'>$69<br>for<br>yourself</div></div><div class='respDivL'><div class='vertical-center'>(E)</div></div><div class='respDivR'><div class='vertical-center'>(I)</div></div></div>","E","$69<br>for<br>yourself","$85<br>for<br>4","1","69","85","4","OTHER"
"","","","offerFB","63f78c9346da47f7f8f3aef9","bdp_sd","Sun Apr 09 2023 16:56:03 GMT-0600 (Mountain Daylight Time)","174748","html-keyboard-response","11","126605","0.0-6.0-3.1","","null","","","<div class='trialBorder'><div class='vertical-center'><img style='vertical-align:center; align:center' src=img/fixation3.jpg></div><div class='cl'><div class='vertical-center'><font style='color:orange'>$85<br>for<br>kai t</font></div></div><div class='cr'><div class='vertical-center'>$69<br>for<br>yourself</div></div><div class='respDivL'><div class='vertical-center'><font style='color:orange'>(E)</font></div></div><div class='respDivR'><div class='vertical-center'>(I)</div></div></div>","null","$69<br>for<br>yourself","$85<br>for<br>4","1","69","85","4",""
"","","","FIX","63f78c9346da47f7f8f3aef9","bdp_sd","Sun Apr 09 2023 16:56:03 GMT-0600 (Mountain Daylight Time)","174748","html-keyboard-response","12","127114","0.0-6.0-1.2","","null","","","<div class='trialBorder'><div class='vertical-center'><img style='vertical-align:center; align:center' src=img/fixation3.jpg></div></div>","null","","","","","","",""
"","","","offer","63f78c9346da47f7f8f3aef9","bdp_sd","Sun Apr 09 2023 16:56:03 GMT-0600 (Mountain Daylight Time)","174748","html-keyboard-response","13","128545","0.0-6.0-2.2","","1428","","","<div class='trialBorder'><div class='vertical-center'><img style='vertical-align:center; align:center' src=img/fixation3.jpg></div><div class='cl'><div class='vertical-center'>$80<br>for<br>nadiya m</div></div><div class='cr'><div class='vertical-center'>$54<br>for<br>yourself</div></div><div class='respDivL'><div class='vertical-center'>(E)</div></div><div class='respDivR'><div class='vertical-center'>(I)</div></div></div>","E","$54<br>for<br>yourself","$80<br>for<br>3","1","54","80","3","OTHER"
"","","","offerFB","63f78c9346da47f7f8f3aef9","bdp_sd","Sun Apr 09 2023 16:56:03 GMT-0600 (Mountain Daylight Time)","174748","html-keyboard-response","14","128800","0.0-6.0-3.2","","null","","","<div class='trialBorder'><div class='vertical-center'><img style='vertical-align:center; align:center' src=img/fixation3.jpg></div><div class='cl'><div class='vertical-center'><font style='color:orange'>$80<br>for<br>nadiya m</font></div></div><div class='cr'><div class='vertical-center'>$54<br>for<br>yourself</div></div><div class='respDivL'><div class='vertical-center'><font style='color:orange'>(E)</font></div></div><div class='respDivR'><div class='vertical-center'>(I)</div></div></div>","null","$54<br>for<br>yourself","$80<br>for<br>3","1","54","80","3",""
"","","","FIX","63f78c9346da47f7f8f3aef9","bdp_sd","Sun Apr 09 2023 16:56:03 GMT-0600 (Mountain Daylight Time)","174748","html-keyboard-response","15","129312","0.0-6.0-1.3","","null","","","<div class='trialBorder'><div class='vertical-center'><img style='vertical-align:center; align:center' src=img/fixation3.jpg></div></div>","null","","","","","","",""
"","","","offer","63f78c9346da47f7f8f3aef9","bdp_sd","Sun Apr 09 2023 16:56:03 GMT-0600 (Mountain Daylight Time)","174748","html-keyboard-response","16","130928","0.0-6.0-2.3","","1614","","","<div class='trialBorder'><div class='vertical-center'><img style='vertical-align:center; align:center' src=img/fixation3.jpg></div><div class='cl'><div class='vertical-center'>$54<br>for<br>yourself</div></div><div class='cr'><div class='vertical-center'>$55<br>for<br>ree b</div></div><div class='respDivL'><div class='vertical-center'>(E)</div></div><div class='respDivR'><div class='vertical-center'>(I)</div></div></div>","E","$54<br>for<br>yourself","$55<br>for<br>5","0","54","55","5","SELF"
"","","","offerFB","63f78c9346da47f7f8f3aef9","bdp_sd","Sun Apr 09 2023 16:56:03 GMT-0600 (Mountain Daylight Time)","174748","html-keyboard-response","17","131188","0.0-6.0-3.3","","null","","","<div class='trialBorder'><div class='vertical-center'><img style='vertical-align:center; align:center' src=img/fixation3.jpg></div><div class='cl'><div class='vertical-center'><font style='color:orange'>$54<br>for<br>yourself</font></div></div><div class='cr'><div class='vertical-center'>$55<br>for<br>ree b</div></div><div class='respDivL'><div class='vertical-center'><font style='color:orange'>(E)</font></div></div><div class='respDivR'><div class='vertical-center'>(I)</div></div></div>","null","$54<br>for<br>yourself","$55<br>for<br>5","0","54","55","5",""
"","","","FIX","63f78c9346da47f7f8f3aef9","bdp_sd","Sun Apr 09 2023 16:56:03 GMT-0600 (Mountain Daylight Time)","174748","html-keyboard-response","18","131698","0.0-6.0-1.4","","null","","","<div class='trialBorder'><div class='vertical-center'><img style='vertical-align:center; align:center' src=img/fixation3.jpg></div></div>","null","","","","","","",""
"","","","offer","63f78c9346da47f7f8f3aef9","bdp_sd","Sun Apr 09 2023 16:56:03 GMT-0600 (Mountain Daylight Time)","174748","html-keyboard-response","19","132833","0.0-6.0-2.4","","1132","","","<div class='trialBorder'><div class='vertical-center'><img style='vertical-align:center; align:center' src=img/fixation3.jpg></div><div class='cl'><div class='vertical-center'>$54<br>for<br>yourself</div></div><div class='cr'><div class='vertical-center'>$60<br>for<br>ree b</div></div><div class='respDivL'><div class='vertical-center'>(E)</div></div><div class='respDivR'><div class='vertical-center'>(I)</div></div></div>","E","$54<br>for<br>yourself","$60<br>for<br>5","0","54","60","5","SELF"
"","","","offerFB","63f78c9346da47f7f8f3aef9","bdp_sd","Sun Apr 09 2023 16:56:03 GMT-0600 (Mountain Daylight Time)","174748","html-keyboard-response","20","133092","0.0-6.0-3.4","","null","","","<div class='trialBorder'><div class='vertical-center'><img style='vertical-align:center; align:center' src=img/fixation3.jpg></div><div class='cl'><div class='vertical-center'><font style='color:orange'>$54<br>for<br>yourself</font></div></div><div class='cr'><div class='vertical-center'>$60<br>for<br>ree b</div></div><div class='respDivL'><div class='vertical-center'><font style='color:orange'>(E)</font></div></div><div class='respDivR'><div class='vertical-center'>(I)</div></div></div>","null","$54<br>for<br>yourself","$60<br>for<br>5","0","54","60","5",""
"","","","FIX","63f78c9346da47f7f8f3aef9","bdp_sd","Sun Apr 09 2023 16:56:03 GMT-0600 (Mountain Daylight Time)","174748","html-keyboard-response","21","133600","0.0-6.0-1.5","","null","","","<div class='trialBorder'><div class='vertical-center'><img style='vertical-align:center; align:center' src=img/fixation3.jpg></div></div>","null","","","","","","",""
"","","","offer","63f78c9346da47f7f8f3aef9","bdp_sd","Sun Apr 09 2023 16:56:03 GMT-0600 (Mountain Daylight Time)","174748","html-keyboard-response","22","135345","0.0-6.0-2.5","","1742","","","<div class='trialBorder'><div class='vertical-center'><img style='vertical-align:center; align:center' src=img/fixation3.jpg></div><div class='cl'><div class='vertical-center'>$50<br>for<br>kai t</div></div><div class='cr'><div class='vertical-center'>$34<br>for<br>yourself</div></div><div class='respDivL'><div class='vertical-center'>(E)</div></div><div class='respDivR'><div class='vertical-center'>(I)</div></div></div>","E","$34<br>for<br>yourself","$50<br>for<br>4","1","34","50","4","OTHER"
"","","","offerFB","63f78c9346da47f7f8f3aef9","bdp_sd","Sun Apr 09 2023 16:56:03 GMT-0600 (Mountain Daylight Time)","174748","html-keyboard-response","23","135599","0.0-6.0-3.5","","null","","","<div class='trialBorder'><div class='vertical-center'><img style='vertical-align:center; align:center' src=img/fixation3.jpg></div><div class='cl'><div class='vertical-center'><font style='color:orange'>$50<br>for<br>kai t</font></div></div><div class='cr'><div class='vertical-center'>$34<br>for<br>yourself</div></div><div class='respDivL'><div class='vertical-center'><font style='color:orange'>(E)</font></div></div><div class='respDivR'><div class='vertical-center'>(I)</div></div></div>","null","$34<br>for<br>yourself","$50<br>for<br>4","1","34","50","4",""
"","","","FIX","63f78c9346da47f7f8f3aef9","bdp_sd","Sun Apr 09 2023 16:56:03 GMT-0600 (Mountain Daylight Time)","174748","html-keyboard-response","24","136111","0.0-6.0-1.6","","null","","","<div class='trialBorder'><div class='vertical-center'><img style='vertical-align:center; align:center' src=img/fixation3.jpg></div></div>","null","","","","","","",""
"","","","offer","63f78c9346da47f7f8f3aef9","bdp_sd","Sun Apr 09 2023 16:56:03 GMT-0600 (Mountain Daylight Time)","174748","html-keyboard-response","25","137288","0.0-6.0-2.6","","1176","","","<div class='trialBorder'><div class='vertical-center'><img style='vertical-align:center; align:center' src=img/fixation3.jpg></div><div class='cl'><div class='vertical-center'>$50<br>for<br>nadiya m</div></div><div class='cr'><div class='vertical-center'>$27<br>for<br>yourself</div></div><div class='respDivL'><div class='vertical-center'>(E)</div></div><div class='respDivR'><div class='vertical-center'>(I)</div></div></div>","E","$27<br>for<br>yourself","$50<br>for<br>3","1","27","50","3","OTHER"
"","","","offerFB","63f78c9346da47f7f8f3aef9","bdp_sd","Sun Apr 09 2023 16:56:03 GMT-0600 (Mountain Daylight Time)","174748","html-keyboard-response","26","137553","0.0-6.0-3.6","","null","","","<div class='trialBorder'><div class='vertical-center'><img style='vertical-align:center; align:center' src=img/fixation3.jpg></div><div class='cl'><div class='vertical-center'><font style='color:orange'>$50<br>for<br>nadiya m</font></div></div><div class='cr'><div class='vertical-center'>$27<br>for<br>yourself</div></div><div class='respDivL'><div class='vertical-center'><font style='color:orange'>(E)</font></div></div><div class='respDivR'><div class='vertical-center'>(I)</div></div></div>","null","$27<br>for<br>yourself","$50<br>for<br>3","1","27","50","3",""
"","","","FIX","63f78c9346da47f7f8f3aef9","bdp_sd","Sun Apr 09 2023 16:56:03 GMT-0600 (Mountain Daylight Time)","174748","html-keyboard-response","27","138064","0.0-6.0-1.7","","null","","","<div class='trialBorder'><div class='vertical-center'><img style='vertical-align:center; align:center' src=img/fixation3.jpg></div></div>","null","","","","","","",""
"","","","offer","63f78c9346da47f7f8f3aef9","bdp_sd","Sun Apr 09 2023 16:56:03 GMT-0600 (Mountain Daylight Time)","174748","html-keyboard-response","28","138984","0.0-6.0-2.7","","918","","","<div class='trialBorder'><div class='vertical-center'><img style='vertical-align:center; align:center' src=img/fixation3.jpg></div><div class='cl'><div class='vertical-center'>$15<br>for<br>yourself</div></div><div class='cr'><div class='vertical-center'>$35<br>for<br>pepper l</div></div><div class='respDivL'><div class='vertical-center'>(E)</div></div><div class='respDivR'><div class='vertical-center'>(I)</div></div></div>","I","$15<br>for<br>yourself","$35<br>for<br>2","0","15","35","2","OTHER"
"","","","offerFB","63f78c9346da47f7f8f3aef9","bdp_sd","Sun Apr 09 2023 16:56:03 GMT-0600 (Mountain Daylight Time)","174748","html-keyboard-response","29","139243","0.0-6.0-3.7","","null","","","<div class='trialBorder'><div class='vertical-center'><img style='vertical-align:center; align:center' src=img/fixation3.jpg></div><div class='cl'><div class='vertical-center'>$15<br>for<br>yourself</div></div><div class='cr'><div class='vertical-center'><font style='color:orange'>$35<br>for<br>pepper l</font></div></div><div class='respDivL'><div class='vertical-center'>(E)</div></div><div class='respDivR'><div class='vertical-center'><font style='color:orange'>(I)</font></div></div></div>","null","$15<br>for<br>yourself","$35<br>for<br>2","0","15","35","2",""
"","","","FIX","63f78c9346da47f7f8f3aef9","bdp_sd","Sun Apr 09 2023 16:56:03 GMT-0600 (Mountain Daylight Time)","174748","html-keyboard-response","30","139754","0.0-6.0-1.8","","null","","","<div class='trialBorder'><div class='vertical-center'><img style='vertical-align:center; align:center' src=img/fixation3.jpg></div></div>","null","","","","","","",""
"","","","offer","63f78c9346da47f7f8f3aef9","bdp_sd","Sun Apr 09 2023 16:56:03 GMT-0600 (Mountain Daylight Time)","174748","html-keyboard-response","31","140960","0.0-6.0-2.8","","1204","","","<div class='trialBorder'><div class='vertical-center'><img style='vertical-align:center; align:center' src=img/fixation3.jpg></div><div class='cl'><div class='vertical-center'>$28<br>for<br>yourself</div></div><div class='cr'><div class='vertical-center'>$30<br>for<br>ree b</div></div><div class='respDivL'><div class='vertical-center'>(E)</div></div><div class='respDivR'><div class='vertical-center'>(I)</div></div></div>","E","$28<br>for<br>yourself","$30<br>for<br>5","0","28","30","5","SELF"
"","","","offerFB","63f78c9346da47f7f8f3aef9","bdp_sd","Sun Apr 09 2023 16:56:03 GMT-0600 (Mountain Daylight Time)","174748","html-keyboard-response","32","141221","0.0-6.0-3.8","","null","","","<div class='trialBorder'><div class='vertical-center'><img style='vertical-align:center; align:center' src=img/fixation3.jpg></div><div class='cl'><div class='vertical-center'><font style='color:orange'>$28<br>for<br>yourself</font></div></div><div class='cr'><div class='vertical-center'>$30<br>for<br>ree b</div></div><div class='respDivL'><div class='vertical-center'><font style='color:orange'>(E)</font></div></div><div class='respDivR'><div class='vertical-center'>(I)</div></div></div>","null","$28<br>for<br>yourself","$30<br>for<br>5","0","28","30","5",""
"","","","FIX","63f78c9346da47f7f8f3aef9","bdp_sd","Sun Apr 09 2023 16:56:03 GMT-0600 (Mountain Daylight Time)","174748","html-keyboard-response","33","141734","0.0-6.0-1.9","","null","","","<div class='trialBorder'><div class='vertical-center'><img style='vertical-align:center; align:center' src=img/fixation3.jpg></div></div>","null","","","","","","",""
"","","","offer","63f78c9346da47f7f8f3aef9","bdp_sd","Sun Apr 09 2023 16:56:03 GMT-0600 (Mountain Daylight Time)","174748","html-keyboard-response","34","143112","0.0-6.0-2.9","","1376","","","<div class='trialBorder'><div class='vertical-center'><img style='vertical-align:center; align:center' src=img/fixation3.jpg></div><div class='cl'><div class='vertical-center'>$80<br>for<br>ree b</div></div><div class='cr'><div class='vertical-center'>$78<br>for<br>yourself</div></div><div class='respDivL'><div class='vertical-center'>(E)</div></div><div class='respDivR'><div class='vertical-center'>(I)</div></div></div>","I","$78<br>for<br>yourself","$80<br>for<br>5","1","78","80","5","SELF"
"","","","offerFB","63f78c9346da47f7f8f3aef9","bdp_sd","Sun Apr 09 2023 16:56:03 GMT-0600 (Mountain Daylight Time)","174748","html-keyboard-response","35","143365","0.0-6.0-3.9","","null","","","<div class='trialBorder'><div class='vertical-center'><img style='vertical-align:center; align:center' src=img/fixation3.jpg></div><div class='cl'><div class='vertical-center'>$80<br>for<br>ree b</div></div><div class='cr'><div class='vertical-center'><font style='color:orange'>$78<br>for<br>yourself</font></div></div><div class='respDivL'><div class='vertical-center'>(E)</div></div><div class='respDivR'><div class='vertical-center'><font style='color:orange'>(I)</font></div></div></div>","null","$78<br>for<br>yourself","$80<br>for<br>5","1","78","80","5",""
"","","","FIX","63f78c9346da47f7f8f3aef9","bdp_sd","Sun Apr 09 2023 16:56:03 GMT-0600 (Mountain Daylight Time)","174748","html-keyboard-response","36","143877","0.0-6.0-1.10","","null","","","<div class='trialBorder'><div class='vertical-center'><img style='vertical-align:center; align:center' src=img/fixation3.jpg></div></div>","null","","","","","","",""
"","","","offer","63f78c9346da47f7f8f3aef9","bdp_sd","Sun Apr 09 2023 16:56:03 GMT-0600 (Mountain Daylight Time)","174748","html-keyboard-response","37","145065","0.0-6.0-2.10","","1187","","","<div class='trialBorder'><div class='vertical-center'><img style='vertical-align:center; align:center' src=img/fixation3.jpg></div><div class='cl'><div class='vertical-center'>$25<br>for<br>nadiya m</div></div><div class='cr'><div class='vertical-center'>$14<br>for<br>yourself</div></div><div class='respDivL'><div class='vertical-center'>(E)</div></div><div class='respDivR'><div class='vertical-center'>(I)</div></div></div>","E","$14<br>for<br>yourself","$25<br>for<br>3","1","14","25","3","OTHER"
"","","","offerFB","63f78c9346da47f7f8f3aef9","bdp_sd","Sun Apr 09 2023 16:56:03 GMT-0600 (Mountain Daylight Time)","174748","html-keyboard-response","38","145333","0.0-6.0-3.10","","null","","","<div class='trialBorder'><div class='vertical-center'><img style='vertical-align:center; align:center' src=img/fixation3.jpg></div><div class='cl'><div class='vertical-center'><font style='color:orange'>$25<br>for<br>nadiya m</font></div></div><div class='cr'><div class='vertical-center'>$14<br>for<br>yourself</div></div><div class='respDivL'><div class='vertical-center'><font style='color:orange'>(E)</font></div></div><div class='respDivR'><div class='vertical-center'>(I)</div></div></div>","null","$14<br>for<br>yourself","$25<br>for<br>3","1","14","25","3",""
"","","","FIX","63f78c9346da47f7f8f3aef9","bdp_sd","Sun Apr 09 2023 16:56:03 GMT-0600 (Mountain Daylight Time)","174748","html-keyboard-response","39","145845","0.0-6.0-1.11","","null","","","<div class='trialBorder'><div class='vertical-center'><img style='vertical-align:center; align:center' src=img/fixation3.jpg></div></div>","null","","","","","","",""
"","","","offer","63f78c9346da47f7f8f3aef9","bdp_sd","Sun Apr 09 2023 16:56:03 GMT-0600 (Mountain Daylight Time)","174748","html-keyboard-response","40","147128","0.0-6.0-2.11","","1282","","","<div class='trialBorder'><div class='vertical-center'><img style='vertical-align:center; align:center' src=img/fixation3.jpg></div><div class='cl'><div class='vertical-center'>$67<br>for<br>yourself</div></div><div class='cr'><div class='vertical-center'>$75<br>for<br>ree b</div></div><div class='respDivL'><div class='vertical-center'>(E)</div></div><div class='respDivR'><div class='vertical-center'>(I)</div></div></div>","E","$67<br>for<br>yourself","$75<br>for<br>5","0","67","75","5","SELF"
"","","","offerFB","63f78c9346da47f7f8f3aef9","bdp_sd","Sun Apr 09 2023 16:56:03 GMT-0600 (Mountain Daylight Time)","174748","html-keyboard-response","41","147390","0.0-6.0-3.11","","null","","","<div class='trialBorder'><div class='vertical-center'><img style='vertical-align:center; align:center' src=img/fixation3.jpg></div><div class='cl'><div class='vertical-center'><font style='color:orange'>$67<br>for<br>yourself</font></div></div><div class='cr'><div class='vertical-center'>$75<br>for<br>ree b</div></div><div class='respDivL'><div class='vertical-center'><font style='color:orange'>(E)</font></div></div><div class='respDivR'><div class='vertical-center'>(I)</div></div></div>","null","$67<br>for<br>yourself","$75<br>for<br>5","0","67","75","5",""
"","","","FIX","63f78c9346da47f7f8f3aef9","bdp_sd","Sun Apr 09 2023 16:56:03 GMT-0600 (Mountain Daylight Time)","174748","html-keyboard-response","42","147902","0.0-6.0-1.12","","null","","","<div class='trialBorder'><div class='vertical-center'><img style='vertical-align:center; align:center' src=img/fixation3.jpg></div></div>","null","","","","","","",""
"","","","offer","63f78c9346da47f7f8f3aef9","bdp_sd","Sun Apr 09 2023 16:56:03 GMT-0600 (Mountain Daylight Time)","174748","html-keyboard-response","43","149121","0.0-6.0-2.12","","1216","","","<div class='trialBorder'><div class='vertical-center'><img style='vertical-align:center; align:center' src=img/fixation3.jpg></div><div class='cl'><div class='vertical-center'>$60<br>for<br>nadiya m</div></div><div class='cr'><div class='vertical-center'>$25<br>for<br>yourself</div></div><div class='respDivL'><div class='vertical-center'>(E)</div></div><div class='respDivR'><div class='vertical-center'>(I)</div></div></div>","E","$25<br>for<br>yourself","$60<br>for<br>3","1","25","60","3","OTHER"
"","","","offerFB","63f78c9346da47f7f8f3aef9","bdp_sd","Sun Apr 09 2023 16:56:03 GMT-0600 (Mountain Daylight Time)","174748","html-keyboard-response","44","149384","0.0-6.0-3.12","","null","","","<div class='trialBorder'><div class='vertical-center'><img style='vertical-align:center; align:center' src=img/fixation3.jpg></div><div class='cl'><div class='vertical-center'><font style='color:orange'>$60<br>for<br>nadiya m</font></div></div><div class='cr'><div class='vertical-center'>$25<br>for<br>yourself</div></div><div class='respDivL'><div class='vertical-center'><font style='color:orange'>(E)</font></div></div><div class='respDivR'><div class='vertical-center'>(I)</div></div></div>","null","$25<br>for<br>yourself","$60<br>for<br>3","1","25","60","3",""
"","","","FIX","63f78c9346da47f7f8f3aef9","bdp_sd","Sun Apr 09 2023 16:56:03 GMT-0600 (Mountain Daylight Time)","174748","html-keyboard-response","45","149894","0.0-6.0-1.13","","null","","","<div class='trialBorder'><div class='vertical-center'><img style='vertical-align:center; align:center' src=img/fixation3.jpg></div></div>","null","","","","","","",""
"","","","offer","63f78c9346da47f7f8f3aef9","bdp_sd","Sun Apr 09 2023 16:56:03 GMT-0600 (Mountain Daylight Time)","174748","html-keyboard-response","46","150890","0.0-6.0-2.13","","995","","","<div class='trialBorder'><div class='vertical-center'><img style='vertical-align:center; align:center' src=img/fixation3.jpg></div><div class='cl'><div class='vertical-center'>$11<br>for<br>yourself</div></div><div class='cr'><div class='vertical-center'>$30<br>for<br>pepper l</div></div><div class='respDivL'><div class='vertical-center'>(E)</div></div><div class='respDivR'><div class='vertical-center'>(I)</div></div></div>","I","$11<br>for<br>yourself","$30<br>for<br>2","0","11","30","2","OTHER"
"","","","offerFB","63f78c9346da47f7f8f3aef9","bdp_sd","Sun Apr 09 2023 16:56:03 GMT-0600 (Mountain Daylight Time)","174748","html-keyboard-response","47","151146","0.0-6.0-3.13","","null","","","<div class='trialBorder'><div class='vertical-center'><img style='vertical-align:center; align:center' src=img/fixation3.jpg></div><div class='cl'><div class='vertical-center'>$11<br>for<br>yourself</div></div><div class='cr'><div class='vertical-center'><font style='color:orange'>$30<br>for<br>pepper l</font></div></div><div class='respDivL'><div class='vertical-center'>(E)</div></div><div class='respDivR'><div class='vertical-center'><font style='color:orange'>(I)</font></div></div></div>","null","$11<br>for<br>yourself","$30<br>for<br>2","0","11","30","2",""
"","","","FIX","63f78c9346da47f7f8f3aef9","bdp_sd","Sun Apr 09 2023 16:56:03 GMT-0600 (Mountain Daylight Time)","174748","html-keyboard-response","48","151658","0.0-6.0-1.14","","null","","","<div class='trialBorder'><div class='vertical-center'><img style='vertical-align:center; align:center' src=img/fixation3.jpg></div></div>","null","","","","","","",""
"","","","offer","63f78c9346da47f7f8f3aef9","bdp_sd","Sun Apr 09 2023 16:56:03 GMT-0600 (Mountain Daylight Time)","174748","html-keyboard-response","49","152408","0.0-6.0-2.14","","747","","","<div class='trialBorder'><div class='vertical-center'><img style='vertical-align:center; align:center' src=img/fixation3.jpg></div><div class='cl'><div class='vertical-center'>$55<br>for<br>yourself</div></div><div class='cr'><div class='vertical-center'>$75<br>for<br>kai t</div></div><div class='respDivL'><div class='vertical-center'>(E)</div></div><div class='respDivR'><div class='vertical-center'>(I)</div></div></div>","I","$55<br>for<br>yourself","$75<br>for<br>4","0","55","75","4","OTHER"
"","","","offerFB","63f78c9346da47f7f8f3aef9","bdp_sd","Sun Apr 09 2023 16:56:03 GMT-0600 (Mountain Daylight Time)","174748","html-keyboard-response","50","152660","0.0-6.0-3.14","","null","","","<div class='trialBorder'><div class='vertical-center'><img style='vertical-align:center; align:center' src=img/fixation3.jpg></div><div class='cl'><div class='vertical-center'>$55<br>for<br>yourself</div></div><div class='cr'><div class='vertical-center'><font style='color:orange'>$75<br>for<br>kai t</font></div></div><div class='respDivL'><div class='vertical-center'>(E)</div></div><div class='respDivR'><div class='vertical-center'><font style='color:orange'>(I)</font></div></div></div>","null","$55<br>for<br>yourself","$75<br>for<br>4","0","55","75","4",""
"","","","FIX","63f78c9346da47f7f8f3aef9","bdp_sd","Sun Apr 09 2023 16:56:03 GMT-0600 (Mountain Daylight Time)","174748","html-keyboard-response","51","153173","0.0-6.0-1.15","","null","","","<div class='trialBorder'><div class='vertical-center'><img style='vertical-align:center; align:center' src=img/fixation3.jpg></div></div>","null","","","","","","",""
"","","","offer","63f78c9346da47f7f8f3aef9","bdp_sd","Sun Apr 09 2023 16:56:03 GMT-0600 (Mountain Daylight Time)","174748","html-keyboard-response","52","153984","0.0-6.0-2.15","","811","","","<div class='trialBorder'><div class='vertical-center'><img style='vertical-align:center; align:center' src=img/fixation3.jpg></div><div class='cl'><div class='vertical-center'>$85<br>for<br>ree b</div></div><div class='cr'><div class='vertical-center'>$80<br>for<br>yourself</div></div><div class='respDivL'><div class='vertical-center'>(E)</div></div><div class='respDivR'><div class='vertical-center'>(I)</div></div></div>","E","$80<br>for<br>yourself","$85<br>for<br>5","1","80","85","5","OTHER"
"","","","offerFB","63f78c9346da47f7f8f3aef9","bdp_sd","Sun Apr 09 2023 16:56:03 GMT-0600 (Mountain Daylight Time)","174748","html-keyboard-response","53","154240","0.0-6.0-3.15","","null","","","<div class='trialBorder'><div class='vertical-center'><img style='vertical-align:center; align:center' src=img/fixation3.jpg></div><div class='cl'><div class='vertical-center'><font style='color:orange'>$85<br>for<br>ree b</font></div></div><div class='cr'><div class='vertical-center'>$80<br>for<br>yourself</div></div><div class='respDivL'><div class='vertical-center'><font style='color:orange'>(E)</font></div></div><div class='respDivR'><div class='vertical-center'>(I)</div></div></div>","null","$80<br>for<br>yourself","$85<br>for<br>5","1","80","85","5",""
"","","","FIX","63f78c9346da47f7f8f3aef9","bdp_sd","Sun Apr 09 2023 16:56:03 GMT-0600 (Mountain Daylight Time)","174748","html-keyboard-response","54","154752","0.0-6.0-1.16","","null","","","<div class='trialBorder'><div class='vertical-center'><img style='vertical-align:center; align:center' src=img/fixation3.jpg></div></div>","null","","","","","","",""
"","","","offer","63f78c9346da47f7f8f3aef9","bdp_sd","Sun Apr 09 2023 16:56:03 GMT-0600 (Mountain Daylight Time)","174748","html-keyboard-response","55","156185","0.0-6.0-2.16","","1431","","","<div class='trialBorder'><div class='vertical-center'><img style='vertical-align:center; align:center' src=img/fixation3.jpg></div><div class='cl'><div class='vertical-center'>$34<br>for<br>yourself</div></div><div class='cr'><div class='vertical-center'>$35<br>for<br>ree b</div></div><div class='respDivL'><div class='vertical-center'>(E)</div></div><div class='respDivR'><div class='vertical-center'>(I)</div></div></div>","E","$34<br>for<br>yourself","$35<br>for<br>5","0","34","35","5","SELF"
"","","","offerFB","63f78c9346da47f7f8f3aef9","bdp_sd","Sun Apr 09 2023 16:56:03 GMT-0600 (Mountain Daylight Time)","174748","html-keyboard-response","56","156439","0.0-6.0-3.16","","null","","","<div class='trialBorder'><div class='vertical-center'><img style='vertical-align:center; align:center' src=img/fixation3.jpg></div><div class='cl'><div class='vertical-center'><font style='color:orange'>$34<br>for<br>yourself</font></div></div><div class='cr'><div class='vertical-center'>$35<br>for<br>ree b</div></div><div class='respDivL'><div class='vertical-center'><font style='color:orange'>(E)</font></div></div><div class='respDivR'><div class='vertical-center'>(I)</div></div></div>","null","$34<br>for<br>yourself","$35<br>for<br>5","0","34","35","5",""
"","","","FIX","63f78c9346da47f7f8f3aef9","bdp_sd","Sun Apr 09 2023 16:56:03 GMT-0600 (Mountain Daylight Time)","174748","html-keyboard-response","57","156950","0.0-6.0-1.17","","null","","","<div class='trialBorder'><div class='vertical-center'><img style='vertical-align:center; align:center' src=img/fixation3.jpg></div></div>","null","","","","","","",""
"","","","offer","63f78c9346da47f7f8f3aef9","bdp_sd","Sun Apr 09 2023 16:56:03 GMT-0600 (Mountain Daylight Time)","174748","html-keyboard-response","58","157874","0.0-6.0-2.17","","923","","","<div class='trialBorder'><div class='vertical-center'><img style='vertical-align:center; align:center' src=img/fixation3.jpg></div><div class='cl'><div class='vertical-center'>$24<br>for<br>yourself</div></div><div class='cr'><div class='vertical-center'>$35<br>for<br>nadiya m</div></div><div class='respDivL'><div class='vertical-center'>(E)</div></div><div class='respDivR'><div class='vertical-center'>(I)</div></div></div>","I","$24<br>for<br>yourself","$35<br>for<br>3","0","24","35","3","OTHER"
"","","","offerFB","63f78c9346da47f7f8f3aef9","bdp_sd","Sun Apr 09 2023 16:56:03 GMT-0600 (Mountain Daylight Time)","174748","html-keyboard-response","59","158141","0.0-6.0-3.17","","null","","","<div class='trialBorder'><div class='vertical-center'><img style='vertical-align:center; align:center' src=img/fixation3.jpg></div><div class='cl'><div class='vertical-center'>$24<br>for<br>yourself</div></div><div class='cr'><div class='vertical-center'><font style='color:orange'>$35<br>for<br>nadiya m</font></div></div><div class='respDivL'><div class='vertical-center'>(E)</div></div><div class='respDivR'><div class='vertical-center'><font style='color:orange'>(I)</font></div></div></div>","null","$24<br>for<br>yourself","$35<br>for<br>3","0","24","35","3",""
"","","","FIX","63f78c9346da47f7f8f3aef9","bdp_sd","Sun Apr 09 2023 16:56:03 GMT-0600 (Mountain Daylight Time)","174748","html-keyboard-response","60","158655","0.0-6.0-1.18","","null","","","<div class='trialBorder'><div class='vertical-center'><img style='vertical-align:center; align:center' src=img/fixation3.jpg></div></div>","null","","","","","","",""
"","","","offer","63f78c9346da47f7f8f3aef9","bdp_sd","Sun Apr 09 2023 16:56:03 GMT-0600 (Mountain Daylight Time)","174748","html-keyboard-response","61","159433","0.0-6.0-2.18","","777","","","<div class='trialBorder'><div class='vertical-center'><img style='vertical-align:center; align:center' src=img/fixation3.jpg></div><div class='cl'><div class='vertical-center'>$60<br>for<br>kai t</div></div><div class='cr'><div class='vertical-center'>$49<br>for<br>yourself</div></div><div class='respDivL'><div class='vertical-center'>(E)</div></div><div class='respDivR'><div class='vertical-center'>(I)</div></div></div>","E","$49<br>for<br>yourself","$60<br>for<br>4","1","49","60","4","OTHER"
"","","","offerFB","63f78c9346da47f7f8f3aef9","bdp_sd","Sun Apr 09 2023 16:56:03 GMT-0600 (Mountain Daylight Time)","174748","html-keyboard-response","62","159695","0.0-6.0-3.18","","null","","","<div class='trialBorder'><div class='vertical-center'><img style='vertical-align:center; align:center' src=img/fixation3.jpg></div><div class='cl'><div class='vertical-center'><font style='color:orange'>$60<br>for<br>kai t</font></div></div><div class='cr'><div class='vertical-center'>$49<br>for<br>yourself</div></div><div class='respDivL'><div class='vertical-center'><font style='color:orange'>(E)</font></div></div><div class='respDivR'><div class='vertical-center'>(I)</div></div></div>","null","$49<br>for<br>yourself","$60<br>for<br>4","1","49","60","4",""
"","","","FIX","63f78c9346da47f7f8f3aef9","bdp_sd","Sun Apr 09 2023 16:56:03 GMT-0600 (Mountain Daylight Time)","174748","html-keyboard-response","63","160208","0.0-6.0-1.19","","null","","","<div class='trialBorder'><div class='vertical-center'><img style='vertical-align:center; align:center' src=img/fixation3.jpg></div></div>","null","","","","","","",""
"","","","offer","63f78c9346da47f7f8f3aef9","bdp_sd","Sun Apr 09 2023 16:56:03 GMT-0600 (Mountain Daylight Time)","174748","html-keyboard-response","64","160896","0.0-6.0-2.19","","686","","","<div class='trialBorder'><div class='vertical-center'><img style='vertical-align:center; align:center' src=img/fixation3.jpg></div><div class='cl'><div class='vertical-center'>$41<br>for<br>yourself</div></div><div class='cr'><div class='vertical-center'>$75<br>for<br>nadiya m</div></div><div class='respDivL'><div class='vertical-center'>(E)</div></div><div class='respDivR'><div class='vertical-center'>(I)</div></div></div>","I","$41<br>for<br>yourself","$75<br>for<br>3","0","41","75","3","OTHER"
"","","","offerFB","63f78c9346da47f7f8f3aef9","bdp_sd","Sun Apr 09 2023 16:56:03 GMT-0600 (Mountain Daylight Time)","174748","html-keyboard-response","65","161152","0.0-6.0-3.19","","null","","","<div class='trialBorder'><div class='vertical-center'><img style='vertical-align:center; align:center' src=img/fixation3.jpg></div><div class='cl'><div class='vertical-center'>$41<br>for<br>yourself</div></div><div class='cr'><div class='vertical-center'><font style='color:orange'>$75<br>for<br>nadiya m</font></div></div><div class='respDivL'><div class='vertical-center'>(E)</div></div><div class='respDivR'><div class='vertical-center'><font style='color:orange'>(I)</font></div></div></div>","null","$41<br>for<br>yourself","$75<br>for<br>3","0","41","75","3",""
"","","","FIX","63f78c9346da47f7f8f3aef9","bdp_sd","Sun Apr 09 2023 16:56:03 GMT-0600 (Mountain Daylight Time)","174748","html-keyboard-response","66","161664","0.0-6.0-1.20","","null","","","<div class='trialBorder'><div class='vertical-center'><img style='vertical-align:center; align:center' src=img/fixation3.jpg></div></div>","null","","","","","","",""
"","","","offer","63f78c9346da47f7f8f3aef9","bdp_sd","Sun Apr 09 2023 16:56:03 GMT-0600 (Mountain Daylight Time)","174748","html-keyboard-response","67","162433","0.0-6.0-2.20","","767","","","<div class='trialBorder'><div class='vertical-center'><img style='vertical-align:center; align:center' src=img/fixation3.jpg></div><div class='cl'><div class='vertical-center'>$50<br>for<br>ree b</div></div><div class='cr'><div class='vertical-center'>$47<br>for<br>yourself</div></div><div class='respDivL'><div class='vertical-center'>(E)</div></div><div class='respDivR'><div class='vertical-center'>(I)</div></div></div>","I","$47<br>for<br>yourself","$50<br>for<br>5","1","47","50","5","SELF"
"","","","offerFB","63f78c9346da47f7f8f3aef9","bdp_sd","Sun Apr 09 2023 16:56:03 GMT-0600 (Mountain Daylight Time)","174748","html-keyboard-response","68","162700","0.0-6.0-3.20","","null","","","<div class='trialBorder'><div class='vertical-center'><img style='vertical-align:center; align:center' src=img/fixation3.jpg></div><div class='cl'><div class='vertical-center'>$50<br>for<br>ree b</div></div><div class='cr'><div class='vertical-center'><font style='color:orange'>$47<br>for<br>yourself</font></div></div><div class='respDivL'><div class='vertical-center'>(E)</div></div><div class='respDivR'><div class='vertical-center'><font style='color:orange'>(I)</font></div></div></div>","null","$47<br>for<br>yourself","$50<br>for<br>5","1","47","50","5",""
"","","","FIX","63f78c9346da47f7f8f3aef9","bdp_sd","Sun Apr 09 2023 16:56:03 GMT-0600 (Mountain Daylight Time)","174748","html-keyboard-response","69","163211","0.0-6.0-1.21","","null","","","<div class='trialBorder'><div class='vertical-center'><img style='vertical-align:center; align:center' src=img/fixation3.jpg></div></div>","null","","","","","","",""
"","","","offer","63f78c9346da47f7f8f3aef9","bdp_sd","Sun Apr 09 2023 16:56:03 GMT-0600 (Mountain Daylight Time)","174748","html-keyboard-response","70","164144","0.0-6.0-2.21","","931","","","<div class='trialBorder'><div class='vertical-center'><img style='vertical-align:center; align:center' src=img/fixation3.jpg></div><div class='cl'><div class='vertical-center'>$31<br>for<br>yourself</div></div><div class='cr'><div class='vertical-center'>$85<br>for<br>ari d</div></div><div class='respDivL'><div class='vertical-center'>(E)</div></div><div class='respDivR'><div class='vertical-center'>(I)</div></div></div>","I","$31<br>for<br>yourself","$85<br>for<br>1","0","31","85","1","OTHER"
"","","","offerFB","63f78c9346da47f7f8f3aef9","bdp_sd","Sun Apr 09 2023 16:56:03 GMT-0600 (Mountain Daylight Time)","174748","html-keyboard-response","71","164404","0.0-6.0-3.21","","null","","","<div class='trialBorder'><div class='vertical-center'><img style='vertical-align:center; align:center' src=img/fixation3.jpg></div><div class='cl'><div class='vertical-center'>$31<br>for<br>yourself</div></div><div class='cr'><div class='vertical-center'><font style='color:orange'>$85<br>for<br>ari d</font></div></div><div class='respDivL'><div class='vertical-center'>(E)</div></div><div class='respDivR'><div class='vertical-center'><font style='color:orange'>(I)</font></div></div></div>","null","$31<br>for<br>yourself","$85<br>for<br>1","0","31","85","1",""
"","","","FIX","63f78c9346da47f7f8f3aef9","bdp_sd","Sun Apr 09 2023 16:56:03 GMT-0600 (Mountain Daylight Time)","174748","html-keyboard-response","72","164914","0.0-6.0-1.22","","null","","","<div class='trialBorder'><div class='vertical-center'><img style='vertical-align:center; align:center' src=img/fixation3.jpg></div></div>","null","","","","","","",""
"","","","offer","63f78c9346da47f7f8f3aef9","bdp_sd","Sun Apr 09 2023 16:56:03 GMT-0600 (Mountain Daylight Time)","174748","html-keyboard-response","73","166721","0.0-6.0-2.22","","1805","","","<div class='trialBorder'><div class='vertical-center'><img style='vertical-align:center; align:center' src=img/fixation3.jpg></div><div class='cl'><div class='vertical-center'>$25<br>for<br>yourself</div></div><div class='cr'><div class='vertical-center'>$30<br>for<br>kai t</div></div><div class='respDivL'><div class='vertical-center'>(E)</div></div><div class='respDivR'><div class='vertical-center'>(I)</div></div></div>","I","$25<br>for<br>yourself","$30<br>for<br>4","0","25","30","4","OTHER"
"","","","offerFB","63f78c9346da47f7f8f3aef9","bdp_sd","Sun Apr 09 2023 16:56:03 GMT-0600 (Mountain Daylight Time)","174748","html-keyboard-response","74","166976","0.0-6.0-3.22","","null","","","<div class='trialBorder'><div class='vertical-center'><img style='vertical-align:center; align:center' src=img/fixation3.jpg></div><div class='cl'><div class='vertical-center'>$25<br>for<br>yourself</div></div><div class='cr'><div class='vertical-center'><font style='color:orange'>$30<br>for<br>kai t</font></div></div><div class='respDivL'><div class='vertical-center'>(E)</div></div><div class='respDivR'><div class='vertical-center'><font style='color:orange'>(I)</font></div></div></div>","null","$25<br>for<br>yourself","$30<br>for<br>4","0","25","30","4",""
"","","","FIX","63f78c9346da47f7f8f3aef9","bdp_sd","Sun Apr 09 2023 16:56:03 GMT-0600 (Mountain Daylight Time)","174748","html-keyboard-response","75","167488","0.0-6.0-1.23","","null","","","<div class='trialBorder'><div class='vertical-center'><img style='vertical-align:center; align:center' src=img/fixation3.jpg></div></div>","null","","","","","","",""
"","","","offer","63f78c9346da47f7f8f3aef9","bdp_sd","Sun Apr 09 2023 16:56:03 GMT-0600 (Mountain Daylight Time)","174748","html-keyboard-response","76","168024","0.0-6.0-2.23","","535","","","<div class='trialBorder'><div class='vertical-center'><img style='vertical-align:center; align:center' src=img/fixation3.jpg></div><div class='cl'><div class='vertical-center'>$25<br>for<br>kai t</div></div><div class='cr'><div class='vertical-center'>$19<br>for<br>yourself</div></div><div class='respDivL'><div class='vertical-center'>(E)</div></div><div class='respDivR'><div class='vertical-center'>(I)</div></div></div>","E","$19<br>for<br>yourself","$25<br>for<br>4","1","19","25","4","OTHER"
"","","","offerFB","63f78c9346da47f7f8f3aef9","bdp_sd","Sun Apr 09 2023 16:56:03 GMT-0600 (Mountain Daylight Time)","174748","html-keyboard-response","77","168276","0.0-6.0-3.23","","null","","","<div class='trialBorder'><div class='vertical-center'><img style='vertical-align:center; align:center' src=img/fixation3.jpg></div><div class='cl'><div class='vertical-center'><font style='color:orange'>$25<br>for<br>kai t</font></div></div><div class='cr'><div class='vertical-center'>$19<br>for<br>yourself</div></div><div class='respDivL'><div class='vertical-center'><font style='color:orange'>(E)</font></div></div><div class='respDivR'><div class='vertical-center'>(I)</div></div></div>","null","$19<br>for<br>yourself","$25<br>for<br>4","1","19","25","4",""
"","","","FIX","63f78c9346da47f7f8f3aef9","bdp_sd","Sun Apr 09 2023 16:56:03 GMT-0600 (Mountain Daylight Time)","174748","html-keyboard-response","78","168787","0.0-6.0-1.24","","null","","","<div class='trialBorder'><div class='vertical-center'><img style='vertical-align:center; align:center' src=img/fixation3.jpg></div></div>","null","","","","","","",""
"","","","offer","63f78c9346da47f7f8f3aef9","bdp_sd","Sun Apr 09 2023 16:56:03 GMT-0600 (Mountain Daylight Time)","174748","html-keyboard-response","79","169391","0.0-6.0-2.24","","603","","","<div class='trialBorder'><div class='vertical-center'><img style='vertical-align:center; align:center' src=img/fixation3.jpg></div><div class='cl'><div class='vertical-center'>$40<br>for<br>yourself</div></div><div class='cr'><div class='vertical-center'>$55<br>for<br>kai t</div></div><div class='respDivL'><div class='vertical-center'>(E)</div></div><div class='respDivR'><div class='vertical-center'>(I)</div></div></div>","I","$40<br>for<br>yourself","$55<br>for<br>4","0","40","55","4","OTHER"
"","","","offerFB","63f78c9346da47f7f8f3aef9","bdp_sd","Sun Apr 09 2023 16:56:03 GMT-0600 (Mountain Daylight Time)","174748","html-keyboard-response","80","169656","0.0-6.0-3.24","","null","","","<div class='trialBorder'><div class='vertical-center'><img style='vertical-align:center; align:center' src=img/fixation3.jpg></div><div class='cl'><div class='vertical-center'>$40<br>for<br>yourself</div></div><div class='cr'><div class='vertical-center'><font style='color:orange'>$55<br>for<br>kai t</font></div></div><div class='respDivL'><div class='vertical-center'>(E)</div></div><div class='respDivR'><div class='vertical-center'><font style='color:orange'>(I)</font></div></div></div>","null","$40<br>for<br>yourself","$55<br>for<br>4","0","40","55","4",""
"","","","FIX","63f78c9346da47f7f8f3aef9","bdp_sd","Sun Apr 09 2023 16:56:03 GMT-0600 (Mountain Daylight Time)","174748","html-keyboard-response","81","170168","0.0-6.0-1.25","","null","","","<div class='trialBorder'><div class='vertical-center'><img style='vertical-align:center; align:center' src=img/fixation3.jpg></div></div>","null","","","","","","",""
"","","","offer","63f78c9346da47f7f8f3aef9","bdp_sd","Sun Apr 09 2023 16:56:03 GMT-0600 (Mountain Daylight Time)","174748","html-keyboard-response","82","171545","0.0-6.0-2.25","","1375","","","<div class='trialBorder'><div class='vertical-center'><img style='vertical-align:center; align:center' src=img/fixation3.jpg></div><div class='cl'><div class='vertical-center'>$55<br>for<br>ari d</div></div><div class='cr'><div class='vertical-center'>$20<br>for<br>yourself</div></div><div class='respDivL'><div class='vertical-center'>(E)</div></div><div class='respDivR'><div class='vertical-center'>(I)</div></div></div>","E","$20<br>for<br>yourself","$55<br>for<br>1","1","20","55","1","OTHER"
"","","","offerFB","63f78c9346da47f7f8f3aef9","bdp_sd","Sun Apr 09 2023 16:56:03 GMT-0600 (Mountain Daylight Time)","174748","html-keyboard-response","83","171810","0.0-6.0-3.25","","null","","","<div class='trialBorder'><div class='vertical-center'><img style='vertical-align:center; align:center' src=img/fixation3.jpg></div><div class='cl'><div class='vertical-center'><font style='color:orange'>$55<br>for<br>ari d</font></div></div><div class='cr'><div class='vertical-center'>$20<br>for<br>yourself</div></div><div class='respDivL'><div class='vertical-center'><font style='color:orange'>(E)</font></div></div><div class='respDivR'><div class='vertical-center'>(I)</div></div></div>","null","$20<br>for<br>yourself","$55<br>for<br>1","1","20","55","1",""
"","","","FIX","63f78c9346da47f7f8f3aef9","bdp_sd","Sun Apr 09 2023 16:56:03 GMT-0600 (Mountain Daylight Time)","174748","html-keyboard-response","84","172318","0.0-6.0-1.26","","null","","","<div class='trialBorder'><div class='vertical-center'><img style='vertical-align:center; align:center' src=img/fixation3.jpg></div></div>","null","","","","","","",""
"","","","offer","63f78c9346da47f7f8f3aef9","bdp_sd","Sun Apr 09 2023 16:56:03 GMT-0600 (Mountain Daylight Time)","174748","html-keyboard-response","85","173481","0.0-6.0-2.26","","1161","","","<div class='trialBorder'><div class='vertical-center'><img style='vertical-align:center; align:center' src=img/fixation3.jpg></div><div class='cl'><div class='vertical-center'>$25<br>for<br>ree b</div></div><div class='cr'><div class='vertical-center'>$22<br>for<br>yourself</div></div><div class='respDivL'><div class='vertical-center'>(E)</div></div><div class='respDivR'><div class='vertical-center'>(I)</div></div></div>","I","$22<br>for<br>yourself","$25<br>for<br>5","1","22","25","5","SELF"
"","","","offerFB","63f78c9346da47f7f8f3aef9","bdp_sd","Sun Apr 09 2023 16:56:03 GMT-0600 (Mountain Daylight Time)","174748","html-keyboard-response","86","173743","0.0-6.0-3.26","","null","","","<div class='trialBorder'><div class='vertical-center'><img style='vertical-align:center; align:center' src=img/fixation3.jpg></div><div class='cl'><div class='vertical-center'>$25<br>for<br>ree b</div></div><div class='cr'><div class='vertical-center'><font style='color:orange'>$22<br>for<br>yourself</font></div></div><div class='respDivL'><div class='vertical-center'>(E)</div></div><div class='respDivR'><div class='vertical-center'><font style='color:orange'>(I)</font></div></div></div>","null","$22<br>for<br>yourself","$25<br>for<br>5","1","22","25","5",""
"fullscreenexit","87","174011","fullscreenexit","63f78c9346da47f7f8f3aef9","bdp_sd","Sun Apr 09 2023 16:56:03 GMT-0600 (Mountain Daylight Time)","174748","","","","","","","","","","","","","","","","",""
"","","","","63f78c9346da47f7f8f3aef9","bdp_sd","Sun Apr 09 2023 16:56:03 GMT-0600 (Mountain Daylight Time)","174748","fullscreen","87","174747","0.0-7.0","","","","true","","","","","","","","",""
"","","","","","","","","html-keyboard-response","88","175261","0.0-8.0","","null","","","","null","","","","","","",""
