"trial_type","trial_index","time_elapsed","internal_node_id","subject_id","task","startTime","totalTime","event","trial","time","trialtype","numBlurs","view_history","rt","responses","success","stimulus","key_press","selfOffer","otherOffer","otherLeft","selfAmt","otherAmt","otherDist","chosen"
"pavlovia","0","2","0.0-0.0","5bf0cb0411439b000168edda","bdp_sd","Sun Mar 26 2023 23:54:18 GMT-0400 (Eastern Daylight Time)","534253","","","","","","","","","","","","","","","","","",""
"","","","","5bf0cb0411439b000168edda","bdp_sd","Sun Mar 26 2023 23:54:18 GMT-0400 (Eastern Daylight Time)","534253","blur","1","2601","blurevent","1","","","","","","","","","","","","",""
"","","","","5bf0cb0411439b000168edda","bdp_sd","Sun Mar 26 2023 23:54:18 GMT-0400 (Eastern Daylight Time)","534253","focus","1","10085","focusevent","","","","","","","","","","","","","",""
"","","","","5bf0cb0411439b000168edda","bdp_sd","Sun Mar 26 2023 23:54:18 GMT-0400 (Eastern Daylight Time)","534253","blur","1","14944","blurevent","","","","","","","","","","","","","",""
"","","","","5bf0cb0411439b000168edda","bdp_sd","Sun Mar 26 2023 23:54:18 GMT-0400 (Eastern Daylight Time)","534253","focus","1","17133","focusevent","","","","","","","","","","","","","",""
"instructions","1","194010","0.0-1.0","5bf0cb0411439b000168edda","bdp_sd","Sun Mar 26 2023 23:54:18 GMT-0400 (Eastern Daylight Time)","534253","","","","","","[{""page_index"":0,""viewing_time"":194008}]","194008","","","","","","","","","","",""
"survey-text","2","286585","0.0-2.0","5bf0cb0411439b000168edda","bdp_sd","Sun Mar 26 2023 23:54:18 GMT-0400 (Eastern Daylight Time)","534253","","","","","","","92574","{""Q0"":""lucero m"",""Q1"":""diesel t"",""Q2"":""shay g"",""Q3"":""alissa b"",""Q4"":""brandi b""}","","","","","","","","","",""
"","","","","5bf0cb0411439b000168edda","bdp_sd","Sun Mar 26 2023 23:54:18 GMT-0400 (Eastern Daylight Time)","534253","fullscreenenter","3","294196","fullscreenenter","","","","","","","","","","","","","",""
"fullscreen","3","295185","0.0-3.0","5bf0cb0411439b000168edda","bdp_sd","Sun Mar 26 2023 23:54:18 GMT-0400 (Eastern Daylight Time)","534253","","","","","","","","","true","","","","","","","","",""
"instructions","4","332032","0.0-5.0","5bf0cb0411439b000168edda","bdp_sd","Sun Mar 26 2023 23:54:18 GMT-0400 (Eastern Daylight Time)","534253","","","","","","[{""page_index"":0,""viewing_time"":27350},{""page_index"":1,""viewing_time"":8225},{""page_index"":2,""viewing_time"":1271}]","36846","","","","","","","","","","",""
"image-keyboard-response","5","334577","0.0-6.0-0.0-0.0","5bf0cb0411439b000168edda","bdp_sd","Sun Mar 26 2023 23:54:18 GMT-0400 (Eastern Daylight Time)","534253","","","","blurwarn","1","","2543","","","","49","","","","","","",""
"html-keyboard-response","6","335329","0.0-6.0-1.0","5bf0cb0411439b000168edda","bdp_sd","Sun Mar 26 2023 23:54:18 GMT-0400 (Eastern Daylight Time)","534253","","","","FIX","","","null","","","<div class='trialBorder'><div class='vertical-center'><img style='vertical-align:center; align:center' src=img/fixation3.jpg></div></div>","null","","","","","","",""
"html-keyboard-response","7","338729","0.0-6.0-2.0","5bf0cb0411439b000168edda","bdp_sd","Sun Mar 26 2023 23:54:18 GMT-0400 (Eastern Daylight Time)","534253","","","","offer","","","3399","","","<div class='trialBorder'><div class='vertical-center'><img style='vertical-align:center; align:center' src=img/fixation3.jpg></div><div class='cl'><div class='vertical-center'>$35<br>for<br>shay g</div></div><div class='cr'><div class='vertical-center'>$24<br>for<br>yourself</div></div><div class='respDivL'><div class='vertical-center'>(E)</div></div><div class='respDivR'><div class='vertical-center'>(I)</div></div></div>","I","$24<br>for<br>yourself","$35<br>for<br>3","1","24","35","3","SELF"
"html-keyboard-response","8","338981","0.0-6.0-3.0","5bf0cb0411439b000168edda","bdp_sd","Sun Mar 26 2023 23:54:18 GMT-0400 (Eastern Daylight Time)","534253","","","","offerFB","","","null","","","<div class='trialBorder'><div class='vertical-center'><img style='vertical-align:center; align:center' src=img/fixation3.jpg></div><div class='cl'><div class='vertical-center'>$35<br>for<br>shay g</div></div><div class='cr'><div class='vertical-center'><font style='color:orange'>$24<br>for<br>yourself</font></div></div><div class='respDivL'><div class='vertical-center'>(E)</div></div><div class='respDivR'><div class='vertical-center'><font style='color:orange'>(I)</font></div></div></div>","null","$24<br>for<br>yourself","$35<br>for<br>3","1","24","35","3",""
"html-keyboard-response","9","339483","0.0-6.0-1.1","5bf0cb0411439b000168edda","bdp_sd","Sun Mar 26 2023 23:54:18 GMT-0400 (Eastern Daylight Time)","534253","","","","FIX","","","null","","","<div class='trialBorder'><div class='vertical-center'><img style='vertical-align:center; align:center' src=img/fixation3.jpg></div></div>","null","","","","","","",""
"html-keyboard-response","10","341977","0.0-6.0-2.1","5bf0cb0411439b000168edda","bdp_sd","Sun Mar 26 2023 23:54:18 GMT-0400 (Eastern Daylight Time)","534253","","","","offer","","","2493","","","<div class='trialBorder'><div class='vertical-center'><img style='vertical-align:center; align:center' src=img/fixation3.jpg></div><div class='cl'><div class='vertical-center'>$47<br>for<br>yourself</div></div><div class='cr'><div class='vertical-center'>$50<br>for<br>brandi b</div></div><div class='respDivL'><div class='vertical-center'>(E)</div></div><div class='respDivR'><div class='vertical-center'>(I)</div></div></div>","I","$47<br>for<br>yourself","$50<br>for<br>5","0","47","50","5","OTHER"
"html-keyboard-response","11","342229","0.0-6.0-3.1","5bf0cb0411439b000168edda","bdp_sd","Sun Mar 26 2023 23:54:18 GMT-0400 (Eastern Daylight Time)","534253","","","","offerFB","","","null","","","<div class='trialBorder'><div class='vertical-center'><img style='vertical-align:center; align:center' src=img/fixation3.jpg></div><div class='cl'><div class='vertical-center'>$47<br>for<br>yourself</div></div><div class='cr'><div class='vertical-center'><font style='color:orange'>$50<br>for<br>brandi b</font></div></div><div class='respDivL'><div class='vertical-center'>(E)</div></div><div class='respDivR'><div class='vertical-center'><font style='color:orange'>(I)</font></div></div></div>","null","$47<br>for<br>yourself","$50<br>for<br>5","0","47","50","5",""
"html-keyboard-response","12","342731","0.0-6.0-1.2","5bf0cb0411439b000168edda","bdp_sd","Sun Mar 26 2023 23:54:18 GMT-0400 (Eastern Daylight Time)","534253","","","","FIX","","","null","","","<div class='trialBorder'><div class='vertical-center'><img style='vertical-align:center; align:center' src=img/fixation3.jpg></div></div>","null","","","","","","",""
"html-keyboard-response","13","345577","0.0-6.0-2.2","5bf0cb0411439b000168edda","bdp_sd","Sun Mar 26 2023 23:54:18 GMT-0400 (Eastern Daylight Time)","534253","","","","offer","","","2845","","","<div class='trialBorder'><div class='vertical-center'><img style='vertical-align:center; align:center' src=img/fixation3.jpg></div><div class='cl'><div class='vertical-center'>$40<br>for<br>yourself</div></div><div class='cr'><div class='vertical-center'>$55<br>for<br>alissa b</div></div><div class='respDivL'><div class='vertical-center'>(E)</div></div><div class='respDivR'><div class='vertical-center'>(I)</div></div></div>","I","$40<br>for<br>yourself","$55<br>for<br>4","0","40","55","4","OTHER"
"html-keyboard-response","14","345829","0.0-6.0-3.2","5bf0cb0411439b000168edda","bdp_sd","Sun Mar 26 2023 23:54:18 GMT-0400 (Eastern Daylight Time)","534253","","","","offerFB","","","null","","","<div class='trialBorder'><div class='vertical-center'><img style='vertical-align:center; align:center' src=img/fixation3.jpg></div><div class='cl'><div class='vertical-center'>$40<br>for<br>yourself</div></div><div class='cr'><div class='vertical-center'><font style='color:orange'>$55<br>for<br>alissa b</font></div></div><div class='respDivL'><div class='vertical-center'>(E)</div></div><div class='respDivR'><div class='vertical-center'><font style='color:orange'>(I)</font></div></div></div>","null","$40<br>for<br>yourself","$55<br>for<br>4","0","40","55","4",""
"html-keyboard-response","15","346330","0.0-6.0-1.3","5bf0cb0411439b000168edda","bdp_sd","Sun Mar 26 2023 23:54:18 GMT-0400 (Eastern Daylight Time)","534253","","","","FIX","","","null","","","<div class='trialBorder'><div class='vertical-center'><img style='vertical-align:center; align:center' src=img/fixation3.jpg></div></div>","null","","","","","","",""
"html-keyboard-response","16","350392","0.0-6.0-2.3","5bf0cb0411439b000168edda","bdp_sd","Sun Mar 26 2023 23:54:18 GMT-0400 (Eastern Daylight Time)","534253","","","","offer","","","4061","","","<div class='trialBorder'><div class='vertical-center'><img style='vertical-align:center; align:center' src=img/fixation3.jpg></div><div class='cl'><div class='vertical-center'>$28<br>for<br>yourself</div></div><div class='cr'><div class='vertical-center'>$30<br>for<br>brandi b</div></div><div class='respDivL'><div class='vertical-center'>(E)</div></div><div class='respDivR'><div class='vertical-center'>(I)</div></div></div>","E","$28<br>for<br>yourself","$30<br>for<br>5","0","28","30","5","SELF"
"html-keyboard-response","17","350644","0.0-6.0-3.3","5bf0cb0411439b000168edda","bdp_sd","Sun Mar 26 2023 23:54:18 GMT-0400 (Eastern Daylight Time)","534253","","","","offerFB","","","null","","","<div class='trialBorder'><div class='vertical-center'><img style='vertical-align:center; align:center' src=img/fixation3.jpg></div><div class='cl'><div class='vertical-center'><font style='color:orange'>$28<br>for<br>yourself</font></div></div><div class='cr'><div class='vertical-center'>$30<br>for<br>brandi b</div></div><div class='respDivL'><div class='vertical-center'><font style='color:orange'>(E)</font></div></div><div class='respDivR'><div class='vertical-center'>(I)</div></div></div>","null","$28<br>for<br>yourself","$30<br>for<br>5","0","28","30","5",""
"html-keyboard-response","18","351145","0.0-6.0-1.4","5bf0cb0411439b000168edda","bdp_sd","Sun Mar 26 2023 23:54:18 GMT-0400 (Eastern Daylight Time)","534253","","","","FIX","","","null","","","<div class='trialBorder'><div class='vertical-center'><img style='vertical-align:center; align:center' src=img/fixation3.jpg></div></div>","null","","","","","","",""
"html-keyboard-response","19","357560","0.0-6.0-2.4","5bf0cb0411439b000168edda","bdp_sd","Sun Mar 26 2023 23:54:18 GMT-0400 (Eastern Daylight Time)","534253","","","","offer","","","6414","","","<div class='trialBorder'><div class='vertical-center'><img style='vertical-align:center; align:center' src=img/fixation3.jpg></div><div class='cl'><div class='vertical-center'>$50<br>for<br>shay g</div></div><div class='cr'><div class='vertical-center'>$27<br>for<br>yourself</div></div><div class='respDivL'><div class='vertical-center'>(E)</div></div><div class='respDivR'><div class='vertical-center'>(I)</div></div></div>","E","$27<br>for<br>yourself","$50<br>for<br>3","1","27","50","3","OTHER"
"html-keyboard-response","20","357811","0.0-6.0-3.4","5bf0cb0411439b000168edda","bdp_sd","Sun Mar 26 2023 23:54:18 GMT-0400 (Eastern Daylight Time)","534253","","","","offerFB","","","null","","","<div class='trialBorder'><div class='vertical-center'><img style='vertical-align:center; align:center' src=img/fixation3.jpg></div><div class='cl'><div class='vertical-center'><font style='color:orange'>$50<br>for<br>shay g</font></div></div><div class='cr'><div class='vertical-center'>$27<br>for<br>yourself</div></div><div class='respDivL'><div class='vertical-center'><font style='color:orange'>(E)</font></div></div><div class='respDivR'><div class='vertical-center'>(I)</div></div></div>","null","$27<br>for<br>yourself","$50<br>for<br>3","1","27","50","3",""
"html-keyboard-response","21","358313","0.0-6.0-1.5","5bf0cb0411439b000168edda","bdp_sd","Sun Mar 26 2023 23:54:18 GMT-0400 (Eastern Daylight Time)","534253","","","","FIX","","","null","","","<div class='trialBorder'><div class='vertical-center'><img style='vertical-align:center; align:center' src=img/fixation3.jpg></div></div>","null","","","","","","",""
"html-keyboard-response","22","362168","0.0-6.0-2.5","5bf0cb0411439b000168edda","bdp_sd","Sun Mar 26 2023 23:54:18 GMT-0400 (Eastern Daylight Time)","534253","","","","offer","","","3855","","","<div class='trialBorder'><div class='vertical-center'><img style='vertical-align:center; align:center' src=img/fixation3.jpg></div><div class='cl'><div class='vertical-center'>$85<br>for<br>alissa b</div></div><div class='cr'><div class='vertical-center'>$69<br>for<br>yourself</div></div><div class='respDivL'><div class='vertical-center'>(E)</div></div><div class='respDivR'><div class='vertical-center'>(I)</div></div></div>","E","$69<br>for<br>yourself","$85<br>for<br>4","1","69","85","4","OTHER"
"html-keyboard-response","23","362419","0.0-6.0-3.5","5bf0cb0411439b000168edda","bdp_sd","Sun Mar 26 2023 23:54:18 GMT-0400 (Eastern Daylight Time)","534253","","","","offerFB","","","null","","","<div class='trialBorder'><div class='vertical-center'><img style='vertical-align:center; align:center' src=img/fixation3.jpg></div><div class='cl'><div class='vertical-center'><font style='color:orange'>$85<br>for<br>alissa b</font></div></div><div class='cr'><div class='vertical-center'>$69<br>for<br>yourself</div></div><div class='respDivL'><div class='vertical-center'><font style='color:orange'>(E)</font></div></div><div class='respDivR'><div class='vertical-center'>(I)</div></div></div>","null","$69<br>for<br>yourself","$85<br>for<br>4","1","69","85","4",""
"html-keyboard-response","24","362921","0.0-6.0-1.6","5bf0cb0411439b000168edda","bdp_sd","Sun Mar 26 2023 23:54:18 GMT-0400 (Eastern Daylight Time)","534253","","","","FIX","","","null","","","<div class='trialBorder'><div class='vertical-center'><img style='vertical-align:center; align:center' src=img/fixation3.jpg></div></div>","null","","","","","","",""
"html-keyboard-response","25","366153","0.0-6.0-2.6","5bf0cb0411439b000168edda","bdp_sd","Sun Mar 26 2023 23:54:18 GMT-0400 (Eastern Daylight Time)","534253","","","","offer","","","3231","","","<div class='trialBorder'><div class='vertical-center'><img style='vertical-align:center; align:center' src=img/fixation3.jpg></div><div class='cl'><div class='vertical-center'>$34<br>for<br>yourself</div></div><div class='cr'><div class='vertical-center'>$50<br>for<br>alissa b</div></div><div class='respDivL'><div class='vertical-center'>(E)</div></div><div class='respDivR'><div class='vertical-center'>(I)</div></div></div>","I","$34<br>for<br>yourself","$50<br>for<br>4","0","34","50","4","OTHER"
"html-keyboard-response","26","366405","0.0-6.0-3.6","5bf0cb0411439b000168edda","bdp_sd","Sun Mar 26 2023 23:54:18 GMT-0400 (Eastern Daylight Time)","534253","","","","offerFB","","","null","","","<div class='trialBorder'><div class='vertical-center'><img style='vertical-align:center; align:center' src=img/fixation3.jpg></div><div class='cl'><div class='vertical-center'>$34<br>for<br>yourself</div></div><div class='cr'><div class='vertical-center'><font style='color:orange'>$50<br>for<br>alissa b</font></div></div><div class='respDivL'><div class='vertical-center'>(E)</div></div><div class='respDivR'><div class='vertical-center'><font style='color:orange'>(I)</font></div></div></div>","null","$34<br>for<br>yourself","$50<br>for<br>4","0","34","50","4",""
"html-keyboard-response","27","366906","0.0-6.0-1.7","5bf0cb0411439b000168edda","bdp_sd","Sun Mar 26 2023 23:54:18 GMT-0400 (Eastern Daylight Time)","534253","","","","FIX","","","null","","","<div class='trialBorder'><div class='vertical-center'><img style='vertical-align:center; align:center' src=img/fixation3.jpg></div></div>","null","","","","","","",""
"html-keyboard-response","28","373409","0.0-6.0-2.7","5bf0cb0411439b000168edda","bdp_sd","Sun Mar 26 2023 23:54:18 GMT-0400 (Eastern Daylight Time)","534253","","","","offer","","","6502","","","<div class='trialBorder'><div class='vertical-center'><img style='vertical-align:center; align:center' src=img/fixation3.jpg></div><div class='cl'><div class='vertical-center'>$25<br>for<br>alissa b</div></div><div class='cr'><div class='vertical-center'>$19<br>for<br>yourself</div></div><div class='respDivL'><div class='vertical-center'>(E)</div></div><div class='respDivR'><div class='vertical-center'>(I)</div></div></div>","I","$19<br>for<br>yourself","$25<br>for<br>4","1","19","25","4","SELF"
"html-keyboard-response","29","373661","0.0-6.0-3.7","5bf0cb0411439b000168edda","bdp_sd","Sun Mar 26 2023 23:54:18 GMT-0400 (Eastern Daylight Time)","534253","","","","offerFB","","","null","","","<div class='trialBorder'><div class='vertical-center'><img style='vertical-align:center; align:center' src=img/fixation3.jpg></div><div class='cl'><div class='vertical-center'>$25<br>for<br>alissa b</div></div><div class='cr'><div class='vertical-center'><font style='color:orange'>$19<br>for<br>yourself</font></div></div><div class='respDivL'><div class='vertical-center'>(E)</div></div><div class='respDivR'><div class='vertical-center'><font style='color:orange'>(I)</font></div></div></div>","null","$19<br>for<br>yourself","$25<br>for<br>4","1","19","25","4",""
"html-keyboard-response","30","374162","0.0-6.0-1.8","5bf0cb0411439b000168edda","bdp_sd","Sun Mar 26 2023 23:54:18 GMT-0400 (Eastern Daylight Time)","534253","","","","FIX","","","null","","","<div class='trialBorder'><div class='vertical-center'><img style='vertical-align:center; align:center' src=img/fixation3.jpg></div></div>","null","","","","","","",""
"html-keyboard-response","31","376992","0.0-6.0-2.8","5bf0cb0411439b000168edda","bdp_sd","Sun Mar 26 2023 23:54:18 GMT-0400 (Eastern Daylight Time)","534253","","","","offer","","","2829","","","<div class='trialBorder'><div class='vertical-center'><img style='vertical-align:center; align:center' src=img/fixation3.jpg></div><div class='cl'><div class='vertical-center'>$85<br>for<br>lucero m</div></div><div class='cr'><div class='vertical-center'>$31<br>for<br>yourself</div></div><div class='respDivL'><div class='vertical-center'>(E)</div></div><div class='respDivR'><div class='vertical-center'>(I)</div></div></div>","E","$31<br>for<br>yourself","$85<br>for<br>1","1","31","85","1","OTHER"
"html-keyboard-response","32","377243","0.0-6.0-3.8","5bf0cb0411439b000168edda","bdp_sd","Sun Mar 26 2023 23:54:18 GMT-0400 (Eastern Daylight Time)","534253","","","","offerFB","","","null","","","<div class='trialBorder'><div class='vertical-center'><img style='vertical-align:center; align:center' src=img/fixation3.jpg></div><div class='cl'><div class='vertical-center'><font style='color:orange'>$85<br>for<br>lucero m</font></div></div><div class='cr'><div class='vertical-center'>$31<br>for<br>yourself</div></div><div class='respDivL'><div class='vertical-center'><font style='color:orange'>(E)</font></div></div><div class='respDivR'><div class='vertical-center'>(I)</div></div></div>","null","$31<br>for<br>yourself","$85<br>for<br>1","1","31","85","1",""
"html-keyboard-response","33","377745","0.0-6.0-1.9","5bf0cb0411439b000168edda","bdp_sd","Sun Mar 26 2023 23:54:18 GMT-0400 (Eastern Daylight Time)","534253","","","","FIX","","","null","","","<div class='trialBorder'><div class='vertical-center'><img style='vertical-align:center; align:center' src=img/fixation3.jpg></div></div>","null","","","","","","",""
"html-keyboard-response","34","385313","0.0-6.0-2.9","5bf0cb0411439b000168edda","bdp_sd","Sun Mar 26 2023 23:54:18 GMT-0400 (Eastern Daylight Time)","534253","","","","offer","","","7567","","","<div class='trialBorder'><div class='vertical-center'><img style='vertical-align:center; align:center' src=img/fixation3.jpg></div><div class='cl'><div class='vertical-center'>$22<br>for<br>yourself</div></div><div class='cr'><div class='vertical-center'>$25<br>for<br>brandi b</div></div><div class='respDivL'><div class='vertical-center'>(E)</div></div><div class='respDivR'><div class='vertical-center'>(I)</div></div></div>","E","$22<br>for<br>yourself","$25<br>for<br>5","0","22","25","5","SELF"
"html-keyboard-response","35","385564","0.0-6.0-3.9","5bf0cb0411439b000168edda","bdp_sd","Sun Mar 26 2023 23:54:18 GMT-0400 (Eastern Daylight Time)","534253","","","","offerFB","","","null","","","<div class='trialBorder'><div class='vertical-center'><img style='vertical-align:center; align:center' src=img/fixation3.jpg></div><div class='cl'><div class='vertical-center'><font style='color:orange'>$22<br>for<br>yourself</font></div></div><div class='cr'><div class='vertical-center'>$25<br>for<br>brandi b</div></div><div class='respDivL'><div class='vertical-center'><font style='color:orange'>(E)</font></div></div><div class='respDivR'><div class='vertical-center'>(I)</div></div></div>","null","$22<br>for<br>yourself","$25<br>for<br>5","0","22","25","5",""
"html-keyboard-response","36","386066","0.0-6.0-1.10","5bf0cb0411439b000168edda","bdp_sd","Sun Mar 26 2023 23:54:18 GMT-0400 (Eastern Daylight Time)","534253","","","","FIX","","","null","","","<div class='trialBorder'><div class='vertical-center'><img style='vertical-align:center; align:center' src=img/fixation3.jpg></div></div>","null","","","","","","",""
"html-keyboard-response","37","457625","0.0-6.0-2.10","5bf0cb0411439b000168edda","bdp_sd","Sun Mar 26 2023 23:54:18 GMT-0400 (Eastern Daylight Time)","534253","","","","offer","","","71558","","","<div class='trialBorder'><div class='vertical-center'><img style='vertical-align:center; align:center' src=img/fixation3.jpg></div><div class='cl'><div class='vertical-center'>$34<br>for<br>yourself</div></div><div class='cr'><div class='vertical-center'>$35<br>for<br>brandi b</div></div><div class='respDivL'><div class='vertical-center'>(E)</div></div><div class='respDivR'><div class='vertical-center'>(I)</div></div></div>","E","$34<br>for<br>yourself","$35<br>for<br>5","0","34","35","5","SELF"
"html-keyboard-response","38","457876","0.0-6.0-3.10","5bf0cb0411439b000168edda","bdp_sd","Sun Mar 26 2023 23:54:18 GMT-0400 (Eastern Daylight Time)","534253","","","","offerFB","","","null","","","<div class='trialBorder'><div class='vertical-center'><img style='vertical-align:center; align:center' src=img/fixation3.jpg></div><div class='cl'><div class='vertical-center'><font style='color:orange'>$34<br>for<br>yourself</font></div></div><div class='cr'><div class='vertical-center'>$35<br>for<br>brandi b</div></div><div class='respDivL'><div class='vertical-center'><font style='color:orange'>(E)</font></div></div><div class='respDivR'><div class='vertical-center'>(I)</div></div></div>","null","$34<br>for<br>yourself","$35<br>for<br>5","0","34","35","5",""
"html-keyboard-response","39","458377","0.0-6.0-1.11","5bf0cb0411439b000168edda","bdp_sd","Sun Mar 26 2023 23:54:18 GMT-0400 (Eastern Daylight Time)","534253","","","","FIX","","","null","","","<div class='trialBorder'><div class='vertical-center'><img style='vertical-align:center; align:center' src=img/fixation3.jpg></div></div>","null","","","","","","",""
"html-keyboard-response","40","462441","0.0-6.0-2.11","5bf0cb0411439b000168edda","bdp_sd","Sun Mar 26 2023 23:54:18 GMT-0400 (Eastern Daylight Time)","534253","","","","offer","","","4063","","","<div class='trialBorder'><div class='vertical-center'><img style='vertical-align:center; align:center' src=img/fixation3.jpg></div><div class='cl'><div class='vertical-center'>$75<br>for<br>brandi b</div></div><div class='cr'><div class='vertical-center'>$67<br>for<br>yourself</div></div><div class='respDivL'><div class='vertical-center'>(E)</div></div><div class='respDivR'><div class='vertical-center'>(I)</div></div></div>","I","$67<br>for<br>yourself","$75<br>for<br>5","1","67","75","5","SELF"
"html-keyboard-response","41","462693","0.0-6.0-3.11","5bf0cb0411439b000168edda","bdp_sd","Sun Mar 26 2023 23:54:18 GMT-0400 (Eastern Daylight Time)","534253","","","","offerFB","","","null","","","<div class='trialBorder'><div class='vertical-center'><img style='vertical-align:center; align:center' src=img/fixation3.jpg></div><div class='cl'><div class='vertical-center'>$75<br>for<br>brandi b</div></div><div class='cr'><div class='vertical-center'><font style='color:orange'>$67<br>for<br>yourself</font></div></div><div class='respDivL'><div class='vertical-center'>(E)</div></div><div class='respDivR'><div class='vertical-center'><font style='color:orange'>(I)</font></div></div></div>","null","$67<br>for<br>yourself","$75<br>for<br>5","1","67","75","5",""
"html-keyboard-response","42","463194","0.0-6.0-1.12","5bf0cb0411439b000168edda","bdp_sd","Sun Mar 26 2023 23:54:18 GMT-0400 (Eastern Daylight Time)","534253","","","","FIX","","","null","","","<div class='trialBorder'><div class='vertical-center'><img style='vertical-align:center; align:center' src=img/fixation3.jpg></div></div>","null","","","","","","",""
"html-keyboard-response","43","476202","0.0-6.0-2.12","5bf0cb0411439b000168edda","bdp_sd","Sun Mar 26 2023 23:54:18 GMT-0400 (Eastern Daylight Time)","534253","","","","offer","","","13007","","","<div class='trialBorder'><div class='vertical-center'><img style='vertical-align:center; align:center' src=img/fixation3.jpg></div><div class='cl'><div class='vertical-center'>$80<br>for<br>shay g</div></div><div class='cr'><div class='vertical-center'>$54<br>for<br>yourself</div></div><div class='respDivL'><div class='vertical-center'>(E)</div></div><div class='respDivR'><div class='vertical-center'>(I)</div></div></div>","E","$54<br>for<br>yourself","$80<br>for<br>3","1","54","80","3","OTHER"
"html-keyboard-response","44","476454","0.0-6.0-3.12","5bf0cb0411439b000168edda","bdp_sd","Sun Mar 26 2023 23:54:18 GMT-0400 (Eastern Daylight Time)","534253","","","","offerFB","","","null","","","<div class='trialBorder'><div class='vertical-center'><img style='vertical-align:center; align:center' src=img/fixation3.jpg></div><div class='cl'><div class='vertical-center'><font style='color:orange'>$80<br>for<br>shay g</font></div></div><div class='cr'><div class='vertical-center'>$54<br>for<br>yourself</div></div><div class='respDivL'><div class='vertical-center'><font style='color:orange'>(E)</font></div></div><div class='respDivR'><div class='vertical-center'>(I)</div></div></div>","null","$54<br>for<br>yourself","$80<br>for<br>3","1","54","80","3",""
"html-keyboard-response","45","476955","0.0-6.0-1.13","5bf0cb0411439b000168edda","bdp_sd","Sun Mar 26 2023 23:54:18 GMT-0400 (Eastern Daylight Time)","534253","","","","FIX","","","null","","","<div class='trialBorder'><div class='vertical-center'><img style='vertical-align:center; align:center' src=img/fixation3.jpg></div></div>","null","","","","","","",""
"html-keyboard-response","46","492049","0.0-6.0-2.13","5bf0cb0411439b000168edda","bdp_sd","Sun Mar 26 2023 23:54:18 GMT-0400 (Eastern Daylight Time)","534253","","","","offer","","","15093","","","<div class='trialBorder'><div class='vertical-center'><img style='vertical-align:center; align:center' src=img/fixation3.jpg></div><div class='cl'><div class='vertical-center'>$75<br>for<br>alissa b</div></div><div class='cr'><div class='vertical-center'>$55<br>for<br>yourself</div></div><div class='respDivL'><div class='vertical-center'>(E)</div></div><div class='respDivR'><div class='vertical-center'>(I)</div></div></div>","E","$55<br>for<br>yourself","$75<br>for<br>4","1","55","75","4","OTHER"
"html-keyboard-response","47","492300","0.0-6.0-3.13","5bf0cb0411439b000168edda","bdp_sd","Sun Mar 26 2023 23:54:18 GMT-0400 (Eastern Daylight Time)","534253","","","","offerFB","","","null","","","<div class='trialBorder'><div class='vertical-center'><img style='vertical-align:center; align:center' src=img/fixation3.jpg></div><div class='cl'><div class='vertical-center'><font style='color:orange'>$75<br>for<br>alissa b</font></div></div><div class='cr'><div class='vertical-center'>$55<br>for<br>yourself</div></div><div class='respDivL'><div class='vertical-center'><font style='color:orange'>(E)</font></div></div><div class='respDivR'><div class='vertical-center'>(I)</div></div></div>","null","$55<br>for<br>yourself","$75<br>for<br>4","1","55","75","4",""
"html-keyboard-response","48","492801","0.0-6.0-1.14","5bf0cb0411439b000168edda","bdp_sd","Sun Mar 26 2023 23:54:18 GMT-0400 (Eastern Daylight Time)","534253","","","","FIX","","","null","","","<div class='trialBorder'><div class='vertical-center'><img style='vertical-align:center; align:center' src=img/fixation3.jpg></div></div>","null","","","","","","",""
"html-keyboard-response","49","495401","0.0-6.0-2.14","5bf0cb0411439b000168edda","bdp_sd","Sun Mar 26 2023 23:54:18 GMT-0400 (Eastern Daylight Time)","534253","","","","offer","","","2598","","","<div class='trialBorder'><div class='vertical-center'><img style='vertical-align:center; align:center' src=img/fixation3.jpg></div><div class='cl'><div class='vertical-center'>$55<br>for<br>brandi b</div></div><div class='cr'><div class='vertical-center'>$54<br>for<br>yourself</div></div><div class='respDivL'><div class='vertical-center'>(E)</div></div><div class='respDivR'><div class='vertical-center'>(I)</div></div></div>","I","$54<br>for<br>yourself","$55<br>for<br>5","1","54","55","5","SELF"
"html-keyboard-response","50","495652","0.0-6.0-3.14","5bf0cb0411439b000168edda","bdp_sd","Sun Mar 26 2023 23:54:18 GMT-0400 (Eastern Daylight Time)","534253","","","","offerFB","","","null","","","<div class='trialBorder'><div class='vertical-center'><img style='vertical-align:center; align:center' src=img/fixation3.jpg></div><div class='cl'><div class='vertical-center'>$55<br>for<br>brandi b</div></div><div class='cr'><div class='vertical-center'><font style='color:orange'>$54<br>for<br>yourself</font></div></div><div class='respDivL'><div class='vertical-center'>(E)</div></div><div class='respDivR'><div class='vertical-center'><font style='color:orange'>(I)</font></div></div></div>","null","$54<br>for<br>yourself","$55<br>for<br>5","1","54","55","5",""
"html-keyboard-response","51","496154","0.0-6.0-1.15","5bf0cb0411439b000168edda","bdp_sd","Sun Mar 26 2023 23:54:18 GMT-0400 (Eastern Daylight Time)","534253","","","","FIX","","","null","","","<div class='trialBorder'><div class='vertical-center'><img style='vertical-align:center; align:center' src=img/fixation3.jpg></div></div>","null","","","","","","",""
"html-keyboard-response","52","497737","0.0-6.0-2.15","5bf0cb0411439b000168edda","bdp_sd","Sun Mar 26 2023 23:54:18 GMT-0400 (Eastern Daylight Time)","534253","","","","offer","","","1583","","","<div class='trialBorder'><div class='vertical-center'><img style='vertical-align:center; align:center' src=img/fixation3.jpg></div><div class='cl'><div class='vertical-center'>$41<br>for<br>yourself</div></div><div class='cr'><div class='vertical-center'>$75<br>for<br>shay g</div></div><div class='respDivL'><div class='vertical-center'>(E)</div></div><div class='respDivR'><div class='vertical-center'>(I)</div></div></div>","I","$41<br>for<br>yourself","$75<br>for<br>3","0","41","75","3","OTHER"
"html-keyboard-response","53","497988","0.0-6.0-3.15","5bf0cb0411439b000168edda","bdp_sd","Sun Mar 26 2023 23:54:18 GMT-0400 (Eastern Daylight Time)","534253","","","","offerFB","","","null","","","<div class='trialBorder'><div class='vertical-center'><img style='vertical-align:center; align:center' src=img/fixation3.jpg></div><div class='cl'><div class='vertical-center'>$41<br>for<br>yourself</div></div><div class='cr'><div class='vertical-center'><font style='color:orange'>$75<br>for<br>shay g</font></div></div><div class='respDivL'><div class='vertical-center'>(E)</div></div><div class='respDivR'><div class='vertical-center'><font style='color:orange'>(I)</font></div></div></div>","null","$41<br>for<br>yourself","$75<br>for<br>3","0","41","75","3",""
"html-keyboard-response","54","498490","0.0-6.0-1.16","5bf0cb0411439b000168edda","bdp_sd","Sun Mar 26 2023 23:54:18 GMT-0400 (Eastern Daylight Time)","534253","","","","FIX","","","null","","","<div class='trialBorder'><div class='vertical-center'><img style='vertical-align:center; align:center' src=img/fixation3.jpg></div></div>","null","","","","","","",""
"html-keyboard-response","55","500769","0.0-6.0-2.16","5bf0cb0411439b000168edda","bdp_sd","Sun Mar 26 2023 23:54:18 GMT-0400 (Eastern Daylight Time)","534253","","","","offer","","","2279","","","<div class='trialBorder'><div class='vertical-center'><img style='vertical-align:center; align:center' src=img/fixation3.jpg></div><div class='cl'><div class='vertical-center'>$14<br>for<br>yourself</div></div><div class='cr'><div class='vertical-center'>$25<br>for<br>shay g</div></div><div class='respDivL'><div class='vertical-center'>(E)</div></div><div class='respDivR'><div class='vertical-center'>(I)</div></div></div>","E","$14<br>for<br>yourself","$25<br>for<br>3","0","14","25","3","SELF"
"html-keyboard-response","56","501021","0.0-6.0-3.16","5bf0cb0411439b000168edda","bdp_sd","Sun Mar 26 2023 23:54:18 GMT-0400 (Eastern Daylight Time)","534253","","","","offerFB","","","null","","","<div class='trialBorder'><div class='vertical-center'><img style='vertical-align:center; align:center' src=img/fixation3.jpg></div><div class='cl'><div class='vertical-center'><font style='color:orange'>$14<br>for<br>yourself</font></div></div><div class='cr'><div class='vertical-center'>$25<br>for<br>shay g</div></div><div class='respDivL'><div class='vertical-center'><font style='color:orange'>(E)</font></div></div><div class='respDivR'><div class='vertical-center'>(I)</div></div></div>","null","$14<br>for<br>yourself","$25<br>for<br>3","0","14","25","3",""
"html-keyboard-response","57","501523","0.0-6.0-1.17","5bf0cb0411439b000168edda","bdp_sd","Sun Mar 26 2023 23:54:18 GMT-0400 (Eastern Daylight Time)","534253","","","","FIX","","","null","","","<div class='trialBorder'><div class='vertical-center'><img style='vertical-align:center; align:center' src=img/fixation3.jpg></div></div>","null","","","","","","",""
"html-keyboard-response","58","504496","0.0-6.0-2.17","5bf0cb0411439b000168edda","bdp_sd","Sun Mar 26 2023 23:54:18 GMT-0400 (Eastern Daylight Time)","534253","","","","offer","","","2972","","","<div class='trialBorder'><div class='vertical-center'><img style='vertical-align:center; align:center' src=img/fixation3.jpg></div><div class='cl'><div class='vertical-center'>$30<br>for<br>alissa b</div></div><div class='cr'><div class='vertical-center'>$25<br>for<br>yourself</div></div><div class='respDivL'><div class='vertical-center'>(E)</div></div><div class='respDivR'><div class='vertical-center'>(I)</div></div></div>","I","$25<br>for<br>yourself","$30<br>for<br>4","1","25","30","4","SELF"
"html-keyboard-response","59","504748","0.0-6.0-3.17","5bf0cb0411439b000168edda","bdp_sd","Sun Mar 26 2023 23:54:18 GMT-0400 (Eastern Daylight Time)","534253","","","","offerFB","","","null","","","<div class='trialBorder'><div class='vertical-center'><img style='vertical-align:center; align:center' src=img/fixation3.jpg></div><div class='cl'><div class='vertical-center'>$30<br>for<br>alissa b</div></div><div class='cr'><div class='vertical-center'><font style='color:orange'>$25<br>for<br>yourself</font></div></div><div class='respDivL'><div class='vertical-center'>(E)</div></div><div class='respDivR'><div class='vertical-center'><font style='color:orange'>(I)</font></div></div></div>","null","$25<br>for<br>yourself","$30<br>for<br>4","1","25","30","4",""
"html-keyboard-response","60","505250","0.0-6.0-1.18","5bf0cb0411439b000168edda","bdp_sd","Sun Mar 26 2023 23:54:18 GMT-0400 (Eastern Daylight Time)","534253","","","","FIX","","","null","","","<div class='trialBorder'><div class='vertical-center'><img style='vertical-align:center; align:center' src=img/fixation3.jpg></div></div>","null","","","","","","",""
"html-keyboard-response","61","507073","0.0-6.0-2.18","5bf0cb0411439b000168edda","bdp_sd","Sun Mar 26 2023 23:54:18 GMT-0400 (Eastern Daylight Time)","534253","","","","offer","","","1822","","","<div class='trialBorder'><div class='vertical-center'><img style='vertical-align:center; align:center' src=img/fixation3.jpg></div><div class='cl'><div class='vertical-center'>$49<br>for<br>yourself</div></div><div class='cr'><div class='vertical-center'>$60<br>for<br>alissa b</div></div><div class='respDivL'><div class='vertical-center'>(E)</div></div><div class='respDivR'><div class='vertical-center'>(I)</div></div></div>","I","$49<br>for<br>yourself","$60<br>for<br>4","0","49","60","4","OTHER"
"html-keyboard-response","62","507324","0.0-6.0-3.18","5bf0cb0411439b000168edda","bdp_sd","Sun Mar 26 2023 23:54:18 GMT-0400 (Eastern Daylight Time)","534253","","","","offerFB","","","null","","","<div class='trialBorder'><div class='vertical-center'><img style='vertical-align:center; align:center' src=img/fixation3.jpg></div><div class='cl'><div class='vertical-center'>$49<br>for<br>yourself</div></div><div class='cr'><div class='vertical-center'><font style='color:orange'>$60<br>for<br>alissa b</font></div></div><div class='respDivL'><div class='vertical-center'>(E)</div></div><div class='respDivR'><div class='vertical-center'><font style='color:orange'>(I)</font></div></div></div>","null","$49<br>for<br>yourself","$60<br>for<br>4","0","49","60","4",""
"html-keyboard-response","63","507826","0.0-6.0-1.19","5bf0cb0411439b000168edda","bdp_sd","Sun Mar 26 2023 23:54:18 GMT-0400 (Eastern Daylight Time)","534253","","","","FIX","","","null","","","<div class='trialBorder'><div class='vertical-center'><img style='vertical-align:center; align:center' src=img/fixation3.jpg></div></div>","null","","","","","","",""
"html-keyboard-response","64","509425","0.0-6.0-2.19","5bf0cb0411439b000168edda","bdp_sd","Sun Mar 26 2023 23:54:18 GMT-0400 (Eastern Daylight Time)","534253","","","","offer","","","1599","","","<div class='trialBorder'><div class='vertical-center'><img style='vertical-align:center; align:center' src=img/fixation3.jpg></div><div class='cl'><div class='vertical-center'>$11<br>for<br>yourself</div></div><div class='cr'><div class='vertical-center'>$30<br>for<br>diesel t</div></div><div class='respDivL'><div class='vertical-center'>(E)</div></div><div class='respDivR'><div class='vertical-center'>(I)</div></div></div>","I","$11<br>for<br>yourself","$30<br>for<br>2","0","11","30","2","OTHER"
"html-keyboard-response","65","509676","0.0-6.0-3.19","5bf0cb0411439b000168edda","bdp_sd","Sun Mar 26 2023 23:54:18 GMT-0400 (Eastern Daylight Time)","534253","","","","offerFB","","","null","","","<div class='trialBorder'><div class='vertical-center'><img style='vertical-align:center; align:center' src=img/fixation3.jpg></div><div class='cl'><div class='vertical-center'>$11<br>for<br>yourself</div></div><div class='cr'><div class='vertical-center'><font style='color:orange'>$30<br>for<br>diesel t</font></div></div><div class='respDivL'><div class='vertical-center'>(E)</div></div><div class='respDivR'><div class='vertical-center'><font style='color:orange'>(I)</font></div></div></div>","null","$11<br>for<br>yourself","$30<br>for<br>2","0","11","30","2",""
"html-keyboard-response","66","510177","0.0-6.0-1.20","5bf0cb0411439b000168edda","bdp_sd","Sun Mar 26 2023 23:54:18 GMT-0400 (Eastern Daylight Time)","534253","","","","FIX","","","null","","","<div class='trialBorder'><div class='vertical-center'><img style='vertical-align:center; align:center' src=img/fixation3.jpg></div></div>","null","","","","","","",""
"html-keyboard-response","67","511704","0.0-6.0-2.20","5bf0cb0411439b000168edda","bdp_sd","Sun Mar 26 2023 23:54:18 GMT-0400 (Eastern Daylight Time)","534253","","","","offer","","","1526","","","<div class='trialBorder'><div class='vertical-center'><img style='vertical-align:center; align:center' src=img/fixation3.jpg></div><div class='cl'><div class='vertical-center'>$60<br>for<br>brandi b</div></div><div class='cr'><div class='vertical-center'>$54<br>for<br>yourself</div></div><div class='respDivL'><div class='vertical-center'>(E)</div></div><div class='respDivR'><div class='vertical-center'>(I)</div></div></div>","I","$54<br>for<br>yourself","$60<br>for<br>5","1","54","60","5","SELF"
"html-keyboard-response","68","511955","0.0-6.0-3.20","5bf0cb0411439b000168edda","bdp_sd","Sun Mar 26 2023 23:54:18 GMT-0400 (Eastern Daylight Time)","534253","","","","offerFB","","","null","","","<div class='trialBorder'><div class='vertical-center'><img style='vertical-align:center; align:center' src=img/fixation3.jpg></div><div class='cl'><div class='vertical-center'>$60<br>for<br>brandi b</div></div><div class='cr'><div class='vertical-center'><font style='color:orange'>$54<br>for<br>yourself</font></div></div><div class='respDivL'><div class='vertical-center'>(E)</div></div><div class='respDivR'><div class='vertical-center'><font style='color:orange'>(I)</font></div></div></div>","null","$54<br>for<br>yourself","$60<br>for<br>5","1","54","60","5",""
"html-keyboard-response","69","512457","0.0-6.0-1.21","5bf0cb0411439b000168edda","bdp_sd","Sun Mar 26 2023 23:54:18 GMT-0400 (Eastern Daylight Time)","534253","","","","FIX","","","null","","","<div class='trialBorder'><div class='vertical-center'><img style='vertical-align:center; align:center' src=img/fixation3.jpg></div></div>","null","","","","","","",""
"html-keyboard-response","70","514769","0.0-6.0-2.21","5bf0cb0411439b000168edda","bdp_sd","Sun Mar 26 2023 23:54:18 GMT-0400 (Eastern Daylight Time)","534253","","","","offer","","","2312","","","<div class='trialBorder'><div class='vertical-center'><img style='vertical-align:center; align:center' src=img/fixation3.jpg></div><div class='cl'><div class='vertical-center'>$55<br>for<br>lucero m</div></div><div class='cr'><div class='vertical-center'>$20<br>for<br>yourself</div></div><div class='respDivL'><div class='vertical-center'>(E)</div></div><div class='respDivR'><div class='vertical-center'>(I)</div></div></div>","E","$20<br>for<br>yourself","$55<br>for<br>1","1","20","55","1","OTHER"
"html-keyboard-response","71","515020","0.0-6.0-3.21","5bf0cb0411439b000168edda","bdp_sd","Sun Mar 26 2023 23:54:18 GMT-0400 (Eastern Daylight Time)","534253","","","","offerFB","","","null","","","<div class='trialBorder'><div class='vertical-center'><img style='vertical-align:center; align:center' src=img/fixation3.jpg></div><div class='cl'><div class='vertical-center'><font style='color:orange'>$55<br>for<br>lucero m</font></div></div><div class='cr'><div class='vertical-center'>$20<br>for<br>yourself</div></div><div class='respDivL'><div class='vertical-center'><font style='color:orange'>(E)</font></div></div><div class='respDivR'><div class='vertical-center'>(I)</div></div></div>","null","$20<br>for<br>yourself","$55<br>for<br>1","1","20","55","1",""
"html-keyboard-response","72","515521","0.0-6.0-1.22","5bf0cb0411439b000168edda","bdp_sd","Sun Mar 26 2023 23:54:18 GMT-0400 (Eastern Daylight Time)","534253","","","","FIX","","","null","","","<div class='trialBorder'><div class='vertical-center'><img style='vertical-align:center; align:center' src=img/fixation3.jpg></div></div>","null","","","","","","",""
"html-keyboard-response","73","517297","0.0-6.0-2.22","5bf0cb0411439b000168edda","bdp_sd","Sun Mar 26 2023 23:54:18 GMT-0400 (Eastern Daylight Time)","534253","","","","offer","","","1775","","","<div class='trialBorder'><div class='vertical-center'><img style='vertical-align:center; align:center' src=img/fixation3.jpg></div><div class='cl'><div class='vertical-center'>$80<br>for<br>yourself</div></div><div class='cr'><div class='vertical-center'>$85<br>for<br>brandi b</div></div><div class='respDivL'><div class='vertical-center'>(E)</div></div><div class='respDivR'><div class='vertical-center'>(I)</div></div></div>","E","$80<br>for<br>yourself","$85<br>for<br>5","0","80","85","5","SELF"
"html-keyboard-response","74","517549","0.0-6.0-3.22","5bf0cb0411439b000168edda","bdp_sd","Sun Mar 26 2023 23:54:18 GMT-0400 (Eastern Daylight Time)","534253","","","","offerFB","","","null","","","<div class='trialBorder'><div class='vertical-center'><img style='vertical-align:center; align:center' src=img/fixation3.jpg></div><div class='cl'><div class='vertical-center'><font style='color:orange'>$80<br>for<br>yourself</font></div></div><div class='cr'><div class='vertical-center'>$85<br>for<br>brandi b</div></div><div class='respDivL'><div class='vertical-center'><font style='color:orange'>(E)</font></div></div><div class='respDivR'><div class='vertical-center'>(I)</div></div></div>","null","$80<br>for<br>yourself","$85<br>for<br>5","0","80","85","5",""
"html-keyboard-response","75","518050","0.0-6.0-1.23","5bf0cb0411439b000168edda","bdp_sd","Sun Mar 26 2023 23:54:18 GMT-0400 (Eastern Daylight Time)","534253","","","","FIX","","","null","","","<div class='trialBorder'><div class='vertical-center'><img style='vertical-align:center; align:center' src=img/fixation3.jpg></div></div>","null","","","","","","",""
"html-keyboard-response","76","521336","0.0-6.0-2.23","5bf0cb0411439b000168edda","bdp_sd","Sun Mar 26 2023 23:54:18 GMT-0400 (Eastern Daylight Time)","534253","","","","offer","","","3285","","","<div class='trialBorder'><div class='vertical-center'><img style='vertical-align:center; align:center' src=img/fixation3.jpg></div><div class='cl'><div class='vertical-center'>$80<br>for<br>brandi b</div></div><div class='cr'><div class='vertical-center'>$78<br>for<br>yourself</div></div><div class='respDivL'><div class='vertical-center'>(E)</div></div><div class='respDivR'><div class='vertical-center'>(I)</div></div></div>","I","$78<br>for<br>yourself","$80<br>for<br>5","1","78","80","5","SELF"
"html-keyboard-response","77","521587","0.0-6.0-3.23","5bf0cb0411439b000168edda","bdp_sd","Sun Mar 26 2023 23:54:18 GMT-0400 (Eastern Daylight Time)","534253","","","","offerFB","","","null","","","<div class='trialBorder'><div class='vertical-center'><img style='vertical-align:center; align:center' src=img/fixation3.jpg></div><div class='cl'><div class='vertical-center'>$80<br>for<br>brandi b</div></div><div class='cr'><div class='vertical-center'><font style='color:orange'>$78<br>for<br>yourself</font></div></div><div class='respDivL'><div class='vertical-center'>(E)</div></div><div class='respDivR'><div class='vertical-center'><font style='color:orange'>(I)</font></div></div></div>","null","$78<br>for<br>yourself","$80<br>for<br>5","1","78","80","5",""
"html-keyboard-response","78","522089","0.0-6.0-1.24","5bf0cb0411439b000168edda","bdp_sd","Sun Mar 26 2023 23:54:18 GMT-0400 (Eastern Daylight Time)","534253","","","","FIX","","","null","","","<div class='trialBorder'><div class='vertical-center'><img style='vertical-align:center; align:center' src=img/fixation3.jpg></div></div>","null","","","","","","",""
"html-keyboard-response","79","523744","0.0-6.0-2.24","5bf0cb0411439b000168edda","bdp_sd","Sun Mar 26 2023 23:54:18 GMT-0400 (Eastern Daylight Time)","534253","","","","offer","","","1654","","","<div class='trialBorder'><div class='vertical-center'><img style='vertical-align:center; align:center' src=img/fixation3.jpg></div><div class='cl'><div class='vertical-center'>$80<br>for<br>diesel t</div></div><div class='cr'><div class='vertical-center'>$33<br>for<br>yourself</div></div><div class='respDivL'><div class='vertical-center'>(E)</div></div><div class='respDivR'><div class='vertical-center'>(I)</div></div></div>","E","$33<br>for<br>yourself","$80<br>for<br>2","1","33","80","2","OTHER"
"html-keyboard-response","80","523995","0.0-6.0-3.24","5bf0cb0411439b000168edda","bdp_sd","Sun Mar 26 2023 23:54:18 GMT-0400 (Eastern Daylight Time)","534253","","","","offerFB","","","null","","","<div class='trialBorder'><div class='vertical-center'><img style='vertical-align:center; align:center' src=img/fixation3.jpg></div><div class='cl'><div class='vertical-center'><font style='color:orange'>$80<br>for<br>diesel t</font></div></div><div class='cr'><div class='vertical-center'>$33<br>for<br>yourself</div></div><div class='respDivL'><div class='vertical-center'><font style='color:orange'>(E)</font></div></div><div class='respDivR'><div class='vertical-center'>(I)</div></div></div>","null","$33<br>for<br>yourself","$80<br>for<br>2","1","33","80","2",""
"html-keyboard-response","81","524496","0.0-6.0-1.25","5bf0cb0411439b000168edda","bdp_sd","Sun Mar 26 2023 23:54:18 GMT-0400 (Eastern Daylight Time)","534253","","","","FIX","","","null","","","<div class='trialBorder'><div class='vertical-center'><img style='vertical-align:center; align:center' src=img/fixation3.jpg></div></div>","null","","","","","","",""
"html-keyboard-response","82","527368","0.0-6.0-2.25","5bf0cb0411439b000168edda","bdp_sd","Sun Mar 26 2023 23:54:18 GMT-0400 (Eastern Daylight Time)","534253","","","","offer","","","2871","","","<div class='trialBorder'><div class='vertical-center'><img style='vertical-align:center; align:center' src=img/fixation3.jpg></div><div class='cl'><div class='vertical-center'>$15<br>for<br>yourself</div></div><div class='cr'><div class='vertical-center'>$35<br>for<br>diesel t</div></div><div class='respDivL'><div class='vertical-center'>(E)</div></div><div class='respDivR'><div class='vertical-center'>(I)</div></div></div>","I","$15<br>for<br>yourself","$35<br>for<br>2","0","15","35","2","OTHER"
"html-keyboard-response","83","527620","0.0-6.0-3.25","5bf0cb0411439b000168edda","bdp_sd","Sun Mar 26 2023 23:54:18 GMT-0400 (Eastern Daylight Time)","534253","","","","offerFB","","","null","","","<div class='trialBorder'><div class='vertical-center'><img style='vertical-align:center; align:center' src=img/fixation3.jpg></div><div class='cl'><div class='vertical-center'>$15<br>for<br>yourself</div></div><div class='cr'><div class='vertical-center'><font style='color:orange'>$35<br>for<br>diesel t</font></div></div><div class='respDivL'><div class='vertical-center'>(E)</div></div><div class='respDivR'><div class='vertical-center'><font style='color:orange'>(I)</font></div></div></div>","null","$15<br>for<br>yourself","$35<br>for<br>2","0","15","35","2",""
"html-keyboard-response","84","528121","0.0-6.0-1.26","5bf0cb0411439b000168edda","bdp_sd","Sun Mar 26 2023 23:54:18 GMT-0400 (Eastern Daylight Time)","534253","","","","FIX","","","null","","","<div class='trialBorder'><div class='vertical-center'><img style='vertical-align:center; align:center' src=img/fixation3.jpg></div></div>","null","","","","","","",""
"html-keyboard-response","85","533000","0.0-6.0-2.26","5bf0cb0411439b000168edda","bdp_sd","Sun Mar 26 2023 23:54:18 GMT-0400 (Eastern Daylight Time)","534253","","","","offer","","","4879","","","<div class='trialBorder'><div class='vertical-center'><img style='vertical-align:center; align:center' src=img/fixation3.jpg></div><div class='cl'><div class='vertical-center'>$25<br>for<br>yourself</div></div><div class='cr'><div class='vertical-center'>$60<br>for<br>shay g</div></div><div class='respDivL'><div class='vertical-center'>(E)</div></div><div class='respDivR'><div class='vertical-center'>(I)</div></div></div>","I","$25<br>for<br>yourself","$60<br>for<br>3","0","25","60","3","OTHER"
"html-keyboard-response","86","533252","0.0-6.0-3.26","5bf0cb0411439b000168edda","bdp_sd","Sun Mar 26 2023 23:54:18 GMT-0400 (Eastern Daylight Time)","534253","","","","offerFB","","","null","","","<div class='trialBorder'><div class='vertical-center'><img style='vertical-align:center; align:center' src=img/fixation3.jpg></div><div class='cl'><div class='vertical-center'>$25<br>for<br>yourself</div></div><div class='cr'><div class='vertical-center'><font style='color:orange'>$60<br>for<br>shay g</font></div></div><div class='respDivL'><div class='vertical-center'>(E)</div></div><div class='respDivR'><div class='vertical-center'><font style='color:orange'>(I)</font></div></div></div>","null","$25<br>for<br>yourself","$60<br>for<br>3","0","25","60","3",""
"","","","","5bf0cb0411439b000168edda","bdp_sd","Sun Mar 26 2023 23:54:18 GMT-0400 (Eastern Daylight Time)","534253","fullscreenexit","87","533263","fullscreenexit","","","","","","","","","","","","","",""
"fullscreen","87","534253","0.0-7.0","5bf0cb0411439b000168edda","bdp_sd","Sun Mar 26 2023 23:54:18 GMT-0400 (Eastern Daylight Time)","534253","","","","","","","","","true","","","","","","","","",""
"html-keyboard-response","88","534754","0.0-8.0","","","","","","","","","","","null","","","","null","","","","","","",""
