"trial_type","trial_index","time_elapsed","internal_node_id","subject_id","task","startTime","totalTime","view_history","rt","responses","event","trial","time","trialtype","success","stimulus","key_press","selfOffer","otherOffer","otherLeft","selfAmt","otherAmt","otherDist","chosen"
"pavlovia","0","5","0.0-0.0","63ed1fa5c88ecae92bf0c920","bdp_sd","Sun Mar 26 2023 11:18:52 GMT-0400 (Eastern Daylight Time)","159316","","","","","","","","","","","","","","","","",""
"instructions","1","2692","0.0-1.0","63ed1fa5c88ecae92bf0c920","bdp_sd","Sun Mar 26 2023 11:18:52 GMT-0400 (Eastern Daylight Time)","159316","[{""page_index"":0,""viewing_time"":2685}]","2686","","","","","","","","","","","","","","",""
"survey-text","2","51016","0.0-2.0","63ed1fa5c88ecae92bf0c920","bdp_sd","Sun Mar 26 2023 11:18:52 GMT-0400 (Eastern Daylight Time)","159316","","48322","{""Q0"":""Josh B"",""Q1"":""Carl S"",""Q2"":""Carlos A"",""Q3"":""Brandon J"",""Q4"":""Mike M""}","","","","","","","","","","","","","",""
"","","","","63ed1fa5c88ecae92bf0c920","bdp_sd","Sun Mar 26 2023 11:18:52 GMT-0400 (Eastern Daylight Time)","159316","","","","fullscreenenter","3","53454","fullscreenenter","","","","","","","","","",""
"fullscreen","3","54445","0.0-3.0","63ed1fa5c88ecae92bf0c920","bdp_sd","Sun Mar 26 2023 11:18:52 GMT-0400 (Eastern Daylight Time)","159316","","","","","","","","true","","","","","","","","",""
"instructions","4","76846","0.0-5.0","63ed1fa5c88ecae92bf0c920","bdp_sd","Sun Mar 26 2023 11:18:52 GMT-0400 (Eastern Daylight Time)","159316","[{""page_index"":0,""viewing_time"":11389},{""page_index"":1,""viewing_time"":5873},{""page_index"":2,""viewing_time"":5138}]","22400","","","","","","","","","","","","","","",""
"html-keyboard-response","5","77351","0.0-6.0-1.0","63ed1fa5c88ecae92bf0c920","bdp_sd","Sun Mar 26 2023 11:18:52 GMT-0400 (Eastern Daylight Time)","159316","","null","","","","","FIX","","<div class='trialBorder'><div class='vertical-center'><img style='vertical-align:center; align:center' src=img/fixation3.jpg></div></div>","null","","","","","","",""
"html-keyboard-response","6","86769","0.0-6.0-2.0","63ed1fa5c88ecae92bf0c920","bdp_sd","Sun Mar 26 2023 11:18:52 GMT-0400 (Eastern Daylight Time)","159316","","9415","","","","","offer","","<div class='trialBorder'><div class='vertical-center'><img style='vertical-align:center; align:center' src=img/fixation3.jpg></div><div class='cl'><div class='vertical-center'>$20<br>for<br>yourself</div></div><div class='cr'><div class='vertical-center'>$55<br>for<br>Josh B</div></div><div class='respDivL'><div class='vertical-center'>(E)</div></div><div class='respDivR'><div class='vertical-center'>(I)</div></div></div>","E","$20<br>for<br>yourself","$55<br>for<br>1","0","20","55","1","SELF"
"html-keyboard-response","7","87023","0.0-6.0-3.0","63ed1fa5c88ecae92bf0c920","bdp_sd","Sun Mar 26 2023 11:18:52 GMT-0400 (Eastern Daylight Time)","159316","","null","","","","","offerFB","","<div class='trialBorder'><div class='vertical-center'><img style='vertical-align:center; align:center' src=img/fixation3.jpg></div><div class='cl'><div class='vertical-center'><font style='color:orange'>$20<br>for<br>yourself</font></div></div><div class='cr'><div class='vertical-center'>$55<br>for<br>Josh B</div></div><div class='respDivL'><div class='vertical-center'><font style='color:orange'>(E)</font></div></div><div class='respDivR'><div class='vertical-center'>(I)</div></div></div>","null","$20<br>for<br>yourself","$55<br>for<br>1","0","20","55","1",""
"html-keyboard-response","8","87526","0.0-6.0-1.1","63ed1fa5c88ecae92bf0c920","bdp_sd","Sun Mar 26 2023 11:18:52 GMT-0400 (Eastern Daylight Time)","159316","","null","","","","","FIX","","<div class='trialBorder'><div class='vertical-center'><img style='vertical-align:center; align:center' src=img/fixation3.jpg></div></div>","null","","","","","","",""
"html-keyboard-response","9","89521","0.0-6.0-2.1","63ed1fa5c88ecae92bf0c920","bdp_sd","Sun Mar 26 2023 11:18:52 GMT-0400 (Eastern Daylight Time)","159316","","1993","","","","","offer","","<div class='trialBorder'><div class='vertical-center'><img style='vertical-align:center; align:center' src=img/fixation3.jpg></div><div class='cl'><div class='vertical-center'>$25<br>for<br>yourself</div></div><div class='cr'><div class='vertical-center'>$60<br>for<br>Carlos A</div></div><div class='respDivL'><div class='vertical-center'>(E)</div></div><div class='respDivR'><div class='vertical-center'>(I)</div></div></div>","E","$25<br>for<br>yourself","$60<br>for<br>3","0","25","60","3","SELF"
"html-keyboard-response","10","89781","0.0-6.0-3.1","63ed1fa5c88ecae92bf0c920","bdp_sd","Sun Mar 26 2023 11:18:52 GMT-0400 (Eastern Daylight Time)","159316","","null","","","","","offerFB","","<div class='trialBorder'><div class='vertical-center'><img style='vertical-align:center; align:center' src=img/fixation3.jpg></div><div class='cl'><div class='vertical-center'><font style='color:orange'>$25<br>for<br>yourself</font></div></div><div class='cr'><div class='vertical-center'>$60<br>for<br>Carlos A</div></div><div class='respDivL'><div class='vertical-center'><font style='color:orange'>(E)</font></div></div><div class='respDivR'><div class='vertical-center'>(I)</div></div></div>","null","$25<br>for<br>yourself","$60<br>for<br>3","0","25","60","3",""
"html-keyboard-response","11","90283","0.0-6.0-1.2","63ed1fa5c88ecae92bf0c920","bdp_sd","Sun Mar 26 2023 11:18:52 GMT-0400 (Eastern Daylight Time)","159316","","null","","","","","FIX","","<div class='trialBorder'><div class='vertical-center'><img style='vertical-align:center; align:center' src=img/fixation3.jpg></div></div>","null","","","","","","",""
"html-keyboard-response","12","91836","0.0-6.0-2.2","63ed1fa5c88ecae92bf0c920","bdp_sd","Sun Mar 26 2023 11:18:52 GMT-0400 (Eastern Daylight Time)","159316","","1551","","","","","offer","","<div class='trialBorder'><div class='vertical-center'><img style='vertical-align:center; align:center' src=img/fixation3.jpg></div><div class='cl'><div class='vertical-center'>$50<br>for<br>Brandon J</div></div><div class='cr'><div class='vertical-center'>$34<br>for<br>yourself</div></div><div class='respDivL'><div class='vertical-center'>(E)</div></div><div class='respDivR'><div class='vertical-center'>(I)</div></div></div>","I","$34<br>for<br>yourself","$50<br>for<br>4","1","34","50","4","SELF"
"html-keyboard-response","13","92089","0.0-6.0-3.2","63ed1fa5c88ecae92bf0c920","bdp_sd","Sun Mar 26 2023 11:18:52 GMT-0400 (Eastern Daylight Time)","159316","","null","","","","","offerFB","","<div class='trialBorder'><div class='vertical-center'><img style='vertical-align:center; align:center' src=img/fixation3.jpg></div><div class='cl'><div class='vertical-center'>$50<br>for<br>Brandon J</div></div><div class='cr'><div class='vertical-center'><font style='color:orange'>$34<br>for<br>yourself</font></div></div><div class='respDivL'><div class='vertical-center'>(E)</div></div><div class='respDivR'><div class='vertical-center'><font style='color:orange'>(I)</font></div></div></div>","null","$34<br>for<br>yourself","$50<br>for<br>4","1","34","50","4",""
"html-keyboard-response","14","92591","0.0-6.0-1.3","63ed1fa5c88ecae92bf0c920","bdp_sd","Sun Mar 26 2023 11:18:52 GMT-0400 (Eastern Daylight Time)","159316","","null","","","","","FIX","","<div class='trialBorder'><div class='vertical-center'><img style='vertical-align:center; align:center' src=img/fixation3.jpg></div></div>","null","","","","","","",""
"html-keyboard-response","15","94418","0.0-6.0-2.3","63ed1fa5c88ecae92bf0c920","bdp_sd","Sun Mar 26 2023 11:18:52 GMT-0400 (Eastern Daylight Time)","159316","","1826","","","","","offer","","<div class='trialBorder'><div class='vertical-center'><img style='vertical-align:center; align:center' src=img/fixation3.jpg></div><div class='cl'><div class='vertical-center'>$35<br>for<br>Carlos A</div></div><div class='cr'><div class='vertical-center'>$24<br>for<br>yourself</div></div><div class='respDivL'><div class='vertical-center'>(E)</div></div><div class='respDivR'><div class='vertical-center'>(I)</div></div></div>","I","$24<br>for<br>yourself","$35<br>for<br>3","1","24","35","3","SELF"
"html-keyboard-response","16","94670","0.0-6.0-3.3","63ed1fa5c88ecae92bf0c920","bdp_sd","Sun Mar 26 2023 11:18:52 GMT-0400 (Eastern Daylight Time)","159316","","null","","","","","offerFB","","<div class='trialBorder'><div class='vertical-center'><img style='vertical-align:center; align:center' src=img/fixation3.jpg></div><div class='cl'><div class='vertical-center'>$35<br>for<br>Carlos A</div></div><div class='cr'><div class='vertical-center'><font style='color:orange'>$24<br>for<br>yourself</font></div></div><div class='respDivL'><div class='vertical-center'>(E)</div></div><div class='respDivR'><div class='vertical-center'><font style='color:orange'>(I)</font></div></div></div>","null","$24<br>for<br>yourself","$35<br>for<br>3","1","24","35","3",""
"html-keyboard-response","17","95173","0.0-6.0-1.4","63ed1fa5c88ecae92bf0c920","bdp_sd","Sun Mar 26 2023 11:18:52 GMT-0400 (Eastern Daylight Time)","159316","","null","","","","","FIX","","<div class='trialBorder'><div class='vertical-center'><img style='vertical-align:center; align:center' src=img/fixation3.jpg></div></div>","null","","","","","","",""
"html-keyboard-response","18","97595","0.0-6.0-2.4","63ed1fa5c88ecae92bf0c920","bdp_sd","Sun Mar 26 2023 11:18:52 GMT-0400 (Eastern Daylight Time)","159316","","2421","","","","","offer","","<div class='trialBorder'><div class='vertical-center'><img style='vertical-align:center; align:center' src=img/fixation3.jpg></div><div class='cl'><div class='vertical-center'>$49<br>for<br>yourself</div></div><div class='cr'><div class='vertical-center'>$60<br>for<br>Brandon J</div></div><div class='respDivL'><div class='vertical-center'>(E)</div></div><div class='respDivR'><div class='vertical-center'>(I)</div></div></div>","E","$49<br>for<br>yourself","$60<br>for<br>4","0","49","60","4","SELF"
"html-keyboard-response","19","97848","0.0-6.0-3.4","63ed1fa5c88ecae92bf0c920","bdp_sd","Sun Mar 26 2023 11:18:52 GMT-0400 (Eastern Daylight Time)","159316","","null","","","","","offerFB","","<div class='trialBorder'><div class='vertical-center'><img style='vertical-align:center; align:center' src=img/fixation3.jpg></div><div class='cl'><div class='vertical-center'><font style='color:orange'>$49<br>for<br>yourself</font></div></div><div class='cr'><div class='vertical-center'>$60<br>for<br>Brandon J</div></div><div class='respDivL'><div class='vertical-center'><font style='color:orange'>(E)</font></div></div><div class='respDivR'><div class='vertical-center'>(I)</div></div></div>","null","$49<br>for<br>yourself","$60<br>for<br>4","0","49","60","4",""
"html-keyboard-response","20","98350","0.0-6.0-1.5","63ed1fa5c88ecae92bf0c920","bdp_sd","Sun Mar 26 2023 11:18:52 GMT-0400 (Eastern Daylight Time)","159316","","null","","","","","FIX","","<div class='trialBorder'><div class='vertical-center'><img style='vertical-align:center; align:center' src=img/fixation3.jpg></div></div>","null","","","","","","",""
"html-keyboard-response","21","99465","0.0-6.0-2.5","63ed1fa5c88ecae92bf0c920","bdp_sd","Sun Mar 26 2023 11:18:52 GMT-0400 (Eastern Daylight Time)","159316","","1114","","","","","offer","","<div class='trialBorder'><div class='vertical-center'><img style='vertical-align:center; align:center' src=img/fixation3.jpg></div><div class='cl'><div class='vertical-center'>$55<br>for<br>Mike M</div></div><div class='cr'><div class='vertical-center'>$54<br>for<br>yourself</div></div><div class='respDivL'><div class='vertical-center'>(E)</div></div><div class='respDivR'><div class='vertical-center'>(I)</div></div></div>","I","$54<br>for<br>yourself","$55<br>for<br>5","1","54","55","5","SELF"
"html-keyboard-response","22","99718","0.0-6.0-3.5","63ed1fa5c88ecae92bf0c920","bdp_sd","Sun Mar 26 2023 11:18:52 GMT-0400 (Eastern Daylight Time)","159316","","null","","","","","offerFB","","<div class='trialBorder'><div class='vertical-center'><img style='vertical-align:center; align:center' src=img/fixation3.jpg></div><div class='cl'><div class='vertical-center'>$55<br>for<br>Mike M</div></div><div class='cr'><div class='vertical-center'><font style='color:orange'>$54<br>for<br>yourself</font></div></div><div class='respDivL'><div class='vertical-center'>(E)</div></div><div class='respDivR'><div class='vertical-center'><font style='color:orange'>(I)</font></div></div></div>","null","$54<br>for<br>yourself","$55<br>for<br>5","1","54","55","5",""
"html-keyboard-response","23","100220","0.0-6.0-1.6","63ed1fa5c88ecae92bf0c920","bdp_sd","Sun Mar 26 2023 11:18:52 GMT-0400 (Eastern Daylight Time)","159316","","null","","","","","FIX","","<div class='trialBorder'><div class='vertical-center'><img style='vertical-align:center; align:center' src=img/fixation3.jpg></div></div>","null","","","","","","",""
"html-keyboard-response","24","101244","0.0-6.0-2.6","63ed1fa5c88ecae92bf0c920","bdp_sd","Sun Mar 26 2023 11:18:52 GMT-0400 (Eastern Daylight Time)","159316","","1023","","","","","offer","","<div class='trialBorder'><div class='vertical-center'><img style='vertical-align:center; align:center' src=img/fixation3.jpg></div><div class='cl'><div class='vertical-center'>$35<br>for<br>Mike M</div></div><div class='cr'><div class='vertical-center'>$34<br>for<br>yourself</div></div><div class='respDivL'><div class='vertical-center'>(E)</div></div><div class='respDivR'><div class='vertical-center'>(I)</div></div></div>","I","$34<br>for<br>yourself","$35<br>for<br>5","1","34","35","5","SELF"
"html-keyboard-response","25","101497","0.0-6.0-3.6","63ed1fa5c88ecae92bf0c920","bdp_sd","Sun Mar 26 2023 11:18:52 GMT-0400 (Eastern Daylight Time)","159316","","null","","","","","offerFB","","<div class='trialBorder'><div class='vertical-center'><img style='vertical-align:center; align:center' src=img/fixation3.jpg></div><div class='cl'><div class='vertical-center'>$35<br>for<br>Mike M</div></div><div class='cr'><div class='vertical-center'><font style='color:orange'>$34<br>for<br>yourself</font></div></div><div class='respDivL'><div class='vertical-center'>(E)</div></div><div class='respDivR'><div class='vertical-center'><font style='color:orange'>(I)</font></div></div></div>","null","$34<br>for<br>yourself","$35<br>for<br>5","1","34","35","5",""
"html-keyboard-response","26","101999","0.0-6.0-1.7","63ed1fa5c88ecae92bf0c920","bdp_sd","Sun Mar 26 2023 11:18:52 GMT-0400 (Eastern Daylight Time)","159316","","null","","","","","FIX","","<div class='trialBorder'><div class='vertical-center'><img style='vertical-align:center; align:center' src=img/fixation3.jpg></div></div>","null","","","","","","",""
"html-keyboard-response","27","103269","0.0-6.0-2.7","63ed1fa5c88ecae92bf0c920","bdp_sd","Sun Mar 26 2023 11:18:52 GMT-0400 (Eastern Daylight Time)","159316","","1269","","","","","offer","","<div class='trialBorder'><div class='vertical-center'><img style='vertical-align:center; align:center' src=img/fixation3.jpg></div><div class='cl'><div class='vertical-center'>$25<br>for<br>Carlos A</div></div><div class='cr'><div class='vertical-center'>$14<br>for<br>yourself</div></div><div class='respDivL'><div class='vertical-center'>(E)</div></div><div class='respDivR'><div class='vertical-center'>(I)</div></div></div>","I","$14<br>for<br>yourself","$25<br>for<br>3","1","14","25","3","SELF"
"html-keyboard-response","28","103523","0.0-6.0-3.7","63ed1fa5c88ecae92bf0c920","bdp_sd","Sun Mar 26 2023 11:18:52 GMT-0400 (Eastern Daylight Time)","159316","","null","","","","","offerFB","","<div class='trialBorder'><div class='vertical-center'><img style='vertical-align:center; align:center' src=img/fixation3.jpg></div><div class='cl'><div class='vertical-center'>$25<br>for<br>Carlos A</div></div><div class='cr'><div class='vertical-center'><font style='color:orange'>$14<br>for<br>yourself</font></div></div><div class='respDivL'><div class='vertical-center'>(E)</div></div><div class='respDivR'><div class='vertical-center'><font style='color:orange'>(I)</font></div></div></div>","null","$14<br>for<br>yourself","$25<br>for<br>3","1","14","25","3",""
"html-keyboard-response","29","104025","0.0-6.0-1.8","63ed1fa5c88ecae92bf0c920","bdp_sd","Sun Mar 26 2023 11:18:52 GMT-0400 (Eastern Daylight Time)","159316","","null","","","","","FIX","","<div class='trialBorder'><div class='vertical-center'><img style='vertical-align:center; align:center' src=img/fixation3.jpg></div></div>","null","","","","","","",""
"html-keyboard-response","30","105379","0.0-6.0-2.8","63ed1fa5c88ecae92bf0c920","bdp_sd","Sun Mar 26 2023 11:18:52 GMT-0400 (Eastern Daylight Time)","159316","","1353","","","","","offer","","<div class='trialBorder'><div class='vertical-center'><img style='vertical-align:center; align:center' src=img/fixation3.jpg></div><div class='cl'><div class='vertical-center'>$85<br>for<br>Mike M</div></div><div class='cr'><div class='vertical-center'>$80<br>for<br>yourself</div></div><div class='respDivL'><div class='vertical-center'>(E)</div></div><div class='respDivR'><div class='vertical-center'>(I)</div></div></div>","I","$80<br>for<br>yourself","$85<br>for<br>5","1","80","85","5","SELF"
"html-keyboard-response","31","105631","0.0-6.0-3.8","63ed1fa5c88ecae92bf0c920","bdp_sd","Sun Mar 26 2023 11:18:52 GMT-0400 (Eastern Daylight Time)","159316","","null","","","","","offerFB","","<div class='trialBorder'><div class='vertical-center'><img style='vertical-align:center; align:center' src=img/fixation3.jpg></div><div class='cl'><div class='vertical-center'>$85<br>for<br>Mike M</div></div><div class='cr'><div class='vertical-center'><font style='color:orange'>$80<br>for<br>yourself</font></div></div><div class='respDivL'><div class='vertical-center'>(E)</div></div><div class='respDivR'><div class='vertical-center'><font style='color:orange'>(I)</font></div></div></div>","null","$80<br>for<br>yourself","$85<br>for<br>5","1","80","85","5",""
"html-keyboard-response","32","106133","0.0-6.0-1.9","63ed1fa5c88ecae92bf0c920","bdp_sd","Sun Mar 26 2023 11:18:52 GMT-0400 (Eastern Daylight Time)","159316","","null","","","","","FIX","","<div class='trialBorder'><div class='vertical-center'><img style='vertical-align:center; align:center' src=img/fixation3.jpg></div></div>","null","","","","","","",""
"html-keyboard-response","33","108185","0.0-6.0-2.9","63ed1fa5c88ecae92bf0c920","bdp_sd","Sun Mar 26 2023 11:18:52 GMT-0400 (Eastern Daylight Time)","159316","","2051","","","","","offer","","<div class='trialBorder'><div class='vertical-center'><img style='vertical-align:center; align:center' src=img/fixation3.jpg></div><div class='cl'><div class='vertical-center'>$60<br>for<br>Mike M</div></div><div class='cr'><div class='vertical-center'>$54<br>for<br>yourself</div></div><div class='respDivL'><div class='vertical-center'>(E)</div></div><div class='respDivR'><div class='vertical-center'>(I)</div></div></div>","I","$54<br>for<br>yourself","$60<br>for<br>5","1","54","60","5","SELF"
"html-keyboard-response","34","108438","0.0-6.0-3.9","63ed1fa5c88ecae92bf0c920","bdp_sd","Sun Mar 26 2023 11:18:52 GMT-0400 (Eastern Daylight Time)","159316","","null","","","","","offerFB","","<div class='trialBorder'><div class='vertical-center'><img style='vertical-align:center; align:center' src=img/fixation3.jpg></div><div class='cl'><div class='vertical-center'>$60<br>for<br>Mike M</div></div><div class='cr'><div class='vertical-center'><font style='color:orange'>$54<br>for<br>yourself</font></div></div><div class='respDivL'><div class='vertical-center'>(E)</div></div><div class='respDivR'><div class='vertical-center'><font style='color:orange'>(I)</font></div></div></div>","null","$54<br>for<br>yourself","$60<br>for<br>5","1","54","60","5",""
"html-keyboard-response","35","108940","0.0-6.0-1.10","63ed1fa5c88ecae92bf0c920","bdp_sd","Sun Mar 26 2023 11:18:52 GMT-0400 (Eastern Daylight Time)","159316","","null","","","","","FIX","","<div class='trialBorder'><div class='vertical-center'><img style='vertical-align:center; align:center' src=img/fixation3.jpg></div></div>","null","","","","","","",""
"html-keyboard-response","36","110169","0.0-6.0-2.10","63ed1fa5c88ecae92bf0c920","bdp_sd","Sun Mar 26 2023 11:18:52 GMT-0400 (Eastern Daylight Time)","159316","","1228","","","","","offer","","<div class='trialBorder'><div class='vertical-center'><img style='vertical-align:center; align:center' src=img/fixation3.jpg></div><div class='cl'><div class='vertical-center'>$50<br>for<br>Carlos A</div></div><div class='cr'><div class='vertical-center'>$27<br>for<br>yourself</div></div><div class='respDivL'><div class='vertical-center'>(E)</div></div><div class='respDivR'><div class='vertical-center'>(I)</div></div></div>","I","$27<br>for<br>yourself","$50<br>for<br>3","1","27","50","3","SELF"
"html-keyboard-response","37","110422","0.0-6.0-3.10","63ed1fa5c88ecae92bf0c920","bdp_sd","Sun Mar 26 2023 11:18:52 GMT-0400 (Eastern Daylight Time)","159316","","null","","","","","offerFB","","<div class='trialBorder'><div class='vertical-center'><img style='vertical-align:center; align:center' src=img/fixation3.jpg></div><div class='cl'><div class='vertical-center'>$50<br>for<br>Carlos A</div></div><div class='cr'><div class='vertical-center'><font style='color:orange'>$27<br>for<br>yourself</font></div></div><div class='respDivL'><div class='vertical-center'>(E)</div></div><div class='respDivR'><div class='vertical-center'><font style='color:orange'>(I)</font></div></div></div>","null","$27<br>for<br>yourself","$50<br>for<br>3","1","27","50","3",""
"html-keyboard-response","38","110924","0.0-6.0-1.11","63ed1fa5c88ecae92bf0c920","bdp_sd","Sun Mar 26 2023 11:18:52 GMT-0400 (Eastern Daylight Time)","159316","","null","","","","","FIX","","<div class='trialBorder'><div class='vertical-center'><img style='vertical-align:center; align:center' src=img/fixation3.jpg></div></div>","null","","","","","","",""
"html-keyboard-response","39","111598","0.0-6.0-2.11","63ed1fa5c88ecae92bf0c920","bdp_sd","Sun Mar 26 2023 11:18:52 GMT-0400 (Eastern Daylight Time)","159316","","673","","","","","offer","","<div class='trialBorder'><div class='vertical-center'><img style='vertical-align:center; align:center' src=img/fixation3.jpg></div><div class='cl'><div class='vertical-center'>$28<br>for<br>yourself</div></div><div class='cr'><div class='vertical-center'>$30<br>for<br>Mike M</div></div><div class='respDivL'><div class='vertical-center'>(E)</div></div><div class='respDivR'><div class='vertical-center'>(I)</div></div></div>","E","$28<br>for<br>yourself","$30<br>for<br>5","0","28","30","5","SELF"
"html-keyboard-response","40","111852","0.0-6.0-3.11","63ed1fa5c88ecae92bf0c920","bdp_sd","Sun Mar 26 2023 11:18:52 GMT-0400 (Eastern Daylight Time)","159316","","null","","","","","offerFB","","<div class='trialBorder'><div class='vertical-center'><img style='vertical-align:center; align:center' src=img/fixation3.jpg></div><div class='cl'><div class='vertical-center'><font style='color:orange'>$28<br>for<br>yourself</font></div></div><div class='cr'><div class='vertical-center'>$30<br>for<br>Mike M</div></div><div class='respDivL'><div class='vertical-center'><font style='color:orange'>(E)</font></div></div><div class='respDivR'><div class='vertical-center'>(I)</div></div></div>","null","$28<br>for<br>yourself","$30<br>for<br>5","0","28","30","5",""
"html-keyboard-response","41","112354","0.0-6.0-1.12","63ed1fa5c88ecae92bf0c920","bdp_sd","Sun Mar 26 2023 11:18:52 GMT-0400 (Eastern Daylight Time)","159316","","null","","","","","FIX","","<div class='trialBorder'><div class='vertical-center'><img style='vertical-align:center; align:center' src=img/fixation3.jpg></div></div>","null","","","","","","",""
"html-keyboard-response","42","113102","0.0-6.0-2.12","63ed1fa5c88ecae92bf0c920","bdp_sd","Sun Mar 26 2023 11:18:52 GMT-0400 (Eastern Daylight Time)","159316","","747","","","","","offer","","<div class='trialBorder'><div class='vertical-center'><img style='vertical-align:center; align:center' src=img/fixation3.jpg></div><div class='cl'><div class='vertical-center'>$69<br>for<br>yourself</div></div><div class='cr'><div class='vertical-center'>$85<br>for<br>Brandon J</div></div><div class='respDivL'><div class='vertical-center'>(E)</div></div><div class='respDivR'><div class='vertical-center'>(I)</div></div></div>","E","$69<br>for<br>yourself","$85<br>for<br>4","0","69","85","4","SELF"
"html-keyboard-response","43","113355","0.0-6.0-3.12","63ed1fa5c88ecae92bf0c920","bdp_sd","Sun Mar 26 2023 11:18:52 GMT-0400 (Eastern Daylight Time)","159316","","null","","","","","offerFB","","<div class='trialBorder'><div class='vertical-center'><img style='vertical-align:center; align:center' src=img/fixation3.jpg></div><div class='cl'><div class='vertical-center'><font style='color:orange'>$69<br>for<br>yourself</font></div></div><div class='cr'><div class='vertical-center'>$85<br>for<br>Brandon J</div></div><div class='respDivL'><div class='vertical-center'><font style='color:orange'>(E)</font></div></div><div class='respDivR'><div class='vertical-center'>(I)</div></div></div>","null","$69<br>for<br>yourself","$85<br>for<br>4","0","69","85","4",""
"html-keyboard-response","44","113857","0.0-6.0-1.13","63ed1fa5c88ecae92bf0c920","bdp_sd","Sun Mar 26 2023 11:18:52 GMT-0400 (Eastern Daylight Time)","159316","","null","","","","","FIX","","<div class='trialBorder'><div class='vertical-center'><img style='vertical-align:center; align:center' src=img/fixation3.jpg></div></div>","null","","","","","","",""
"html-keyboard-response","45","115387","0.0-6.0-2.13","63ed1fa5c88ecae92bf0c920","bdp_sd","Sun Mar 26 2023 11:18:52 GMT-0400 (Eastern Daylight Time)","159316","","1529","","","","","offer","","<div class='trialBorder'><div class='vertical-center'><img style='vertical-align:center; align:center' src=img/fixation3.jpg></div><div class='cl'><div class='vertical-center'>$41<br>for<br>yourself</div></div><div class='cr'><div class='vertical-center'>$75<br>for<br>Carlos A</div></div><div class='respDivL'><div class='vertical-center'>(E)</div></div><div class='respDivR'><div class='vertical-center'>(I)</div></div></div>","E","$41<br>for<br>yourself","$75<br>for<br>3","0","41","75","3","SELF"
"html-keyboard-response","46","115640","0.0-6.0-3.13","63ed1fa5c88ecae92bf0c920","bdp_sd","Sun Mar 26 2023 11:18:52 GMT-0400 (Eastern Daylight Time)","159316","","null","","","","","offerFB","","<div class='trialBorder'><div class='vertical-center'><img style='vertical-align:center; align:center' src=img/fixation3.jpg></div><div class='cl'><div class='vertical-center'><font style='color:orange'>$41<br>for<br>yourself</font></div></div><div class='cr'><div class='vertical-center'>$75<br>for<br>Carlos A</div></div><div class='respDivL'><div class='vertical-center'><font style='color:orange'>(E)</font></div></div><div class='respDivR'><div class='vertical-center'>(I)</div></div></div>","null","$41<br>for<br>yourself","$75<br>for<br>3","0","41","75","3",""
"html-keyboard-response","47","116143","0.0-6.0-1.14","63ed1fa5c88ecae92bf0c920","bdp_sd","Sun Mar 26 2023 11:18:52 GMT-0400 (Eastern Daylight Time)","159316","","null","","","","","FIX","","<div class='trialBorder'><div class='vertical-center'><img style='vertical-align:center; align:center' src=img/fixation3.jpg></div></div>","null","","","","","","",""
"html-keyboard-response","48","121041","0.0-6.0-2.14","63ed1fa5c88ecae92bf0c920","bdp_sd","Sun Mar 26 2023 11:18:52 GMT-0400 (Eastern Daylight Time)","159316","","4897","","","","","offer","","<div class='trialBorder'><div class='vertical-center'><img style='vertical-align:center; align:center' src=img/fixation3.jpg></div><div class='cl'><div class='vertical-center'>$85<br>for<br>Josh B</div></div><div class='cr'><div class='vertical-center'>$31<br>for<br>yourself</div></div><div class='respDivL'><div class='vertical-center'>(E)</div></div><div class='respDivR'><div class='vertical-center'>(I)</div></div></div>","I","$31<br>for<br>yourself","$85<br>for<br>1","1","31","85","1","SELF"
"html-keyboard-response","49","121294","0.0-6.0-3.14","63ed1fa5c88ecae92bf0c920","bdp_sd","Sun Mar 26 2023 11:18:52 GMT-0400 (Eastern Daylight Time)","159316","","null","","","","","offerFB","","<div class='trialBorder'><div class='vertical-center'><img style='vertical-align:center; align:center' src=img/fixation3.jpg></div><div class='cl'><div class='vertical-center'>$85<br>for<br>Josh B</div></div><div class='cr'><div class='vertical-center'><font style='color:orange'>$31<br>for<br>yourself</font></div></div><div class='respDivL'><div class='vertical-center'>(E)</div></div><div class='respDivR'><div class='vertical-center'><font style='color:orange'>(I)</font></div></div></div>","null","$31<br>for<br>yourself","$85<br>for<br>1","1","31","85","1",""
"html-keyboard-response","50","121796","0.0-6.0-1.15","63ed1fa5c88ecae92bf0c920","bdp_sd","Sun Mar 26 2023 11:18:52 GMT-0400 (Eastern Daylight Time)","159316","","null","","","","","FIX","","<div class='trialBorder'><div class='vertical-center'><img style='vertical-align:center; align:center' src=img/fixation3.jpg></div></div>","null","","","","","","",""
"html-keyboard-response","51","123021","0.0-6.0-2.15","63ed1fa5c88ecae92bf0c920","bdp_sd","Sun Mar 26 2023 11:18:52 GMT-0400 (Eastern Daylight Time)","159316","","1224","","","","","offer","","<div class='trialBorder'><div class='vertical-center'><img style='vertical-align:center; align:center' src=img/fixation3.jpg></div><div class='cl'><div class='vertical-center'>$40<br>for<br>yourself</div></div><div class='cr'><div class='vertical-center'>$55<br>for<br>Brandon J</div></div><div class='respDivL'><div class='vertical-center'>(E)</div></div><div class='respDivR'><div class='vertical-center'>(I)</div></div></div>","E","$40<br>for<br>yourself","$55<br>for<br>4","0","40","55","4","SELF"
"html-keyboard-response","52","123274","0.0-6.0-3.15","63ed1fa5c88ecae92bf0c920","bdp_sd","Sun Mar 26 2023 11:18:52 GMT-0400 (Eastern Daylight Time)","159316","","null","","","","","offerFB","","<div class='trialBorder'><div class='vertical-center'><img style='vertical-align:center; align:center' src=img/fixation3.jpg></div><div class='cl'><div class='vertical-center'><font style='color:orange'>$40<br>for<br>yourself</font></div></div><div class='cr'><div class='vertical-center'>$55<br>for<br>Brandon J</div></div><div class='respDivL'><div class='vertical-center'><font style='color:orange'>(E)</font></div></div><div class='respDivR'><div class='vertical-center'>(I)</div></div></div>","null","$40<br>for<br>yourself","$55<br>for<br>4","0","40","55","4",""
"html-keyboard-response","53","123775","0.0-6.0-1.16","63ed1fa5c88ecae92bf0c920","bdp_sd","Sun Mar 26 2023 11:18:52 GMT-0400 (Eastern Daylight Time)","159316","","null","","","","","FIX","","<div class='trialBorder'><div class='vertical-center'><img style='vertical-align:center; align:center' src=img/fixation3.jpg></div></div>","null","","","","","","",""
"html-keyboard-response","54","125542","0.0-6.0-2.16","63ed1fa5c88ecae92bf0c920","bdp_sd","Sun Mar 26 2023 11:18:52 GMT-0400 (Eastern Daylight Time)","159316","","1765","","","","","offer","","<div class='trialBorder'><div class='vertical-center'><img style='vertical-align:center; align:center' src=img/fixation3.jpg></div><div class='cl'><div class='vertical-center'>$78<br>for<br>yourself</div></div><div class='cr'><div class='vertical-center'>$80<br>for<br>Mike M</div></div><div class='respDivL'><div class='vertical-center'>(E)</div></div><div class='respDivR'><div class='vertical-center'>(I)</div></div></div>","E","$78<br>for<br>yourself","$80<br>for<br>5","0","78","80","5","SELF"
"html-keyboard-response","55","125795","0.0-6.0-3.16","63ed1fa5c88ecae92bf0c920","bdp_sd","Sun Mar 26 2023 11:18:52 GMT-0400 (Eastern Daylight Time)","159316","","null","","","","","offerFB","","<div class='trialBorder'><div class='vertical-center'><img style='vertical-align:center; align:center' src=img/fixation3.jpg></div><div class='cl'><div class='vertical-center'><font style='color:orange'>$78<br>for<br>yourself</font></div></div><div class='cr'><div class='vertical-center'>$80<br>for<br>Mike M</div></div><div class='respDivL'><div class='vertical-center'><font style='color:orange'>(E)</font></div></div><div class='respDivR'><div class='vertical-center'>(I)</div></div></div>","null","$78<br>for<br>yourself","$80<br>for<br>5","0","78","80","5",""
"html-keyboard-response","56","126297","0.0-6.0-1.17","63ed1fa5c88ecae92bf0c920","bdp_sd","Sun Mar 26 2023 11:18:52 GMT-0400 (Eastern Daylight Time)","159316","","null","","","","","FIX","","<div class='trialBorder'><div class='vertical-center'><img style='vertical-align:center; align:center' src=img/fixation3.jpg></div></div>","null","","","","","","",""
"html-keyboard-response","57","127391","0.0-6.0-2.17","63ed1fa5c88ecae92bf0c920","bdp_sd","Sun Mar 26 2023 11:18:52 GMT-0400 (Eastern Daylight Time)","159316","","1093","","","","","offer","","<div class='trialBorder'><div class='vertical-center'><img style='vertical-align:center; align:center' src=img/fixation3.jpg></div><div class='cl'><div class='vertical-center'>$80<br>for<br>Carlos A</div></div><div class='cr'><div class='vertical-center'>$54<br>for<br>yourself</div></div><div class='respDivL'><div class='vertical-center'>(E)</div></div><div class='respDivR'><div class='vertical-center'>(I)</div></div></div>","I","$54<br>for<br>yourself","$80<br>for<br>3","1","54","80","3","SELF"
"html-keyboard-response","58","127643","0.0-6.0-3.17","63ed1fa5c88ecae92bf0c920","bdp_sd","Sun Mar 26 2023 11:18:52 GMT-0400 (Eastern Daylight Time)","159316","","null","","","","","offerFB","","<div class='trialBorder'><div class='vertical-center'><img style='vertical-align:center; align:center' src=img/fixation3.jpg></div><div class='cl'><div class='vertical-center'>$80<br>for<br>Carlos A</div></div><div class='cr'><div class='vertical-center'><font style='color:orange'>$54<br>for<br>yourself</font></div></div><div class='respDivL'><div class='vertical-center'>(E)</div></div><div class='respDivR'><div class='vertical-center'><font style='color:orange'>(I)</font></div></div></div>","null","$54<br>for<br>yourself","$80<br>for<br>3","1","54","80","3",""
"html-keyboard-response","59","128145","0.0-6.0-1.18","63ed1fa5c88ecae92bf0c920","bdp_sd","Sun Mar 26 2023 11:18:52 GMT-0400 (Eastern Daylight Time)","159316","","null","","","","","FIX","","<div class='trialBorder'><div class='vertical-center'><img style='vertical-align:center; align:center' src=img/fixation3.jpg></div></div>","null","","","","","","",""
"html-keyboard-response","60","129531","0.0-6.0-2.18","63ed1fa5c88ecae92bf0c920","bdp_sd","Sun Mar 26 2023 11:18:52 GMT-0400 (Eastern Daylight Time)","159316","","1385","","","","","offer","","<div class='trialBorder'><div class='vertical-center'><img style='vertical-align:center; align:center' src=img/fixation3.jpg></div><div class='cl'><div class='vertical-center'>$25<br>for<br>yourself</div></div><div class='cr'><div class='vertical-center'>$30<br>for<br>Brandon J</div></div><div class='respDivL'><div class='vertical-center'>(E)</div></div><div class='respDivR'><div class='vertical-center'>(I)</div></div></div>","E","$25<br>for<br>yourself","$30<br>for<br>4","0","25","30","4","SELF"
"html-keyboard-response","61","129784","0.0-6.0-3.18","63ed1fa5c88ecae92bf0c920","bdp_sd","Sun Mar 26 2023 11:18:52 GMT-0400 (Eastern Daylight Time)","159316","","null","","","","","offerFB","","<div class='trialBorder'><div class='vertical-center'><img style='vertical-align:center; align:center' src=img/fixation3.jpg></div><div class='cl'><div class='vertical-center'><font style='color:orange'>$25<br>for<br>yourself</font></div></div><div class='cr'><div class='vertical-center'>$30<br>for<br>Brandon J</div></div><div class='respDivL'><div class='vertical-center'><font style='color:orange'>(E)</font></div></div><div class='respDivR'><div class='vertical-center'>(I)</div></div></div>","null","$25<br>for<br>yourself","$30<br>for<br>4","0","25","30","4",""
"html-keyboard-response","62","130285","0.0-6.0-1.19","63ed1fa5c88ecae92bf0c920","bdp_sd","Sun Mar 26 2023 11:18:52 GMT-0400 (Eastern Daylight Time)","159316","","null","","","","","FIX","","<div class='trialBorder'><div class='vertical-center'><img style='vertical-align:center; align:center' src=img/fixation3.jpg></div></div>","null","","","","","","",""
"html-keyboard-response","63","131451","0.0-6.0-2.19","63ed1fa5c88ecae92bf0c920","bdp_sd","Sun Mar 26 2023 11:18:52 GMT-0400 (Eastern Daylight Time)","159316","","1165","","","","","offer","","<div class='trialBorder'><div class='vertical-center'><img style='vertical-align:center; align:center' src=img/fixation3.jpg></div><div class='cl'><div class='vertical-center'>$50<br>for<br>Mike M</div></div><div class='cr'><div class='vertical-center'>$47<br>for<br>yourself</div></div><div class='respDivL'><div class='vertical-center'>(E)</div></div><div class='respDivR'><div class='vertical-center'>(I)</div></div></div>","I","$47<br>for<br>yourself","$50<br>for<br>5","1","47","50","5","SELF"
"html-keyboard-response","64","131704","0.0-6.0-3.19","63ed1fa5c88ecae92bf0c920","bdp_sd","Sun Mar 26 2023 11:18:52 GMT-0400 (Eastern Daylight Time)","159316","","null","","","","","offerFB","","<div class='trialBorder'><div class='vertical-center'><img style='vertical-align:center; align:center' src=img/fixation3.jpg></div><div class='cl'><div class='vertical-center'>$50<br>for<br>Mike M</div></div><div class='cr'><div class='vertical-center'><font style='color:orange'>$47<br>for<br>yourself</font></div></div><div class='respDivL'><div class='vertical-center'>(E)</div></div><div class='respDivR'><div class='vertical-center'><font style='color:orange'>(I)</font></div></div></div>","null","$47<br>for<br>yourself","$50<br>for<br>5","1","47","50","5",""
"html-keyboard-response","65","132206","0.0-6.0-1.20","63ed1fa5c88ecae92bf0c920","bdp_sd","Sun Mar 26 2023 11:18:52 GMT-0400 (Eastern Daylight Time)","159316","","null","","","","","FIX","","<div class='trialBorder'><div class='vertical-center'><img style='vertical-align:center; align:center' src=img/fixation3.jpg></div></div>","null","","","","","","",""
"html-keyboard-response","66","136553","0.0-6.0-2.20","63ed1fa5c88ecae92bf0c920","bdp_sd","Sun Mar 26 2023 11:18:52 GMT-0400 (Eastern Daylight Time)","159316","","4346","","","","","offer","","<div class='trialBorder'><div class='vertical-center'><img style='vertical-align:center; align:center' src=img/fixation3.jpg></div><div class='cl'><div class='vertical-center'>$35<br>for<br>Carl S</div></div><div class='cr'><div class='vertical-center'>$15<br>for<br>yourself</div></div><div class='respDivL'><div class='vertical-center'>(E)</div></div><div class='respDivR'><div class='vertical-center'>(I)</div></div></div>","E","$15<br>for<br>yourself","$35<br>for<br>2","1","15","35","2","OTHER"
"html-keyboard-response","67","136807","0.0-6.0-3.20","63ed1fa5c88ecae92bf0c920","bdp_sd","Sun Mar 26 2023 11:18:52 GMT-0400 (Eastern Daylight Time)","159316","","null","","","","","offerFB","","<div class='trialBorder'><div class='vertical-center'><img style='vertical-align:center; align:center' src=img/fixation3.jpg></div><div class='cl'><div class='vertical-center'><font style='color:orange'>$35<br>for<br>Carl S</font></div></div><div class='cr'><div class='vertical-center'>$15<br>for<br>yourself</div></div><div class='respDivL'><div class='vertical-center'><font style='color:orange'>(E)</font></div></div><div class='respDivR'><div class='vertical-center'>(I)</div></div></div>","null","$15<br>for<br>yourself","$35<br>for<br>2","1","15","35","2",""
"html-keyboard-response","68","137308","0.0-6.0-1.21","63ed1fa5c88ecae92bf0c920","bdp_sd","Sun Mar 26 2023 11:18:52 GMT-0400 (Eastern Daylight Time)","159316","","null","","","","","FIX","","<div class='trialBorder'><div class='vertical-center'><img style='vertical-align:center; align:center' src=img/fixation3.jpg></div></div>","null","","","","","","",""
"html-keyboard-response","69","140226","0.0-6.0-2.21","63ed1fa5c88ecae92bf0c920","bdp_sd","Sun Mar 26 2023 11:18:52 GMT-0400 (Eastern Daylight Time)","159316","","2917","","","","","offer","","<div class='trialBorder'><div class='vertical-center'><img style='vertical-align:center; align:center' src=img/fixation3.jpg></div><div class='cl'><div class='vertical-center'>$67<br>for<br>yourself</div></div><div class='cr'><div class='vertical-center'>$75<br>for<br>Mike M</div></div><div class='respDivL'><div class='vertical-center'>(E)</div></div><div class='respDivR'><div class='vertical-center'>(I)</div></div></div>","E","$67<br>for<br>yourself","$75<br>for<br>5","0","67","75","5","SELF"
"html-keyboard-response","70","140478","0.0-6.0-3.21","63ed1fa5c88ecae92bf0c920","bdp_sd","Sun Mar 26 2023 11:18:52 GMT-0400 (Eastern Daylight Time)","159316","","null","","","","","offerFB","","<div class='trialBorder'><div class='vertical-center'><img style='vertical-align:center; align:center' src=img/fixation3.jpg></div><div class='cl'><div class='vertical-center'><font style='color:orange'>$67<br>for<br>yourself</font></div></div><div class='cr'><div class='vertical-center'>$75<br>for<br>Mike M</div></div><div class='respDivL'><div class='vertical-center'><font style='color:orange'>(E)</font></div></div><div class='respDivR'><div class='vertical-center'>(I)</div></div></div>","null","$67<br>for<br>yourself","$75<br>for<br>5","0","67","75","5",""
"html-keyboard-response","71","140980","0.0-6.0-1.22","63ed1fa5c88ecae92bf0c920","bdp_sd","Sun Mar 26 2023 11:18:52 GMT-0400 (Eastern Daylight Time)","159316","","null","","","","","FIX","","<div class='trialBorder'><div class='vertical-center'><img style='vertical-align:center; align:center' src=img/fixation3.jpg></div></div>","null","","","","","","",""
"html-keyboard-response","72","147108","0.0-6.0-2.22","63ed1fa5c88ecae92bf0c920","bdp_sd","Sun Mar 26 2023 11:18:52 GMT-0400 (Eastern Daylight Time)","159316","","6127","","","","","offer","","<div class='trialBorder'><div class='vertical-center'><img style='vertical-align:center; align:center' src=img/fixation3.jpg></div><div class='cl'><div class='vertical-center'>$80<br>for<br>Carl S</div></div><div class='cr'><div class='vertical-center'>$33<br>for<br>yourself</div></div><div class='respDivL'><div class='vertical-center'>(E)</div></div><div class='respDivR'><div class='vertical-center'>(I)</div></div></div>","I","$33<br>for<br>yourself","$80<br>for<br>2","1","33","80","2","SELF"
"html-keyboard-response","73","147363","0.0-6.0-3.22","63ed1fa5c88ecae92bf0c920","bdp_sd","Sun Mar 26 2023 11:18:52 GMT-0400 (Eastern Daylight Time)","159316","","null","","","","","offerFB","","<div class='trialBorder'><div class='vertical-center'><img style='vertical-align:center; align:center' src=img/fixation3.jpg></div><div class='cl'><div class='vertical-center'>$80<br>for<br>Carl S</div></div><div class='cr'><div class='vertical-center'><font style='color:orange'>$33<br>for<br>yourself</font></div></div><div class='respDivL'><div class='vertical-center'>(E)</div></div><div class='respDivR'><div class='vertical-center'><font style='color:orange'>(I)</font></div></div></div>","null","$33<br>for<br>yourself","$80<br>for<br>2","1","33","80","2",""
"html-keyboard-response","74","147865","0.0-6.0-1.23","63ed1fa5c88ecae92bf0c920","bdp_sd","Sun Mar 26 2023 11:18:52 GMT-0400 (Eastern Daylight Time)","159316","","null","","","","","FIX","","<div class='trialBorder'><div class='vertical-center'><img style='vertical-align:center; align:center' src=img/fixation3.jpg></div></div>","null","","","","","","",""
"html-keyboard-response","75","149508","0.0-6.0-2.23","63ed1fa5c88ecae92bf0c920","bdp_sd","Sun Mar 26 2023 11:18:52 GMT-0400 (Eastern Daylight Time)","159316","","1642","","","","","offer","","<div class='trialBorder'><div class='vertical-center'><img style='vertical-align:center; align:center' src=img/fixation3.jpg></div><div class='cl'><div class='vertical-center'>$22<br>for<br>yourself</div></div><div class='cr'><div class='vertical-center'>$25<br>for<br>Mike M</div></div><div class='respDivL'><div class='vertical-center'>(E)</div></div><div class='respDivR'><div class='vertical-center'>(I)</div></div></div>","E","$22<br>for<br>yourself","$25<br>for<br>5","0","22","25","5","SELF"
"html-keyboard-response","76","149760","0.0-6.0-3.23","63ed1fa5c88ecae92bf0c920","bdp_sd","Sun Mar 26 2023 11:18:52 GMT-0400 (Eastern Daylight Time)","159316","","null","","","","","offerFB","","<div class='trialBorder'><div class='vertical-center'><img style='vertical-align:center; align:center' src=img/fixation3.jpg></div><div class='cl'><div class='vertical-center'><font style='color:orange'>$22<br>for<br>yourself</font></div></div><div class='cr'><div class='vertical-center'>$25<br>for<br>Mike M</div></div><div class='respDivL'><div class='vertical-center'><font style='color:orange'>(E)</font></div></div><div class='respDivR'><div class='vertical-center'>(I)</div></div></div>","null","$22<br>for<br>yourself","$25<br>for<br>5","0","22","25","5",""
"html-keyboard-response","77","150263","0.0-6.0-1.24","63ed1fa5c88ecae92bf0c920","bdp_sd","Sun Mar 26 2023 11:18:52 GMT-0400 (Eastern Daylight Time)","159316","","null","","","","","FIX","","<div class='trialBorder'><div class='vertical-center'><img style='vertical-align:center; align:center' src=img/fixation3.jpg></div></div>","null","","","","","","",""
"html-keyboard-response","78","151408","0.0-6.0-2.24","63ed1fa5c88ecae92bf0c920","bdp_sd","Sun Mar 26 2023 11:18:52 GMT-0400 (Eastern Daylight Time)","159316","","1144","","","","","offer","","<div class='trialBorder'><div class='vertical-center'><img style='vertical-align:center; align:center' src=img/fixation3.jpg></div><div class='cl'><div class='vertical-center'>$75<br>for<br>Brandon J</div></div><div class='cr'><div class='vertical-center'>$55<br>for<br>yourself</div></div><div class='respDivL'><div class='vertical-center'>(E)</div></div><div class='respDivR'><div class='vertical-center'>(I)</div></div></div>","I","$55<br>for<br>yourself","$75<br>for<br>4","1","55","75","4","SELF"
"html-keyboard-response","79","151660","0.0-6.0-3.24","63ed1fa5c88ecae92bf0c920","bdp_sd","Sun Mar 26 2023 11:18:52 GMT-0400 (Eastern Daylight Time)","159316","","null","","","","","offerFB","","<div class='trialBorder'><div class='vertical-center'><img style='vertical-align:center; align:center' src=img/fixation3.jpg></div><div class='cl'><div class='vertical-center'>$75<br>for<br>Brandon J</div></div><div class='cr'><div class='vertical-center'><font style='color:orange'>$55<br>for<br>yourself</font></div></div><div class='respDivL'><div class='vertical-center'>(E)</div></div><div class='respDivR'><div class='vertical-center'><font style='color:orange'>(I)</font></div></div></div>","null","$55<br>for<br>yourself","$75<br>for<br>4","1","55","75","4",""
"html-keyboard-response","80","152162","0.0-6.0-1.25","63ed1fa5c88ecae92bf0c920","bdp_sd","Sun Mar 26 2023 11:18:52 GMT-0400 (Eastern Daylight Time)","159316","","null","","","","","FIX","","<div class='trialBorder'><div class='vertical-center'><img style='vertical-align:center; align:center' src=img/fixation3.jpg></div></div>","null","","","","","","",""
"html-keyboard-response","81","153643","0.0-6.0-2.25","63ed1fa5c88ecae92bf0c920","bdp_sd","Sun Mar 26 2023 11:18:52 GMT-0400 (Eastern Daylight Time)","159316","","1479","","","","","offer","","<div class='trialBorder'><div class='vertical-center'><img style='vertical-align:center; align:center' src=img/fixation3.jpg></div><div class='cl'><div class='vertical-center'>$11<br>for<br>yourself</div></div><div class='cr'><div class='vertical-center'>$30<br>for<br>Carl S</div></div><div class='respDivL'><div class='vertical-center'>(E)</div></div><div class='respDivR'><div class='vertical-center'>(I)</div></div></div>","E","$11<br>for<br>yourself","$30<br>for<br>2","0","11","30","2","SELF"
"html-keyboard-response","82","153895","0.0-6.0-3.25","63ed1fa5c88ecae92bf0c920","bdp_sd","Sun Mar 26 2023 11:18:52 GMT-0400 (Eastern Daylight Time)","159316","","null","","","","","offerFB","","<div class='trialBorder'><div class='vertical-center'><img style='vertical-align:center; align:center' src=img/fixation3.jpg></div><div class='cl'><div class='vertical-center'><font style='color:orange'>$11<br>for<br>yourself</font></div></div><div class='cr'><div class='vertical-center'>$30<br>for<br>Carl S</div></div><div class='respDivL'><div class='vertical-center'><font style='color:orange'>(E)</font></div></div><div class='respDivR'><div class='vertical-center'>(I)</div></div></div>","null","$11<br>for<br>yourself","$30<br>for<br>2","0","11","30","2",""
"html-keyboard-response","83","154398","0.0-6.0-1.26","63ed1fa5c88ecae92bf0c920","bdp_sd","Sun Mar 26 2023 11:18:52 GMT-0400 (Eastern Daylight Time)","159316","","null","","","","","FIX","","<div class='trialBorder'><div class='vertical-center'><img style='vertical-align:center; align:center' src=img/fixation3.jpg></div></div>","null","","","","","","",""
"html-keyboard-response","84","158060","0.0-6.0-2.26","63ed1fa5c88ecae92bf0c920","bdp_sd","Sun Mar 26 2023 11:18:52 GMT-0400 (Eastern Daylight Time)","159316","","3660","","","","","offer","","<div class='trialBorder'><div class='vertical-center'><img style='vertical-align:center; align:center' src=img/fixation3.jpg></div><div class='cl'><div class='vertical-center'>$19<br>for<br>yourself</div></div><div class='cr'><div class='vertical-center'>$25<br>for<br>Brandon J</div></div><div class='respDivL'><div class='vertical-center'>(E)</div></div><div class='respDivR'><div class='vertical-center'>(I)</div></div></div>","E","$19<br>for<br>yourself","$25<br>for<br>4","0","19","25","4","SELF"
"html-keyboard-response","85","158314","0.0-6.0-3.26","63ed1fa5c88ecae92bf0c920","bdp_sd","Sun Mar 26 2023 11:18:52 GMT-0400 (Eastern Daylight Time)","159316","","null","","","","","offerFB","","<div class='trialBorder'><div class='vertical-center'><img style='vertical-align:center; align:center' src=img/fixation3.jpg></div><div class='cl'><div class='vertical-center'><font style='color:orange'>$19<br>for<br>yourself</font></div></div><div class='cr'><div class='vertical-center'>$25<br>for<br>Brandon J</div></div><div class='respDivL'><div class='vertical-center'><font style='color:orange'>(E)</font></div></div><div class='respDivR'><div class='vertical-center'>(I)</div></div></div>","null","$19<br>for<br>yourself","$25<br>for<br>4","0","19","25","4",""
"","","","","63ed1fa5c88ecae92bf0c920","bdp_sd","Sun Mar 26 2023 11:18:52 GMT-0400 (Eastern Daylight Time)","159316","","","","fullscreenexit","86","158362","fullscreenexit","","","","","","","","","",""
"fullscreen","86","159315","0.0-7.0","63ed1fa5c88ecae92bf0c920","bdp_sd","Sun Mar 26 2023 11:18:52 GMT-0400 (Eastern Daylight Time)","159316","","","","","","","","true","","","","","","","","",""
"html-keyboard-response","87","159818","0.0-8.0","","","","","","null","","","","","","","","null","","","","","","",""
