"event","trial","time","trialtype","subject_id","task","startTime","totalTime","trial_type","trial_index","time_elapsed","internal_node_id","view_history","rt","responses","success","stimulus","key_press","selfOffer","otherOffer","otherLeft","selfAmt","otherAmt","otherDist","chosen"
"focus","0","1","focusevent","632aaef27780d596dc7e0a9f","bdp_sd","Wed Mar 29 2023 14:41:19 GMT-0500 (Central Daylight Time)","175991","","","","","","","","","","","","","","","","",""
"","","","","632aaef27780d596dc7e0a9f","bdp_sd","Wed Mar 29 2023 14:41:19 GMT-0500 (Central Daylight Time)","175991","pavlovia","0","7","0.0-0.0","","","","","","","","","","","","",""
"","","","","632aaef27780d596dc7e0a9f","bdp_sd","Wed Mar 29 2023 14:41:19 GMT-0500 (Central Daylight Time)","175991","instructions","1","2834","0.0-1.0","[{""page_index"":0,""viewing_time"":2826}]","2827","","","","","","","","","","",""
"","","","","632aaef27780d596dc7e0a9f","bdp_sd","Wed Mar 29 2023 14:41:19 GMT-0500 (Central Daylight Time)","175991","survey-text","2","102766","0.0-2.0","","99928","{""Q0"":""Alberta F"",""Q1"":""Raphael S"",""Q2"":""Richael S"",""Q3"":""Bryan H"",""Q4"":""Alice L""}","","","","","","","","","",""
"fullscreenexit","3","104662","fullscreenexit","632aaef27780d596dc7e0a9f","bdp_sd","Wed Mar 29 2023 14:41:19 GMT-0500 (Central Daylight Time)","175991","","","","","","","","","","","","","","","","",""
"","","","","632aaef27780d596dc7e0a9f","bdp_sd","Wed Mar 29 2023 14:41:19 GMT-0500 (Central Daylight Time)","175991","fullscreen","3","105215","0.0-3.0","","","","true","","","","","","","","",""
"","","","fullscreenfail","632aaef27780d596dc7e0a9f","bdp_sd","Wed Mar 29 2023 14:41:19 GMT-0500 (Central Daylight Time)","175991","image-keyboard-response","4","106104","0.0-4.0-0.0","","886","","","","32","","","","","","",""
"","","","","632aaef27780d596dc7e0a9f","bdp_sd","Wed Mar 29 2023 14:41:19 GMT-0500 (Central Daylight Time)","175991","instructions","5","109422","0.0-5.0","[{""page_index"":0,""viewing_time"":1002},{""page_index"":1,""viewing_time"":1357},{""page_index"":2,""viewing_time"":695}]","3054","","","","","","","","","","",""
"","","","FIX","632aaef27780d596dc7e0a9f","bdp_sd","Wed Mar 29 2023 14:41:19 GMT-0500 (Central Daylight Time)","175991","html-keyboard-response","6","109933","0.0-6.0-1.0","","null","","","<div class='trialBorder'><div class='vertical-center'><img style='vertical-align:center; align:center' src=img/fixation3.jpg></div></div>","null","","","","","","",""
"","","","offer","632aaef27780d596dc7e0a9f","bdp_sd","Wed Mar 29 2023 14:41:19 GMT-0500 (Central Daylight Time)","175991","html-keyboard-response","7","115729","0.0-6.0-2.0","","5792","","","<div class='trialBorder'><div class='vertical-center'><img style='vertical-align:center; align:center' src=img/fixation3.jpg></div><div class='cl'><div class='vertical-center'>$25<br>for<br>Richael S</div></div><div class='cr'><div class='vertical-center'>$14<br>for<br>yourself</div></div><div class='respDivL'><div class='vertical-center'>(E)</div></div><div class='respDivR'><div class='vertical-center'>(I)</div></div></div>","E","$14<br>for<br>yourself","$25<br>for<br>3","1","14","25","3","OTHER"
"","","","offerFB","632aaef27780d596dc7e0a9f","bdp_sd","Wed Mar 29 2023 14:41:19 GMT-0500 (Central Daylight Time)","175991","html-keyboard-response","8","115996","0.0-6.0-3.0","","null","","","<div class='trialBorder'><div class='vertical-center'><img style='vertical-align:center; align:center' src=img/fixation3.jpg></div><div class='cl'><div class='vertical-center'><font style='color:orange'>$25<br>for<br>Richael S</font></div></div><div class='cr'><div class='vertical-center'>$14<br>for<br>yourself</div></div><div class='respDivL'><div class='vertical-center'><font style='color:orange'>(E)</font></div></div><div class='respDivR'><div class='vertical-center'>(I)</div></div></div>","null","$14<br>for<br>yourself","$25<br>for<br>3","1","14","25","3",""
"","","","FIX","632aaef27780d596dc7e0a9f","bdp_sd","Wed Mar 29 2023 14:41:19 GMT-0500 (Central Daylight Time)","175991","html-keyboard-response","9","116507","0.0-6.0-1.1","","null","","","<div class='trialBorder'><div class='vertical-center'><img style='vertical-align:center; align:center' src=img/fixation3.jpg></div></div>","null","","","","","","",""
"","","","offer","632aaef27780d596dc7e0a9f","bdp_sd","Wed Mar 29 2023 14:41:19 GMT-0500 (Central Daylight Time)","175991","html-keyboard-response","10","118112","0.0-6.0-2.1","","1603","","","<div class='trialBorder'><div class='vertical-center'><img style='vertical-align:center; align:center' src=img/fixation3.jpg></div><div class='cl'><div class='vertical-center'>$27<br>for<br>yourself</div></div><div class='cr'><div class='vertical-center'>$50<br>for<br>Richael S</div></div><div class='respDivL'><div class='vertical-center'>(E)</div></div><div class='respDivR'><div class='vertical-center'>(I)</div></div></div>","I","$27<br>for<br>yourself","$50<br>for<br>3","0","27","50","3","OTHER"
"","","","offerFB","632aaef27780d596dc7e0a9f","bdp_sd","Wed Mar 29 2023 14:41:19 GMT-0500 (Central Daylight Time)","175991","html-keyboard-response","11","118375","0.0-6.0-3.1","","null","","","<div class='trialBorder'><div class='vertical-center'><img style='vertical-align:center; align:center' src=img/fixation3.jpg></div><div class='cl'><div class='vertical-center'>$27<br>for<br>yourself</div></div><div class='cr'><div class='vertical-center'><font style='color:orange'>$50<br>for<br>Richael S</font></div></div><div class='respDivL'><div class='vertical-center'>(E)</div></div><div class='respDivR'><div class='vertical-center'><font style='color:orange'>(I)</font></div></div></div>","null","$27<br>for<br>yourself","$50<br>for<br>3","0","27","50","3",""
"","","","FIX","632aaef27780d596dc7e0a9f","bdp_sd","Wed Mar 29 2023 14:41:19 GMT-0500 (Central Daylight Time)","175991","html-keyboard-response","12","118886","0.0-6.0-1.2","","null","","","<div class='trialBorder'><div class='vertical-center'><img style='vertical-align:center; align:center' src=img/fixation3.jpg></div></div>","null","","","","","","",""
"","","","offer","632aaef27780d596dc7e0a9f","bdp_sd","Wed Mar 29 2023 14:41:19 GMT-0500 (Central Daylight Time)","175991","html-keyboard-response","13","119944","0.0-6.0-2.2","","1056","","","<div class='trialBorder'><div class='vertical-center'><img style='vertical-align:center; align:center' src=img/fixation3.jpg></div><div class='cl'><div class='vertical-center'>$30<br>for<br>Bryan H</div></div><div class='cr'><div class='vertical-center'>$25<br>for<br>yourself</div></div><div class='respDivL'><div class='vertical-center'>(E)</div></div><div class='respDivR'><div class='vertical-center'>(I)</div></div></div>","E","$25<br>for<br>yourself","$30<br>for<br>4","1","25","30","4","OTHER"
"","","","offerFB","632aaef27780d596dc7e0a9f","bdp_sd","Wed Mar 29 2023 14:41:19 GMT-0500 (Central Daylight Time)","175991","html-keyboard-response","14","120207","0.0-6.0-3.2","","null","","","<div class='trialBorder'><div class='vertical-center'><img style='vertical-align:center; align:center' src=img/fixation3.jpg></div><div class='cl'><div class='vertical-center'><font style='color:orange'>$30<br>for<br>Bryan H</font></div></div><div class='cr'><div class='vertical-center'>$25<br>for<br>yourself</div></div><div class='respDivL'><div class='vertical-center'><font style='color:orange'>(E)</font></div></div><div class='respDivR'><div class='vertical-center'>(I)</div></div></div>","null","$25<br>for<br>yourself","$30<br>for<br>4","1","25","30","4",""
"","","","FIX","632aaef27780d596dc7e0a9f","bdp_sd","Wed Mar 29 2023 14:41:19 GMT-0500 (Central Daylight Time)","175991","html-keyboard-response","15","120720","0.0-6.0-1.3","","null","","","<div class='trialBorder'><div class='vertical-center'><img style='vertical-align:center; align:center' src=img/fixation3.jpg></div></div>","null","","","","","","",""
"","","","offer","632aaef27780d596dc7e0a9f","bdp_sd","Wed Mar 29 2023 14:41:19 GMT-0500 (Central Daylight Time)","175991","html-keyboard-response","16","122080","0.0-6.0-2.3","","1358","","","<div class='trialBorder'><div class='vertical-center'><img style='vertical-align:center; align:center' src=img/fixation3.jpg></div><div class='cl'><div class='vertical-center'>$31<br>for<br>yourself</div></div><div class='cr'><div class='vertical-center'>$85<br>for<br>Alberta F</div></div><div class='respDivL'><div class='vertical-center'>(E)</div></div><div class='respDivR'><div class='vertical-center'>(I)</div></div></div>","I","$31<br>for<br>yourself","$85<br>for<br>1","0","31","85","1","OTHER"
"","","","offerFB","632aaef27780d596dc7e0a9f","bdp_sd","Wed Mar 29 2023 14:41:19 GMT-0500 (Central Daylight Time)","175991","html-keyboard-response","17","122343","0.0-6.0-3.3","","null","","","<div class='trialBorder'><div class='vertical-center'><img style='vertical-align:center; align:center' src=img/fixation3.jpg></div><div class='cl'><div class='vertical-center'>$31<br>for<br>yourself</div></div><div class='cr'><div class='vertical-center'><font style='color:orange'>$85<br>for<br>Alberta F</font></div></div><div class='respDivL'><div class='vertical-center'>(E)</div></div><div class='respDivR'><div class='vertical-center'><font style='color:orange'>(I)</font></div></div></div>","null","$31<br>for<br>yourself","$85<br>for<br>1","0","31","85","1",""
"","","","FIX","632aaef27780d596dc7e0a9f","bdp_sd","Wed Mar 29 2023 14:41:19 GMT-0500 (Central Daylight Time)","175991","html-keyboard-response","18","122858","0.0-6.0-1.4","","null","","","<div class='trialBorder'><div class='vertical-center'><img style='vertical-align:center; align:center' src=img/fixation3.jpg></div></div>","null","","","","","","",""
"","","","offer","632aaef27780d596dc7e0a9f","bdp_sd","Wed Mar 29 2023 14:41:19 GMT-0500 (Central Daylight Time)","175991","html-keyboard-response","19","123880","0.0-6.0-2.4","","1020","","","<div class='trialBorder'><div class='vertical-center'><img style='vertical-align:center; align:center' src=img/fixation3.jpg></div><div class='cl'><div class='vertical-center'>$15<br>for<br>yourself</div></div><div class='cr'><div class='vertical-center'>$35<br>for<br>Raphael S</div></div><div class='respDivL'><div class='vertical-center'>(E)</div></div><div class='respDivR'><div class='vertical-center'>(I)</div></div></div>","I","$15<br>for<br>yourself","$35<br>for<br>2","0","15","35","2","OTHER"
"","","","offerFB","632aaef27780d596dc7e0a9f","bdp_sd","Wed Mar 29 2023 14:41:19 GMT-0500 (Central Daylight Time)","175991","html-keyboard-response","20","124146","0.0-6.0-3.4","","null","","","<div class='trialBorder'><div class='vertical-center'><img style='vertical-align:center; align:center' src=img/fixation3.jpg></div><div class='cl'><div class='vertical-center'>$15<br>for<br>yourself</div></div><div class='cr'><div class='vertical-center'><font style='color:orange'>$35<br>for<br>Raphael S</font></div></div><div class='respDivL'><div class='vertical-center'>(E)</div></div><div class='respDivR'><div class='vertical-center'><font style='color:orange'>(I)</font></div></div></div>","null","$15<br>for<br>yourself","$35<br>for<br>2","0","15","35","2",""
"","","","FIX","632aaef27780d596dc7e0a9f","bdp_sd","Wed Mar 29 2023 14:41:19 GMT-0500 (Central Daylight Time)","175991","html-keyboard-response","21","124659","0.0-6.0-1.5","","null","","","<div class='trialBorder'><div class='vertical-center'><img style='vertical-align:center; align:center' src=img/fixation3.jpg></div></div>","null","","","","","","",""
"","","","offer","632aaef27780d596dc7e0a9f","bdp_sd","Wed Mar 29 2023 14:41:19 GMT-0500 (Central Daylight Time)","175991","html-keyboard-response","22","125944","0.0-6.0-2.5","","1284","","","<div class='trialBorder'><div class='vertical-center'><img style='vertical-align:center; align:center' src=img/fixation3.jpg></div><div class='cl'><div class='vertical-center'>$47<br>for<br>yourself</div></div><div class='cr'><div class='vertical-center'>$50<br>for<br>Alice L</div></div><div class='respDivL'><div class='vertical-center'>(E)</div></div><div class='respDivR'><div class='vertical-center'>(I)</div></div></div>","I","$47<br>for<br>yourself","$50<br>for<br>5","0","47","50","5","OTHER"
"","","","offerFB","632aaef27780d596dc7e0a9f","bdp_sd","Wed Mar 29 2023 14:41:19 GMT-0500 (Central Daylight Time)","175991","html-keyboard-response","23","126211","0.0-6.0-3.5","","null","","","<div class='trialBorder'><div class='vertical-center'><img style='vertical-align:center; align:center' src=img/fixation3.jpg></div><div class='cl'><div class='vertical-center'>$47<br>for<br>yourself</div></div><div class='cr'><div class='vertical-center'><font style='color:orange'>$50<br>for<br>Alice L</font></div></div><div class='respDivL'><div class='vertical-center'>(E)</div></div><div class='respDivR'><div class='vertical-center'><font style='color:orange'>(I)</font></div></div></div>","null","$47<br>for<br>yourself","$50<br>for<br>5","0","47","50","5",""
"","","","FIX","632aaef27780d596dc7e0a9f","bdp_sd","Wed Mar 29 2023 14:41:19 GMT-0500 (Central Daylight Time)","175991","html-keyboard-response","24","126722","0.0-6.0-1.6","","null","","","<div class='trialBorder'><div class='vertical-center'><img style='vertical-align:center; align:center' src=img/fixation3.jpg></div></div>","null","","","","","","",""
"","","","offer","632aaef27780d596dc7e0a9f","bdp_sd","Wed Mar 29 2023 14:41:19 GMT-0500 (Central Daylight Time)","175991","html-keyboard-response","25","129481","0.0-6.0-2.6","","2756","","","<div class='trialBorder'><div class='vertical-center'><img style='vertical-align:center; align:center' src=img/fixation3.jpg></div><div class='cl'><div class='vertical-center'>$35<br>for<br>Richael S</div></div><div class='cr'><div class='vertical-center'>$24<br>for<br>yourself</div></div><div class='respDivL'><div class='vertical-center'>(E)</div></div><div class='respDivR'><div class='vertical-center'>(I)</div></div></div>","I","$24<br>for<br>yourself","$35<br>for<br>3","1","24","35","3","SELF"
"","","","offerFB","632aaef27780d596dc7e0a9f","bdp_sd","Wed Mar 29 2023 14:41:19 GMT-0500 (Central Daylight Time)","175991","html-keyboard-response","26","129732","0.0-6.0-3.6","","null","","","<div class='trialBorder'><div class='vertical-center'><img style='vertical-align:center; align:center' src=img/fixation3.jpg></div><div class='cl'><div class='vertical-center'>$35<br>for<br>Richael S</div></div><div class='cr'><div class='vertical-center'><font style='color:orange'>$24<br>for<br>yourself</font></div></div><div class='respDivL'><div class='vertical-center'>(E)</div></div><div class='respDivR'><div class='vertical-center'><font style='color:orange'>(I)</font></div></div></div>","null","$24<br>for<br>yourself","$35<br>for<br>3","1","24","35","3",""
"","","","FIX","632aaef27780d596dc7e0a9f","bdp_sd","Wed Mar 29 2023 14:41:19 GMT-0500 (Central Daylight Time)","175991","html-keyboard-response","27","130246","0.0-6.0-1.7","","null","","","<div class='trialBorder'><div class='vertical-center'><img style='vertical-align:center; align:center' src=img/fixation3.jpg></div></div>","null","","","","","","",""
"","","","offer","632aaef27780d596dc7e0a9f","bdp_sd","Wed Mar 29 2023 14:41:19 GMT-0500 (Central Daylight Time)","175991","html-keyboard-response","28","132040","0.0-6.0-2.7","","1791","","","<div class='trialBorder'><div class='vertical-center'><img style='vertical-align:center; align:center' src=img/fixation3.jpg></div><div class='cl'><div class='vertical-center'>$28<br>for<br>yourself</div></div><div class='cr'><div class='vertical-center'>$30<br>for<br>Alice L</div></div><div class='respDivL'><div class='vertical-center'>(E)</div></div><div class='respDivR'><div class='vertical-center'>(I)</div></div></div>","E","$28<br>for<br>yourself","$30<br>for<br>5","0","28","30","5","SELF"
"","","","offerFB","632aaef27780d596dc7e0a9f","bdp_sd","Wed Mar 29 2023 14:41:19 GMT-0500 (Central Daylight Time)","175991","html-keyboard-response","29","132294","0.0-6.0-3.7","","null","","","<div class='trialBorder'><div class='vertical-center'><img style='vertical-align:center; align:center' src=img/fixation3.jpg></div><div class='cl'><div class='vertical-center'><font style='color:orange'>$28<br>for<br>yourself</font></div></div><div class='cr'><div class='vertical-center'>$30<br>for<br>Alice L</div></div><div class='respDivL'><div class='vertical-center'><font style='color:orange'>(E)</font></div></div><div class='respDivR'><div class='vertical-center'>(I)</div></div></div>","null","$28<br>for<br>yourself","$30<br>for<br>5","0","28","30","5",""
"","","","FIX","632aaef27780d596dc7e0a9f","bdp_sd","Wed Mar 29 2023 14:41:19 GMT-0500 (Central Daylight Time)","175991","html-keyboard-response","30","132806","0.0-6.0-1.8","","null","","","<div class='trialBorder'><div class='vertical-center'><img style='vertical-align:center; align:center' src=img/fixation3.jpg></div></div>","null","","","","","","",""
"","","","offer","632aaef27780d596dc7e0a9f","bdp_sd","Wed Mar 29 2023 14:41:19 GMT-0500 (Central Daylight Time)","175991","html-keyboard-response","31","134856","0.0-6.0-2.8","","2048","","","<div class='trialBorder'><div class='vertical-center'><img style='vertical-align:center; align:center' src=img/fixation3.jpg></div><div class='cl'><div class='vertical-center'>$78<br>for<br>yourself</div></div><div class='cr'><div class='vertical-center'>$80<br>for<br>Alice L</div></div><div class='respDivL'><div class='vertical-center'>(E)</div></div><div class='respDivR'><div class='vertical-center'>(I)</div></div></div>","E","$78<br>for<br>yourself","$80<br>for<br>5","0","78","80","5","SELF"
"","","","offerFB","632aaef27780d596dc7e0a9f","bdp_sd","Wed Mar 29 2023 14:41:19 GMT-0500 (Central Daylight Time)","175991","html-keyboard-response","32","135119","0.0-6.0-3.8","","null","","","<div class='trialBorder'><div class='vertical-center'><img style='vertical-align:center; align:center' src=img/fixation3.jpg></div><div class='cl'><div class='vertical-center'><font style='color:orange'>$78<br>for<br>yourself</font></div></div><div class='cr'><div class='vertical-center'>$80<br>for<br>Alice L</div></div><div class='respDivL'><div class='vertical-center'><font style='color:orange'>(E)</font></div></div><div class='respDivR'><div class='vertical-center'>(I)</div></div></div>","null","$78<br>for<br>yourself","$80<br>for<br>5","0","78","80","5",""
"","","","FIX","632aaef27780d596dc7e0a9f","bdp_sd","Wed Mar 29 2023 14:41:19 GMT-0500 (Central Daylight Time)","175991","html-keyboard-response","33","135632","0.0-6.0-1.9","","null","","","<div class='trialBorder'><div class='vertical-center'><img style='vertical-align:center; align:center' src=img/fixation3.jpg></div></div>","null","","","","","","",""
"","","","offer","632aaef27780d596dc7e0a9f","bdp_sd","Wed Mar 29 2023 14:41:19 GMT-0500 (Central Daylight Time)","175991","html-keyboard-response","34","136983","0.0-6.0-2.9","","1350","","","<div class='trialBorder'><div class='vertical-center'><img style='vertical-align:center; align:center' src=img/fixation3.jpg></div><div class='cl'><div class='vertical-center'>$55<br>for<br>Alberta F</div></div><div class='cr'><div class='vertical-center'>$20<br>for<br>yourself</div></div><div class='respDivL'><div class='vertical-center'>(E)</div></div><div class='respDivR'><div class='vertical-center'>(I)</div></div></div>","E","$20<br>for<br>yourself","$55<br>for<br>1","1","20","55","1","OTHER"
"","","","offerFB","632aaef27780d596dc7e0a9f","bdp_sd","Wed Mar 29 2023 14:41:19 GMT-0500 (Central Daylight Time)","175991","html-keyboard-response","35","137248","0.0-6.0-3.9","","null","","","<div class='trialBorder'><div class='vertical-center'><img style='vertical-align:center; align:center' src=img/fixation3.jpg></div><div class='cl'><div class='vertical-center'><font style='color:orange'>$55<br>for<br>Alberta F</font></div></div><div class='cr'><div class='vertical-center'>$20<br>for<br>yourself</div></div><div class='respDivL'><div class='vertical-center'><font style='color:orange'>(E)</font></div></div><div class='respDivR'><div class='vertical-center'>(I)</div></div></div>","null","$20<br>for<br>yourself","$55<br>for<br>1","1","20","55","1",""
"","","","FIX","632aaef27780d596dc7e0a9f","bdp_sd","Wed Mar 29 2023 14:41:19 GMT-0500 (Central Daylight Time)","175991","html-keyboard-response","36","137760","0.0-6.0-1.10","","null","","","<div class='trialBorder'><div class='vertical-center'><img style='vertical-align:center; align:center' src=img/fixation3.jpg></div></div>","null","","","","","","",""
"","","","offer","632aaef27780d596dc7e0a9f","bdp_sd","Wed Mar 29 2023 14:41:19 GMT-0500 (Central Daylight Time)","175991","html-keyboard-response","37","138943","0.0-6.0-2.10","","1182","","","<div class='trialBorder'><div class='vertical-center'><img style='vertical-align:center; align:center' src=img/fixation3.jpg></div><div class='cl'><div class='vertical-center'>$41<br>for<br>yourself</div></div><div class='cr'><div class='vertical-center'>$75<br>for<br>Richael S</div></div><div class='respDivL'><div class='vertical-center'>(E)</div></div><div class='respDivR'><div class='vertical-center'>(I)</div></div></div>","I","$41<br>for<br>yourself","$75<br>for<br>3","0","41","75","3","OTHER"
"","","","offerFB","632aaef27780d596dc7e0a9f","bdp_sd","Wed Mar 29 2023 14:41:19 GMT-0500 (Central Daylight Time)","175991","html-keyboard-response","38","139207","0.0-6.0-3.10","","null","","","<div class='trialBorder'><div class='vertical-center'><img style='vertical-align:center; align:center' src=img/fixation3.jpg></div><div class='cl'><div class='vertical-center'>$41<br>for<br>yourself</div></div><div class='cr'><div class='vertical-center'><font style='color:orange'>$75<br>for<br>Richael S</font></div></div><div class='respDivL'><div class='vertical-center'>(E)</div></div><div class='respDivR'><div class='vertical-center'><font style='color:orange'>(I)</font></div></div></div>","null","$41<br>for<br>yourself","$75<br>for<br>3","0","41","75","3",""
"","","","FIX","632aaef27780d596dc7e0a9f","bdp_sd","Wed Mar 29 2023 14:41:19 GMT-0500 (Central Daylight Time)","175991","html-keyboard-response","39","139720","0.0-6.0-1.11","","null","","","<div class='trialBorder'><div class='vertical-center'><img style='vertical-align:center; align:center' src=img/fixation3.jpg></div></div>","null","","","","","","",""
"","","","offer","632aaef27780d596dc7e0a9f","bdp_sd","Wed Mar 29 2023 14:41:19 GMT-0500 (Central Daylight Time)","175991","html-keyboard-response","40","140816","0.0-6.0-2.11","","1094","","","<div class='trialBorder'><div class='vertical-center'><img style='vertical-align:center; align:center' src=img/fixation3.jpg></div><div class='cl'><div class='vertical-center'>$85<br>for<br>Bryan H</div></div><div class='cr'><div class='vertical-center'>$69<br>for<br>yourself</div></div><div class='respDivL'><div class='vertical-center'>(E)</div></div><div class='respDivR'><div class='vertical-center'>(I)</div></div></div>","E","$69<br>for<br>yourself","$85<br>for<br>4","1","69","85","4","OTHER"
"","","","offerFB","632aaef27780d596dc7e0a9f","bdp_sd","Wed Mar 29 2023 14:41:19 GMT-0500 (Central Daylight Time)","175991","html-keyboard-response","41","141075","0.0-6.0-3.11","","null","","","<div class='trialBorder'><div class='vertical-center'><img style='vertical-align:center; align:center' src=img/fixation3.jpg></div><div class='cl'><div class='vertical-center'><font style='color:orange'>$85<br>for<br>Bryan H</font></div></div><div class='cr'><div class='vertical-center'>$69<br>for<br>yourself</div></div><div class='respDivL'><div class='vertical-center'><font style='color:orange'>(E)</font></div></div><div class='respDivR'><div class='vertical-center'>(I)</div></div></div>","null","$69<br>for<br>yourself","$85<br>for<br>4","1","69","85","4",""
"","","","FIX","632aaef27780d596dc7e0a9f","bdp_sd","Wed Mar 29 2023 14:41:19 GMT-0500 (Central Daylight Time)","175991","html-keyboard-response","42","141587","0.0-6.0-1.12","","null","","","<div class='trialBorder'><div class='vertical-center'><img style='vertical-align:center; align:center' src=img/fixation3.jpg></div></div>","null","","","","","","",""
"","","","offer","632aaef27780d596dc7e0a9f","bdp_sd","Wed Mar 29 2023 14:41:19 GMT-0500 (Central Daylight Time)","175991","html-keyboard-response","43","142783","0.0-6.0-2.12","","1195","","","<div class='trialBorder'><div class='vertical-center'><img style='vertical-align:center; align:center' src=img/fixation3.jpg></div><div class='cl'><div class='vertical-center'>$55<br>for<br>yourself</div></div><div class='cr'><div class='vertical-center'>$75<br>for<br>Bryan H</div></div><div class='respDivL'><div class='vertical-center'>(E)</div></div><div class='respDivR'><div class='vertical-center'>(I)</div></div></div>","I","$55<br>for<br>yourself","$75<br>for<br>4","0","55","75","4","OTHER"
"","","","offerFB","632aaef27780d596dc7e0a9f","bdp_sd","Wed Mar 29 2023 14:41:19 GMT-0500 (Central Daylight Time)","175991","html-keyboard-response","44","143039","0.0-6.0-3.12","","null","","","<div class='trialBorder'><div class='vertical-center'><img style='vertical-align:center; align:center' src=img/fixation3.jpg></div><div class='cl'><div class='vertical-center'>$55<br>for<br>yourself</div></div><div class='cr'><div class='vertical-center'><font style='color:orange'>$75<br>for<br>Bryan H</font></div></div><div class='respDivL'><div class='vertical-center'>(E)</div></div><div class='respDivR'><div class='vertical-center'><font style='color:orange'>(I)</font></div></div></div>","null","$55<br>for<br>yourself","$75<br>for<br>4","0","55","75","4",""
"","","","FIX","632aaef27780d596dc7e0a9f","bdp_sd","Wed Mar 29 2023 14:41:19 GMT-0500 (Central Daylight Time)","175991","html-keyboard-response","45","143550","0.0-6.0-1.13","","null","","","<div class='trialBorder'><div class='vertical-center'><img style='vertical-align:center; align:center' src=img/fixation3.jpg></div></div>","null","","","","","","",""
"","","","offer","632aaef27780d596dc7e0a9f","bdp_sd","Wed Mar 29 2023 14:41:19 GMT-0500 (Central Daylight Time)","175991","html-keyboard-response","46","144631","0.0-6.0-2.13","","1079","","","<div class='trialBorder'><div class='vertical-center'><img style='vertical-align:center; align:center' src=img/fixation3.jpg></div><div class='cl'><div class='vertical-center'>$50<br>for<br>Bryan H</div></div><div class='cr'><div class='vertical-center'>$34<br>for<br>yourself</div></div><div class='respDivL'><div class='vertical-center'>(E)</div></div><div class='respDivR'><div class='vertical-center'>(I)</div></div></div>","E","$34<br>for<br>yourself","$50<br>for<br>4","1","34","50","4","OTHER"
"","","","offerFB","632aaef27780d596dc7e0a9f","bdp_sd","Wed Mar 29 2023 14:41:19 GMT-0500 (Central Daylight Time)","175991","html-keyboard-response","47","144884","0.0-6.0-3.13","","null","","","<div class='trialBorder'><div class='vertical-center'><img style='vertical-align:center; align:center' src=img/fixation3.jpg></div><div class='cl'><div class='vertical-center'><font style='color:orange'>$50<br>for<br>Bryan H</font></div></div><div class='cr'><div class='vertical-center'>$34<br>for<br>yourself</div></div><div class='respDivL'><div class='vertical-center'><font style='color:orange'>(E)</font></div></div><div class='respDivR'><div class='vertical-center'>(I)</div></div></div>","null","$34<br>for<br>yourself","$50<br>for<br>4","1","34","50","4",""
"","","","FIX","632aaef27780d596dc7e0a9f","bdp_sd","Wed Mar 29 2023 14:41:19 GMT-0500 (Central Daylight Time)","175991","html-keyboard-response","48","145398","0.0-6.0-1.14","","null","","","<div class='trialBorder'><div class='vertical-center'><img style='vertical-align:center; align:center' src=img/fixation3.jpg></div></div>","null","","","","","","",""
"","","","offer","632aaef27780d596dc7e0a9f","bdp_sd","Wed Mar 29 2023 14:41:19 GMT-0500 (Central Daylight Time)","175991","html-keyboard-response","49","147480","0.0-6.0-2.14","","2080","","","<div class='trialBorder'><div class='vertical-center'><img style='vertical-align:center; align:center' src=img/fixation3.jpg></div><div class='cl'><div class='vertical-center'>$34<br>for<br>yourself</div></div><div class='cr'><div class='vertical-center'>$35<br>for<br>Alice L</div></div><div class='respDivL'><div class='vertical-center'>(E)</div></div><div class='respDivR'><div class='vertical-center'>(I)</div></div></div>","E","$34<br>for<br>yourself","$35<br>for<br>5","0","34","35","5","SELF"
"","","","offerFB","632aaef27780d596dc7e0a9f","bdp_sd","Wed Mar 29 2023 14:41:19 GMT-0500 (Central Daylight Time)","175991","html-keyboard-response","50","147739","0.0-6.0-3.14","","null","","","<div class='trialBorder'><div class='vertical-center'><img style='vertical-align:center; align:center' src=img/fixation3.jpg></div><div class='cl'><div class='vertical-center'><font style='color:orange'>$34<br>for<br>yourself</font></div></div><div class='cr'><div class='vertical-center'>$35<br>for<br>Alice L</div></div><div class='respDivL'><div class='vertical-center'><font style='color:orange'>(E)</font></div></div><div class='respDivR'><div class='vertical-center'>(I)</div></div></div>","null","$34<br>for<br>yourself","$35<br>for<br>5","0","34","35","5",""
"","","","FIX","632aaef27780d596dc7e0a9f","bdp_sd","Wed Mar 29 2023 14:41:19 GMT-0500 (Central Daylight Time)","175991","html-keyboard-response","51","148251","0.0-6.0-1.15","","null","","","<div class='trialBorder'><div class='vertical-center'><img style='vertical-align:center; align:center' src=img/fixation3.jpg></div></div>","null","","","","","","",""
"","","","offer","632aaef27780d596dc7e0a9f","bdp_sd","Wed Mar 29 2023 14:41:19 GMT-0500 (Central Daylight Time)","175991","html-keyboard-response","52","150144","0.0-6.0-2.15","","1891","","","<div class='trialBorder'><div class='vertical-center'><img style='vertical-align:center; align:center' src=img/fixation3.jpg></div><div class='cl'><div class='vertical-center'>$25<br>for<br>Bryan H</div></div><div class='cr'><div class='vertical-center'>$19<br>for<br>yourself</div></div><div class='respDivL'><div class='vertical-center'>(E)</div></div><div class='respDivR'><div class='vertical-center'>(I)</div></div></div>","E","$19<br>for<br>yourself","$25<br>for<br>4","1","19","25","4","OTHER"
"","","","offerFB","632aaef27780d596dc7e0a9f","bdp_sd","Wed Mar 29 2023 14:41:19 GMT-0500 (Central Daylight Time)","175991","html-keyboard-response","53","150407","0.0-6.0-3.15","","null","","","<div class='trialBorder'><div class='vertical-center'><img style='vertical-align:center; align:center' src=img/fixation3.jpg></div><div class='cl'><div class='vertical-center'><font style='color:orange'>$25<br>for<br>Bryan H</font></div></div><div class='cr'><div class='vertical-center'>$19<br>for<br>yourself</div></div><div class='respDivL'><div class='vertical-center'><font style='color:orange'>(E)</font></div></div><div class='respDivR'><div class='vertical-center'>(I)</div></div></div>","null","$19<br>for<br>yourself","$25<br>for<br>4","1","19","25","4",""
"","","","FIX","632aaef27780d596dc7e0a9f","bdp_sd","Wed Mar 29 2023 14:41:19 GMT-0500 (Central Daylight Time)","175991","html-keyboard-response","54","150921","0.0-6.0-1.16","","null","","","<div class='trialBorder'><div class='vertical-center'><img style='vertical-align:center; align:center' src=img/fixation3.jpg></div></div>","null","","","","","","",""
"","","","offer","632aaef27780d596dc7e0a9f","bdp_sd","Wed Mar 29 2023 14:41:19 GMT-0500 (Central Daylight Time)","175991","html-keyboard-response","55","152224","0.0-6.0-2.16","","1300","","","<div class='trialBorder'><div class='vertical-center'><img style='vertical-align:center; align:center' src=img/fixation3.jpg></div><div class='cl'><div class='vertical-center'>$75<br>for<br>Alice L</div></div><div class='cr'><div class='vertical-center'>$67<br>for<br>yourself</div></div><div class='respDivL'><div class='vertical-center'>(E)</div></div><div class='respDivR'><div class='vertical-center'>(I)</div></div></div>","E","$67<br>for<br>yourself","$75<br>for<br>5","1","67","75","5","OTHER"
"","","","offerFB","632aaef27780d596dc7e0a9f","bdp_sd","Wed Mar 29 2023 14:41:19 GMT-0500 (Central Daylight Time)","175991","html-keyboard-response","56","152478","0.0-6.0-3.16","","null","","","<div class='trialBorder'><div class='vertical-center'><img style='vertical-align:center; align:center' src=img/fixation3.jpg></div><div class='cl'><div class='vertical-center'><font style='color:orange'>$75<br>for<br>Alice L</font></div></div><div class='cr'><div class='vertical-center'>$67<br>for<br>yourself</div></div><div class='respDivL'><div class='vertical-center'><font style='color:orange'>(E)</font></div></div><div class='respDivR'><div class='vertical-center'>(I)</div></div></div>","null","$67<br>for<br>yourself","$75<br>for<br>5","1","67","75","5",""
"","","","FIX","632aaef27780d596dc7e0a9f","bdp_sd","Wed Mar 29 2023 14:41:19 GMT-0500 (Central Daylight Time)","175991","html-keyboard-response","57","152990","0.0-6.0-1.17","","null","","","<div class='trialBorder'><div class='vertical-center'><img style='vertical-align:center; align:center' src=img/fixation3.jpg></div></div>","null","","","","","","",""
"","","","offer","632aaef27780d596dc7e0a9f","bdp_sd","Wed Mar 29 2023 14:41:19 GMT-0500 (Central Daylight Time)","175991","html-keyboard-response","58","154104","0.0-6.0-2.17","","1111","","","<div class='trialBorder'><div class='vertical-center'><img style='vertical-align:center; align:center' src=img/fixation3.jpg></div><div class='cl'><div class='vertical-center'>$85<br>for<br>Alice L</div></div><div class='cr'><div class='vertical-center'>$80<br>for<br>yourself</div></div><div class='respDivL'><div class='vertical-center'>(E)</div></div><div class='respDivR'><div class='vertical-center'>(I)</div></div></div>","E","$80<br>for<br>yourself","$85<br>for<br>5","1","80","85","5","OTHER"
"","","","offerFB","632aaef27780d596dc7e0a9f","bdp_sd","Wed Mar 29 2023 14:41:19 GMT-0500 (Central Daylight Time)","175991","html-keyboard-response","59","154357","0.0-6.0-3.17","","null","","","<div class='trialBorder'><div class='vertical-center'><img style='vertical-align:center; align:center' src=img/fixation3.jpg></div><div class='cl'><div class='vertical-center'><font style='color:orange'>$85<br>for<br>Alice L</font></div></div><div class='cr'><div class='vertical-center'>$80<br>for<br>yourself</div></div><div class='respDivL'><div class='vertical-center'><font style='color:orange'>(E)</font></div></div><div class='respDivR'><div class='vertical-center'>(I)</div></div></div>","null","$80<br>for<br>yourself","$85<br>for<br>5","1","80","85","5",""
"","","","FIX","632aaef27780d596dc7e0a9f","bdp_sd","Wed Mar 29 2023 14:41:19 GMT-0500 (Central Daylight Time)","175991","html-keyboard-response","60","154870","0.0-6.0-1.18","","null","","","<div class='trialBorder'><div class='vertical-center'><img style='vertical-align:center; align:center' src=img/fixation3.jpg></div></div>","null","","","","","","",""
"","","","offer","632aaef27780d596dc7e0a9f","bdp_sd","Wed Mar 29 2023 14:41:19 GMT-0500 (Central Daylight Time)","175991","html-keyboard-response","61","156040","0.0-6.0-2.18","","1168","","","<div class='trialBorder'><div class='vertical-center'><img style='vertical-align:center; align:center' src=img/fixation3.jpg></div><div class='cl'><div class='vertical-center'>$30<br>for<br>Raphael S</div></div><div class='cr'><div class='vertical-center'>$11<br>for<br>yourself</div></div><div class='respDivL'><div class='vertical-center'>(E)</div></div><div class='respDivR'><div class='vertical-center'>(I)</div></div></div>","E","$11<br>for<br>yourself","$30<br>for<br>2","1","11","30","2","OTHER"
"","","","offerFB","632aaef27780d596dc7e0a9f","bdp_sd","Wed Mar 29 2023 14:41:19 GMT-0500 (Central Daylight Time)","175991","html-keyboard-response","62","156300","0.0-6.0-3.18","","null","","","<div class='trialBorder'><div class='vertical-center'><img style='vertical-align:center; align:center' src=img/fixation3.jpg></div><div class='cl'><div class='vertical-center'><font style='color:orange'>$30<br>for<br>Raphael S</font></div></div><div class='cr'><div class='vertical-center'>$11<br>for<br>yourself</div></div><div class='respDivL'><div class='vertical-center'><font style='color:orange'>(E)</font></div></div><div class='respDivR'><div class='vertical-center'>(I)</div></div></div>","null","$11<br>for<br>yourself","$30<br>for<br>2","1","11","30","2",""
"","","","FIX","632aaef27780d596dc7e0a9f","bdp_sd","Wed Mar 29 2023 14:41:19 GMT-0500 (Central Daylight Time)","175991","html-keyboard-response","63","156811","0.0-6.0-1.19","","null","","","<div class='trialBorder'><div class='vertical-center'><img style='vertical-align:center; align:center' src=img/fixation3.jpg></div></div>","null","","","","","","",""
"","","","offer","632aaef27780d596dc7e0a9f","bdp_sd","Wed Mar 29 2023 14:41:19 GMT-0500 (Central Daylight Time)","175991","html-keyboard-response","64","157863","0.0-6.0-2.19","","1050","","","<div class='trialBorder'><div class='vertical-center'><img style='vertical-align:center; align:center' src=img/fixation3.jpg></div><div class='cl'><div class='vertical-center'>$25<br>for<br>yourself</div></div><div class='cr'><div class='vertical-center'>$60<br>for<br>Richael S</div></div><div class='respDivL'><div class='vertical-center'>(E)</div></div><div class='respDivR'><div class='vertical-center'>(I)</div></div></div>","I","$25<br>for<br>yourself","$60<br>for<br>3","0","25","60","3","OTHER"
"","","","offerFB","632aaef27780d596dc7e0a9f","bdp_sd","Wed Mar 29 2023 14:41:19 GMT-0500 (Central Daylight Time)","175991","html-keyboard-response","65","158116","0.0-6.0-3.19","","null","","","<div class='trialBorder'><div class='vertical-center'><img style='vertical-align:center; align:center' src=img/fixation3.jpg></div><div class='cl'><div class='vertical-center'>$25<br>for<br>yourself</div></div><div class='cr'><div class='vertical-center'><font style='color:orange'>$60<br>for<br>Richael S</font></div></div><div class='respDivL'><div class='vertical-center'>(E)</div></div><div class='respDivR'><div class='vertical-center'><font style='color:orange'>(I)</font></div></div></div>","null","$25<br>for<br>yourself","$60<br>for<br>3","0","25","60","3",""
"","","","FIX","632aaef27780d596dc7e0a9f","bdp_sd","Wed Mar 29 2023 14:41:19 GMT-0500 (Central Daylight Time)","175991","html-keyboard-response","66","158632","0.0-6.0-1.20","","null","","","<div class='trialBorder'><div class='vertical-center'><img style='vertical-align:center; align:center' src=img/fixation3.jpg></div></div>","null","","","","","","",""
"","","","offer","632aaef27780d596dc7e0a9f","bdp_sd","Wed Mar 29 2023 14:41:19 GMT-0500 (Central Daylight Time)","175991","html-keyboard-response","67","159632","0.0-6.0-2.20","","999","","","<div class='trialBorder'><div class='vertical-center'><img style='vertical-align:center; align:center' src=img/fixation3.jpg></div><div class='cl'><div class='vertical-center'>$80<br>for<br>Raphael S</div></div><div class='cr'><div class='vertical-center'>$33<br>for<br>yourself</div></div><div class='respDivL'><div class='vertical-center'>(E)</div></div><div class='respDivR'><div class='vertical-center'>(I)</div></div></div>","E","$33<br>for<br>yourself","$80<br>for<br>2","1","33","80","2","OTHER"
"","","","offerFB","632aaef27780d596dc7e0a9f","bdp_sd","Wed Mar 29 2023 14:41:19 GMT-0500 (Central Daylight Time)","175991","html-keyboard-response","68","159888","0.0-6.0-3.20","","null","","","<div class='trialBorder'><div class='vertical-center'><img style='vertical-align:center; align:center' src=img/fixation3.jpg></div><div class='cl'><div class='vertical-center'><font style='color:orange'>$80<br>for<br>Raphael S</font></div></div><div class='cr'><div class='vertical-center'>$33<br>for<br>yourself</div></div><div class='respDivL'><div class='vertical-center'><font style='color:orange'>(E)</font></div></div><div class='respDivR'><div class='vertical-center'>(I)</div></div></div>","null","$33<br>for<br>yourself","$80<br>for<br>2","1","33","80","2",""
"","","","FIX","632aaef27780d596dc7e0a9f","bdp_sd","Wed Mar 29 2023 14:41:19 GMT-0500 (Central Daylight Time)","175991","html-keyboard-response","69","160400","0.0-6.0-1.21","","null","","","<div class='trialBorder'><div class='vertical-center'><img style='vertical-align:center; align:center' src=img/fixation3.jpg></div></div>","null","","","","","","",""
"","","","offer","632aaef27780d596dc7e0a9f","bdp_sd","Wed Mar 29 2023 14:41:19 GMT-0500 (Central Daylight Time)","175991","html-keyboard-response","70","161695","0.0-6.0-2.21","","1292","","","<div class='trialBorder'><div class='vertical-center'><img style='vertical-align:center; align:center' src=img/fixation3.jpg></div><div class='cl'><div class='vertical-center'>$60<br>for<br>Bryan H</div></div><div class='cr'><div class='vertical-center'>$49<br>for<br>yourself</div></div><div class='respDivL'><div class='vertical-center'>(E)</div></div><div class='respDivR'><div class='vertical-center'>(I)</div></div></div>","E","$49<br>for<br>yourself","$60<br>for<br>4","1","49","60","4","OTHER"
"","","","offerFB","632aaef27780d596dc7e0a9f","bdp_sd","Wed Mar 29 2023 14:41:19 GMT-0500 (Central Daylight Time)","175991","html-keyboard-response","71","161956","0.0-6.0-3.21","","null","","","<div class='trialBorder'><div class='vertical-center'><img style='vertical-align:center; align:center' src=img/fixation3.jpg></div><div class='cl'><div class='vertical-center'><font style='color:orange'>$60<br>for<br>Bryan H</font></div></div><div class='cr'><div class='vertical-center'>$49<br>for<br>yourself</div></div><div class='respDivL'><div class='vertical-center'><font style='color:orange'>(E)</font></div></div><div class='respDivR'><div class='vertical-center'>(I)</div></div></div>","null","$49<br>for<br>yourself","$60<br>for<br>4","1","49","60","4",""
"","","","FIX","632aaef27780d596dc7e0a9f","bdp_sd","Wed Mar 29 2023 14:41:19 GMT-0500 (Central Daylight Time)","175991","html-keyboard-response","72","162469","0.0-6.0-1.22","","null","","","<div class='trialBorder'><div class='vertical-center'><img style='vertical-align:center; align:center' src=img/fixation3.jpg></div></div>","null","","","","","","",""
"","","","offer","632aaef27780d596dc7e0a9f","bdp_sd","Wed Mar 29 2023 14:41:19 GMT-0500 (Central Daylight Time)","175991","html-keyboard-response","73","163911","0.0-6.0-2.22","","1441","","","<div class='trialBorder'><div class='vertical-center'><img style='vertical-align:center; align:center' src=img/fixation3.jpg></div><div class='cl'><div class='vertical-center'>$54<br>for<br>yourself</div></div><div class='cr'><div class='vertical-center'>$55<br>for<br>Alice L</div></div><div class='respDivL'><div class='vertical-center'>(E)</div></div><div class='respDivR'><div class='vertical-center'>(I)</div></div></div>","E","$54<br>for<br>yourself","$55<br>for<br>5","0","54","55","5","SELF"
"","","","offerFB","632aaef27780d596dc7e0a9f","bdp_sd","Wed Mar 29 2023 14:41:19 GMT-0500 (Central Daylight Time)","175991","html-keyboard-response","74","164163","0.0-6.0-3.22","","null","","","<div class='trialBorder'><div class='vertical-center'><img style='vertical-align:center; align:center' src=img/fixation3.jpg></div><div class='cl'><div class='vertical-center'><font style='color:orange'>$54<br>for<br>yourself</font></div></div><div class='cr'><div class='vertical-center'>$55<br>for<br>Alice L</div></div><div class='respDivL'><div class='vertical-center'><font style='color:orange'>(E)</font></div></div><div class='respDivR'><div class='vertical-center'>(I)</div></div></div>","null","$54<br>for<br>yourself","$55<br>for<br>5","0","54","55","5",""
"","","","FIX","632aaef27780d596dc7e0a9f","bdp_sd","Wed Mar 29 2023 14:41:19 GMT-0500 (Central Daylight Time)","175991","html-keyboard-response","75","164673","0.0-6.0-1.23","","null","","","<div class='trialBorder'><div class='vertical-center'><img style='vertical-align:center; align:center' src=img/fixation3.jpg></div></div>","null","","","","","","",""
"","","","offer","632aaef27780d596dc7e0a9f","bdp_sd","Wed Mar 29 2023 14:41:19 GMT-0500 (Central Daylight Time)","175991","html-keyboard-response","76","166895","0.0-6.0-2.23","","2221","","","<div class='trialBorder'><div class='vertical-center'><img style='vertical-align:center; align:center' src=img/fixation3.jpg></div><div class='cl'><div class='vertical-center'>$25<br>for<br>Alice L</div></div><div class='cr'><div class='vertical-center'>$22<br>for<br>yourself</div></div><div class='respDivL'><div class='vertical-center'>(E)</div></div><div class='respDivR'><div class='vertical-center'>(I)</div></div></div>","I","$22<br>for<br>yourself","$25<br>for<br>5","1","22","25","5","SELF"
"","","","offerFB","632aaef27780d596dc7e0a9f","bdp_sd","Wed Mar 29 2023 14:41:19 GMT-0500 (Central Daylight Time)","175991","html-keyboard-response","77","167160","0.0-6.0-3.23","","null","","","<div class='trialBorder'><div class='vertical-center'><img style='vertical-align:center; align:center' src=img/fixation3.jpg></div><div class='cl'><div class='vertical-center'>$25<br>for<br>Alice L</div></div><div class='cr'><div class='vertical-center'><font style='color:orange'>$22<br>for<br>yourself</font></div></div><div class='respDivL'><div class='vertical-center'>(E)</div></div><div class='respDivR'><div class='vertical-center'><font style='color:orange'>(I)</font></div></div></div>","null","$22<br>for<br>yourself","$25<br>for<br>5","1","22","25","5",""
"","","","FIX","632aaef27780d596dc7e0a9f","bdp_sd","Wed Mar 29 2023 14:41:19 GMT-0500 (Central Daylight Time)","175991","html-keyboard-response","78","167675","0.0-6.0-1.24","","null","","","<div class='trialBorder'><div class='vertical-center'><img style='vertical-align:center; align:center' src=img/fixation3.jpg></div></div>","null","","","","","","",""
"","","","offer","632aaef27780d596dc7e0a9f","bdp_sd","Wed Mar 29 2023 14:41:19 GMT-0500 (Central Daylight Time)","175991","html-keyboard-response","79","168903","0.0-6.0-2.24","","1227","","","<div class='trialBorder'><div class='vertical-center'><img style='vertical-align:center; align:center' src=img/fixation3.jpg></div><div class='cl'><div class='vertical-center'>$54<br>for<br>yourself</div></div><div class='cr'><div class='vertical-center'>$80<br>for<br>Richael S</div></div><div class='respDivL'><div class='vertical-center'>(E)</div></div><div class='respDivR'><div class='vertical-center'>(I)</div></div></div>","I","$54<br>for<br>yourself","$80<br>for<br>3","0","54","80","3","OTHER"
"","","","offerFB","632aaef27780d596dc7e0a9f","bdp_sd","Wed Mar 29 2023 14:41:19 GMT-0500 (Central Daylight Time)","175991","html-keyboard-response","80","169166","0.0-6.0-3.24","","null","","","<div class='trialBorder'><div class='vertical-center'><img style='vertical-align:center; align:center' src=img/fixation3.jpg></div><div class='cl'><div class='vertical-center'>$54<br>for<br>yourself</div></div><div class='cr'><div class='vertical-center'><font style='color:orange'>$80<br>for<br>Richael S</font></div></div><div class='respDivL'><div class='vertical-center'>(E)</div></div><div class='respDivR'><div class='vertical-center'><font style='color:orange'>(I)</font></div></div></div>","null","$54<br>for<br>yourself","$80<br>for<br>3","0","54","80","3",""
"","","","FIX","632aaef27780d596dc7e0a9f","bdp_sd","Wed Mar 29 2023 14:41:19 GMT-0500 (Central Daylight Time)","175991","html-keyboard-response","81","169678","0.0-6.0-1.25","","null","","","<div class='trialBorder'><div class='vertical-center'><img style='vertical-align:center; align:center' src=img/fixation3.jpg></div></div>","null","","","","","","",""
"","","","offer","632aaef27780d596dc7e0a9f","bdp_sd","Wed Mar 29 2023 14:41:19 GMT-0500 (Central Daylight Time)","175991","html-keyboard-response","82","171743","0.0-6.0-2.25","","2065","","","<div class='trialBorder'><div class='vertical-center'><img style='vertical-align:center; align:center' src=img/fixation3.jpg></div><div class='cl'><div class='vertical-center'>$40<br>for<br>yourself</div></div><div class='cr'><div class='vertical-center'>$55<br>for<br>Bryan H</div></div><div class='respDivL'><div class='vertical-center'>(E)</div></div><div class='respDivR'><div class='vertical-center'>(I)</div></div></div>","I","$40<br>for<br>yourself","$55<br>for<br>4","0","40","55","4","OTHER"
"","","","offerFB","632aaef27780d596dc7e0a9f","bdp_sd","Wed Mar 29 2023 14:41:19 GMT-0500 (Central Daylight Time)","175991","html-keyboard-response","83","172002","0.0-6.0-3.25","","null","","","<div class='trialBorder'><div class='vertical-center'><img style='vertical-align:center; align:center' src=img/fixation3.jpg></div><div class='cl'><div class='vertical-center'>$40<br>for<br>yourself</div></div><div class='cr'><div class='vertical-center'><font style='color:orange'>$55<br>for<br>Bryan H</font></div></div><div class='respDivL'><div class='vertical-center'>(E)</div></div><div class='respDivR'><div class='vertical-center'><font style='color:orange'>(I)</font></div></div></div>","null","$40<br>for<br>yourself","$55<br>for<br>4","0","40","55","4",""
"","","","FIX","632aaef27780d596dc7e0a9f","bdp_sd","Wed Mar 29 2023 14:41:19 GMT-0500 (Central Daylight Time)","175991","html-keyboard-response","84","172513","0.0-6.0-1.26","","null","","","<div class='trialBorder'><div class='vertical-center'><img style='vertical-align:center; align:center' src=img/fixation3.jpg></div></div>","null","","","","","","",""
"","","","offer","632aaef27780d596dc7e0a9f","bdp_sd","Wed Mar 29 2023 14:41:19 GMT-0500 (Central Daylight Time)","175991","html-keyboard-response","85","174727","0.0-6.0-2.26","","2213","","","<div class='trialBorder'><div class='vertical-center'><img style='vertical-align:center; align:center' src=img/fixation3.jpg></div><div class='cl'><div class='vertical-center'>$54<br>for<br>yourself</div></div><div class='cr'><div class='vertical-center'>$60<br>for<br>Alice L</div></div><div class='respDivL'><div class='vertical-center'>(E)</div></div><div class='respDivR'><div class='vertical-center'>(I)</div></div></div>","E","$54<br>for<br>yourself","$60<br>for<br>5","0","54","60","5","SELF"
"","","","offerFB","632aaef27780d596dc7e0a9f","bdp_sd","Wed Mar 29 2023 14:41:19 GMT-0500 (Central Daylight Time)","175991","html-keyboard-response","86","174980","0.0-6.0-3.26","","null","","","<div class='trialBorder'><div class='vertical-center'><img style='vertical-align:center; align:center' src=img/fixation3.jpg></div><div class='cl'><div class='vertical-center'><font style='color:orange'>$54<br>for<br>yourself</font></div></div><div class='cr'><div class='vertical-center'>$60<br>for<br>Alice L</div></div><div class='respDivL'><div class='vertical-center'><font style='color:orange'>(E)</font></div></div><div class='respDivR'><div class='vertical-center'>(I)</div></div></div>","null","$54<br>for<br>yourself","$60<br>for<br>5","0","54","60","5",""
"fullscreenexit","87","175266","fullscreenexit","632aaef27780d596dc7e0a9f","bdp_sd","Wed Mar 29 2023 14:41:19 GMT-0500 (Central Daylight Time)","175991","","","","","","","","","","","","","","","","",""
"","","","","632aaef27780d596dc7e0a9f","bdp_sd","Wed Mar 29 2023 14:41:19 GMT-0500 (Central Daylight Time)","175991","fullscreen","87","175991","0.0-7.0","","","","true","","","","","","","","",""
"","","","","","","","","html-keyboard-response","88","176502","0.0-8.0","","null","","","","null","","","","","","",""
