"trial_type","trial_index","time_elapsed","internal_node_id","subject_id","task","startTime","totalTime","view_history","rt","responses","event","trial","time","trialtype","success","stimulus","key_press","selfOffer","otherOffer","otherLeft","selfAmt","otherAmt","otherDist","chosen"
"pavlovia","0","2","0.0-0.0","5f2f86864fd821374b4367bc","bdp_sd","Mon Mar 27 2023 12:03:56 GMT-0700 (Pacific Daylight Time)","150879","","","","","","","","","","","","","","","","",""
"instructions","1","6688","0.0-1.0","5f2f86864fd821374b4367bc","bdp_sd","Mon Mar 27 2023 12:03:56 GMT-0700 (Pacific Daylight Time)","150879","[{""page_index"":0,""viewing_time"":6686}]","6686","","","","","","","","","","","","","","",""
"survey-text","2","70200","0.0-2.0","5f2f86864fd821374b4367bc","bdp_sd","Mon Mar 27 2023 12:03:56 GMT-0700 (Pacific Daylight Time)","150879","","63511","{""Q0"":""Eric S"",""Q1"":""Edwin S"",""Q2"":""Kellie G"",""Q3"":""Thomas T"",""Q4"":""Janice F""}","","","","","","","","","","","","","",""
"","","","","5f2f86864fd821374b4367bc","bdp_sd","Mon Mar 27 2023 12:03:56 GMT-0700 (Pacific Daylight Time)","150879","","","","fullscreenenter","3","72833","fullscreenenter","","","","","","","","","",""
"fullscreen","3","73821","0.0-3.0","5f2f86864fd821374b4367bc","bdp_sd","Mon Mar 27 2023 12:03:56 GMT-0700 (Pacific Daylight Time)","150879","","","","","","","","true","","","","","","","","",""
"","","","","5f2f86864fd821374b4367bc","bdp_sd","Mon Mar 27 2023 12:03:56 GMT-0700 (Pacific Daylight Time)","150879","","","","fullscreenexit","4","74536","fullscreenexit","","","","","","","","","",""
"instructions","4","104488","0.0-5.0","5f2f86864fd821374b4367bc","bdp_sd","Mon Mar 27 2023 12:03:56 GMT-0700 (Pacific Daylight Time)","150879","[{""page_index"":0,""viewing_time"":6105},{""page_index"":1,""viewing_time"":20605},{""page_index"":2,""viewing_time"":3955}]","30665","","","","","","","","","","","","","","",""
"html-keyboard-response","5","104991","0.0-6.0-1.0","5f2f86864fd821374b4367bc","bdp_sd","Mon Mar 27 2023 12:03:56 GMT-0700 (Pacific Daylight Time)","150879","","null","","","","","FIX","","<div class='trialBorder'><div class='vertical-center'><img style='vertical-align:center; align:center' src=img/fixation3.jpg></div></div>","null","","","","","","",""
"html-keyboard-response","6","107258","0.0-6.0-2.0","5f2f86864fd821374b4367bc","bdp_sd","Mon Mar 27 2023 12:03:56 GMT-0700 (Pacific Daylight Time)","150879","","2264","","","","","offer","","<div class='trialBorder'><div class='vertical-center'><img style='vertical-align:center; align:center' src=img/fixation3.jpg></div><div class='cl'><div class='vertical-center'>$60<br>for<br>Kellie G</div></div><div class='cr'><div class='vertical-center'>$25<br>for<br>yourself</div></div><div class='respDivL'><div class='vertical-center'>(E)</div></div><div class='respDivR'><div class='vertical-center'>(I)</div></div></div>","E","$25<br>for<br>yourself","$60<br>for<br>3","1","25","60","3","OTHER"
"html-keyboard-response","7","107512","0.0-6.0-3.0","5f2f86864fd821374b4367bc","bdp_sd","Mon Mar 27 2023 12:03:56 GMT-0700 (Pacific Daylight Time)","150879","","null","","","","","offerFB","","<div class='trialBorder'><div class='vertical-center'><img style='vertical-align:center; align:center' src=img/fixation3.jpg></div><div class='cl'><div class='vertical-center'><font style='color:orange'>$60<br>for<br>Kellie G</font></div></div><div class='cr'><div class='vertical-center'>$25<br>for<br>yourself</div></div><div class='respDivL'><div class='vertical-center'><font style='color:orange'>(E)</font></div></div><div class='respDivR'><div class='vertical-center'>(I)</div></div></div>","null","$25<br>for<br>yourself","$60<br>for<br>3","1","25","60","3",""
"html-keyboard-response","8","108013","0.0-6.0-1.1","5f2f86864fd821374b4367bc","bdp_sd","Mon Mar 27 2023 12:03:56 GMT-0700 (Pacific Daylight Time)","150879","","null","","","","","FIX","","<div class='trialBorder'><div class='vertical-center'><img style='vertical-align:center; align:center' src=img/fixation3.jpg></div></div>","null","","","","","","",""
"html-keyboard-response","9","110826","0.0-6.0-2.1","5f2f86864fd821374b4367bc","bdp_sd","Mon Mar 27 2023 12:03:56 GMT-0700 (Pacific Daylight Time)","150879","","2810","","","","","offer","","<div class='trialBorder'><div class='vertical-center'><img style='vertical-align:center; align:center' src=img/fixation3.jpg></div><div class='cl'><div class='vertical-center'>$15<br>for<br>yourself</div></div><div class='cr'><div class='vertical-center'>$35<br>for<br>Edwin S</div></div><div class='respDivL'><div class='vertical-center'>(E)</div></div><div class='respDivR'><div class='vertical-center'>(I)</div></div></div>","E","$15<br>for<br>yourself","$35<br>for<br>2","0","15","35","2","SELF"
"html-keyboard-response","10","111077","0.0-6.0-3.1","5f2f86864fd821374b4367bc","bdp_sd","Mon Mar 27 2023 12:03:56 GMT-0700 (Pacific Daylight Time)","150879","","null","","","","","offerFB","","<div class='trialBorder'><div class='vertical-center'><img style='vertical-align:center; align:center' src=img/fixation3.jpg></div><div class='cl'><div class='vertical-center'><font style='color:orange'>$15<br>for<br>yourself</font></div></div><div class='cr'><div class='vertical-center'>$35<br>for<br>Edwin S</div></div><div class='respDivL'><div class='vertical-center'><font style='color:orange'>(E)</font></div></div><div class='respDivR'><div class='vertical-center'>(I)</div></div></div>","null","$15<br>for<br>yourself","$35<br>for<br>2","0","15","35","2",""
"html-keyboard-response","11","111579","0.0-6.0-1.2","5f2f86864fd821374b4367bc","bdp_sd","Mon Mar 27 2023 12:03:56 GMT-0700 (Pacific Daylight Time)","150879","","null","","","","","FIX","","<div class='trialBorder'><div class='vertical-center'><img style='vertical-align:center; align:center' src=img/fixation3.jpg></div></div>","null","","","","","","",""
"html-keyboard-response","12","113280","0.0-6.0-2.2","5f2f86864fd821374b4367bc","bdp_sd","Mon Mar 27 2023 12:03:56 GMT-0700 (Pacific Daylight Time)","150879","","1700","","","","","offer","","<div class='trialBorder'><div class='vertical-center'><img style='vertical-align:center; align:center' src=img/fixation3.jpg></div><div class='cl'><div class='vertical-center'>$25<br>for<br>yourself</div></div><div class='cr'><div class='vertical-center'>$30<br>for<br>Thomas T</div></div><div class='respDivL'><div class='vertical-center'>(E)</div></div><div class='respDivR'><div class='vertical-center'>(I)</div></div></div>","E","$25<br>for<br>yourself","$30<br>for<br>4","0","25","30","4","SELF"
"html-keyboard-response","13","113532","0.0-6.0-3.2","5f2f86864fd821374b4367bc","bdp_sd","Mon Mar 27 2023 12:03:56 GMT-0700 (Pacific Daylight Time)","150879","","null","","","","","offerFB","","<div class='trialBorder'><div class='vertical-center'><img style='vertical-align:center; align:center' src=img/fixation3.jpg></div><div class='cl'><div class='vertical-center'><font style='color:orange'>$25<br>for<br>yourself</font></div></div><div class='cr'><div class='vertical-center'>$30<br>for<br>Thomas T</div></div><div class='respDivL'><div class='vertical-center'><font style='color:orange'>(E)</font></div></div><div class='respDivR'><div class='vertical-center'>(I)</div></div></div>","null","$25<br>for<br>yourself","$30<br>for<br>4","0","25","30","4",""
"html-keyboard-response","14","114034","0.0-6.0-1.3","5f2f86864fd821374b4367bc","bdp_sd","Mon Mar 27 2023 12:03:56 GMT-0700 (Pacific Daylight Time)","150879","","null","","","","","FIX","","<div class='trialBorder'><div class='vertical-center'><img style='vertical-align:center; align:center' src=img/fixation3.jpg></div></div>","null","","","","","","",""
"html-keyboard-response","15","116506","0.0-6.0-2.3","5f2f86864fd821374b4367bc","bdp_sd","Mon Mar 27 2023 12:03:56 GMT-0700 (Pacific Daylight Time)","150879","","2469","","","","","offer","","<div class='trialBorder'><div class='vertical-center'><img style='vertical-align:center; align:center' src=img/fixation3.jpg></div><div class='cl'><div class='vertical-center'>$75<br>for<br>Janice F</div></div><div class='cr'><div class='vertical-center'>$67<br>for<br>yourself</div></div><div class='respDivL'><div class='vertical-center'>(E)</div></div><div class='respDivR'><div class='vertical-center'>(I)</div></div></div>","I","$67<br>for<br>yourself","$75<br>for<br>5","1","67","75","5","SELF"
"html-keyboard-response","16","116759","0.0-6.0-3.3","5f2f86864fd821374b4367bc","bdp_sd","Mon Mar 27 2023 12:03:56 GMT-0700 (Pacific Daylight Time)","150879","","null","","","","","offerFB","","<div class='trialBorder'><div class='vertical-center'><img style='vertical-align:center; align:center' src=img/fixation3.jpg></div><div class='cl'><div class='vertical-center'>$75<br>for<br>Janice F</div></div><div class='cr'><div class='vertical-center'><font style='color:orange'>$67<br>for<br>yourself</font></div></div><div class='respDivL'><div class='vertical-center'>(E)</div></div><div class='respDivR'><div class='vertical-center'><font style='color:orange'>(I)</font></div></div></div>","null","$67<br>for<br>yourself","$75<br>for<br>5","1","67","75","5",""
"html-keyboard-response","17","117261","0.0-6.0-1.4","5f2f86864fd821374b4367bc","bdp_sd","Mon Mar 27 2023 12:03:56 GMT-0700 (Pacific Daylight Time)","150879","","null","","","","","FIX","","<div class='trialBorder'><div class='vertical-center'><img style='vertical-align:center; align:center' src=img/fixation3.jpg></div></div>","null","","","","","","",""
"html-keyboard-response","18","119281","0.0-6.0-2.4","5f2f86864fd821374b4367bc","bdp_sd","Mon Mar 27 2023 12:03:56 GMT-0700 (Pacific Daylight Time)","150879","","2017","","","","","offer","","<div class='trialBorder'><div class='vertical-center'><img style='vertical-align:center; align:center' src=img/fixation3.jpg></div><div class='cl'><div class='vertical-center'>$55<br>for<br>Thomas T</div></div><div class='cr'><div class='vertical-center'>$40<br>for<br>yourself</div></div><div class='respDivL'><div class='vertical-center'>(E)</div></div><div class='respDivR'><div class='vertical-center'>(I)</div></div></div>","I","$40<br>for<br>yourself","$55<br>for<br>4","1","40","55","4","SELF"
"html-keyboard-response","19","119533","0.0-6.0-3.4","5f2f86864fd821374b4367bc","bdp_sd","Mon Mar 27 2023 12:03:56 GMT-0700 (Pacific Daylight Time)","150879","","null","","","","","offerFB","","<div class='trialBorder'><div class='vertical-center'><img style='vertical-align:center; align:center' src=img/fixation3.jpg></div><div class='cl'><div class='vertical-center'>$55<br>for<br>Thomas T</div></div><div class='cr'><div class='vertical-center'><font style='color:orange'>$40<br>for<br>yourself</font></div></div><div class='respDivL'><div class='vertical-center'>(E)</div></div><div class='respDivR'><div class='vertical-center'><font style='color:orange'>(I)</font></div></div></div>","null","$40<br>for<br>yourself","$55<br>for<br>4","1","40","55","4",""
"html-keyboard-response","20","120036","0.0-6.0-1.5","5f2f86864fd821374b4367bc","bdp_sd","Mon Mar 27 2023 12:03:56 GMT-0700 (Pacific Daylight Time)","150879","","null","","","","","FIX","","<div class='trialBorder'><div class='vertical-center'><img style='vertical-align:center; align:center' src=img/fixation3.jpg></div></div>","null","","","","","","",""
"html-keyboard-response","21","120861","0.0-6.0-2.5","5f2f86864fd821374b4367bc","bdp_sd","Mon Mar 27 2023 12:03:56 GMT-0700 (Pacific Daylight Time)","150879","","824","","","","","offer","","<div class='trialBorder'><div class='vertical-center'><img style='vertical-align:center; align:center' src=img/fixation3.jpg></div><div class='cl'><div class='vertical-center'>$50<br>for<br>Thomas T</div></div><div class='cr'><div class='vertical-center'>$34<br>for<br>yourself</div></div><div class='respDivL'><div class='vertical-center'>(E)</div></div><div class='respDivR'><div class='vertical-center'>(I)</div></div></div>","I","$34<br>for<br>yourself","$50<br>for<br>4","1","34","50","4","SELF"
"html-keyboard-response","22","121113","0.0-6.0-3.5","5f2f86864fd821374b4367bc","bdp_sd","Mon Mar 27 2023 12:03:56 GMT-0700 (Pacific Daylight Time)","150879","","null","","","","","offerFB","","<div class='trialBorder'><div class='vertical-center'><img style='vertical-align:center; align:center' src=img/fixation3.jpg></div><div class='cl'><div class='vertical-center'>$50<br>for<br>Thomas T</div></div><div class='cr'><div class='vertical-center'><font style='color:orange'>$34<br>for<br>yourself</font></div></div><div class='respDivL'><div class='vertical-center'>(E)</div></div><div class='respDivR'><div class='vertical-center'><font style='color:orange'>(I)</font></div></div></div>","null","$34<br>for<br>yourself","$50<br>for<br>4","1","34","50","4",""
"html-keyboard-response","23","121615","0.0-6.0-1.6","5f2f86864fd821374b4367bc","bdp_sd","Mon Mar 27 2023 12:03:56 GMT-0700 (Pacific Daylight Time)","150879","","null","","","","","FIX","","<div class='trialBorder'><div class='vertical-center'><img style='vertical-align:center; align:center' src=img/fixation3.jpg></div></div>","null","","","","","","",""
"html-keyboard-response","24","122672","0.0-6.0-2.6","5f2f86864fd821374b4367bc","bdp_sd","Mon Mar 27 2023 12:03:56 GMT-0700 (Pacific Daylight Time)","150879","","1056","","","","","offer","","<div class='trialBorder'><div class='vertical-center'><img style='vertical-align:center; align:center' src=img/fixation3.jpg></div><div class='cl'><div class='vertical-center'>$34<br>for<br>yourself</div></div><div class='cr'><div class='vertical-center'>$35<br>for<br>Janice F</div></div><div class='respDivL'><div class='vertical-center'>(E)</div></div><div class='respDivR'><div class='vertical-center'>(I)</div></div></div>","E","$34<br>for<br>yourself","$35<br>for<br>5","0","34","35","5","SELF"
"html-keyboard-response","25","122924","0.0-6.0-3.6","5f2f86864fd821374b4367bc","bdp_sd","Mon Mar 27 2023 12:03:56 GMT-0700 (Pacific Daylight Time)","150879","","null","","","","","offerFB","","<div class='trialBorder'><div class='vertical-center'><img style='vertical-align:center; align:center' src=img/fixation3.jpg></div><div class='cl'><div class='vertical-center'><font style='color:orange'>$34<br>for<br>yourself</font></div></div><div class='cr'><div class='vertical-center'>$35<br>for<br>Janice F</div></div><div class='respDivL'><div class='vertical-center'><font style='color:orange'>(E)</font></div></div><div class='respDivR'><div class='vertical-center'>(I)</div></div></div>","null","$34<br>for<br>yourself","$35<br>for<br>5","0","34","35","5",""
"html-keyboard-response","26","123426","0.0-6.0-1.7","5f2f86864fd821374b4367bc","bdp_sd","Mon Mar 27 2023 12:03:56 GMT-0700 (Pacific Daylight Time)","150879","","null","","","","","FIX","","<div class='trialBorder'><div class='vertical-center'><img style='vertical-align:center; align:center' src=img/fixation3.jpg></div></div>","null","","","","","","",""
"html-keyboard-response","27","124369","0.0-6.0-2.7","5f2f86864fd821374b4367bc","bdp_sd","Mon Mar 27 2023 12:03:56 GMT-0700 (Pacific Daylight Time)","150879","","942","","","","","offer","","<div class='trialBorder'><div class='vertical-center'><img style='vertical-align:center; align:center' src=img/fixation3.jpg></div><div class='cl'><div class='vertical-center'>$22<br>for<br>yourself</div></div><div class='cr'><div class='vertical-center'>$25<br>for<br>Janice F</div></div><div class='respDivL'><div class='vertical-center'>(E)</div></div><div class='respDivR'><div class='vertical-center'>(I)</div></div></div>","E","$22<br>for<br>yourself","$25<br>for<br>5","0","22","25","5","SELF"
"html-keyboard-response","28","124621","0.0-6.0-3.7","5f2f86864fd821374b4367bc","bdp_sd","Mon Mar 27 2023 12:03:56 GMT-0700 (Pacific Daylight Time)","150879","","null","","","","","offerFB","","<div class='trialBorder'><div class='vertical-center'><img style='vertical-align:center; align:center' src=img/fixation3.jpg></div><div class='cl'><div class='vertical-center'><font style='color:orange'>$22<br>for<br>yourself</font></div></div><div class='cr'><div class='vertical-center'>$25<br>for<br>Janice F</div></div><div class='respDivL'><div class='vertical-center'><font style='color:orange'>(E)</font></div></div><div class='respDivR'><div class='vertical-center'>(I)</div></div></div>","null","$22<br>for<br>yourself","$25<br>for<br>5","0","22","25","5",""
"html-keyboard-response","29","125124","0.0-6.0-1.8","5f2f86864fd821374b4367bc","bdp_sd","Mon Mar 27 2023 12:03:56 GMT-0700 (Pacific Daylight Time)","150879","","null","","","","","FIX","","<div class='trialBorder'><div class='vertical-center'><img style='vertical-align:center; align:center' src=img/fixation3.jpg></div></div>","null","","","","","","",""
"html-keyboard-response","30","125912","0.0-6.0-2.8","5f2f86864fd821374b4367bc","bdp_sd","Mon Mar 27 2023 12:03:56 GMT-0700 (Pacific Daylight Time)","150879","","787","","","","","offer","","<div class='trialBorder'><div class='vertical-center'><img style='vertical-align:center; align:center' src=img/fixation3.jpg></div><div class='cl'><div class='vertical-center'>$60<br>for<br>Janice F</div></div><div class='cr'><div class='vertical-center'>$54<br>for<br>yourself</div></div><div class='respDivL'><div class='vertical-center'>(E)</div></div><div class='respDivR'><div class='vertical-center'>(I)</div></div></div>","I","$54<br>for<br>yourself","$60<br>for<br>5","1","54","60","5","SELF"
"html-keyboard-response","31","126164","0.0-6.0-3.8","5f2f86864fd821374b4367bc","bdp_sd","Mon Mar 27 2023 12:03:56 GMT-0700 (Pacific Daylight Time)","150879","","null","","","","","offerFB","","<div class='trialBorder'><div class='vertical-center'><img style='vertical-align:center; align:center' src=img/fixation3.jpg></div><div class='cl'><div class='vertical-center'>$60<br>for<br>Janice F</div></div><div class='cr'><div class='vertical-center'><font style='color:orange'>$54<br>for<br>yourself</font></div></div><div class='respDivL'><div class='vertical-center'>(E)</div></div><div class='respDivR'><div class='vertical-center'><font style='color:orange'>(I)</font></div></div></div>","null","$54<br>for<br>yourself","$60<br>for<br>5","1","54","60","5",""
"html-keyboard-response","32","126666","0.0-6.0-1.9","5f2f86864fd821374b4367bc","bdp_sd","Mon Mar 27 2023 12:03:56 GMT-0700 (Pacific Daylight Time)","150879","","null","","","","","FIX","","<div class='trialBorder'><div class='vertical-center'><img style='vertical-align:center; align:center' src=img/fixation3.jpg></div></div>","null","","","","","","",""
"html-keyboard-response","33","127209","0.0-6.0-2.9","5f2f86864fd821374b4367bc","bdp_sd","Mon Mar 27 2023 12:03:56 GMT-0700 (Pacific Daylight Time)","150879","","542","","","","","offer","","<div class='trialBorder'><div class='vertical-center'><img style='vertical-align:center; align:center' src=img/fixation3.jpg></div><div class='cl'><div class='vertical-center'>$35<br>for<br>Kellie G</div></div><div class='cr'><div class='vertical-center'>$24<br>for<br>yourself</div></div><div class='respDivL'><div class='vertical-center'>(E)</div></div><div class='respDivR'><div class='vertical-center'>(I)</div></div></div>","I","$24<br>for<br>yourself","$35<br>for<br>3","1","24","35","3","SELF"
"html-keyboard-response","34","127461","0.0-6.0-3.9","5f2f86864fd821374b4367bc","bdp_sd","Mon Mar 27 2023 12:03:56 GMT-0700 (Pacific Daylight Time)","150879","","null","","","","","offerFB","","<div class='trialBorder'><div class='vertical-center'><img style='vertical-align:center; align:center' src=img/fixation3.jpg></div><div class='cl'><div class='vertical-center'>$35<br>for<br>Kellie G</div></div><div class='cr'><div class='vertical-center'><font style='color:orange'>$24<br>for<br>yourself</font></div></div><div class='respDivL'><div class='vertical-center'>(E)</div></div><div class='respDivR'><div class='vertical-center'><font style='color:orange'>(I)</font></div></div></div>","null","$24<br>for<br>yourself","$35<br>for<br>3","1","24","35","3",""
"html-keyboard-response","35","127963","0.0-6.0-1.10","5f2f86864fd821374b4367bc","bdp_sd","Mon Mar 27 2023 12:03:56 GMT-0700 (Pacific Daylight Time)","150879","","null","","","","","FIX","","<div class='trialBorder'><div class='vertical-center'><img style='vertical-align:center; align:center' src=img/fixation3.jpg></div></div>","null","","","","","","",""
"html-keyboard-response","36","128752","0.0-6.0-2.10","5f2f86864fd821374b4367bc","bdp_sd","Mon Mar 27 2023 12:03:56 GMT-0700 (Pacific Daylight Time)","150879","","788","","","","","offer","","<div class='trialBorder'><div class='vertical-center'><img style='vertical-align:center; align:center' src=img/fixation3.jpg></div><div class='cl'><div class='vertical-center'>$41<br>for<br>yourself</div></div><div class='cr'><div class='vertical-center'>$75<br>for<br>Kellie G</div></div><div class='respDivL'><div class='vertical-center'>(E)</div></div><div class='respDivR'><div class='vertical-center'>(I)</div></div></div>","E","$41<br>for<br>yourself","$75<br>for<br>3","0","41","75","3","SELF"
"html-keyboard-response","37","129004","0.0-6.0-3.10","5f2f86864fd821374b4367bc","bdp_sd","Mon Mar 27 2023 12:03:56 GMT-0700 (Pacific Daylight Time)","150879","","null","","","","","offerFB","","<div class='trialBorder'><div class='vertical-center'><img style='vertical-align:center; align:center' src=img/fixation3.jpg></div><div class='cl'><div class='vertical-center'><font style='color:orange'>$41<br>for<br>yourself</font></div></div><div class='cr'><div class='vertical-center'>$75<br>for<br>Kellie G</div></div><div class='respDivL'><div class='vertical-center'><font style='color:orange'>(E)</font></div></div><div class='respDivR'><div class='vertical-center'>(I)</div></div></div>","null","$41<br>for<br>yourself","$75<br>for<br>3","0","41","75","3",""
"html-keyboard-response","38","129506","0.0-6.0-1.11","5f2f86864fd821374b4367bc","bdp_sd","Mon Mar 27 2023 12:03:56 GMT-0700 (Pacific Daylight Time)","150879","","null","","","","","FIX","","<div class='trialBorder'><div class='vertical-center'><img style='vertical-align:center; align:center' src=img/fixation3.jpg></div></div>","null","","","","","","",""
"html-keyboard-response","39","130473","0.0-6.0-2.11","5f2f86864fd821374b4367bc","bdp_sd","Mon Mar 27 2023 12:03:56 GMT-0700 (Pacific Daylight Time)","150879","","965","","","","","offer","","<div class='trialBorder'><div class='vertical-center'><img style='vertical-align:center; align:center' src=img/fixation3.jpg></div><div class='cl'><div class='vertical-center'>$54<br>for<br>yourself</div></div><div class='cr'><div class='vertical-center'>$80<br>for<br>Kellie G</div></div><div class='respDivL'><div class='vertical-center'>(E)</div></div><div class='respDivR'><div class='vertical-center'>(I)</div></div></div>","E","$54<br>for<br>yourself","$80<br>for<br>3","0","54","80","3","SELF"
"html-keyboard-response","40","130725","0.0-6.0-3.11","5f2f86864fd821374b4367bc","bdp_sd","Mon Mar 27 2023 12:03:56 GMT-0700 (Pacific Daylight Time)","150879","","null","","","","","offerFB","","<div class='trialBorder'><div class='vertical-center'><img style='vertical-align:center; align:center' src=img/fixation3.jpg></div><div class='cl'><div class='vertical-center'><font style='color:orange'>$54<br>for<br>yourself</font></div></div><div class='cr'><div class='vertical-center'>$80<br>for<br>Kellie G</div></div><div class='respDivL'><div class='vertical-center'><font style='color:orange'>(E)</font></div></div><div class='respDivR'><div class='vertical-center'>(I)</div></div></div>","null","$54<br>for<br>yourself","$80<br>for<br>3","0","54","80","3",""
"html-keyboard-response","41","131227","0.0-6.0-1.12","5f2f86864fd821374b4367bc","bdp_sd","Mon Mar 27 2023 12:03:56 GMT-0700 (Pacific Daylight Time)","150879","","null","","","","","FIX","","<div class='trialBorder'><div class='vertical-center'><img style='vertical-align:center; align:center' src=img/fixation3.jpg></div></div>","null","","","","","","",""
"html-keyboard-response","42","131845","0.0-6.0-2.12","5f2f86864fd821374b4367bc","bdp_sd","Mon Mar 27 2023 12:03:56 GMT-0700 (Pacific Daylight Time)","150879","","617","","","","","offer","","<div class='trialBorder'><div class='vertical-center'><img style='vertical-align:center; align:center' src=img/fixation3.jpg></div><div class='cl'><div class='vertical-center'>$60<br>for<br>Thomas T</div></div><div class='cr'><div class='vertical-center'>$49<br>for<br>yourself</div></div><div class='respDivL'><div class='vertical-center'>(E)</div></div><div class='respDivR'><div class='vertical-center'>(I)</div></div></div>","I","$49<br>for<br>yourself","$60<br>for<br>4","1","49","60","4","SELF"
"html-keyboard-response","43","132097","0.0-6.0-3.12","5f2f86864fd821374b4367bc","bdp_sd","Mon Mar 27 2023 12:03:56 GMT-0700 (Pacific Daylight Time)","150879","","null","","","","","offerFB","","<div class='trialBorder'><div class='vertical-center'><img style='vertical-align:center; align:center' src=img/fixation3.jpg></div><div class='cl'><div class='vertical-center'>$60<br>for<br>Thomas T</div></div><div class='cr'><div class='vertical-center'><font style='color:orange'>$49<br>for<br>yourself</font></div></div><div class='respDivL'><div class='vertical-center'>(E)</div></div><div class='respDivR'><div class='vertical-center'><font style='color:orange'>(I)</font></div></div></div>","null","$49<br>for<br>yourself","$60<br>for<br>4","1","49","60","4",""
"html-keyboard-response","44","132598","0.0-6.0-1.13","5f2f86864fd821374b4367bc","bdp_sd","Mon Mar 27 2023 12:03:56 GMT-0700 (Pacific Daylight Time)","150879","","null","","","","","FIX","","<div class='trialBorder'><div class='vertical-center'><img style='vertical-align:center; align:center' src=img/fixation3.jpg></div></div>","null","","","","","","",""
"html-keyboard-response","45","133049","0.0-6.0-2.13","5f2f86864fd821374b4367bc","bdp_sd","Mon Mar 27 2023 12:03:56 GMT-0700 (Pacific Daylight Time)","150879","","449","","","","","offer","","<div class='trialBorder'><div class='vertical-center'><img style='vertical-align:center; align:center' src=img/fixation3.jpg></div><div class='cl'><div class='vertical-center'>$25<br>for<br>Thomas T</div></div><div class='cr'><div class='vertical-center'>$19<br>for<br>yourself</div></div><div class='respDivL'><div class='vertical-center'>(E)</div></div><div class='respDivR'><div class='vertical-center'>(I)</div></div></div>","I","$19<br>for<br>yourself","$25<br>for<br>4","1","19","25","4","SELF"
"html-keyboard-response","46","133302","0.0-6.0-3.13","5f2f86864fd821374b4367bc","bdp_sd","Mon Mar 27 2023 12:03:56 GMT-0700 (Pacific Daylight Time)","150879","","null","","","","","offerFB","","<div class='trialBorder'><div class='vertical-center'><img style='vertical-align:center; align:center' src=img/fixation3.jpg></div><div class='cl'><div class='vertical-center'>$25<br>for<br>Thomas T</div></div><div class='cr'><div class='vertical-center'><font style='color:orange'>$19<br>for<br>yourself</font></div></div><div class='respDivL'><div class='vertical-center'>(E)</div></div><div class='respDivR'><div class='vertical-center'><font style='color:orange'>(I)</font></div></div></div>","null","$19<br>for<br>yourself","$25<br>for<br>4","1","19","25","4",""
"html-keyboard-response","47","133803","0.0-6.0-1.14","5f2f86864fd821374b4367bc","bdp_sd","Mon Mar 27 2023 12:03:56 GMT-0700 (Pacific Daylight Time)","150879","","null","","","","","FIX","","<div class='trialBorder'><div class='vertical-center'><img style='vertical-align:center; align:center' src=img/fixation3.jpg></div></div>","null","","","","","","",""
"html-keyboard-response","48","134274","0.0-6.0-2.14","5f2f86864fd821374b4367bc","bdp_sd","Mon Mar 27 2023 12:03:56 GMT-0700 (Pacific Daylight Time)","150879","","468","","","","","offer","","<div class='trialBorder'><div class='vertical-center'><img style='vertical-align:center; align:center' src=img/fixation3.jpg></div><div class='cl'><div class='vertical-center'>$75<br>for<br>Thomas T</div></div><div class='cr'><div class='vertical-center'>$55<br>for<br>yourself</div></div><div class='respDivL'><div class='vertical-center'>(E)</div></div><div class='respDivR'><div class='vertical-center'>(I)</div></div></div>","I","$55<br>for<br>yourself","$75<br>for<br>4","1","55","75","4","SELF"
"html-keyboard-response","49","134526","0.0-6.0-3.14","5f2f86864fd821374b4367bc","bdp_sd","Mon Mar 27 2023 12:03:56 GMT-0700 (Pacific Daylight Time)","150879","","null","","","","","offerFB","","<div class='trialBorder'><div class='vertical-center'><img style='vertical-align:center; align:center' src=img/fixation3.jpg></div><div class='cl'><div class='vertical-center'>$75<br>for<br>Thomas T</div></div><div class='cr'><div class='vertical-center'><font style='color:orange'>$55<br>for<br>yourself</font></div></div><div class='respDivL'><div class='vertical-center'>(E)</div></div><div class='respDivR'><div class='vertical-center'><font style='color:orange'>(I)</font></div></div></div>","null","$55<br>for<br>yourself","$75<br>for<br>4","1","55","75","4",""
"html-keyboard-response","50","135028","0.0-6.0-1.15","5f2f86864fd821374b4367bc","bdp_sd","Mon Mar 27 2023 12:03:56 GMT-0700 (Pacific Daylight Time)","150879","","null","","","","","FIX","","<div class='trialBorder'><div class='vertical-center'><img style='vertical-align:center; align:center' src=img/fixation3.jpg></div></div>","null","","","","","","",""
"html-keyboard-response","51","135425","0.0-6.0-2.15","5f2f86864fd821374b4367bc","bdp_sd","Mon Mar 27 2023 12:03:56 GMT-0700 (Pacific Daylight Time)","150879","","396","","","","","offer","","<div class='trialBorder'><div class='vertical-center'><img style='vertical-align:center; align:center' src=img/fixation3.jpg></div><div class='cl'><div class='vertical-center'>$50<br>for<br>Kellie G</div></div><div class='cr'><div class='vertical-center'>$27<br>for<br>yourself</div></div><div class='respDivL'><div class='vertical-center'>(E)</div></div><div class='respDivR'><div class='vertical-center'>(I)</div></div></div>","I","$27<br>for<br>yourself","$50<br>for<br>3","1","27","50","3","SELF"
"html-keyboard-response","52","135678","0.0-6.0-3.15","5f2f86864fd821374b4367bc","bdp_sd","Mon Mar 27 2023 12:03:56 GMT-0700 (Pacific Daylight Time)","150879","","null","","","","","offerFB","","<div class='trialBorder'><div class='vertical-center'><img style='vertical-align:center; align:center' src=img/fixation3.jpg></div><div class='cl'><div class='vertical-center'>$50<br>for<br>Kellie G</div></div><div class='cr'><div class='vertical-center'><font style='color:orange'>$27<br>for<br>yourself</font></div></div><div class='respDivL'><div class='vertical-center'>(E)</div></div><div class='respDivR'><div class='vertical-center'><font style='color:orange'>(I)</font></div></div></div>","null","$27<br>for<br>yourself","$50<br>for<br>3","1","27","50","3",""
"html-keyboard-response","53","136180","0.0-6.0-1.16","5f2f86864fd821374b4367bc","bdp_sd","Mon Mar 27 2023 12:03:56 GMT-0700 (Pacific Daylight Time)","150879","","null","","","","","FIX","","<div class='trialBorder'><div class='vertical-center'><img style='vertical-align:center; align:center' src=img/fixation3.jpg></div></div>","null","","","","","","",""
"html-keyboard-response","54","136601","0.0-6.0-2.16","5f2f86864fd821374b4367bc","bdp_sd","Mon Mar 27 2023 12:03:56 GMT-0700 (Pacific Daylight Time)","150879","","419","","","","","offer","","<div class='trialBorder'><div class='vertical-center'><img style='vertical-align:center; align:center' src=img/fixation3.jpg></div><div class='cl'><div class='vertical-center'>$30<br>for<br>Janice F</div></div><div class='cr'><div class='vertical-center'>$28<br>for<br>yourself</div></div><div class='respDivL'><div class='vertical-center'>(E)</div></div><div class='respDivR'><div class='vertical-center'>(I)</div></div></div>","I","$28<br>for<br>yourself","$30<br>for<br>5","1","28","30","5","SELF"
"html-keyboard-response","55","136853","0.0-6.0-3.16","5f2f86864fd821374b4367bc","bdp_sd","Mon Mar 27 2023 12:03:56 GMT-0700 (Pacific Daylight Time)","150879","","null","","","","","offerFB","","<div class='trialBorder'><div class='vertical-center'><img style='vertical-align:center; align:center' src=img/fixation3.jpg></div><div class='cl'><div class='vertical-center'>$30<br>for<br>Janice F</div></div><div class='cr'><div class='vertical-center'><font style='color:orange'>$28<br>for<br>yourself</font></div></div><div class='respDivL'><div class='vertical-center'>(E)</div></div><div class='respDivR'><div class='vertical-center'><font style='color:orange'>(I)</font></div></div></div>","null","$28<br>for<br>yourself","$30<br>for<br>5","1","28","30","5",""
"html-keyboard-response","56","137355","0.0-6.0-1.17","5f2f86864fd821374b4367bc","bdp_sd","Mon Mar 27 2023 12:03:56 GMT-0700 (Pacific Daylight Time)","150879","","null","","","","","FIX","","<div class='trialBorder'><div class='vertical-center'><img style='vertical-align:center; align:center' src=img/fixation3.jpg></div></div>","null","","","","","","",""
"html-keyboard-response","57","138176","0.0-6.0-2.17","5f2f86864fd821374b4367bc","bdp_sd","Mon Mar 27 2023 12:03:56 GMT-0700 (Pacific Daylight Time)","150879","","820","","","","","offer","","<div class='trialBorder'><div class='vertical-center'><img style='vertical-align:center; align:center' src=img/fixation3.jpg></div><div class='cl'><div class='vertical-center'>$31<br>for<br>yourself</div></div><div class='cr'><div class='vertical-center'>$85<br>for<br>Eric S</div></div><div class='respDivL'><div class='vertical-center'>(E)</div></div><div class='respDivR'><div class='vertical-center'>(I)</div></div></div>","E","$31<br>for<br>yourself","$85<br>for<br>1","0","31","85","1","SELF"
"html-keyboard-response","58","138428","0.0-6.0-3.17","5f2f86864fd821374b4367bc","bdp_sd","Mon Mar 27 2023 12:03:56 GMT-0700 (Pacific Daylight Time)","150879","","null","","","","","offerFB","","<div class='trialBorder'><div class='vertical-center'><img style='vertical-align:center; align:center' src=img/fixation3.jpg></div><div class='cl'><div class='vertical-center'><font style='color:orange'>$31<br>for<br>yourself</font></div></div><div class='cr'><div class='vertical-center'>$85<br>for<br>Eric S</div></div><div class='respDivL'><div class='vertical-center'><font style='color:orange'>(E)</font></div></div><div class='respDivR'><div class='vertical-center'>(I)</div></div></div>","null","$31<br>for<br>yourself","$85<br>for<br>1","0","31","85","1",""
"html-keyboard-response","59","138930","0.0-6.0-1.18","5f2f86864fd821374b4367bc","bdp_sd","Mon Mar 27 2023 12:03:56 GMT-0700 (Pacific Daylight Time)","150879","","null","","","","","FIX","","<div class='trialBorder'><div class='vertical-center'><img style='vertical-align:center; align:center' src=img/fixation3.jpg></div></div>","null","","","","","","",""
"html-keyboard-response","60","139505","0.0-6.0-2.18","5f2f86864fd821374b4367bc","bdp_sd","Mon Mar 27 2023 12:03:56 GMT-0700 (Pacific Daylight Time)","150879","","573","","","","","offer","","<div class='trialBorder'><div class='vertical-center'><img style='vertical-align:center; align:center' src=img/fixation3.jpg></div><div class='cl'><div class='vertical-center'>$20<br>for<br>yourself</div></div><div class='cr'><div class='vertical-center'>$55<br>for<br>Eric S</div></div><div class='respDivL'><div class='vertical-center'>(E)</div></div><div class='respDivR'><div class='vertical-center'>(I)</div></div></div>","E","$20<br>for<br>yourself","$55<br>for<br>1","0","20","55","1","SELF"
"html-keyboard-response","61","139758","0.0-6.0-3.18","5f2f86864fd821374b4367bc","bdp_sd","Mon Mar 27 2023 12:03:56 GMT-0700 (Pacific Daylight Time)","150879","","null","","","","","offerFB","","<div class='trialBorder'><div class='vertical-center'><img style='vertical-align:center; align:center' src=img/fixation3.jpg></div><div class='cl'><div class='vertical-center'><font style='color:orange'>$20<br>for<br>yourself</font></div></div><div class='cr'><div class='vertical-center'>$55<br>for<br>Eric S</div></div><div class='respDivL'><div class='vertical-center'><font style='color:orange'>(E)</font></div></div><div class='respDivR'><div class='vertical-center'>(I)</div></div></div>","null","$20<br>for<br>yourself","$55<br>for<br>1","0","20","55","1",""
"html-keyboard-response","62","140260","0.0-6.0-1.19","5f2f86864fd821374b4367bc","bdp_sd","Mon Mar 27 2023 12:03:56 GMT-0700 (Pacific Daylight Time)","150879","","null","","","","","FIX","","<div class='trialBorder'><div class='vertical-center'><img style='vertical-align:center; align:center' src=img/fixation3.jpg></div></div>","null","","","","","","",""
"html-keyboard-response","63","140712","0.0-6.0-2.19","5f2f86864fd821374b4367bc","bdp_sd","Mon Mar 27 2023 12:03:56 GMT-0700 (Pacific Daylight Time)","150879","","452","","","","","offer","","<div class='trialBorder'><div class='vertical-center'><img style='vertical-align:center; align:center' src=img/fixation3.jpg></div><div class='cl'><div class='vertical-center'>$33<br>for<br>yourself</div></div><div class='cr'><div class='vertical-center'>$80<br>for<br>Edwin S</div></div><div class='respDivL'><div class='vertical-center'>(E)</div></div><div class='respDivR'><div class='vertical-center'>(I)</div></div></div>","E","$33<br>for<br>yourself","$80<br>for<br>2","0","33","80","2","SELF"
"html-keyboard-response","64","140964","0.0-6.0-3.19","5f2f86864fd821374b4367bc","bdp_sd","Mon Mar 27 2023 12:03:56 GMT-0700 (Pacific Daylight Time)","150879","","null","","","","","offerFB","","<div class='trialBorder'><div class='vertical-center'><img style='vertical-align:center; align:center' src=img/fixation3.jpg></div><div class='cl'><div class='vertical-center'><font style='color:orange'>$33<br>for<br>yourself</font></div></div><div class='cr'><div class='vertical-center'>$80<br>for<br>Edwin S</div></div><div class='respDivL'><div class='vertical-center'><font style='color:orange'>(E)</font></div></div><div class='respDivR'><div class='vertical-center'>(I)</div></div></div>","null","$33<br>for<br>yourself","$80<br>for<br>2","0","33","80","2",""
"html-keyboard-response","65","141466","0.0-6.0-1.20","5f2f86864fd821374b4367bc","bdp_sd","Mon Mar 27 2023 12:03:56 GMT-0700 (Pacific Daylight Time)","150879","","null","","","","","FIX","","<div class='trialBorder'><div class='vertical-center'><img style='vertical-align:center; align:center' src=img/fixation3.jpg></div></div>","null","","","","","","",""
"html-keyboard-response","66","141996","0.0-6.0-2.20","5f2f86864fd821374b4367bc","bdp_sd","Mon Mar 27 2023 12:03:56 GMT-0700 (Pacific Daylight Time)","150879","","528","","","","","offer","","<div class='trialBorder'><div class='vertical-center'><img style='vertical-align:center; align:center' src=img/fixation3.jpg></div><div class='cl'><div class='vertical-center'>$80<br>for<br>Janice F</div></div><div class='cr'><div class='vertical-center'>$78<br>for<br>yourself</div></div><div class='respDivL'><div class='vertical-center'>(E)</div></div><div class='respDivR'><div class='vertical-center'>(I)</div></div></div>","I","$78<br>for<br>yourself","$80<br>for<br>5","1","78","80","5","SELF"
"html-keyboard-response","67","142248","0.0-6.0-3.20","5f2f86864fd821374b4367bc","bdp_sd","Mon Mar 27 2023 12:03:56 GMT-0700 (Pacific Daylight Time)","150879","","null","","","","","offerFB","","<div class='trialBorder'><div class='vertical-center'><img style='vertical-align:center; align:center' src=img/fixation3.jpg></div><div class='cl'><div class='vertical-center'>$80<br>for<br>Janice F</div></div><div class='cr'><div class='vertical-center'><font style='color:orange'>$78<br>for<br>yourself</font></div></div><div class='respDivL'><div class='vertical-center'>(E)</div></div><div class='respDivR'><div class='vertical-center'><font style='color:orange'>(I)</font></div></div></div>","null","$78<br>for<br>yourself","$80<br>for<br>5","1","78","80","5",""
"html-keyboard-response","68","142749","0.0-6.0-1.21","5f2f86864fd821374b4367bc","bdp_sd","Mon Mar 27 2023 12:03:56 GMT-0700 (Pacific Daylight Time)","150879","","null","","","","","FIX","","<div class='trialBorder'><div class='vertical-center'><img style='vertical-align:center; align:center' src=img/fixation3.jpg></div></div>","null","","","","","","",""
"html-keyboard-response","69","143345","0.0-6.0-2.21","5f2f86864fd821374b4367bc","bdp_sd","Mon Mar 27 2023 12:03:56 GMT-0700 (Pacific Daylight Time)","150879","","595","","","","","offer","","<div class='trialBorder'><div class='vertical-center'><img style='vertical-align:center; align:center' src=img/fixation3.jpg></div><div class='cl'><div class='vertical-center'>$14<br>for<br>yourself</div></div><div class='cr'><div class='vertical-center'>$25<br>for<br>Kellie G</div></div><div class='respDivL'><div class='vertical-center'>(E)</div></div><div class='respDivR'><div class='vertical-center'>(I)</div></div></div>","E","$14<br>for<br>yourself","$25<br>for<br>3","0","14","25","3","SELF"
"html-keyboard-response","70","143598","0.0-6.0-3.21","5f2f86864fd821374b4367bc","bdp_sd","Mon Mar 27 2023 12:03:56 GMT-0700 (Pacific Daylight Time)","150879","","null","","","","","offerFB","","<div class='trialBorder'><div class='vertical-center'><img style='vertical-align:center; align:center' src=img/fixation3.jpg></div><div class='cl'><div class='vertical-center'><font style='color:orange'>$14<br>for<br>yourself</font></div></div><div class='cr'><div class='vertical-center'>$25<br>for<br>Kellie G</div></div><div class='respDivL'><div class='vertical-center'><font style='color:orange'>(E)</font></div></div><div class='respDivR'><div class='vertical-center'>(I)</div></div></div>","null","$14<br>for<br>yourself","$25<br>for<br>3","0","14","25","3",""
"html-keyboard-response","71","144100","0.0-6.0-1.22","5f2f86864fd821374b4367bc","bdp_sd","Mon Mar 27 2023 12:03:56 GMT-0700 (Pacific Daylight Time)","150879","","null","","","","","FIX","","<div class='trialBorder'><div class='vertical-center'><img style='vertical-align:center; align:center' src=img/fixation3.jpg></div></div>","null","","","","","","",""
"html-keyboard-response","72","144593","0.0-6.0-2.22","5f2f86864fd821374b4367bc","bdp_sd","Mon Mar 27 2023 12:03:56 GMT-0700 (Pacific Daylight Time)","150879","","490","","","","","offer","","<div class='trialBorder'><div class='vertical-center'><img style='vertical-align:center; align:center' src=img/fixation3.jpg></div><div class='cl'><div class='vertical-center'>$11<br>for<br>yourself</div></div><div class='cr'><div class='vertical-center'>$30<br>for<br>Edwin S</div></div><div class='respDivL'><div class='vertical-center'>(E)</div></div><div class='respDivR'><div class='vertical-center'>(I)</div></div></div>","E","$11<br>for<br>yourself","$30<br>for<br>2","0","11","30","2","SELF"
"html-keyboard-response","73","144845","0.0-6.0-3.22","5f2f86864fd821374b4367bc","bdp_sd","Mon Mar 27 2023 12:03:56 GMT-0700 (Pacific Daylight Time)","150879","","null","","","","","offerFB","","<div class='trialBorder'><div class='vertical-center'><img style='vertical-align:center; align:center' src=img/fixation3.jpg></div><div class='cl'><div class='vertical-center'><font style='color:orange'>$11<br>for<br>yourself</font></div></div><div class='cr'><div class='vertical-center'>$30<br>for<br>Edwin S</div></div><div class='respDivL'><div class='vertical-center'><font style='color:orange'>(E)</font></div></div><div class='respDivR'><div class='vertical-center'>(I)</div></div></div>","null","$11<br>for<br>yourself","$30<br>for<br>2","0","11","30","2",""
"html-keyboard-response","74","145348","0.0-6.0-1.23","5f2f86864fd821374b4367bc","bdp_sd","Mon Mar 27 2023 12:03:56 GMT-0700 (Pacific Daylight Time)","150879","","null","","","","","FIX","","<div class='trialBorder'><div class='vertical-center'><img style='vertical-align:center; align:center' src=img/fixation3.jpg></div></div>","null","","","","","","",""
"html-keyboard-response","75","145825","0.0-6.0-2.23","5f2f86864fd821374b4367bc","bdp_sd","Mon Mar 27 2023 12:03:56 GMT-0700 (Pacific Daylight Time)","150879","","476","","","","","offer","","<div class='trialBorder'><div class='vertical-center'><img style='vertical-align:center; align:center' src=img/fixation3.jpg></div><div class='cl'><div class='vertical-center'>$69<br>for<br>yourself</div></div><div class='cr'><div class='vertical-center'>$85<br>for<br>Thomas T</div></div><div class='respDivL'><div class='vertical-center'>(E)</div></div><div class='respDivR'><div class='vertical-center'>(I)</div></div></div>","E","$69<br>for<br>yourself","$85<br>for<br>4","0","69","85","4","SELF"
"html-keyboard-response","76","146078","0.0-6.0-3.23","5f2f86864fd821374b4367bc","bdp_sd","Mon Mar 27 2023 12:03:56 GMT-0700 (Pacific Daylight Time)","150879","","null","","","","","offerFB","","<div class='trialBorder'><div class='vertical-center'><img style='vertical-align:center; align:center' src=img/fixation3.jpg></div><div class='cl'><div class='vertical-center'><font style='color:orange'>$69<br>for<br>yourself</font></div></div><div class='cr'><div class='vertical-center'>$85<br>for<br>Thomas T</div></div><div class='respDivL'><div class='vertical-center'><font style='color:orange'>(E)</font></div></div><div class='respDivR'><div class='vertical-center'>(I)</div></div></div>","null","$69<br>for<br>yourself","$85<br>for<br>4","0","69","85","4",""
"html-keyboard-response","77","146580","0.0-6.0-1.24","5f2f86864fd821374b4367bc","bdp_sd","Mon Mar 27 2023 12:03:56 GMT-0700 (Pacific Daylight Time)","150879","","null","","","","","FIX","","<div class='trialBorder'><div class='vertical-center'><img style='vertical-align:center; align:center' src=img/fixation3.jpg></div></div>","null","","","","","","",""
"html-keyboard-response","78","146993","0.0-6.0-2.24","5f2f86864fd821374b4367bc","bdp_sd","Mon Mar 27 2023 12:03:56 GMT-0700 (Pacific Daylight Time)","150879","","411","","","","","offer","","<div class='trialBorder'><div class='vertical-center'><img style='vertical-align:center; align:center' src=img/fixation3.jpg></div><div class='cl'><div class='vertical-center'>$80<br>for<br>yourself</div></div><div class='cr'><div class='vertical-center'>$85<br>for<br>Janice F</div></div><div class='respDivL'><div class='vertical-center'>(E)</div></div><div class='respDivR'><div class='vertical-center'>(I)</div></div></div>","E","$80<br>for<br>yourself","$85<br>for<br>5","0","80","85","5","SELF"
"html-keyboard-response","79","147245","0.0-6.0-3.24","5f2f86864fd821374b4367bc","bdp_sd","Mon Mar 27 2023 12:03:56 GMT-0700 (Pacific Daylight Time)","150879","","null","","","","","offerFB","","<div class='trialBorder'><div class='vertical-center'><img style='vertical-align:center; align:center' src=img/fixation3.jpg></div><div class='cl'><div class='vertical-center'><font style='color:orange'>$80<br>for<br>yourself</font></div></div><div class='cr'><div class='vertical-center'>$85<br>for<br>Janice F</div></div><div class='respDivL'><div class='vertical-center'><font style='color:orange'>(E)</font></div></div><div class='respDivR'><div class='vertical-center'>(I)</div></div></div>","null","$80<br>for<br>yourself","$85<br>for<br>5","0","80","85","5",""
"html-keyboard-response","80","147746","0.0-6.0-1.25","5f2f86864fd821374b4367bc","bdp_sd","Mon Mar 27 2023 12:03:56 GMT-0700 (Pacific Daylight Time)","150879","","null","","","","","FIX","","<div class='trialBorder'><div class='vertical-center'><img style='vertical-align:center; align:center' src=img/fixation3.jpg></div></div>","null","","","","","","",""
"html-keyboard-response","81","148321","0.0-6.0-2.25","5f2f86864fd821374b4367bc","bdp_sd","Mon Mar 27 2023 12:03:56 GMT-0700 (Pacific Daylight Time)","150879","","574","","","","","offer","","<div class='trialBorder'><div class='vertical-center'><img style='vertical-align:center; align:center' src=img/fixation3.jpg></div><div class='cl'><div class='vertical-center'>$50<br>for<br>Janice F</div></div><div class='cr'><div class='vertical-center'>$47<br>for<br>yourself</div></div><div class='respDivL'><div class='vertical-center'>(E)</div></div><div class='respDivR'><div class='vertical-center'>(I)</div></div></div>","I","$47<br>for<br>yourself","$50<br>for<br>5","1","47","50","5","SELF"
"html-keyboard-response","82","148574","0.0-6.0-3.25","5f2f86864fd821374b4367bc","bdp_sd","Mon Mar 27 2023 12:03:56 GMT-0700 (Pacific Daylight Time)","150879","","null","","","","","offerFB","","<div class='trialBorder'><div class='vertical-center'><img style='vertical-align:center; align:center' src=img/fixation3.jpg></div><div class='cl'><div class='vertical-center'>$50<br>for<br>Janice F</div></div><div class='cr'><div class='vertical-center'><font style='color:orange'>$47<br>for<br>yourself</font></div></div><div class='respDivL'><div class='vertical-center'>(E)</div></div><div class='respDivR'><div class='vertical-center'><font style='color:orange'>(I)</font></div></div></div>","null","$47<br>for<br>yourself","$50<br>for<br>5","1","47","50","5",""
"html-keyboard-response","83","149075","0.0-6.0-1.26","5f2f86864fd821374b4367bc","bdp_sd","Mon Mar 27 2023 12:03:56 GMT-0700 (Pacific Daylight Time)","150879","","null","","","","","FIX","","<div class='trialBorder'><div class='vertical-center'><img style='vertical-align:center; align:center' src=img/fixation3.jpg></div></div>","null","","","","","","",""
"html-keyboard-response","84","149624","0.0-6.0-2.26","5f2f86864fd821374b4367bc","bdp_sd","Mon Mar 27 2023 12:03:56 GMT-0700 (Pacific Daylight Time)","150879","","548","","","","","offer","","<div class='trialBorder'><div class='vertical-center'><img style='vertical-align:center; align:center' src=img/fixation3.jpg></div><div class='cl'><div class='vertical-center'>$54<br>for<br>yourself</div></div><div class='cr'><div class='vertical-center'>$55<br>for<br>Janice F</div></div><div class='respDivL'><div class='vertical-center'>(E)</div></div><div class='respDivR'><div class='vertical-center'>(I)</div></div></div>","E","$54<br>for<br>yourself","$55<br>for<br>5","0","54","55","5","SELF"
"html-keyboard-response","85","149875","0.0-6.0-3.26","5f2f86864fd821374b4367bc","bdp_sd","Mon Mar 27 2023 12:03:56 GMT-0700 (Pacific Daylight Time)","150879","","null","","","","","offerFB","","<div class='trialBorder'><div class='vertical-center'><img style='vertical-align:center; align:center' src=img/fixation3.jpg></div><div class='cl'><div class='vertical-center'><font style='color:orange'>$54<br>for<br>yourself</font></div></div><div class='cr'><div class='vertical-center'>$55<br>for<br>Janice F</div></div><div class='respDivL'><div class='vertical-center'><font style='color:orange'>(E)</font></div></div><div class='respDivR'><div class='vertical-center'>(I)</div></div></div>","null","$54<br>for<br>yourself","$55<br>for<br>5","0","54","55","5",""
"fullscreen","86","150878","0.0-7.0","5f2f86864fd821374b4367bc","bdp_sd","Mon Mar 27 2023 12:03:56 GMT-0700 (Pacific Daylight Time)","150879","","","","","","","","true","","","","","","","","",""
"html-keyboard-response","87","151380","0.0-8.0","","","","","","null","","","","","","","","null","","","","","","",""
