"trial_type","trial_index","time_elapsed","internal_node_id","subject_id","task","startTime","totalTime","view_history","rt","responses","event","trial","time","trialtype","success","stimulus","key_press","selfOffer","otherOffer","otherLeft","selfAmt","otherAmt","otherDist","chosen"
"pavlovia","0","7","0.0-0.0","6400caf68d8b75041e36f702","bdp_sd","Wed Apr 12 2023 10:45:26 GMT-0400 (Eastern Daylight Time)","188635","","","","","","","","","","","","","","","","",""
"instructions","1","972","0.0-1.0","6400caf68d8b75041e36f702","bdp_sd","Wed Apr 12 2023 10:45:26 GMT-0400 (Eastern Daylight Time)","188635","[{""page_index"":0,""viewing_time"":963}]","964","","","","","","","","","","","","","","",""
"survey-text","2","117628","0.0-2.0","6400caf68d8b75041e36f702","bdp_sd","Wed Apr 12 2023 10:45:26 GMT-0400 (Eastern Daylight Time)","188635","","116654","{""Q0"":""Kristen A"",""Q1"":""Jonas M"",""Q2"":""Jerry T"",""Q3"":""Ella S"",""Q4"":""Enock M""}","","","","","","","","","","","","","",""
"","","","","6400caf68d8b75041e36f702","bdp_sd","Wed Apr 12 2023 10:45:26 GMT-0400 (Eastern Daylight Time)","188635","","","","fullscreenenter","3","121251","fullscreenenter","","","","","","","","","",""
"fullscreen","3","122226","0.0-3.0","6400caf68d8b75041e36f702","bdp_sd","Wed Apr 12 2023 10:45:26 GMT-0400 (Eastern Daylight Time)","188635","","","","","","","","true","","","","","","","","",""
"instructions","4","150136","0.0-5.0","6400caf68d8b75041e36f702","bdp_sd","Wed Apr 12 2023 10:45:26 GMT-0400 (Eastern Daylight Time)","188635","[{""page_index"":0,""viewing_time"":7778},{""page_index"":1,""viewing_time"":18469},{""page_index"":2,""viewing_time"":1661}]","27908","","","","","","","","","","","","","","",""
"html-keyboard-response","5","150640","0.0-6.0-1.0","6400caf68d8b75041e36f702","bdp_sd","Wed Apr 12 2023 10:45:26 GMT-0400 (Eastern Daylight Time)","188635","","null","","","","","FIX","","<div class='trialBorder'><div class='vertical-center'><img style='vertical-align:center; align:center' src=img/fixation3.jpg></div></div>","null","","","","","","",""
"html-keyboard-response","6","155744","0.0-6.0-2.0","6400caf68d8b75041e36f702","bdp_sd","Wed Apr 12 2023 10:45:26 GMT-0400 (Eastern Daylight Time)","188635","","5102","","","","","offer","","<div class='trialBorder'><div class='vertical-center'><img style='vertical-align:center; align:center' src=img/fixation3.jpg></div><div class='cl'><div class='vertical-center'>$60<br>for<br>Jerry T</div></div><div class='cr'><div class='vertical-center'>$25<br>for<br>yourself</div></div><div class='respDivL'><div class='vertical-center'>(E)</div></div><div class='respDivR'><div class='vertical-center'>(I)</div></div></div>","I","$25<br>for<br>yourself","$60<br>for<br>3","1","25","60","3","SELF"
"html-keyboard-response","7","155998","0.0-6.0-3.0","6400caf68d8b75041e36f702","bdp_sd","Wed Apr 12 2023 10:45:26 GMT-0400 (Eastern Daylight Time)","188635","","null","","","","","offerFB","","<div class='trialBorder'><div class='vertical-center'><img style='vertical-align:center; align:center' src=img/fixation3.jpg></div><div class='cl'><div class='vertical-center'>$60<br>for<br>Jerry T</div></div><div class='cr'><div class='vertical-center'><font style='color:orange'>$25<br>for<br>yourself</font></div></div><div class='respDivL'><div class='vertical-center'>(E)</div></div><div class='respDivR'><div class='vertical-center'><font style='color:orange'>(I)</font></div></div></div>","null","$25<br>for<br>yourself","$60<br>for<br>3","1","25","60","3",""
"html-keyboard-response","8","156501","0.0-6.0-1.1","6400caf68d8b75041e36f702","bdp_sd","Wed Apr 12 2023 10:45:26 GMT-0400 (Eastern Daylight Time)","188635","","null","","","","","FIX","","<div class='trialBorder'><div class='vertical-center'><img style='vertical-align:center; align:center' src=img/fixation3.jpg></div></div>","null","","","","","","",""
"html-keyboard-response","9","159187","0.0-6.0-2.1","6400caf68d8b75041e36f702","bdp_sd","Wed Apr 12 2023 10:45:26 GMT-0400 (Eastern Daylight Time)","188635","","2684","","","","","offer","","<div class='trialBorder'><div class='vertical-center'><img style='vertical-align:center; align:center' src=img/fixation3.jpg></div><div class='cl'><div class='vertical-center'>$55<br>for<br>yourself</div></div><div class='cr'><div class='vertical-center'>$75<br>for<br>Ella S</div></div><div class='respDivL'><div class='vertical-center'>(E)</div></div><div class='respDivR'><div class='vertical-center'>(I)</div></div></div>","I","$55<br>for<br>yourself","$75<br>for<br>4","0","55","75","4","OTHER"
"html-keyboard-response","10","159439","0.0-6.0-3.1","6400caf68d8b75041e36f702","bdp_sd","Wed Apr 12 2023 10:45:26 GMT-0400 (Eastern Daylight Time)","188635","","null","","","","","offerFB","","<div class='trialBorder'><div class='vertical-center'><img style='vertical-align:center; align:center' src=img/fixation3.jpg></div><div class='cl'><div class='vertical-center'>$55<br>for<br>yourself</div></div><div class='cr'><div class='vertical-center'><font style='color:orange'>$75<br>for<br>Ella S</font></div></div><div class='respDivL'><div class='vertical-center'>(E)</div></div><div class='respDivR'><div class='vertical-center'><font style='color:orange'>(I)</font></div></div></div>","null","$55<br>for<br>yourself","$75<br>for<br>4","0","55","75","4",""
"html-keyboard-response","11","159941","0.0-6.0-1.2","6400caf68d8b75041e36f702","bdp_sd","Wed Apr 12 2023 10:45:26 GMT-0400 (Eastern Daylight Time)","188635","","null","","","","","FIX","","<div class='trialBorder'><div class='vertical-center'><img style='vertical-align:center; align:center' src=img/fixation3.jpg></div></div>","null","","","","","","",""
"html-keyboard-response","12","161642","0.0-6.0-2.2","6400caf68d8b75041e36f702","bdp_sd","Wed Apr 12 2023 10:45:26 GMT-0400 (Eastern Daylight Time)","188635","","1700","","","","","offer","","<div class='trialBorder'><div class='vertical-center'><img style='vertical-align:center; align:center' src=img/fixation3.jpg></div><div class='cl'><div class='vertical-center'>$55<br>for<br>Kristen A</div></div><div class='cr'><div class='vertical-center'>$20<br>for<br>yourself</div></div><div class='respDivL'><div class='vertical-center'>(E)</div></div><div class='respDivR'><div class='vertical-center'>(I)</div></div></div>","E","$20<br>for<br>yourself","$55<br>for<br>1","1","20","55","1","OTHER"
"html-keyboard-response","13","161895","0.0-6.0-3.2","6400caf68d8b75041e36f702","bdp_sd","Wed Apr 12 2023 10:45:26 GMT-0400 (Eastern Daylight Time)","188635","","null","","","","","offerFB","","<div class='trialBorder'><div class='vertical-center'><img style='vertical-align:center; align:center' src=img/fixation3.jpg></div><div class='cl'><div class='vertical-center'><font style='color:orange'>$55<br>for<br>Kristen A</font></div></div><div class='cr'><div class='vertical-center'>$20<br>for<br>yourself</div></div><div class='respDivL'><div class='vertical-center'><font style='color:orange'>(E)</font></div></div><div class='respDivR'><div class='vertical-center'>(I)</div></div></div>","null","$20<br>for<br>yourself","$55<br>for<br>1","1","20","55","1",""
"html-keyboard-response","14","162397","0.0-6.0-1.3","6400caf68d8b75041e36f702","bdp_sd","Wed Apr 12 2023 10:45:26 GMT-0400 (Eastern Daylight Time)","188635","","null","","","","","FIX","","<div class='trialBorder'><div class='vertical-center'><img style='vertical-align:center; align:center' src=img/fixation3.jpg></div></div>","null","","","","","","",""
"html-keyboard-response","15","162690","0.0-6.0-2.3","6400caf68d8b75041e36f702","bdp_sd","Wed Apr 12 2023 10:45:26 GMT-0400 (Eastern Daylight Time)","188635","","291","","","","","offer","","<div class='trialBorder'><div class='vertical-center'><img style='vertical-align:center; align:center' src=img/fixation3.jpg></div><div class='cl'><div class='vertical-center'>$30<br>for<br>Ella S</div></div><div class='cr'><div class='vertical-center'>$25<br>for<br>yourself</div></div><div class='respDivL'><div class='vertical-center'>(E)</div></div><div class='respDivR'><div class='vertical-center'>(I)</div></div></div>","I","$25<br>for<br>yourself","$30<br>for<br>4","1","25","30","4","SELF"
"html-keyboard-response","16","162943","0.0-6.0-3.3","6400caf68d8b75041e36f702","bdp_sd","Wed Apr 12 2023 10:45:26 GMT-0400 (Eastern Daylight Time)","188635","","null","","","","","offerFB","","<div class='trialBorder'><div class='vertical-center'><img style='vertical-align:center; align:center' src=img/fixation3.jpg></div><div class='cl'><div class='vertical-center'>$30<br>for<br>Ella S</div></div><div class='cr'><div class='vertical-center'><font style='color:orange'>$25<br>for<br>yourself</font></div></div><div class='respDivL'><div class='vertical-center'>(E)</div></div><div class='respDivR'><div class='vertical-center'><font style='color:orange'>(I)</font></div></div></div>","null","$25<br>for<br>yourself","$30<br>for<br>4","1","25","30","4",""
"html-keyboard-response","17","163446","0.0-6.0-1.4","6400caf68d8b75041e36f702","bdp_sd","Wed Apr 12 2023 10:45:26 GMT-0400 (Eastern Daylight Time)","188635","","null","","","","","FIX","","<div class='trialBorder'><div class='vertical-center'><img style='vertical-align:center; align:center' src=img/fixation3.jpg></div></div>","null","","","","","","",""
"html-keyboard-response","18","163835","0.0-6.0-2.4","6400caf68d8b75041e36f702","bdp_sd","Wed Apr 12 2023 10:45:26 GMT-0400 (Eastern Daylight Time)","188635","","388","","","","","offer","","<div class='trialBorder'><div class='vertical-center'><img style='vertical-align:center; align:center' src=img/fixation3.jpg></div><div class='cl'><div class='vertical-center'>$47<br>for<br>yourself</div></div><div class='cr'><div class='vertical-center'>$50<br>for<br>Enock M</div></div><div class='respDivL'><div class='vertical-center'>(E)</div></div><div class='respDivR'><div class='vertical-center'>(I)</div></div></div>","E","$47<br>for<br>yourself","$50<br>for<br>5","0","47","50","5","SELF"
"html-keyboard-response","19","164088","0.0-6.0-3.4","6400caf68d8b75041e36f702","bdp_sd","Wed Apr 12 2023 10:45:26 GMT-0400 (Eastern Daylight Time)","188635","","null","","","","","offerFB","","<div class='trialBorder'><div class='vertical-center'><img style='vertical-align:center; align:center' src=img/fixation3.jpg></div><div class='cl'><div class='vertical-center'><font style='color:orange'>$47<br>for<br>yourself</font></div></div><div class='cr'><div class='vertical-center'>$50<br>for<br>Enock M</div></div><div class='respDivL'><div class='vertical-center'><font style='color:orange'>(E)</font></div></div><div class='respDivR'><div class='vertical-center'>(I)</div></div></div>","null","$47<br>for<br>yourself","$50<br>for<br>5","0","47","50","5",""
"html-keyboard-response","20","164589","0.0-6.0-1.5","6400caf68d8b75041e36f702","bdp_sd","Wed Apr 12 2023 10:45:26 GMT-0400 (Eastern Daylight Time)","188635","","null","","","","","FIX","","<div class='trialBorder'><div class='vertical-center'><img style='vertical-align:center; align:center' src=img/fixation3.jpg></div></div>","null","","","","","","",""
"html-keyboard-response","21","165022","0.0-6.0-2.5","6400caf68d8b75041e36f702","bdp_sd","Wed Apr 12 2023 10:45:26 GMT-0400 (Eastern Daylight Time)","188635","","431","","","","","offer","","<div class='trialBorder'><div class='vertical-center'><img style='vertical-align:center; align:center' src=img/fixation3.jpg></div><div class='cl'><div class='vertical-center'>$75<br>for<br>Enock M</div></div><div class='cr'><div class='vertical-center'>$67<br>for<br>yourself</div></div><div class='respDivL'><div class='vertical-center'>(E)</div></div><div class='respDivR'><div class='vertical-center'>(I)</div></div></div>","I","$67<br>for<br>yourself","$75<br>for<br>5","1","67","75","5","SELF"
"html-keyboard-response","22","165274","0.0-6.0-3.5","6400caf68d8b75041e36f702","bdp_sd","Wed Apr 12 2023 10:45:26 GMT-0400 (Eastern Daylight Time)","188635","","null","","","","","offerFB","","<div class='trialBorder'><div class='vertical-center'><img style='vertical-align:center; align:center' src=img/fixation3.jpg></div><div class='cl'><div class='vertical-center'>$75<br>for<br>Enock M</div></div><div class='cr'><div class='vertical-center'><font style='color:orange'>$67<br>for<br>yourself</font></div></div><div class='respDivL'><div class='vertical-center'>(E)</div></div><div class='respDivR'><div class='vertical-center'><font style='color:orange'>(I)</font></div></div></div>","null","$67<br>for<br>yourself","$75<br>for<br>5","1","67","75","5",""
"html-keyboard-response","23","165775","0.0-6.0-1.6","6400caf68d8b75041e36f702","bdp_sd","Wed Apr 12 2023 10:45:26 GMT-0400 (Eastern Daylight Time)","188635","","null","","","","","FIX","","<div class='trialBorder'><div class='vertical-center'><img style='vertical-align:center; align:center' src=img/fixation3.jpg></div></div>","null","","","","","","",""
"html-keyboard-response","24","166094","0.0-6.0-2.6","6400caf68d8b75041e36f702","bdp_sd","Wed Apr 12 2023 10:45:26 GMT-0400 (Eastern Daylight Time)","188635","","316","","","","","offer","","<div class='trialBorder'><div class='vertical-center'><img style='vertical-align:center; align:center' src=img/fixation3.jpg></div><div class='cl'><div class='vertical-center'>$41<br>for<br>yourself</div></div><div class='cr'><div class='vertical-center'>$75<br>for<br>Jerry T</div></div><div class='respDivL'><div class='vertical-center'>(E)</div></div><div class='respDivR'><div class='vertical-center'>(I)</div></div></div>","E","$41<br>for<br>yourself","$75<br>for<br>3","0","41","75","3","SELF"
"html-keyboard-response","25","166346","0.0-6.0-3.6","6400caf68d8b75041e36f702","bdp_sd","Wed Apr 12 2023 10:45:26 GMT-0400 (Eastern Daylight Time)","188635","","null","","","","","offerFB","","<div class='trialBorder'><div class='vertical-center'><img style='vertical-align:center; align:center' src=img/fixation3.jpg></div><div class='cl'><div class='vertical-center'><font style='color:orange'>$41<br>for<br>yourself</font></div></div><div class='cr'><div class='vertical-center'>$75<br>for<br>Jerry T</div></div><div class='respDivL'><div class='vertical-center'><font style='color:orange'>(E)</font></div></div><div class='respDivR'><div class='vertical-center'>(I)</div></div></div>","null","$41<br>for<br>yourself","$75<br>for<br>3","0","41","75","3",""
"html-keyboard-response","26","166848","0.0-6.0-1.7","6400caf68d8b75041e36f702","bdp_sd","Wed Apr 12 2023 10:45:26 GMT-0400 (Eastern Daylight Time)","188635","","null","","","","","FIX","","<div class='trialBorder'><div class='vertical-center'><img style='vertical-align:center; align:center' src=img/fixation3.jpg></div></div>","null","","","","","","",""
"html-keyboard-response","27","166881","0.0-6.0-2.7","6400caf68d8b75041e36f702","bdp_sd","Wed Apr 12 2023 10:45:26 GMT-0400 (Eastern Daylight Time)","188635","","32","","","","","offer","","<div class='trialBorder'><div class='vertical-center'><img style='vertical-align:center; align:center' src=img/fixation3.jpg></div><div class='cl'><div class='vertical-center'>$31<br>for<br>yourself</div></div><div class='cr'><div class='vertical-center'>$85<br>for<br>Kristen A</div></div><div class='respDivL'><div class='vertical-center'>(E)</div></div><div class='respDivR'><div class='vertical-center'>(I)</div></div></div>","I","$31<br>for<br>yourself","$85<br>for<br>1","0","31","85","1","OTHER"
"html-keyboard-response","28","167133","0.0-6.0-3.7","6400caf68d8b75041e36f702","bdp_sd","Wed Apr 12 2023 10:45:26 GMT-0400 (Eastern Daylight Time)","188635","","null","","","","","offerFB","","<div class='trialBorder'><div class='vertical-center'><img style='vertical-align:center; align:center' src=img/fixation3.jpg></div><div class='cl'><div class='vertical-center'>$31<br>for<br>yourself</div></div><div class='cr'><div class='vertical-center'><font style='color:orange'>$85<br>for<br>Kristen A</font></div></div><div class='respDivL'><div class='vertical-center'>(E)</div></div><div class='respDivR'><div class='vertical-center'><font style='color:orange'>(I)</font></div></div></div>","null","$31<br>for<br>yourself","$85<br>for<br>1","0","31","85","1",""
"html-keyboard-response","29","167636","0.0-6.0-1.8","6400caf68d8b75041e36f702","bdp_sd","Wed Apr 12 2023 10:45:26 GMT-0400 (Eastern Daylight Time)","188635","","null","","","","","FIX","","<div class='trialBorder'><div class='vertical-center'><img style='vertical-align:center; align:center' src=img/fixation3.jpg></div></div>","null","","","","","","",""
"html-keyboard-response","30","167849","0.0-6.0-2.8","6400caf68d8b75041e36f702","bdp_sd","Wed Apr 12 2023 10:45:26 GMT-0400 (Eastern Daylight Time)","188635","","212","","","","","offer","","<div class='trialBorder'><div class='vertical-center'><img style='vertical-align:center; align:center' src=img/fixation3.jpg></div><div class='cl'><div class='vertical-center'>$22<br>for<br>yourself</div></div><div class='cr'><div class='vertical-center'>$25<br>for<br>Enock M</div></div><div class='respDivL'><div class='vertical-center'>(E)</div></div><div class='respDivR'><div class='vertical-center'>(I)</div></div></div>","E","$22<br>for<br>yourself","$25<br>for<br>5","0","22","25","5","SELF"
"html-keyboard-response","31","168102","0.0-6.0-3.8","6400caf68d8b75041e36f702","bdp_sd","Wed Apr 12 2023 10:45:26 GMT-0400 (Eastern Daylight Time)","188635","","null","","","","","offerFB","","<div class='trialBorder'><div class='vertical-center'><img style='vertical-align:center; align:center' src=img/fixation3.jpg></div><div class='cl'><div class='vertical-center'><font style='color:orange'>$22<br>for<br>yourself</font></div></div><div class='cr'><div class='vertical-center'>$25<br>for<br>Enock M</div></div><div class='respDivL'><div class='vertical-center'><font style='color:orange'>(E)</font></div></div><div class='respDivR'><div class='vertical-center'>(I)</div></div></div>","null","$22<br>for<br>yourself","$25<br>for<br>5","0","22","25","5",""
"html-keyboard-response","32","168605","0.0-6.0-1.9","6400caf68d8b75041e36f702","bdp_sd","Wed Apr 12 2023 10:45:26 GMT-0400 (Eastern Daylight Time)","188635","","null","","","","","FIX","","<div class='trialBorder'><div class='vertical-center'><img style='vertical-align:center; align:center' src=img/fixation3.jpg></div></div>","null","","","","","","",""
"html-keyboard-response","33","168797","0.0-6.0-2.9","6400caf68d8b75041e36f702","bdp_sd","Wed Apr 12 2023 10:45:26 GMT-0400 (Eastern Daylight Time)","188635","","191","","","","","offer","","<div class='trialBorder'><div class='vertical-center'><img style='vertical-align:center; align:center' src=img/fixation3.jpg></div><div class='cl'><div class='vertical-center'>$80<br>for<br>yourself</div></div><div class='cr'><div class='vertical-center'>$85<br>for<br>Enock M</div></div><div class='respDivL'><div class='vertical-center'>(E)</div></div><div class='respDivR'><div class='vertical-center'>(I)</div></div></div>","I","$80<br>for<br>yourself","$85<br>for<br>5","0","80","85","5","OTHER"
"html-keyboard-response","34","169050","0.0-6.0-3.9","6400caf68d8b75041e36f702","bdp_sd","Wed Apr 12 2023 10:45:26 GMT-0400 (Eastern Daylight Time)","188635","","null","","","","","offerFB","","<div class='trialBorder'><div class='vertical-center'><img style='vertical-align:center; align:center' src=img/fixation3.jpg></div><div class='cl'><div class='vertical-center'>$80<br>for<br>yourself</div></div><div class='cr'><div class='vertical-center'><font style='color:orange'>$85<br>for<br>Enock M</font></div></div><div class='respDivL'><div class='vertical-center'>(E)</div></div><div class='respDivR'><div class='vertical-center'><font style='color:orange'>(I)</font></div></div></div>","null","$80<br>for<br>yourself","$85<br>for<br>5","0","80","85","5",""
"html-keyboard-response","35","169552","0.0-6.0-1.10","6400caf68d8b75041e36f702","bdp_sd","Wed Apr 12 2023 10:45:26 GMT-0400 (Eastern Daylight Time)","188635","","null","","","","","FIX","","<div class='trialBorder'><div class='vertical-center'><img style='vertical-align:center; align:center' src=img/fixation3.jpg></div></div>","null","","","","","","",""
"html-keyboard-response","36","169629","0.0-6.0-2.10","6400caf68d8b75041e36f702","bdp_sd","Wed Apr 12 2023 10:45:26 GMT-0400 (Eastern Daylight Time)","188635","","76","","","","","offer","","<div class='trialBorder'><div class='vertical-center'><img style='vertical-align:center; align:center' src=img/fixation3.jpg></div><div class='cl'><div class='vertical-center'>$35<br>for<br>Jonas M</div></div><div class='cr'><div class='vertical-center'>$15<br>for<br>yourself</div></div><div class='respDivL'><div class='vertical-center'>(E)</div></div><div class='respDivR'><div class='vertical-center'>(I)</div></div></div>","E","$15<br>for<br>yourself","$35<br>for<br>2","1","15","35","2","OTHER"
"html-keyboard-response","37","169881","0.0-6.0-3.10","6400caf68d8b75041e36f702","bdp_sd","Wed Apr 12 2023 10:45:26 GMT-0400 (Eastern Daylight Time)","188635","","null","","","","","offerFB","","<div class='trialBorder'><div class='vertical-center'><img style='vertical-align:center; align:center' src=img/fixation3.jpg></div><div class='cl'><div class='vertical-center'><font style='color:orange'>$35<br>for<br>Jonas M</font></div></div><div class='cr'><div class='vertical-center'>$15<br>for<br>yourself</div></div><div class='respDivL'><div class='vertical-center'><font style='color:orange'>(E)</font></div></div><div class='respDivR'><div class='vertical-center'>(I)</div></div></div>","null","$15<br>for<br>yourself","$35<br>for<br>2","1","15","35","2",""
"html-keyboard-response","38","170383","0.0-6.0-1.11","6400caf68d8b75041e36f702","bdp_sd","Wed Apr 12 2023 10:45:26 GMT-0400 (Eastern Daylight Time)","188635","","null","","","","","FIX","","<div class='trialBorder'><div class='vertical-center'><img style='vertical-align:center; align:center' src=img/fixation3.jpg></div></div>","null","","","","","","",""
"html-keyboard-response","39","170419","0.0-6.0-2.11","6400caf68d8b75041e36f702","bdp_sd","Wed Apr 12 2023 10:45:26 GMT-0400 (Eastern Daylight Time)","188635","","35","","","","","offer","","<div class='trialBorder'><div class='vertical-center'><img style='vertical-align:center; align:center' src=img/fixation3.jpg></div><div class='cl'><div class='vertical-center'>$30<br>for<br>Jonas M</div></div><div class='cr'><div class='vertical-center'>$11<br>for<br>yourself</div></div><div class='respDivL'><div class='vertical-center'>(E)</div></div><div class='respDivR'><div class='vertical-center'>(I)</div></div></div>","I","$11<br>for<br>yourself","$30<br>for<br>2","1","11","30","2","SELF"
"html-keyboard-response","40","170671","0.0-6.0-3.11","6400caf68d8b75041e36f702","bdp_sd","Wed Apr 12 2023 10:45:26 GMT-0400 (Eastern Daylight Time)","188635","","null","","","","","offerFB","","<div class='trialBorder'><div class='vertical-center'><img style='vertical-align:center; align:center' src=img/fixation3.jpg></div><div class='cl'><div class='vertical-center'>$30<br>for<br>Jonas M</div></div><div class='cr'><div class='vertical-center'><font style='color:orange'>$11<br>for<br>yourself</font></div></div><div class='respDivL'><div class='vertical-center'>(E)</div></div><div class='respDivR'><div class='vertical-center'><font style='color:orange'>(I)</font></div></div></div>","null","$11<br>for<br>yourself","$30<br>for<br>2","1","11","30","2",""
"html-keyboard-response","41","171173","0.0-6.0-1.12","6400caf68d8b75041e36f702","bdp_sd","Wed Apr 12 2023 10:45:26 GMT-0400 (Eastern Daylight Time)","188635","","null","","","","","FIX","","<div class='trialBorder'><div class='vertical-center'><img style='vertical-align:center; align:center' src=img/fixation3.jpg></div></div>","null","","","","","","",""
"html-keyboard-response","42","171797","0.0-6.0-2.12","6400caf68d8b75041e36f702","bdp_sd","Wed Apr 12 2023 10:45:26 GMT-0400 (Eastern Daylight Time)","188635","","622","","","","","offer","","<div class='trialBorder'><div class='vertical-center'><img style='vertical-align:center; align:center' src=img/fixation3.jpg></div><div class='cl'><div class='vertical-center'>$80<br>for<br>Jerry T</div></div><div class='cr'><div class='vertical-center'>$54<br>for<br>yourself</div></div><div class='respDivL'><div class='vertical-center'>(E)</div></div><div class='respDivR'><div class='vertical-center'>(I)</div></div></div>","E","$54<br>for<br>yourself","$80<br>for<br>3","1","54","80","3","OTHER"
"html-keyboard-response","43","172048","0.0-6.0-3.12","6400caf68d8b75041e36f702","bdp_sd","Wed Apr 12 2023 10:45:26 GMT-0400 (Eastern Daylight Time)","188635","","null","","","","","offerFB","","<div class='trialBorder'><div class='vertical-center'><img style='vertical-align:center; align:center' src=img/fixation3.jpg></div><div class='cl'><div class='vertical-center'><font style='color:orange'>$80<br>for<br>Jerry T</font></div></div><div class='cr'><div class='vertical-center'>$54<br>for<br>yourself</div></div><div class='respDivL'><div class='vertical-center'><font style='color:orange'>(E)</font></div></div><div class='respDivR'><div class='vertical-center'>(I)</div></div></div>","null","$54<br>for<br>yourself","$80<br>for<br>3","1","54","80","3",""
"html-keyboard-response","44","172550","0.0-6.0-1.13","6400caf68d8b75041e36f702","bdp_sd","Wed Apr 12 2023 10:45:26 GMT-0400 (Eastern Daylight Time)","188635","","null","","","","","FIX","","<div class='trialBorder'><div class='vertical-center'><img style='vertical-align:center; align:center' src=img/fixation3.jpg></div></div>","null","","","","","","",""
"html-keyboard-response","45","173099","0.0-6.0-2.13","6400caf68d8b75041e36f702","bdp_sd","Wed Apr 12 2023 10:45:26 GMT-0400 (Eastern Daylight Time)","188635","","547","","","","","offer","","<div class='trialBorder'><div class='vertical-center'><img style='vertical-align:center; align:center' src=img/fixation3.jpg></div><div class='cl'><div class='vertical-center'>$60<br>for<br>Ella S</div></div><div class='cr'><div class='vertical-center'>$49<br>for<br>yourself</div></div><div class='respDivL'><div class='vertical-center'>(E)</div></div><div class='respDivR'><div class='vertical-center'>(I)</div></div></div>","I","$49<br>for<br>yourself","$60<br>for<br>4","1","49","60","4","SELF"
"html-keyboard-response","46","173351","0.0-6.0-3.13","6400caf68d8b75041e36f702","bdp_sd","Wed Apr 12 2023 10:45:26 GMT-0400 (Eastern Daylight Time)","188635","","null","","","","","offerFB","","<div class='trialBorder'><div class='vertical-center'><img style='vertical-align:center; align:center' src=img/fixation3.jpg></div><div class='cl'><div class='vertical-center'>$60<br>for<br>Ella S</div></div><div class='cr'><div class='vertical-center'><font style='color:orange'>$49<br>for<br>yourself</font></div></div><div class='respDivL'><div class='vertical-center'>(E)</div></div><div class='respDivR'><div class='vertical-center'><font style='color:orange'>(I)</font></div></div></div>","null","$49<br>for<br>yourself","$60<br>for<br>4","1","49","60","4",""
"html-keyboard-response","47","173852","0.0-6.0-1.14","6400caf68d8b75041e36f702","bdp_sd","Wed Apr 12 2023 10:45:26 GMT-0400 (Eastern Daylight Time)","188635","","null","","","","","FIX","","<div class='trialBorder'><div class='vertical-center'><img style='vertical-align:center; align:center' src=img/fixation3.jpg></div></div>","null","","","","","","",""
"html-keyboard-response","48","173929","0.0-6.0-2.14","6400caf68d8b75041e36f702","bdp_sd","Wed Apr 12 2023 10:45:26 GMT-0400 (Eastern Daylight Time)","188635","","74","","","","","offer","","<div class='trialBorder'><div class='vertical-center'><img style='vertical-align:center; align:center' src=img/fixation3.jpg></div><div class='cl'><div class='vertical-center'>$14<br>for<br>yourself</div></div><div class='cr'><div class='vertical-center'>$25<br>for<br>Jerry T</div></div><div class='respDivL'><div class='vertical-center'>(E)</div></div><div class='respDivR'><div class='vertical-center'>(I)</div></div></div>","E","$14<br>for<br>yourself","$25<br>for<br>3","0","14","25","3","SELF"
"html-keyboard-response","49","174181","0.0-6.0-3.14","6400caf68d8b75041e36f702","bdp_sd","Wed Apr 12 2023 10:45:26 GMT-0400 (Eastern Daylight Time)","188635","","null","","","","","offerFB","","<div class='trialBorder'><div class='vertical-center'><img style='vertical-align:center; align:center' src=img/fixation3.jpg></div><div class='cl'><div class='vertical-center'><font style='color:orange'>$14<br>for<br>yourself</font></div></div><div class='cr'><div class='vertical-center'>$25<br>for<br>Jerry T</div></div><div class='respDivL'><div class='vertical-center'><font style='color:orange'>(E)</font></div></div><div class='respDivR'><div class='vertical-center'>(I)</div></div></div>","null","$14<br>for<br>yourself","$25<br>for<br>3","0","14","25","3",""
"html-keyboard-response","50","174683","0.0-6.0-1.15","6400caf68d8b75041e36f702","bdp_sd","Wed Apr 12 2023 10:45:26 GMT-0400 (Eastern Daylight Time)","188635","","null","","","","","FIX","","<div class='trialBorder'><div class='vertical-center'><img style='vertical-align:center; align:center' src=img/fixation3.jpg></div></div>","null","","","","","","",""
"html-keyboard-response","51","175365","0.0-6.0-2.15","6400caf68d8b75041e36f702","bdp_sd","Wed Apr 12 2023 10:45:26 GMT-0400 (Eastern Daylight Time)","188635","","681","","","","","offer","","<div class='trialBorder'><div class='vertical-center'><img style='vertical-align:center; align:center' src=img/fixation3.jpg></div><div class='cl'><div class='vertical-center'>$35<br>for<br>Jerry T</div></div><div class='cr'><div class='vertical-center'>$24<br>for<br>yourself</div></div><div class='respDivL'><div class='vertical-center'>(E)</div></div><div class='respDivR'><div class='vertical-center'>(I)</div></div></div>","I","$24<br>for<br>yourself","$35<br>for<br>3","1","24","35","3","SELF"
"html-keyboard-response","52","175618","0.0-6.0-3.15","6400caf68d8b75041e36f702","bdp_sd","Wed Apr 12 2023 10:45:26 GMT-0400 (Eastern Daylight Time)","188635","","null","","","","","offerFB","","<div class='trialBorder'><div class='vertical-center'><img style='vertical-align:center; align:center' src=img/fixation3.jpg></div><div class='cl'><div class='vertical-center'>$35<br>for<br>Jerry T</div></div><div class='cr'><div class='vertical-center'><font style='color:orange'>$24<br>for<br>yourself</font></div></div><div class='respDivL'><div class='vertical-center'>(E)</div></div><div class='respDivR'><div class='vertical-center'><font style='color:orange'>(I)</font></div></div></div>","null","$24<br>for<br>yourself","$35<br>for<br>3","1","24","35","3",""
"html-keyboard-response","53","176120","0.0-6.0-1.16","6400caf68d8b75041e36f702","bdp_sd","Wed Apr 12 2023 10:45:26 GMT-0400 (Eastern Daylight Time)","188635","","null","","","","","FIX","","<div class='trialBorder'><div class='vertical-center'><img style='vertical-align:center; align:center' src=img/fixation3.jpg></div></div>","null","","","","","","",""
"html-keyboard-response","54","176578","0.0-6.0-2.16","6400caf68d8b75041e36f702","bdp_sd","Wed Apr 12 2023 10:45:26 GMT-0400 (Eastern Daylight Time)","188635","","456","","","","","offer","","<div class='trialBorder'><div class='vertical-center'><img style='vertical-align:center; align:center' src=img/fixation3.jpg></div><div class='cl'><div class='vertical-center'>$50<br>for<br>Jerry T</div></div><div class='cr'><div class='vertical-center'>$27<br>for<br>yourself</div></div><div class='respDivL'><div class='vertical-center'>(E)</div></div><div class='respDivR'><div class='vertical-center'>(I)</div></div></div>","E","$27<br>for<br>yourself","$50<br>for<br>3","1","27","50","3","OTHER"
"html-keyboard-response","55","176829","0.0-6.0-3.16","6400caf68d8b75041e36f702","bdp_sd","Wed Apr 12 2023 10:45:26 GMT-0400 (Eastern Daylight Time)","188635","","null","","","","","offerFB","","<div class='trialBorder'><div class='vertical-center'><img style='vertical-align:center; align:center' src=img/fixation3.jpg></div><div class='cl'><div class='vertical-center'><font style='color:orange'>$50<br>for<br>Jerry T</font></div></div><div class='cr'><div class='vertical-center'>$27<br>for<br>yourself</div></div><div class='respDivL'><div class='vertical-center'><font style='color:orange'>(E)</font></div></div><div class='respDivR'><div class='vertical-center'>(I)</div></div></div>","null","$27<br>for<br>yourself","$50<br>for<br>3","1","27","50","3",""
"html-keyboard-response","56","177332","0.0-6.0-1.17","6400caf68d8b75041e36f702","bdp_sd","Wed Apr 12 2023 10:45:26 GMT-0400 (Eastern Daylight Time)","188635","","null","","","","","FIX","","<div class='trialBorder'><div class='vertical-center'><img style='vertical-align:center; align:center' src=img/fixation3.jpg></div></div>","null","","","","","","",""
"html-keyboard-response","57","178055","0.0-6.0-2.17","6400caf68d8b75041e36f702","bdp_sd","Wed Apr 12 2023 10:45:26 GMT-0400 (Eastern Daylight Time)","188635","","721","","","","","offer","","<div class='trialBorder'><div class='vertical-center'><img style='vertical-align:center; align:center' src=img/fixation3.jpg></div><div class='cl'><div class='vertical-center'>$28<br>for<br>yourself</div></div><div class='cr'><div class='vertical-center'>$30<br>for<br>Enock M</div></div><div class='respDivL'><div class='vertical-center'>(E)</div></div><div class='respDivR'><div class='vertical-center'>(I)</div></div></div>","I","$28<br>for<br>yourself","$30<br>for<br>5","0","28","30","5","OTHER"
"html-keyboard-response","58","178307","0.0-6.0-3.17","6400caf68d8b75041e36f702","bdp_sd","Wed Apr 12 2023 10:45:26 GMT-0400 (Eastern Daylight Time)","188635","","null","","","","","offerFB","","<div class='trialBorder'><div class='vertical-center'><img style='vertical-align:center; align:center' src=img/fixation3.jpg></div><div class='cl'><div class='vertical-center'>$28<br>for<br>yourself</div></div><div class='cr'><div class='vertical-center'><font style='color:orange'>$30<br>for<br>Enock M</font></div></div><div class='respDivL'><div class='vertical-center'>(E)</div></div><div class='respDivR'><div class='vertical-center'><font style='color:orange'>(I)</font></div></div></div>","null","$28<br>for<br>yourself","$30<br>for<br>5","0","28","30","5",""
"html-keyboard-response","59","178808","0.0-6.0-1.18","6400caf68d8b75041e36f702","bdp_sd","Wed Apr 12 2023 10:45:26 GMT-0400 (Eastern Daylight Time)","188635","","null","","","","","FIX","","<div class='trialBorder'><div class='vertical-center'><img style='vertical-align:center; align:center' src=img/fixation3.jpg></div></div>","null","","","","","","",""
"html-keyboard-response","60","179158","0.0-6.0-2.18","6400caf68d8b75041e36f702","bdp_sd","Wed Apr 12 2023 10:45:26 GMT-0400 (Eastern Daylight Time)","188635","","347","","","","","offer","","<div class='trialBorder'><div class='vertical-center'><img style='vertical-align:center; align:center' src=img/fixation3.jpg></div><div class='cl'><div class='vertical-center'>$78<br>for<br>yourself</div></div><div class='cr'><div class='vertical-center'>$80<br>for<br>Enock M</div></div><div class='respDivL'><div class='vertical-center'>(E)</div></div><div class='respDivR'><div class='vertical-center'>(I)</div></div></div>","E","$78<br>for<br>yourself","$80<br>for<br>5","0","78","80","5","SELF"
"html-keyboard-response","61","179410","0.0-6.0-3.18","6400caf68d8b75041e36f702","bdp_sd","Wed Apr 12 2023 10:45:26 GMT-0400 (Eastern Daylight Time)","188635","","null","","","","","offerFB","","<div class='trialBorder'><div class='vertical-center'><img style='vertical-align:center; align:center' src=img/fixation3.jpg></div><div class='cl'><div class='vertical-center'><font style='color:orange'>$78<br>for<br>yourself</font></div></div><div class='cr'><div class='vertical-center'>$80<br>for<br>Enock M</div></div><div class='respDivL'><div class='vertical-center'><font style='color:orange'>(E)</font></div></div><div class='respDivR'><div class='vertical-center'>(I)</div></div></div>","null","$78<br>for<br>yourself","$80<br>for<br>5","0","78","80","5",""
"html-keyboard-response","62","179911","0.0-6.0-1.19","6400caf68d8b75041e36f702","bdp_sd","Wed Apr 12 2023 10:45:26 GMT-0400 (Eastern Daylight Time)","188635","","null","","","","","FIX","","<div class='trialBorder'><div class='vertical-center'><img style='vertical-align:center; align:center' src=img/fixation3.jpg></div></div>","null","","","","","","",""
"html-keyboard-response","63","180142","0.0-6.0-2.19","6400caf68d8b75041e36f702","bdp_sd","Wed Apr 12 2023 10:45:26 GMT-0400 (Eastern Daylight Time)","188635","","230","","","","","offer","","<div class='trialBorder'><div class='vertical-center'><img style='vertical-align:center; align:center' src=img/fixation3.jpg></div><div class='cl'><div class='vertical-center'>$33<br>for<br>yourself</div></div><div class='cr'><div class='vertical-center'>$80<br>for<br>Jonas M</div></div><div class='respDivL'><div class='vertical-center'>(E)</div></div><div class='respDivR'><div class='vertical-center'>(I)</div></div></div>","I","$33<br>for<br>yourself","$80<br>for<br>2","0","33","80","2","OTHER"
"html-keyboard-response","64","180394","0.0-6.0-3.19","6400caf68d8b75041e36f702","bdp_sd","Wed Apr 12 2023 10:45:26 GMT-0400 (Eastern Daylight Time)","188635","","null","","","","","offerFB","","<div class='trialBorder'><div class='vertical-center'><img style='vertical-align:center; align:center' src=img/fixation3.jpg></div><div class='cl'><div class='vertical-center'>$33<br>for<br>yourself</div></div><div class='cr'><div class='vertical-center'><font style='color:orange'>$80<br>for<br>Jonas M</font></div></div><div class='respDivL'><div class='vertical-center'>(E)</div></div><div class='respDivR'><div class='vertical-center'><font style='color:orange'>(I)</font></div></div></div>","null","$33<br>for<br>yourself","$80<br>for<br>2","0","33","80","2",""
"html-keyboard-response","65","180896","0.0-6.0-1.20","6400caf68d8b75041e36f702","bdp_sd","Wed Apr 12 2023 10:45:26 GMT-0400 (Eastern Daylight Time)","188635","","null","","","","","FIX","","<div class='trialBorder'><div class='vertical-center'><img style='vertical-align:center; align:center' src=img/fixation3.jpg></div></div>","null","","","","","","",""
"html-keyboard-response","66","181124","0.0-6.0-2.20","6400caf68d8b75041e36f702","bdp_sd","Wed Apr 12 2023 10:45:26 GMT-0400 (Eastern Daylight Time)","188635","","226","","","","","offer","","<div class='trialBorder'><div class='vertical-center'><img style='vertical-align:center; align:center' src=img/fixation3.jpg></div><div class='cl'><div class='vertical-center'>$19<br>for<br>yourself</div></div><div class='cr'><div class='vertical-center'>$25<br>for<br>Ella S</div></div><div class='respDivL'><div class='vertical-center'>(E)</div></div><div class='respDivR'><div class='vertical-center'>(I)</div></div></div>","E","$19<br>for<br>yourself","$25<br>for<br>4","0","19","25","4","SELF"
"html-keyboard-response","67","181377","0.0-6.0-3.20","6400caf68d8b75041e36f702","bdp_sd","Wed Apr 12 2023 10:45:26 GMT-0400 (Eastern Daylight Time)","188635","","null","","","","","offerFB","","<div class='trialBorder'><div class='vertical-center'><img style='vertical-align:center; align:center' src=img/fixation3.jpg></div><div class='cl'><div class='vertical-center'><font style='color:orange'>$19<br>for<br>yourself</font></div></div><div class='cr'><div class='vertical-center'>$25<br>for<br>Ella S</div></div><div class='respDivL'><div class='vertical-center'><font style='color:orange'>(E)</font></div></div><div class='respDivR'><div class='vertical-center'>(I)</div></div></div>","null","$19<br>for<br>yourself","$25<br>for<br>4","0","19","25","4",""
"html-keyboard-response","68","181879","0.0-6.0-1.21","6400caf68d8b75041e36f702","bdp_sd","Wed Apr 12 2023 10:45:26 GMT-0400 (Eastern Daylight Time)","188635","","null","","","","","FIX","","<div class='trialBorder'><div class='vertical-center'><img style='vertical-align:center; align:center' src=img/fixation3.jpg></div></div>","null","","","","","","",""
"html-keyboard-response","69","182555","0.0-6.0-2.21","6400caf68d8b75041e36f702","bdp_sd","Wed Apr 12 2023 10:45:26 GMT-0400 (Eastern Daylight Time)","188635","","675","","","","","offer","","<div class='trialBorder'><div class='vertical-center'><img style='vertical-align:center; align:center' src=img/fixation3.jpg></div><div class='cl'><div class='vertical-center'>$40<br>for<br>yourself</div></div><div class='cr'><div class='vertical-center'>$55<br>for<br>Ella S</div></div><div class='respDivL'><div class='vertical-center'>(E)</div></div><div class='respDivR'><div class='vertical-center'>(I)</div></div></div>","I","$40<br>for<br>yourself","$55<br>for<br>4","0","40","55","4","OTHER"
"html-keyboard-response","70","182808","0.0-6.0-3.21","6400caf68d8b75041e36f702","bdp_sd","Wed Apr 12 2023 10:45:26 GMT-0400 (Eastern Daylight Time)","188635","","null","","","","","offerFB","","<div class='trialBorder'><div class='vertical-center'><img style='vertical-align:center; align:center' src=img/fixation3.jpg></div><div class='cl'><div class='vertical-center'>$40<br>for<br>yourself</div></div><div class='cr'><div class='vertical-center'><font style='color:orange'>$55<br>for<br>Ella S</font></div></div><div class='respDivL'><div class='vertical-center'>(E)</div></div><div class='respDivR'><div class='vertical-center'><font style='color:orange'>(I)</font></div></div></div>","null","$40<br>for<br>yourself","$55<br>for<br>4","0","40","55","4",""
"html-keyboard-response","71","183310","0.0-6.0-1.22","6400caf68d8b75041e36f702","bdp_sd","Wed Apr 12 2023 10:45:26 GMT-0400 (Eastern Daylight Time)","188635","","null","","","","","FIX","","<div class='trialBorder'><div class='vertical-center'><img style='vertical-align:center; align:center' src=img/fixation3.jpg></div></div>","null","","","","","","",""
"html-keyboard-response","72","183538","0.0-6.0-2.22","6400caf68d8b75041e36f702","bdp_sd","Wed Apr 12 2023 10:45:26 GMT-0400 (Eastern Daylight Time)","188635","","227","","","","","offer","","<div class='trialBorder'><div class='vertical-center'><img style='vertical-align:center; align:center' src=img/fixation3.jpg></div><div class='cl'><div class='vertical-center'>$35<br>for<br>Enock M</div></div><div class='cr'><div class='vertical-center'>$34<br>for<br>yourself</div></div><div class='respDivL'><div class='vertical-center'>(E)</div></div><div class='respDivR'><div class='vertical-center'>(I)</div></div></div>","E","$34<br>for<br>yourself","$35<br>for<br>5","1","34","35","5","OTHER"
"html-keyboard-response","73","183790","0.0-6.0-3.22","6400caf68d8b75041e36f702","bdp_sd","Wed Apr 12 2023 10:45:26 GMT-0400 (Eastern Daylight Time)","188635","","null","","","","","offerFB","","<div class='trialBorder'><div class='vertical-center'><img style='vertical-align:center; align:center' src=img/fixation3.jpg></div><div class='cl'><div class='vertical-center'><font style='color:orange'>$35<br>for<br>Enock M</font></div></div><div class='cr'><div class='vertical-center'>$34<br>for<br>yourself</div></div><div class='respDivL'><div class='vertical-center'><font style='color:orange'>(E)</font></div></div><div class='respDivR'><div class='vertical-center'>(I)</div></div></div>","null","$34<br>for<br>yourself","$35<br>for<br>5","1","34","35","5",""
"html-keyboard-response","74","184292","0.0-6.0-1.23","6400caf68d8b75041e36f702","bdp_sd","Wed Apr 12 2023 10:45:26 GMT-0400 (Eastern Daylight Time)","188635","","null","","","","","FIX","","<div class='trialBorder'><div class='vertical-center'><img style='vertical-align:center; align:center' src=img/fixation3.jpg></div></div>","null","","","","","","",""
"html-keyboard-response","75","184512","0.0-6.0-2.23","6400caf68d8b75041e36f702","bdp_sd","Wed Apr 12 2023 10:45:26 GMT-0400 (Eastern Daylight Time)","188635","","219","","","","","offer","","<div class='trialBorder'><div class='vertical-center'><img style='vertical-align:center; align:center' src=img/fixation3.jpg></div><div class='cl'><div class='vertical-center'>$60<br>for<br>Enock M</div></div><div class='cr'><div class='vertical-center'>$54<br>for<br>yourself</div></div><div class='respDivL'><div class='vertical-center'>(E)</div></div><div class='respDivR'><div class='vertical-center'>(I)</div></div></div>","I","$54<br>for<br>yourself","$60<br>for<br>5","1","54","60","5","SELF"
"html-keyboard-response","76","184764","0.0-6.0-3.23","6400caf68d8b75041e36f702","bdp_sd","Wed Apr 12 2023 10:45:26 GMT-0400 (Eastern Daylight Time)","188635","","null","","","","","offerFB","","<div class='trialBorder'><div class='vertical-center'><img style='vertical-align:center; align:center' src=img/fixation3.jpg></div><div class='cl'><div class='vertical-center'>$60<br>for<br>Enock M</div></div><div class='cr'><div class='vertical-center'><font style='color:orange'>$54<br>for<br>yourself</font></div></div><div class='respDivL'><div class='vertical-center'>(E)</div></div><div class='respDivR'><div class='vertical-center'><font style='color:orange'>(I)</font></div></div></div>","null","$54<br>for<br>yourself","$60<br>for<br>5","1","54","60","5",""
"html-keyboard-response","77","185266","0.0-6.0-1.24","6400caf68d8b75041e36f702","bdp_sd","Wed Apr 12 2023 10:45:26 GMT-0400 (Eastern Daylight Time)","188635","","null","","","","","FIX","","<div class='trialBorder'><div class='vertical-center'><img style='vertical-align:center; align:center' src=img/fixation3.jpg></div></div>","null","","","","","","",""
"html-keyboard-response","78","185501","0.0-6.0-2.24","6400caf68d8b75041e36f702","bdp_sd","Wed Apr 12 2023 10:45:26 GMT-0400 (Eastern Daylight Time)","188635","","233","","","","","offer","","<div class='trialBorder'><div class='vertical-center'><img style='vertical-align:center; align:center' src=img/fixation3.jpg></div><div class='cl'><div class='vertical-center'>$55<br>for<br>Enock M</div></div><div class='cr'><div class='vertical-center'>$54<br>for<br>yourself</div></div><div class='respDivL'><div class='vertical-center'>(E)</div></div><div class='respDivR'><div class='vertical-center'>(I)</div></div></div>","E","$54<br>for<br>yourself","$55<br>for<br>5","1","54","55","5","OTHER"
"html-keyboard-response","79","185753","0.0-6.0-3.24","6400caf68d8b75041e36f702","bdp_sd","Wed Apr 12 2023 10:45:26 GMT-0400 (Eastern Daylight Time)","188635","","null","","","","","offerFB","","<div class='trialBorder'><div class='vertical-center'><img style='vertical-align:center; align:center' src=img/fixation3.jpg></div><div class='cl'><div class='vertical-center'><font style='color:orange'>$55<br>for<br>Enock M</font></div></div><div class='cr'><div class='vertical-center'>$54<br>for<br>yourself</div></div><div class='respDivL'><div class='vertical-center'><font style='color:orange'>(E)</font></div></div><div class='respDivR'><div class='vertical-center'>(I)</div></div></div>","null","$54<br>for<br>yourself","$55<br>for<br>5","1","54","55","5",""
"html-keyboard-response","80","186255","0.0-6.0-1.25","6400caf68d8b75041e36f702","bdp_sd","Wed Apr 12 2023 10:45:26 GMT-0400 (Eastern Daylight Time)","188635","","null","","","","","FIX","","<div class='trialBorder'><div class='vertical-center'><img style='vertical-align:center; align:center' src=img/fixation3.jpg></div></div>","null","","","","","","",""
"html-keyboard-response","81","186494","0.0-6.0-2.25","6400caf68d8b75041e36f702","bdp_sd","Wed Apr 12 2023 10:45:26 GMT-0400 (Eastern Daylight Time)","188635","","238","","","","","offer","","<div class='trialBorder'><div class='vertical-center'><img style='vertical-align:center; align:center' src=img/fixation3.jpg></div><div class='cl'><div class='vertical-center'>$50<br>for<br>Ella S</div></div><div class='cr'><div class='vertical-center'>$34<br>for<br>yourself</div></div><div class='respDivL'><div class='vertical-center'>(E)</div></div><div class='respDivR'><div class='vertical-center'>(I)</div></div></div>","I","$34<br>for<br>yourself","$50<br>for<br>4","1","34","50","4","SELF"
"html-keyboard-response","82","186747","0.0-6.0-3.25","6400caf68d8b75041e36f702","bdp_sd","Wed Apr 12 2023 10:45:26 GMT-0400 (Eastern Daylight Time)","188635","","null","","","","","offerFB","","<div class='trialBorder'><div class='vertical-center'><img style='vertical-align:center; align:center' src=img/fixation3.jpg></div><div class='cl'><div class='vertical-center'>$50<br>for<br>Ella S</div></div><div class='cr'><div class='vertical-center'><font style='color:orange'>$34<br>for<br>yourself</font></div></div><div class='respDivL'><div class='vertical-center'>(E)</div></div><div class='respDivR'><div class='vertical-center'><font style='color:orange'>(I)</font></div></div></div>","null","$34<br>for<br>yourself","$50<br>for<br>4","1","34","50","4",""
"html-keyboard-response","83","187249","0.0-6.0-1.26","6400caf68d8b75041e36f702","bdp_sd","Wed Apr 12 2023 10:45:26 GMT-0400 (Eastern Daylight Time)","188635","","null","","","","","FIX","","<div class='trialBorder'><div class='vertical-center'><img style='vertical-align:center; align:center' src=img/fixation3.jpg></div></div>","null","","","","","","",""
"html-keyboard-response","84","187382","0.0-6.0-2.26","6400caf68d8b75041e36f702","bdp_sd","Wed Apr 12 2023 10:45:26 GMT-0400 (Eastern Daylight Time)","188635","","131","","","","","offer","","<div class='trialBorder'><div class='vertical-center'><img style='vertical-align:center; align:center' src=img/fixation3.jpg></div><div class='cl'><div class='vertical-center'>$69<br>for<br>yourself</div></div><div class='cr'><div class='vertical-center'>$85<br>for<br>Ella S</div></div><div class='respDivL'><div class='vertical-center'>(E)</div></div><div class='respDivR'><div class='vertical-center'>(I)</div></div></div>","E","$69<br>for<br>yourself","$85<br>for<br>4","0","69","85","4","SELF"
"html-keyboard-response","85","187633","0.0-6.0-3.26","6400caf68d8b75041e36f702","bdp_sd","Wed Apr 12 2023 10:45:26 GMT-0400 (Eastern Daylight Time)","188635","","null","","","","","offerFB","","<div class='trialBorder'><div class='vertical-center'><img style='vertical-align:center; align:center' src=img/fixation3.jpg></div><div class='cl'><div class='vertical-center'><font style='color:orange'>$69<br>for<br>yourself</font></div></div><div class='cr'><div class='vertical-center'>$85<br>for<br>Ella S</div></div><div class='respDivL'><div class='vertical-center'><font style='color:orange'>(E)</font></div></div><div class='respDivR'><div class='vertical-center'>(I)</div></div></div>","null","$69<br>for<br>yourself","$85<br>for<br>4","0","69","85","4",""
"","","","","6400caf68d8b75041e36f702","bdp_sd","Wed Apr 12 2023 10:45:26 GMT-0400 (Eastern Daylight Time)","188635","","","","fullscreenexit","86","187685","fullscreenexit","","","","","","","","","",""
"fullscreen","86","188634","0.0-7.0","6400caf68d8b75041e36f702","bdp_sd","Wed Apr 12 2023 10:45:26 GMT-0400 (Eastern Daylight Time)","188635","","","","","","","","true","","","","","","","","",""
"html-keyboard-response","87","189136","0.0-8.0","","","","","","null","","","","","","","","null","","","","","","",""
