"trial_type","trial_index","time_elapsed","internal_node_id","subject_id","task","startTime","totalTime","view_history","rt","responses","event","trial","time","trialtype","success","stimulus","key_press","selfOffer","otherOffer","otherLeft","selfAmt","otherAmt","otherDist","chosen"
"pavlovia","0","11","0.0-0.0","64141beda1cef49212be9b6c","bdp_sd","Mon Apr 10 2023 06:53:50 GMT+0800 (China Standard Time)","164783","","","","","","","","","","","","","","","","",""
"instructions","1","9818","0.0-1.0","64141beda1cef49212be9b6c","bdp_sd","Mon Apr 10 2023 06:53:50 GMT+0800 (China Standard Time)","164783","[{""page_index"":0,""viewing_time"":9805}]","9806","","","","","","","","","","","","","","",""
"survey-text","2","93078","0.0-2.0","64141beda1cef49212be9b6c","bdp_sd","Mon Apr 10 2023 06:53:50 GMT+0800 (China Standard Time)","164783","","83241","{""Q0"":""mv"",""Q1"":""fg"",""Q2"":""jk"",""Q3"":""ca"",""Q4"":""fe""}","","","","","","","","","","","","","",""
"","","","","64141beda1cef49212be9b6c","bdp_sd","Mon Apr 10 2023 06:53:50 GMT+0800 (China Standard Time)","164783","","","","fullscreenenter","3","96427","fullscreenenter","","","","","","","","","",""
"fullscreen","3","97266","0.0-3.0","64141beda1cef49212be9b6c","bdp_sd","Mon Apr 10 2023 06:53:50 GMT+0800 (China Standard Time)","164783","","","","","","","","true","","","","","","","","",""
"instructions","4","112469","0.0-5.0","64141beda1cef49212be9b6c","bdp_sd","Mon Apr 10 2023 06:53:50 GMT+0800 (China Standard Time)","164783","[{""page_index"":0,""viewing_time"":8640},{""page_index"":1,""viewing_time"":4531},{""page_index"":2,""viewing_time"":2018}]","15192","","","","","","","","","","","","","","",""
"html-keyboard-response","5","112983","0.0-6.0-1.0","64141beda1cef49212be9b6c","bdp_sd","Mon Apr 10 2023 06:53:50 GMT+0800 (China Standard Time)","164783","","null","","","","","FIX","","<div class='trialBorder'><div class='vertical-center'><img style='vertical-align:center; align:center' src=img/fixation3.jpg></div></div>","null","","","","","","",""
"html-keyboard-response","6","115050","0.0-6.0-2.0","64141beda1cef49212be9b6c","bdp_sd","Mon Apr 10 2023 06:53:50 GMT+0800 (China Standard Time)","164783","","2056","","","","","offer","","<div class='trialBorder'><div class='vertical-center'><img style='vertical-align:center; align:center' src=img/fixation3.jpg></div><div class='cl'><div class='vertical-center'>$31<br>for<br>yourself</div></div><div class='cr'><div class='vertical-center'>$85<br>for<br>mv</div></div><div class='respDivL'><div class='vertical-center'>(E)</div></div><div class='respDivR'><div class='vertical-center'>(I)</div></div></div>","E","$31<br>for<br>yourself","$85<br>for<br>1","0","31","85","1","SELF"
"html-keyboard-response","7","115315","0.0-6.0-3.0","64141beda1cef49212be9b6c","bdp_sd","Mon Apr 10 2023 06:53:50 GMT+0800 (China Standard Time)","164783","","null","","","","","offerFB","","<div class='trialBorder'><div class='vertical-center'><img style='vertical-align:center; align:center' src=img/fixation3.jpg></div><div class='cl'><div class='vertical-center'><font style='color:orange'>$31<br>for<br>yourself</font></div></div><div class='cr'><div class='vertical-center'>$85<br>for<br>mv</div></div><div class='respDivL'><div class='vertical-center'><font style='color:orange'>(E)</font></div></div><div class='respDivR'><div class='vertical-center'>(I)</div></div></div>","null","$31<br>for<br>yourself","$85<br>for<br>1","0","31","85","1",""
"html-keyboard-response","8","115825","0.0-6.0-1.1","64141beda1cef49212be9b6c","bdp_sd","Mon Apr 10 2023 06:53:50 GMT+0800 (China Standard Time)","164783","","null","","","","","FIX","","<div class='trialBorder'><div class='vertical-center'><img style='vertical-align:center; align:center' src=img/fixation3.jpg></div></div>","null","","","","","","",""
"html-keyboard-response","9","117333","0.0-6.0-2.1","64141beda1cef49212be9b6c","bdp_sd","Mon Apr 10 2023 06:53:50 GMT+0800 (China Standard Time)","164783","","1500","","","","","offer","","<div class='trialBorder'><div class='vertical-center'><img style='vertical-align:center; align:center' src=img/fixation3.jpg></div><div class='cl'><div class='vertical-center'>$60<br>for<br>ca</div></div><div class='cr'><div class='vertical-center'>$49<br>for<br>yourself</div></div><div class='respDivL'><div class='vertical-center'>(E)</div></div><div class='respDivR'><div class='vertical-center'>(I)</div></div></div>","E","$49<br>for<br>yourself","$60<br>for<br>4","1","49","60","4","OTHER"
"html-keyboard-response","10","117594","0.0-6.0-3.1","64141beda1cef49212be9b6c","bdp_sd","Mon Apr 10 2023 06:53:50 GMT+0800 (China Standard Time)","164783","","null","","","","","offerFB","","<div class='trialBorder'><div class='vertical-center'><img style='vertical-align:center; align:center' src=img/fixation3.jpg></div><div class='cl'><div class='vertical-center'><font style='color:orange'>$60<br>for<br>ca</font></div></div><div class='cr'><div class='vertical-center'>$49<br>for<br>yourself</div></div><div class='respDivL'><div class='vertical-center'><font style='color:orange'>(E)</font></div></div><div class='respDivR'><div class='vertical-center'>(I)</div></div></div>","null","$49<br>for<br>yourself","$60<br>for<br>4","1","49","60","4",""
"html-keyboard-response","11","118101","0.0-6.0-1.2","64141beda1cef49212be9b6c","bdp_sd","Mon Apr 10 2023 06:53:50 GMT+0800 (China Standard Time)","164783","","null","","","","","FIX","","<div class='trialBorder'><div class='vertical-center'><img style='vertical-align:center; align:center' src=img/fixation3.jpg></div></div>","null","","","","","","",""
"html-keyboard-response","12","119038","0.0-6.0-2.2","64141beda1cef49212be9b6c","bdp_sd","Mon Apr 10 2023 06:53:50 GMT+0800 (China Standard Time)","164783","","930","","","","","offer","","<div class='trialBorder'><div class='vertical-center'><img style='vertical-align:center; align:center' src=img/fixation3.jpg></div><div class='cl'><div class='vertical-center'>$55<br>for<br>yourself</div></div><div class='cr'><div class='vertical-center'>$75<br>for<br>ca</div></div><div class='respDivL'><div class='vertical-center'>(E)</div></div><div class='respDivR'><div class='vertical-center'>(I)</div></div></div>","I","$55<br>for<br>yourself","$75<br>for<br>4","0","55","75","4","OTHER"
"html-keyboard-response","13","119293","0.0-6.0-3.2","64141beda1cef49212be9b6c","bdp_sd","Mon Apr 10 2023 06:53:50 GMT+0800 (China Standard Time)","164783","","null","","","","","offerFB","","<div class='trialBorder'><div class='vertical-center'><img style='vertical-align:center; align:center' src=img/fixation3.jpg></div><div class='cl'><div class='vertical-center'>$55<br>for<br>yourself</div></div><div class='cr'><div class='vertical-center'><font style='color:orange'>$75<br>for<br>ca</font></div></div><div class='respDivL'><div class='vertical-center'>(E)</div></div><div class='respDivR'><div class='vertical-center'><font style='color:orange'>(I)</font></div></div></div>","null","$55<br>for<br>yourself","$75<br>for<br>4","0","55","75","4",""
"html-keyboard-response","14","119810","0.0-6.0-1.3","64141beda1cef49212be9b6c","bdp_sd","Mon Apr 10 2023 06:53:50 GMT+0800 (China Standard Time)","164783","","null","","","","","FIX","","<div class='trialBorder'><div class='vertical-center'><img style='vertical-align:center; align:center' src=img/fixation3.jpg></div></div>","null","","","","","","",""
"html-keyboard-response","15","120759","0.0-6.0-2.3","64141beda1cef49212be9b6c","bdp_sd","Mon Apr 10 2023 06:53:50 GMT+0800 (China Standard Time)","164783","","944","","","","","offer","","<div class='trialBorder'><div class='vertical-center'><img style='vertical-align:center; align:center' src=img/fixation3.jpg></div><div class='cl'><div class='vertical-center'>$35<br>for<br>fe</div></div><div class='cr'><div class='vertical-center'>$34<br>for<br>yourself</div></div><div class='respDivL'><div class='vertical-center'>(E)</div></div><div class='respDivR'><div class='vertical-center'>(I)</div></div></div>","I","$34<br>for<br>yourself","$35<br>for<br>5","1","34","35","5","SELF"
"html-keyboard-response","16","121020","0.0-6.0-3.3","64141beda1cef49212be9b6c","bdp_sd","Mon Apr 10 2023 06:53:50 GMT+0800 (China Standard Time)","164783","","null","","","","","offerFB","","<div class='trialBorder'><div class='vertical-center'><img style='vertical-align:center; align:center' src=img/fixation3.jpg></div><div class='cl'><div class='vertical-center'>$35<br>for<br>fe</div></div><div class='cr'><div class='vertical-center'><font style='color:orange'>$34<br>for<br>yourself</font></div></div><div class='respDivL'><div class='vertical-center'>(E)</div></div><div class='respDivR'><div class='vertical-center'><font style='color:orange'>(I)</font></div></div></div>","null","$34<br>for<br>yourself","$35<br>for<br>5","1","34","35","5",""
"html-keyboard-response","17","121525","0.0-6.0-1.4","64141beda1cef49212be9b6c","bdp_sd","Mon Apr 10 2023 06:53:50 GMT+0800 (China Standard Time)","164783","","null","","","","","FIX","","<div class='trialBorder'><div class='vertical-center'><img style='vertical-align:center; align:center' src=img/fixation3.jpg></div></div>","null","","","","","","",""
"html-keyboard-response","18","122562","0.0-6.0-2.4","64141beda1cef49212be9b6c","bdp_sd","Mon Apr 10 2023 06:53:50 GMT+0800 (China Standard Time)","164783","","1031","","","","","offer","","<div class='trialBorder'><div class='vertical-center'><img style='vertical-align:center; align:center' src=img/fixation3.jpg></div><div class='cl'><div class='vertical-center'>$25<br>for<br>yourself</div></div><div class='cr'><div class='vertical-center'>$30<br>for<br>ca</div></div><div class='respDivL'><div class='vertical-center'>(E)</div></div><div class='respDivR'><div class='vertical-center'>(I)</div></div></div>","I","$25<br>for<br>yourself","$30<br>for<br>4","0","25","30","4","OTHER"
"html-keyboard-response","19","122825","0.0-6.0-3.4","64141beda1cef49212be9b6c","bdp_sd","Mon Apr 10 2023 06:53:50 GMT+0800 (China Standard Time)","164783","","null","","","","","offerFB","","<div class='trialBorder'><div class='vertical-center'><img style='vertical-align:center; align:center' src=img/fixation3.jpg></div><div class='cl'><div class='vertical-center'>$25<br>for<br>yourself</div></div><div class='cr'><div class='vertical-center'><font style='color:orange'>$30<br>for<br>ca</font></div></div><div class='respDivL'><div class='vertical-center'>(E)</div></div><div class='respDivR'><div class='vertical-center'><font style='color:orange'>(I)</font></div></div></div>","null","$25<br>for<br>yourself","$30<br>for<br>4","0","25","30","4",""
"html-keyboard-response","20","123331","0.0-6.0-1.5","64141beda1cef49212be9b6c","bdp_sd","Mon Apr 10 2023 06:53:50 GMT+0800 (China Standard Time)","164783","","null","","","","","FIX","","<div class='trialBorder'><div class='vertical-center'><img style='vertical-align:center; align:center' src=img/fixation3.jpg></div></div>","null","","","","","","",""
"html-keyboard-response","21","124484","0.0-6.0-2.5","64141beda1cef49212be9b6c","bdp_sd","Mon Apr 10 2023 06:53:50 GMT+0800 (China Standard Time)","164783","","1147","","","","","offer","","<div class='trialBorder'><div class='vertical-center'><img style='vertical-align:center; align:center' src=img/fixation3.jpg></div><div class='cl'><div class='vertical-center'>$11<br>for<br>yourself</div></div><div class='cr'><div class='vertical-center'>$30<br>for<br>fg</div></div><div class='respDivL'><div class='vertical-center'>(E)</div></div><div class='respDivR'><div class='vertical-center'>(I)</div></div></div>","I","$11<br>for<br>yourself","$30<br>for<br>2","0","11","30","2","OTHER"
"html-keyboard-response","22","124747","0.0-6.0-3.5","64141beda1cef49212be9b6c","bdp_sd","Mon Apr 10 2023 06:53:50 GMT+0800 (China Standard Time)","164783","","null","","","","","offerFB","","<div class='trialBorder'><div class='vertical-center'><img style='vertical-align:center; align:center' src=img/fixation3.jpg></div><div class='cl'><div class='vertical-center'>$11<br>for<br>yourself</div></div><div class='cr'><div class='vertical-center'><font style='color:orange'>$30<br>for<br>fg</font></div></div><div class='respDivL'><div class='vertical-center'>(E)</div></div><div class='respDivR'><div class='vertical-center'><font style='color:orange'>(I)</font></div></div></div>","null","$11<br>for<br>yourself","$30<br>for<br>2","0","11","30","2",""
"html-keyboard-response","23","125250","0.0-6.0-1.6","64141beda1cef49212be9b6c","bdp_sd","Mon Apr 10 2023 06:53:50 GMT+0800 (China Standard Time)","164783","","null","","","","","FIX","","<div class='trialBorder'><div class='vertical-center'><img style='vertical-align:center; align:center' src=img/fixation3.jpg></div></div>","null","","","","","","",""
"html-keyboard-response","24","126114","0.0-6.0-2.6","64141beda1cef49212be9b6c","bdp_sd","Mon Apr 10 2023 06:53:50 GMT+0800 (China Standard Time)","164783","","857","","","","","offer","","<div class='trialBorder'><div class='vertical-center'><img style='vertical-align:center; align:center' src=img/fixation3.jpg></div><div class='cl'><div class='vertical-center'>$27<br>for<br>yourself</div></div><div class='cr'><div class='vertical-center'>$50<br>for<br>jk</div></div><div class='respDivL'><div class='vertical-center'>(E)</div></div><div class='respDivR'><div class='vertical-center'>(I)</div></div></div>","I","$27<br>for<br>yourself","$50<br>for<br>3","0","27","50","3","OTHER"
"html-keyboard-response","25","126371","0.0-6.0-3.6","64141beda1cef49212be9b6c","bdp_sd","Mon Apr 10 2023 06:53:50 GMT+0800 (China Standard Time)","164783","","null","","","","","offerFB","","<div class='trialBorder'><div class='vertical-center'><img style='vertical-align:center; align:center' src=img/fixation3.jpg></div><div class='cl'><div class='vertical-center'>$27<br>for<br>yourself</div></div><div class='cr'><div class='vertical-center'><font style='color:orange'>$50<br>for<br>jk</font></div></div><div class='respDivL'><div class='vertical-center'>(E)</div></div><div class='respDivR'><div class='vertical-center'><font style='color:orange'>(I)</font></div></div></div>","null","$27<br>for<br>yourself","$50<br>for<br>3","0","27","50","3",""
"html-keyboard-response","26","126877","0.0-6.0-1.7","64141beda1cef49212be9b6c","bdp_sd","Mon Apr 10 2023 06:53:50 GMT+0800 (China Standard Time)","164783","","null","","","","","FIX","","<div class='trialBorder'><div class='vertical-center'><img style='vertical-align:center; align:center' src=img/fixation3.jpg></div></div>","null","","","","","","",""
"html-keyboard-response","27","128627","0.0-6.0-2.7","64141beda1cef49212be9b6c","bdp_sd","Mon Apr 10 2023 06:53:50 GMT+0800 (China Standard Time)","164783","","1747","","","","","offer","","<div class='trialBorder'><div class='vertical-center'><img style='vertical-align:center; align:center' src=img/fixation3.jpg></div><div class='cl'><div class='vertical-center'>$85<br>for<br>ca</div></div><div class='cr'><div class='vertical-center'>$69<br>for<br>yourself</div></div><div class='respDivL'><div class='vertical-center'>(E)</div></div><div class='respDivR'><div class='vertical-center'>(I)</div></div></div>","E","$69<br>for<br>yourself","$85<br>for<br>4","1","69","85","4","OTHER"
"html-keyboard-response","28","128887","0.0-6.0-3.7","64141beda1cef49212be9b6c","bdp_sd","Mon Apr 10 2023 06:53:50 GMT+0800 (China Standard Time)","164783","","null","","","","","offerFB","","<div class='trialBorder'><div class='vertical-center'><img style='vertical-align:center; align:center' src=img/fixation3.jpg></div><div class='cl'><div class='vertical-center'><font style='color:orange'>$85<br>for<br>ca</font></div></div><div class='cr'><div class='vertical-center'>$69<br>for<br>yourself</div></div><div class='respDivL'><div class='vertical-center'><font style='color:orange'>(E)</font></div></div><div class='respDivR'><div class='vertical-center'>(I)</div></div></div>","null","$69<br>for<br>yourself","$85<br>for<br>4","1","69","85","4",""
"html-keyboard-response","29","129393","0.0-6.0-1.8","64141beda1cef49212be9b6c","bdp_sd","Mon Apr 10 2023 06:53:50 GMT+0800 (China Standard Time)","164783","","null","","","","","FIX","","<div class='trialBorder'><div class='vertical-center'><img style='vertical-align:center; align:center' src=img/fixation3.jpg></div></div>","null","","","","","","",""
"html-keyboard-response","30","130888","0.0-6.0-2.8","64141beda1cef49212be9b6c","bdp_sd","Mon Apr 10 2023 06:53:50 GMT+0800 (China Standard Time)","164783","","1491","","","","","offer","","<div class='trialBorder'><div class='vertical-center'><img style='vertical-align:center; align:center' src=img/fixation3.jpg></div><div class='cl'><div class='vertical-center'>$30<br>for<br>fe</div></div><div class='cr'><div class='vertical-center'>$28<br>for<br>yourself</div></div><div class='respDivL'><div class='vertical-center'>(E)</div></div><div class='respDivR'><div class='vertical-center'>(I)</div></div></div>","E","$28<br>for<br>yourself","$30<br>for<br>5","1","28","30","5","OTHER"
"html-keyboard-response","31","131144","0.0-6.0-3.8","64141beda1cef49212be9b6c","bdp_sd","Mon Apr 10 2023 06:53:50 GMT+0800 (China Standard Time)","164783","","null","","","","","offerFB","","<div class='trialBorder'><div class='vertical-center'><img style='vertical-align:center; align:center' src=img/fixation3.jpg></div><div class='cl'><div class='vertical-center'><font style='color:orange'>$30<br>for<br>fe</font></div></div><div class='cr'><div class='vertical-center'>$28<br>for<br>yourself</div></div><div class='respDivL'><div class='vertical-center'><font style='color:orange'>(E)</font></div></div><div class='respDivR'><div class='vertical-center'>(I)</div></div></div>","null","$28<br>for<br>yourself","$30<br>for<br>5","1","28","30","5",""
"html-keyboard-response","32","131650","0.0-6.0-1.9","64141beda1cef49212be9b6c","bdp_sd","Mon Apr 10 2023 06:53:50 GMT+0800 (China Standard Time)","164783","","null","","","","","FIX","","<div class='trialBorder'><div class='vertical-center'><img style='vertical-align:center; align:center' src=img/fixation3.jpg></div></div>","null","","","","","","",""
"html-keyboard-response","33","133260","0.0-6.0-2.9","64141beda1cef49212be9b6c","bdp_sd","Mon Apr 10 2023 06:53:50 GMT+0800 (China Standard Time)","164783","","1602","","","","","offer","","<div class='trialBorder'><div class='vertical-center'><img style='vertical-align:center; align:center' src=img/fixation3.jpg></div><div class='cl'><div class='vertical-center'>$22<br>for<br>yourself</div></div><div class='cr'><div class='vertical-center'>$25<br>for<br>fe</div></div><div class='respDivL'><div class='vertical-center'>(E)</div></div><div class='respDivR'><div class='vertical-center'>(I)</div></div></div>","I","$22<br>for<br>yourself","$25<br>for<br>5","0","22","25","5","OTHER"
"html-keyboard-response","34","133517","0.0-6.0-3.9","64141beda1cef49212be9b6c","bdp_sd","Mon Apr 10 2023 06:53:50 GMT+0800 (China Standard Time)","164783","","null","","","","","offerFB","","<div class='trialBorder'><div class='vertical-center'><img style='vertical-align:center; align:center' src=img/fixation3.jpg></div><div class='cl'><div class='vertical-center'>$22<br>for<br>yourself</div></div><div class='cr'><div class='vertical-center'><font style='color:orange'>$25<br>for<br>fe</font></div></div><div class='respDivL'><div class='vertical-center'>(E)</div></div><div class='respDivR'><div class='vertical-center'><font style='color:orange'>(I)</font></div></div></div>","null","$22<br>for<br>yourself","$25<br>for<br>5","0","22","25","5",""
"html-keyboard-response","35","134030","0.0-6.0-1.10","64141beda1cef49212be9b6c","bdp_sd","Mon Apr 10 2023 06:53:50 GMT+0800 (China Standard Time)","164783","","null","","","","","FIX","","<div class='trialBorder'><div class='vertical-center'><img style='vertical-align:center; align:center' src=img/fixation3.jpg></div></div>","null","","","","","","",""
"html-keyboard-response","36","135075","0.0-6.0-2.10","64141beda1cef49212be9b6c","bdp_sd","Mon Apr 10 2023 06:53:50 GMT+0800 (China Standard Time)","164783","","1036","","","","","offer","","<div class='trialBorder'><div class='vertical-center'><img style='vertical-align:center; align:center' src=img/fixation3.jpg></div><div class='cl'><div class='vertical-center'>$50<br>for<br>fe</div></div><div class='cr'><div class='vertical-center'>$47<br>for<br>yourself</div></div><div class='respDivL'><div class='vertical-center'>(E)</div></div><div class='respDivR'><div class='vertical-center'>(I)</div></div></div>","E","$47<br>for<br>yourself","$50<br>for<br>5","1","47","50","5","OTHER"
"html-keyboard-response","37","135334","0.0-6.0-3.10","64141beda1cef49212be9b6c","bdp_sd","Mon Apr 10 2023 06:53:50 GMT+0800 (China Standard Time)","164783","","null","","","","","offerFB","","<div class='trialBorder'><div class='vertical-center'><img style='vertical-align:center; align:center' src=img/fixation3.jpg></div><div class='cl'><div class='vertical-center'><font style='color:orange'>$50<br>for<br>fe</font></div></div><div class='cr'><div class='vertical-center'>$47<br>for<br>yourself</div></div><div class='respDivL'><div class='vertical-center'><font style='color:orange'>(E)</font></div></div><div class='respDivR'><div class='vertical-center'>(I)</div></div></div>","null","$47<br>for<br>yourself","$50<br>for<br>5","1","47","50","5",""
"html-keyboard-response","38","135843","0.0-6.0-1.11","64141beda1cef49212be9b6c","bdp_sd","Mon Apr 10 2023 06:53:50 GMT+0800 (China Standard Time)","164783","","null","","","","","FIX","","<div class='trialBorder'><div class='vertical-center'><img style='vertical-align:center; align:center' src=img/fixation3.jpg></div></div>","null","","","","","","",""
"html-keyboard-response","39","136842","0.0-6.0-2.11","64141beda1cef49212be9b6c","bdp_sd","Mon Apr 10 2023 06:53:50 GMT+0800 (China Standard Time)","164783","","994","","","","","offer","","<div class='trialBorder'><div class='vertical-center'><img style='vertical-align:center; align:center' src=img/fixation3.jpg></div><div class='cl'><div class='vertical-center'>$60<br>for<br>jk</div></div><div class='cr'><div class='vertical-center'>$25<br>for<br>yourself</div></div><div class='respDivL'><div class='vertical-center'>(E)</div></div><div class='respDivR'><div class='vertical-center'>(I)</div></div></div>","E","$25<br>for<br>yourself","$60<br>for<br>3","1","25","60","3","OTHER"
"html-keyboard-response","40","137097","0.0-6.0-3.11","64141beda1cef49212be9b6c","bdp_sd","Mon Apr 10 2023 06:53:50 GMT+0800 (China Standard Time)","164783","","null","","","","","offerFB","","<div class='trialBorder'><div class='vertical-center'><img style='vertical-align:center; align:center' src=img/fixation3.jpg></div><div class='cl'><div class='vertical-center'><font style='color:orange'>$60<br>for<br>jk</font></div></div><div class='cr'><div class='vertical-center'>$25<br>for<br>yourself</div></div><div class='respDivL'><div class='vertical-center'><font style='color:orange'>(E)</font></div></div><div class='respDivR'><div class='vertical-center'>(I)</div></div></div>","null","$25<br>for<br>yourself","$60<br>for<br>3","1","25","60","3",""
"html-keyboard-response","41","137605","0.0-6.0-1.12","64141beda1cef49212be9b6c","bdp_sd","Mon Apr 10 2023 06:53:50 GMT+0800 (China Standard Time)","164783","","null","","","","","FIX","","<div class='trialBorder'><div class='vertical-center'><img style='vertical-align:center; align:center' src=img/fixation3.jpg></div></div>","null","","","","","","",""
"html-keyboard-response","42","138465","0.0-6.0-2.12","64141beda1cef49212be9b6c","bdp_sd","Mon Apr 10 2023 06:53:50 GMT+0800 (China Standard Time)","164783","","853","","","","","offer","","<div class='trialBorder'><div class='vertical-center'><img style='vertical-align:center; align:center' src=img/fixation3.jpg></div><div class='cl'><div class='vertical-center'>$80<br>for<br>fe</div></div><div class='cr'><div class='vertical-center'>$78<br>for<br>yourself</div></div><div class='respDivL'><div class='vertical-center'>(E)</div></div><div class='respDivR'><div class='vertical-center'>(I)</div></div></div>","I","$78<br>for<br>yourself","$80<br>for<br>5","1","78","80","5","SELF"
"html-keyboard-response","43","138723","0.0-6.0-3.12","64141beda1cef49212be9b6c","bdp_sd","Mon Apr 10 2023 06:53:50 GMT+0800 (China Standard Time)","164783","","null","","","","","offerFB","","<div class='trialBorder'><div class='vertical-center'><img style='vertical-align:center; align:center' src=img/fixation3.jpg></div><div class='cl'><div class='vertical-center'>$80<br>for<br>fe</div></div><div class='cr'><div class='vertical-center'><font style='color:orange'>$78<br>for<br>yourself</font></div></div><div class='respDivL'><div class='vertical-center'>(E)</div></div><div class='respDivR'><div class='vertical-center'><font style='color:orange'>(I)</font></div></div></div>","null","$78<br>for<br>yourself","$80<br>for<br>5","1","78","80","5",""
"html-keyboard-response","44","139229","0.0-6.0-1.13","64141beda1cef49212be9b6c","bdp_sd","Mon Apr 10 2023 06:53:50 GMT+0800 (China Standard Time)","164783","","null","","","","","FIX","","<div class='trialBorder'><div class='vertical-center'><img style='vertical-align:center; align:center' src=img/fixation3.jpg></div></div>","null","","","","","","",""
"html-keyboard-response","45","140137","0.0-6.0-2.13","64141beda1cef49212be9b6c","bdp_sd","Mon Apr 10 2023 06:53:50 GMT+0800 (China Standard Time)","164783","","897","","","","","offer","","<div class='trialBorder'><div class='vertical-center'><img style='vertical-align:center; align:center' src=img/fixation3.jpg></div><div class='cl'><div class='vertical-center'>$75<br>for<br>fe</div></div><div class='cr'><div class='vertical-center'>$67<br>for<br>yourself</div></div><div class='respDivL'><div class='vertical-center'>(E)</div></div><div class='respDivR'><div class='vertical-center'>(I)</div></div></div>","E","$67<br>for<br>yourself","$75<br>for<br>5","1","67","75","5","OTHER"
"html-keyboard-response","46","140395","0.0-6.0-3.13","64141beda1cef49212be9b6c","bdp_sd","Mon Apr 10 2023 06:53:50 GMT+0800 (China Standard Time)","164783","","null","","","","","offerFB","","<div class='trialBorder'><div class='vertical-center'><img style='vertical-align:center; align:center' src=img/fixation3.jpg></div><div class='cl'><div class='vertical-center'><font style='color:orange'>$75<br>for<br>fe</font></div></div><div class='cr'><div class='vertical-center'>$67<br>for<br>yourself</div></div><div class='respDivL'><div class='vertical-center'><font style='color:orange'>(E)</font></div></div><div class='respDivR'><div class='vertical-center'>(I)</div></div></div>","null","$67<br>for<br>yourself","$75<br>for<br>5","1","67","75","5",""
"html-keyboard-response","47","140904","0.0-6.0-1.14","64141beda1cef49212be9b6c","bdp_sd","Mon Apr 10 2023 06:53:50 GMT+0800 (China Standard Time)","164783","","null","","","","","FIX","","<div class='trialBorder'><div class='vertical-center'><img style='vertical-align:center; align:center' src=img/fixation3.jpg></div></div>","null","","","","","","",""
"html-keyboard-response","48","142007","0.0-6.0-2.14","64141beda1cef49212be9b6c","bdp_sd","Mon Apr 10 2023 06:53:50 GMT+0800 (China Standard Time)","164783","","1093","","","","","offer","","<div class='trialBorder'><div class='vertical-center'><img style='vertical-align:center; align:center' src=img/fixation3.jpg></div><div class='cl'><div class='vertical-center'>$40<br>for<br>yourself</div></div><div class='cr'><div class='vertical-center'>$55<br>for<br>ca</div></div><div class='respDivL'><div class='vertical-center'>(E)</div></div><div class='respDivR'><div class='vertical-center'>(I)</div></div></div>","I","$40<br>for<br>yourself","$55<br>for<br>4","0","40","55","4","OTHER"
"html-keyboard-response","49","142266","0.0-6.0-3.14","64141beda1cef49212be9b6c","bdp_sd","Mon Apr 10 2023 06:53:50 GMT+0800 (China Standard Time)","164783","","null","","","","","offerFB","","<div class='trialBorder'><div class='vertical-center'><img style='vertical-align:center; align:center' src=img/fixation3.jpg></div><div class='cl'><div class='vertical-center'>$40<br>for<br>yourself</div></div><div class='cr'><div class='vertical-center'><font style='color:orange'>$55<br>for<br>ca</font></div></div><div class='respDivL'><div class='vertical-center'>(E)</div></div><div class='respDivR'><div class='vertical-center'><font style='color:orange'>(I)</font></div></div></div>","null","$40<br>for<br>yourself","$55<br>for<br>4","0","40","55","4",""
"html-keyboard-response","50","142776","0.0-6.0-1.15","64141beda1cef49212be9b6c","bdp_sd","Mon Apr 10 2023 06:53:50 GMT+0800 (China Standard Time)","164783","","null","","","","","FIX","","<div class='trialBorder'><div class='vertical-center'><img style='vertical-align:center; align:center' src=img/fixation3.jpg></div></div>","null","","","","","","",""
"html-keyboard-response","51","143637","0.0-6.0-2.15","64141beda1cef49212be9b6c","bdp_sd","Mon Apr 10 2023 06:53:50 GMT+0800 (China Standard Time)","164783","","851","","","","","offer","","<div class='trialBorder'><div class='vertical-center'><img style='vertical-align:center; align:center' src=img/fixation3.jpg></div><div class='cl'><div class='vertical-center'>$60<br>for<br>fe</div></div><div class='cr'><div class='vertical-center'>$54<br>for<br>yourself</div></div><div class='respDivL'><div class='vertical-center'>(E)</div></div><div class='respDivR'><div class='vertical-center'>(I)</div></div></div>","E","$54<br>for<br>yourself","$60<br>for<br>5","1","54","60","5","OTHER"
"html-keyboard-response","52","143894","0.0-6.0-3.15","64141beda1cef49212be9b6c","bdp_sd","Mon Apr 10 2023 06:53:50 GMT+0800 (China Standard Time)","164783","","null","","","","","offerFB","","<div class='trialBorder'><div class='vertical-center'><img style='vertical-align:center; align:center' src=img/fixation3.jpg></div><div class='cl'><div class='vertical-center'><font style='color:orange'>$60<br>for<br>fe</font></div></div><div class='cr'><div class='vertical-center'>$54<br>for<br>yourself</div></div><div class='respDivL'><div class='vertical-center'><font style='color:orange'>(E)</font></div></div><div class='respDivR'><div class='vertical-center'>(I)</div></div></div>","null","$54<br>for<br>yourself","$60<br>for<br>5","1","54","60","5",""
"html-keyboard-response","53","144399","0.0-6.0-1.16","64141beda1cef49212be9b6c","bdp_sd","Mon Apr 10 2023 06:53:50 GMT+0800 (China Standard Time)","164783","","null","","","","","FIX","","<div class='trialBorder'><div class='vertical-center'><img style='vertical-align:center; align:center' src=img/fixation3.jpg></div></div>","null","","","","","","",""
"html-keyboard-response","54","145849","0.0-6.0-2.16","64141beda1cef49212be9b6c","bdp_sd","Mon Apr 10 2023 06:53:50 GMT+0800 (China Standard Time)","164783","","1441","","","","","offer","","<div class='trialBorder'><div class='vertical-center'><img style='vertical-align:center; align:center' src=img/fixation3.jpg></div><div class='cl'><div class='vertical-center'>$55<br>for<br>fe</div></div><div class='cr'><div class='vertical-center'>$54<br>for<br>yourself</div></div><div class='respDivL'><div class='vertical-center'>(E)</div></div><div class='respDivR'><div class='vertical-center'>(I)</div></div></div>","E","$54<br>for<br>yourself","$55<br>for<br>5","1","54","55","5","OTHER"
"html-keyboard-response","55","146109","0.0-6.0-3.16","64141beda1cef49212be9b6c","bdp_sd","Mon Apr 10 2023 06:53:50 GMT+0800 (China Standard Time)","164783","","null","","","","","offerFB","","<div class='trialBorder'><div class='vertical-center'><img style='vertical-align:center; align:center' src=img/fixation3.jpg></div><div class='cl'><div class='vertical-center'><font style='color:orange'>$55<br>for<br>fe</font></div></div><div class='cr'><div class='vertical-center'>$54<br>for<br>yourself</div></div><div class='respDivL'><div class='vertical-center'><font style='color:orange'>(E)</font></div></div><div class='respDivR'><div class='vertical-center'>(I)</div></div></div>","null","$54<br>for<br>yourself","$55<br>for<br>5","1","54","55","5",""
"html-keyboard-response","56","146613","0.0-6.0-1.17","64141beda1cef49212be9b6c","bdp_sd","Mon Apr 10 2023 06:53:50 GMT+0800 (China Standard Time)","164783","","null","","","","","FIX","","<div class='trialBorder'><div class='vertical-center'><img style='vertical-align:center; align:center' src=img/fixation3.jpg></div></div>","null","","","","","","",""
"html-keyboard-response","57","147482","0.0-6.0-2.17","64141beda1cef49212be9b6c","bdp_sd","Mon Apr 10 2023 06:53:50 GMT+0800 (China Standard Time)","164783","","864","","","","","offer","","<div class='trialBorder'><div class='vertical-center'><img style='vertical-align:center; align:center' src=img/fixation3.jpg></div><div class='cl'><div class='vertical-center'>$55<br>for<br>mv</div></div><div class='cr'><div class='vertical-center'>$20<br>for<br>yourself</div></div><div class='respDivL'><div class='vertical-center'>(E)</div></div><div class='respDivR'><div class='vertical-center'>(I)</div></div></div>","E","$20<br>for<br>yourself","$55<br>for<br>1","1","20","55","1","OTHER"
"html-keyboard-response","58","147747","0.0-6.0-3.17","64141beda1cef49212be9b6c","bdp_sd","Mon Apr 10 2023 06:53:50 GMT+0800 (China Standard Time)","164783","","null","","","","","offerFB","","<div class='trialBorder'><div class='vertical-center'><img style='vertical-align:center; align:center' src=img/fixation3.jpg></div><div class='cl'><div class='vertical-center'><font style='color:orange'>$55<br>for<br>mv</font></div></div><div class='cr'><div class='vertical-center'>$20<br>for<br>yourself</div></div><div class='respDivL'><div class='vertical-center'><font style='color:orange'>(E)</font></div></div><div class='respDivR'><div class='vertical-center'>(I)</div></div></div>","null","$20<br>for<br>yourself","$55<br>for<br>1","1","20","55","1",""
"html-keyboard-response","59","148254","0.0-6.0-1.18","64141beda1cef49212be9b6c","bdp_sd","Mon Apr 10 2023 06:53:50 GMT+0800 (China Standard Time)","164783","","null","","","","","FIX","","<div class='trialBorder'><div class='vertical-center'><img style='vertical-align:center; align:center' src=img/fixation3.jpg></div></div>","null","","","","","","",""
"html-keyboard-response","60","149411","0.0-6.0-2.18","64141beda1cef49212be9b6c","bdp_sd","Mon Apr 10 2023 06:53:50 GMT+0800 (China Standard Time)","164783","","1153","","","","","offer","","<div class='trialBorder'><div class='vertical-center'><img style='vertical-align:center; align:center' src=img/fixation3.jpg></div><div class='cl'><div class='vertical-center'>$14<br>for<br>yourself</div></div><div class='cr'><div class='vertical-center'>$25<br>for<br>jk</div></div><div class='respDivL'><div class='vertical-center'>(E)</div></div><div class='respDivR'><div class='vertical-center'>(I)</div></div></div>","I","$14<br>for<br>yourself","$25<br>for<br>3","0","14","25","3","OTHER"
"html-keyboard-response","61","149665","0.0-6.0-3.18","64141beda1cef49212be9b6c","bdp_sd","Mon Apr 10 2023 06:53:50 GMT+0800 (China Standard Time)","164783","","null","","","","","offerFB","","<div class='trialBorder'><div class='vertical-center'><img style='vertical-align:center; align:center' src=img/fixation3.jpg></div><div class='cl'><div class='vertical-center'>$14<br>for<br>yourself</div></div><div class='cr'><div class='vertical-center'><font style='color:orange'>$25<br>for<br>jk</font></div></div><div class='respDivL'><div class='vertical-center'>(E)</div></div><div class='respDivR'><div class='vertical-center'><font style='color:orange'>(I)</font></div></div></div>","null","$14<br>for<br>yourself","$25<br>for<br>3","0","14","25","3",""
"html-keyboard-response","62","150184","0.0-6.0-1.19","64141beda1cef49212be9b6c","bdp_sd","Mon Apr 10 2023 06:53:50 GMT+0800 (China Standard Time)","164783","","null","","","","","FIX","","<div class='trialBorder'><div class='vertical-center'><img style='vertical-align:center; align:center' src=img/fixation3.jpg></div></div>","null","","","","","","",""
"html-keyboard-response","63","151776","0.0-6.0-2.19","64141beda1cef49212be9b6c","bdp_sd","Mon Apr 10 2023 06:53:50 GMT+0800 (China Standard Time)","164783","","1587","","","","","offer","","<div class='trialBorder'><div class='vertical-center'><img style='vertical-align:center; align:center' src=img/fixation3.jpg></div><div class='cl'><div class='vertical-center'>$33<br>for<br>yourself</div></div><div class='cr'><div class='vertical-center'>$80<br>for<br>fg</div></div><div class='respDivL'><div class='vertical-center'>(E)</div></div><div class='respDivR'><div class='vertical-center'>(I)</div></div></div>","I","$33<br>for<br>yourself","$80<br>for<br>2","0","33","80","2","OTHER"
"html-keyboard-response","64","152034","0.0-6.0-3.19","64141beda1cef49212be9b6c","bdp_sd","Mon Apr 10 2023 06:53:50 GMT+0800 (China Standard Time)","164783","","null","","","","","offerFB","","<div class='trialBorder'><div class='vertical-center'><img style='vertical-align:center; align:center' src=img/fixation3.jpg></div><div class='cl'><div class='vertical-center'>$33<br>for<br>yourself</div></div><div class='cr'><div class='vertical-center'><font style='color:orange'>$80<br>for<br>fg</font></div></div><div class='respDivL'><div class='vertical-center'>(E)</div></div><div class='respDivR'><div class='vertical-center'><font style='color:orange'>(I)</font></div></div></div>","null","$33<br>for<br>yourself","$80<br>for<br>2","0","33","80","2",""
"html-keyboard-response","65","152541","0.0-6.0-1.20","64141beda1cef49212be9b6c","bdp_sd","Mon Apr 10 2023 06:53:50 GMT+0800 (China Standard Time)","164783","","null","","","","","FIX","","<div class='trialBorder'><div class='vertical-center'><img style='vertical-align:center; align:center' src=img/fixation3.jpg></div></div>","null","","","","","","",""
"html-keyboard-response","66","153715","0.0-6.0-2.20","64141beda1cef49212be9b6c","bdp_sd","Mon Apr 10 2023 06:53:50 GMT+0800 (China Standard Time)","164783","","1165","","","","","offer","","<div class='trialBorder'><div class='vertical-center'><img style='vertical-align:center; align:center' src=img/fixation3.jpg></div><div class='cl'><div class='vertical-center'>$34<br>for<br>yourself</div></div><div class='cr'><div class='vertical-center'>$50<br>for<br>ca</div></div><div class='respDivL'><div class='vertical-center'>(E)</div></div><div class='respDivR'><div class='vertical-center'>(I)</div></div></div>","I","$34<br>for<br>yourself","$50<br>for<br>4","0","34","50","4","OTHER"
"html-keyboard-response","67","153976","0.0-6.0-3.20","64141beda1cef49212be9b6c","bdp_sd","Mon Apr 10 2023 06:53:50 GMT+0800 (China Standard Time)","164783","","null","","","","","offerFB","","<div class='trialBorder'><div class='vertical-center'><img style='vertical-align:center; align:center' src=img/fixation3.jpg></div><div class='cl'><div class='vertical-center'>$34<br>for<br>yourself</div></div><div class='cr'><div class='vertical-center'><font style='color:orange'>$50<br>for<br>ca</font></div></div><div class='respDivL'><div class='vertical-center'>(E)</div></div><div class='respDivR'><div class='vertical-center'><font style='color:orange'>(I)</font></div></div></div>","null","$34<br>for<br>yourself","$50<br>for<br>4","0","34","50","4",""
"html-keyboard-response","68","154481","0.0-6.0-1.21","64141beda1cef49212be9b6c","bdp_sd","Mon Apr 10 2023 06:53:50 GMT+0800 (China Standard Time)","164783","","null","","","","","FIX","","<div class='trialBorder'><div class='vertical-center'><img style='vertical-align:center; align:center' src=img/fixation3.jpg></div></div>","null","","","","","","",""
"html-keyboard-response","69","155285","0.0-6.0-2.21","64141beda1cef49212be9b6c","bdp_sd","Mon Apr 10 2023 06:53:50 GMT+0800 (China Standard Time)","164783","","795","","","","","offer","","<div class='trialBorder'><div class='vertical-center'><img style='vertical-align:center; align:center' src=img/fixation3.jpg></div><div class='cl'><div class='vertical-center'>$35<br>for<br>fg</div></div><div class='cr'><div class='vertical-center'>$15<br>for<br>yourself</div></div><div class='respDivL'><div class='vertical-center'>(E)</div></div><div class='respDivR'><div class='vertical-center'>(I)</div></div></div>","E","$15<br>for<br>yourself","$35<br>for<br>2","1","15","35","2","OTHER"
"html-keyboard-response","70","155545","0.0-6.0-3.21","64141beda1cef49212be9b6c","bdp_sd","Mon Apr 10 2023 06:53:50 GMT+0800 (China Standard Time)","164783","","null","","","","","offerFB","","<div class='trialBorder'><div class='vertical-center'><img style='vertical-align:center; align:center' src=img/fixation3.jpg></div><div class='cl'><div class='vertical-center'><font style='color:orange'>$35<br>for<br>fg</font></div></div><div class='cr'><div class='vertical-center'>$15<br>for<br>yourself</div></div><div class='respDivL'><div class='vertical-center'><font style='color:orange'>(E)</font></div></div><div class='respDivR'><div class='vertical-center'>(I)</div></div></div>","null","$15<br>for<br>yourself","$35<br>for<br>2","1","15","35","2",""
"html-keyboard-response","71","156049","0.0-6.0-1.22","64141beda1cef49212be9b6c","bdp_sd","Mon Apr 10 2023 06:53:50 GMT+0800 (China Standard Time)","164783","","null","","","","","FIX","","<div class='trialBorder'><div class='vertical-center'><img style='vertical-align:center; align:center' src=img/fixation3.jpg></div></div>","null","","","","","","",""
"html-keyboard-response","72","156704","0.0-6.0-2.22","64141beda1cef49212be9b6c","bdp_sd","Mon Apr 10 2023 06:53:50 GMT+0800 (China Standard Time)","164783","","649","","","","","offer","","<div class='trialBorder'><div class='vertical-center'><img style='vertical-align:center; align:center' src=img/fixation3.jpg></div><div class='cl'><div class='vertical-center'>$41<br>for<br>yourself</div></div><div class='cr'><div class='vertical-center'>$75<br>for<br>jk</div></div><div class='respDivL'><div class='vertical-center'>(E)</div></div><div class='respDivR'><div class='vertical-center'>(I)</div></div></div>","I","$41<br>for<br>yourself","$75<br>for<br>3","0","41","75","3","OTHER"
"html-keyboard-response","73","156990","0.0-6.0-3.22","64141beda1cef49212be9b6c","bdp_sd","Mon Apr 10 2023 06:53:50 GMT+0800 (China Standard Time)","164783","","null","","","","","offerFB","","<div class='trialBorder'><div class='vertical-center'><img style='vertical-align:center; align:center' src=img/fixation3.jpg></div><div class='cl'><div class='vertical-center'>$41<br>for<br>yourself</div></div><div class='cr'><div class='vertical-center'><font style='color:orange'>$75<br>for<br>jk</font></div></div><div class='respDivL'><div class='vertical-center'>(E)</div></div><div class='respDivR'><div class='vertical-center'><font style='color:orange'>(I)</font></div></div></div>","null","$41<br>for<br>yourself","$75<br>for<br>3","0","41","75","3",""
"html-keyboard-response","74","157497","0.0-6.0-1.23","64141beda1cef49212be9b6c","bdp_sd","Mon Apr 10 2023 06:53:50 GMT+0800 (China Standard Time)","164783","","null","","","","","FIX","","<div class='trialBorder'><div class='vertical-center'><img style='vertical-align:center; align:center' src=img/fixation3.jpg></div></div>","null","","","","","","",""
"html-keyboard-response","75","158335","0.0-6.0-2.23","64141beda1cef49212be9b6c","bdp_sd","Mon Apr 10 2023 06:53:50 GMT+0800 (China Standard Time)","164783","","828","","","","","offer","","<div class='trialBorder'><div class='vertical-center'><img style='vertical-align:center; align:center' src=img/fixation3.jpg></div><div class='cl'><div class='vertical-center'>$54<br>for<br>yourself</div></div><div class='cr'><div class='vertical-center'>$80<br>for<br>jk</div></div><div class='respDivL'><div class='vertical-center'>(E)</div></div><div class='respDivR'><div class='vertical-center'>(I)</div></div></div>","I","$54<br>for<br>yourself","$80<br>for<br>3","0","54","80","3","OTHER"
"html-keyboard-response","76","158594","0.0-6.0-3.23","64141beda1cef49212be9b6c","bdp_sd","Mon Apr 10 2023 06:53:50 GMT+0800 (China Standard Time)","164783","","null","","","","","offerFB","","<div class='trialBorder'><div class='vertical-center'><img style='vertical-align:center; align:center' src=img/fixation3.jpg></div><div class='cl'><div class='vertical-center'>$54<br>for<br>yourself</div></div><div class='cr'><div class='vertical-center'><font style='color:orange'>$80<br>for<br>jk</font></div></div><div class='respDivL'><div class='vertical-center'>(E)</div></div><div class='respDivR'><div class='vertical-center'><font style='color:orange'>(I)</font></div></div></div>","null","$54<br>for<br>yourself","$80<br>for<br>3","0","54","80","3",""
"html-keyboard-response","77","159097","0.0-6.0-1.24","64141beda1cef49212be9b6c","bdp_sd","Mon Apr 10 2023 06:53:50 GMT+0800 (China Standard Time)","164783","","null","","","","","FIX","","<div class='trialBorder'><div class='vertical-center'><img style='vertical-align:center; align:center' src=img/fixation3.jpg></div></div>","null","","","","","","",""
"html-keyboard-response","78","159895","0.0-6.0-2.24","64141beda1cef49212be9b6c","bdp_sd","Mon Apr 10 2023 06:53:50 GMT+0800 (China Standard Time)","164783","","795","","","","","offer","","<div class='trialBorder'><div class='vertical-center'><img style='vertical-align:center; align:center' src=img/fixation3.jpg></div><div class='cl'><div class='vertical-center'>$25<br>for<br>ca</div></div><div class='cr'><div class='vertical-center'>$19<br>for<br>yourself</div></div><div class='respDivL'><div class='vertical-center'>(E)</div></div><div class='respDivR'><div class='vertical-center'>(I)</div></div></div>","E","$19<br>for<br>yourself","$25<br>for<br>4","1","19","25","4","OTHER"
"html-keyboard-response","79","160152","0.0-6.0-3.24","64141beda1cef49212be9b6c","bdp_sd","Mon Apr 10 2023 06:53:50 GMT+0800 (China Standard Time)","164783","","null","","","","","offerFB","","<div class='trialBorder'><div class='vertical-center'><img style='vertical-align:center; align:center' src=img/fixation3.jpg></div><div class='cl'><div class='vertical-center'><font style='color:orange'>$25<br>for<br>ca</font></div></div><div class='cr'><div class='vertical-center'>$19<br>for<br>yourself</div></div><div class='respDivL'><div class='vertical-center'><font style='color:orange'>(E)</font></div></div><div class='respDivR'><div class='vertical-center'>(I)</div></div></div>","null","$19<br>for<br>yourself","$25<br>for<br>4","1","19","25","4",""
"html-keyboard-response","80","160658","0.0-6.0-1.25","64141beda1cef49212be9b6c","bdp_sd","Mon Apr 10 2023 06:53:50 GMT+0800 (China Standard Time)","164783","","null","","","","","FIX","","<div class='trialBorder'><div class='vertical-center'><img style='vertical-align:center; align:center' src=img/fixation3.jpg></div></div>","null","","","","","","",""
"html-keyboard-response","81","161414","0.0-6.0-2.25","64141beda1cef49212be9b6c","bdp_sd","Mon Apr 10 2023 06:53:50 GMT+0800 (China Standard Time)","164783","","751","","","","","offer","","<div class='trialBorder'><div class='vertical-center'><img style='vertical-align:center; align:center' src=img/fixation3.jpg></div><div class='cl'><div class='vertical-center'>$85<br>for<br>fe</div></div><div class='cr'><div class='vertical-center'>$80<br>for<br>yourself</div></div><div class='respDivL'><div class='vertical-center'>(E)</div></div><div class='respDivR'><div class='vertical-center'>(I)</div></div></div>","I","$80<br>for<br>yourself","$85<br>for<br>5","1","80","85","5","SELF"
"html-keyboard-response","82","161674","0.0-6.0-3.25","64141beda1cef49212be9b6c","bdp_sd","Mon Apr 10 2023 06:53:50 GMT+0800 (China Standard Time)","164783","","null","","","","","offerFB","","<div class='trialBorder'><div class='vertical-center'><img style='vertical-align:center; align:center' src=img/fixation3.jpg></div><div class='cl'><div class='vertical-center'>$85<br>for<br>fe</div></div><div class='cr'><div class='vertical-center'><font style='color:orange'>$80<br>for<br>yourself</font></div></div><div class='respDivL'><div class='vertical-center'>(E)</div></div><div class='respDivR'><div class='vertical-center'><font style='color:orange'>(I)</font></div></div></div>","null","$80<br>for<br>yourself","$85<br>for<br>5","1","80","85","5",""
"html-keyboard-response","83","162177","0.0-6.0-1.26","64141beda1cef49212be9b6c","bdp_sd","Mon Apr 10 2023 06:53:50 GMT+0800 (China Standard Time)","164783","","null","","","","","FIX","","<div class='trialBorder'><div class='vertical-center'><img style='vertical-align:center; align:center' src=img/fixation3.jpg></div></div>","null","","","","","","",""
"html-keyboard-response","84","163516","0.0-6.0-2.26","64141beda1cef49212be9b6c","bdp_sd","Mon Apr 10 2023 06:53:50 GMT+0800 (China Standard Time)","164783","","1333","","","","","offer","","<div class='trialBorder'><div class='vertical-center'><img style='vertical-align:center; align:center' src=img/fixation3.jpg></div><div class='cl'><div class='vertical-center'>$24<br>for<br>yourself</div></div><div class='cr'><div class='vertical-center'>$35<br>for<br>jk</div></div><div class='respDivL'><div class='vertical-center'>(E)</div></div><div class='respDivR'><div class='vertical-center'>(I)</div></div></div>","I","$24<br>for<br>yourself","$35<br>for<br>3","0","24","35","3","OTHER"
"html-keyboard-response","85","163773","0.0-6.0-3.26","64141beda1cef49212be9b6c","bdp_sd","Mon Apr 10 2023 06:53:50 GMT+0800 (China Standard Time)","164783","","null","","","","","offerFB","","<div class='trialBorder'><div class='vertical-center'><img style='vertical-align:center; align:center' src=img/fixation3.jpg></div><div class='cl'><div class='vertical-center'>$24<br>for<br>yourself</div></div><div class='cr'><div class='vertical-center'><font style='color:orange'>$35<br>for<br>jk</font></div></div><div class='respDivL'><div class='vertical-center'>(E)</div></div><div class='respDivR'><div class='vertical-center'><font style='color:orange'>(I)</font></div></div></div>","null","$24<br>for<br>yourself","$35<br>for<br>3","0","24","35","3",""
"","","","","64141beda1cef49212be9b6c","bdp_sd","Mon Apr 10 2023 06:53:50 GMT+0800 (China Standard Time)","164783","","","","fullscreenexit","86","163939","fullscreenexit","","","","","","","","","",""
"fullscreen","86","164782","0.0-7.0","64141beda1cef49212be9b6c","bdp_sd","Mon Apr 10 2023 06:53:50 GMT+0800 (China Standard Time)","164783","","","","","","","","true","","","","","","","","",""
"html-keyboard-response","87","165288","0.0-8.0","","","","","","null","","","","","","","","null","","","","","","",""
