"trial_type","trial_index","time_elapsed","internal_node_id","subject_id","task","startTime","totalTime","view_history","rt","responses","event","trial","time","trialtype","success","stimulus","key_press","selfOffer","otherOffer","otherLeft","selfAmt","otherAmt","otherDist","chosen"
"pavlovia","0","2","0.0-0.0","5f9873550513db147c9d2958","bdp_sd","Sat Mar 25 2023 22:02:53 GMT-0400 (Eastern Daylight Time)","261409","","","","","","","","","","","","","","","","",""
"instructions","1","3766","0.0-1.0","5f9873550513db147c9d2958","bdp_sd","Sat Mar 25 2023 22:02:53 GMT-0400 (Eastern Daylight Time)","261409","[{""page_index"":0,""viewing_time"":3763}]","3763","","","","","","","","","","","","","","",""
"survey-text","2","138592","0.0-2.0","5f9873550513db147c9d2958","bdp_sd","Sat Mar 25 2023 22:02:53 GMT-0400 (Eastern Daylight Time)","261409","","134825","{""Q0"":""Alicia L"",""Q1"":""Virginia G"",""Q2"":""Daniel S"",""Q3"":""Finely W"",""Q4"":""Jupiter B""}","","","","","","","","","","","","","",""
"","","","","5f9873550513db147c9d2958","bdp_sd","Sat Mar 25 2023 22:02:53 GMT-0400 (Eastern Daylight Time)","261409","","","","fullscreenenter","3","139969","fullscreenenter","","","","","","","","","",""
"","","","","5f9873550513db147c9d2958","bdp_sd","Sat Mar 25 2023 22:02:53 GMT-0400 (Eastern Daylight Time)","261409","","","","fullscreenenter","3","139969","fullscreenenter","","","","","","","","","",""
"fullscreen","3","140917","0.0-3.0","5f9873550513db147c9d2958","bdp_sd","Sat Mar 25 2023 22:02:53 GMT-0400 (Eastern Daylight Time)","261409","","","","","","","","true","","","","","","","","",""
"instructions","4","186131","0.0-5.0","5f9873550513db147c9d2958","bdp_sd","Sat Mar 25 2023 22:02:53 GMT-0400 (Eastern Daylight Time)","261409","[{""page_index"":0,""viewing_time"":11281},{""page_index"":1,""viewing_time"":22909},{""page_index"":2,""viewing_time"":11022}]","45212","","","","","","","","","","","","","","",""
"html-keyboard-response","5","186632","0.0-6.0-1.0","5f9873550513db147c9d2958","bdp_sd","Sat Mar 25 2023 22:02:53 GMT-0400 (Eastern Daylight Time)","261409","","null","","","","","FIX","","<div class='trialBorder'><div class='vertical-center'><img style='vertical-align:center; align:center' src=img/fixation3.jpg></div></div>","null","","","","","","",""
"html-keyboard-response","6","191538","0.0-6.0-2.0","5f9873550513db147c9d2958","bdp_sd","Sat Mar 25 2023 22:02:53 GMT-0400 (Eastern Daylight Time)","261409","","4905","","","","","offer","","<div class='trialBorder'><div class='vertical-center'><img style='vertical-align:center; align:center' src=img/fixation3.jpg></div><div class='cl'><div class='vertical-center'>$30<br>for<br>Jupiter B</div></div><div class='cr'><div class='vertical-center'>$28<br>for<br>yourself</div></div><div class='respDivL'><div class='vertical-center'>(E)</div></div><div class='respDivR'><div class='vertical-center'>(I)</div></div></div>","I","$28<br>for<br>yourself","$30<br>for<br>5","1","28","30","5","SELF"
"html-keyboard-response","7","191791","0.0-6.0-3.0","5f9873550513db147c9d2958","bdp_sd","Sat Mar 25 2023 22:02:53 GMT-0400 (Eastern Daylight Time)","261409","","null","","","","","offerFB","","<div class='trialBorder'><div class='vertical-center'><img style='vertical-align:center; align:center' src=img/fixation3.jpg></div><div class='cl'><div class='vertical-center'>$30<br>for<br>Jupiter B</div></div><div class='cr'><div class='vertical-center'><font style='color:orange'>$28<br>for<br>yourself</font></div></div><div class='respDivL'><div class='vertical-center'>(E)</div></div><div class='respDivR'><div class='vertical-center'><font style='color:orange'>(I)</font></div></div></div>","null","$28<br>for<br>yourself","$30<br>for<br>5","1","28","30","5",""
"html-keyboard-response","8","192292","0.0-6.0-1.1","5f9873550513db147c9d2958","bdp_sd","Sat Mar 25 2023 22:02:53 GMT-0400 (Eastern Daylight Time)","261409","","null","","","","","FIX","","<div class='trialBorder'><div class='vertical-center'><img style='vertical-align:center; align:center' src=img/fixation3.jpg></div></div>","null","","","","","","",""
"html-keyboard-response","9","194660","0.0-6.0-2.1","5f9873550513db147c9d2958","bdp_sd","Sat Mar 25 2023 22:02:53 GMT-0400 (Eastern Daylight Time)","261409","","2366","","","","","offer","","<div class='trialBorder'><div class='vertical-center'><img style='vertical-align:center; align:center' src=img/fixation3.jpg></div><div class='cl'><div class='vertical-center'>$80<br>for<br>Daniel S</div></div><div class='cr'><div class='vertical-center'>$54<br>for<br>yourself</div></div><div class='respDivL'><div class='vertical-center'>(E)</div></div><div class='respDivR'><div class='vertical-center'>(I)</div></div></div>","I","$54<br>for<br>yourself","$80<br>for<br>3","1","54","80","3","SELF"
"html-keyboard-response","10","194912","0.0-6.0-3.1","5f9873550513db147c9d2958","bdp_sd","Sat Mar 25 2023 22:02:53 GMT-0400 (Eastern Daylight Time)","261409","","null","","","","","offerFB","","<div class='trialBorder'><div class='vertical-center'><img style='vertical-align:center; align:center' src=img/fixation3.jpg></div><div class='cl'><div class='vertical-center'>$80<br>for<br>Daniel S</div></div><div class='cr'><div class='vertical-center'><font style='color:orange'>$54<br>for<br>yourself</font></div></div><div class='respDivL'><div class='vertical-center'>(E)</div></div><div class='respDivR'><div class='vertical-center'><font style='color:orange'>(I)</font></div></div></div>","null","$54<br>for<br>yourself","$80<br>for<br>3","1","54","80","3",""
"html-keyboard-response","11","195414","0.0-6.0-1.2","5f9873550513db147c9d2958","bdp_sd","Sat Mar 25 2023 22:02:53 GMT-0400 (Eastern Daylight Time)","261409","","null","","","","","FIX","","<div class='trialBorder'><div class='vertical-center'><img style='vertical-align:center; align:center' src=img/fixation3.jpg></div></div>","null","","","","","","",""
"html-keyboard-response","12","199127","0.0-6.0-2.2","5f9873550513db147c9d2958","bdp_sd","Sat Mar 25 2023 22:02:53 GMT-0400 (Eastern Daylight Time)","261409","","3712","","","","","offer","","<div class='trialBorder'><div class='vertical-center'><img style='vertical-align:center; align:center' src=img/fixation3.jpg></div><div class='cl'><div class='vertical-center'>$24<br>for<br>yourself</div></div><div class='cr'><div class='vertical-center'>$35<br>for<br>Daniel S</div></div><div class='respDivL'><div class='vertical-center'>(E)</div></div><div class='respDivR'><div class='vertical-center'>(I)</div></div></div>","E","$24<br>for<br>yourself","$35<br>for<br>3","0","24","35","3","SELF"
"html-keyboard-response","13","199380","0.0-6.0-3.2","5f9873550513db147c9d2958","bdp_sd","Sat Mar 25 2023 22:02:53 GMT-0400 (Eastern Daylight Time)","261409","","null","","","","","offerFB","","<div class='trialBorder'><div class='vertical-center'><img style='vertical-align:center; align:center' src=img/fixation3.jpg></div><div class='cl'><div class='vertical-center'><font style='color:orange'>$24<br>for<br>yourself</font></div></div><div class='cr'><div class='vertical-center'>$35<br>for<br>Daniel S</div></div><div class='respDivL'><div class='vertical-center'><font style='color:orange'>(E)</font></div></div><div class='respDivR'><div class='vertical-center'>(I)</div></div></div>","null","$24<br>for<br>yourself","$35<br>for<br>3","0","24","35","3",""
"html-keyboard-response","14","199881","0.0-6.0-1.3","5f9873550513db147c9d2958","bdp_sd","Sat Mar 25 2023 22:02:53 GMT-0400 (Eastern Daylight Time)","261409","","null","","","","","FIX","","<div class='trialBorder'><div class='vertical-center'><img style='vertical-align:center; align:center' src=img/fixation3.jpg></div></div>","null","","","","","","",""
"html-keyboard-response","15","202417","0.0-6.0-2.3","5f9873550513db147c9d2958","bdp_sd","Sat Mar 25 2023 22:02:53 GMT-0400 (Eastern Daylight Time)","261409","","2535","","","","","offer","","<div class='trialBorder'><div class='vertical-center'><img style='vertical-align:center; align:center' src=img/fixation3.jpg></div><div class='cl'><div class='vertical-center'>$35<br>for<br>Virginia G</div></div><div class='cr'><div class='vertical-center'>$15<br>for<br>yourself</div></div><div class='respDivL'><div class='vertical-center'>(E)</div></div><div class='respDivR'><div class='vertical-center'>(I)</div></div></div>","E","$15<br>for<br>yourself","$35<br>for<br>2","1","15","35","2","OTHER"
"html-keyboard-response","16","202669","0.0-6.0-3.3","5f9873550513db147c9d2958","bdp_sd","Sat Mar 25 2023 22:02:53 GMT-0400 (Eastern Daylight Time)","261409","","null","","","","","offerFB","","<div class='trialBorder'><div class='vertical-center'><img style='vertical-align:center; align:center' src=img/fixation3.jpg></div><div class='cl'><div class='vertical-center'><font style='color:orange'>$35<br>for<br>Virginia G</font></div></div><div class='cr'><div class='vertical-center'>$15<br>for<br>yourself</div></div><div class='respDivL'><div class='vertical-center'><font style='color:orange'>(E)</font></div></div><div class='respDivR'><div class='vertical-center'>(I)</div></div></div>","null","$15<br>for<br>yourself","$35<br>for<br>2","1","15","35","2",""
"html-keyboard-response","17","203172","0.0-6.0-1.4","5f9873550513db147c9d2958","bdp_sd","Sat Mar 25 2023 22:02:53 GMT-0400 (Eastern Daylight Time)","261409","","null","","","","","FIX","","<div class='trialBorder'><div class='vertical-center'><img style='vertical-align:center; align:center' src=img/fixation3.jpg></div></div>","null","","","","","","",""
"html-keyboard-response","18","204668","0.0-6.0-2.4","5f9873550513db147c9d2958","bdp_sd","Sat Mar 25 2023 22:02:53 GMT-0400 (Eastern Daylight Time)","261409","","1496","","","","","offer","","<div class='trialBorder'><div class='vertical-center'><img style='vertical-align:center; align:center' src=img/fixation3.jpg></div><div class='cl'><div class='vertical-center'>$41<br>for<br>yourself</div></div><div class='cr'><div class='vertical-center'>$75<br>for<br>Daniel S</div></div><div class='respDivL'><div class='vertical-center'>(E)</div></div><div class='respDivR'><div class='vertical-center'>(I)</div></div></div>","E","$41<br>for<br>yourself","$75<br>for<br>3","0","41","75","3","SELF"
"html-keyboard-response","19","204920","0.0-6.0-3.4","5f9873550513db147c9d2958","bdp_sd","Sat Mar 25 2023 22:02:53 GMT-0400 (Eastern Daylight Time)","261409","","null","","","","","offerFB","","<div class='trialBorder'><div class='vertical-center'><img style='vertical-align:center; align:center' src=img/fixation3.jpg></div><div class='cl'><div class='vertical-center'><font style='color:orange'>$41<br>for<br>yourself</font></div></div><div class='cr'><div class='vertical-center'>$75<br>for<br>Daniel S</div></div><div class='respDivL'><div class='vertical-center'><font style='color:orange'>(E)</font></div></div><div class='respDivR'><div class='vertical-center'>(I)</div></div></div>","null","$41<br>for<br>yourself","$75<br>for<br>3","0","41","75","3",""
"html-keyboard-response","20","205422","0.0-6.0-1.5","5f9873550513db147c9d2958","bdp_sd","Sat Mar 25 2023 22:02:53 GMT-0400 (Eastern Daylight Time)","261409","","null","","","","","FIX","","<div class='trialBorder'><div class='vertical-center'><img style='vertical-align:center; align:center' src=img/fixation3.jpg></div></div>","null","","","","","","",""
"html-keyboard-response","21","207102","0.0-6.0-2.5","5f9873550513db147c9d2958","bdp_sd","Sat Mar 25 2023 22:02:53 GMT-0400 (Eastern Daylight Time)","261409","","1679","","","","","offer","","<div class='trialBorder'><div class='vertical-center'><img style='vertical-align:center; align:center' src=img/fixation3.jpg></div><div class='cl'><div class='vertical-center'>$30<br>for<br>Finely W</div></div><div class='cr'><div class='vertical-center'>$25<br>for<br>yourself</div></div><div class='respDivL'><div class='vertical-center'>(E)</div></div><div class='respDivR'><div class='vertical-center'>(I)</div></div></div>","I","$25<br>for<br>yourself","$30<br>for<br>4","1","25","30","4","SELF"
"html-keyboard-response","22","207353","0.0-6.0-3.5","5f9873550513db147c9d2958","bdp_sd","Sat Mar 25 2023 22:02:53 GMT-0400 (Eastern Daylight Time)","261409","","null","","","","","offerFB","","<div class='trialBorder'><div class='vertical-center'><img style='vertical-align:center; align:center' src=img/fixation3.jpg></div><div class='cl'><div class='vertical-center'>$30<br>for<br>Finely W</div></div><div class='cr'><div class='vertical-center'><font style='color:orange'>$25<br>for<br>yourself</font></div></div><div class='respDivL'><div class='vertical-center'>(E)</div></div><div class='respDivR'><div class='vertical-center'><font style='color:orange'>(I)</font></div></div></div>","null","$25<br>for<br>yourself","$30<br>for<br>4","1","25","30","4",""
"html-keyboard-response","23","207855","0.0-6.0-1.6","5f9873550513db147c9d2958","bdp_sd","Sat Mar 25 2023 22:02:53 GMT-0400 (Eastern Daylight Time)","261409","","null","","","","","FIX","","<div class='trialBorder'><div class='vertical-center'><img style='vertical-align:center; align:center' src=img/fixation3.jpg></div></div>","null","","","","","","",""
"html-keyboard-response","24","209609","0.0-6.0-2.6","5f9873550513db147c9d2958","bdp_sd","Sat Mar 25 2023 22:02:53 GMT-0400 (Eastern Daylight Time)","261409","","1754","","","","","offer","","<div class='trialBorder'><div class='vertical-center'><img style='vertical-align:center; align:center' src=img/fixation3.jpg></div><div class='cl'><div class='vertical-center'>$55<br>for<br>Jupiter B</div></div><div class='cr'><div class='vertical-center'>$54<br>for<br>yourself</div></div><div class='respDivL'><div class='vertical-center'>(E)</div></div><div class='respDivR'><div class='vertical-center'>(I)</div></div></div>","I","$54<br>for<br>yourself","$55<br>for<br>5","1","54","55","5","SELF"
"html-keyboard-response","25","209862","0.0-6.0-3.6","5f9873550513db147c9d2958","bdp_sd","Sat Mar 25 2023 22:02:53 GMT-0400 (Eastern Daylight Time)","261409","","null","","","","","offerFB","","<div class='trialBorder'><div class='vertical-center'><img style='vertical-align:center; align:center' src=img/fixation3.jpg></div><div class='cl'><div class='vertical-center'>$55<br>for<br>Jupiter B</div></div><div class='cr'><div class='vertical-center'><font style='color:orange'>$54<br>for<br>yourself</font></div></div><div class='respDivL'><div class='vertical-center'>(E)</div></div><div class='respDivR'><div class='vertical-center'><font style='color:orange'>(I)</font></div></div></div>","null","$54<br>for<br>yourself","$55<br>for<br>5","1","54","55","5",""
"html-keyboard-response","26","210364","0.0-6.0-1.7","5f9873550513db147c9d2958","bdp_sd","Sat Mar 25 2023 22:02:53 GMT-0400 (Eastern Daylight Time)","261409","","null","","","","","FIX","","<div class='trialBorder'><div class='vertical-center'><img style='vertical-align:center; align:center' src=img/fixation3.jpg></div></div>","null","","","","","","",""
"html-keyboard-response","27","212341","0.0-6.0-2.7","5f9873550513db147c9d2958","bdp_sd","Sat Mar 25 2023 22:02:53 GMT-0400 (Eastern Daylight Time)","261409","","1975","","","","","offer","","<div class='trialBorder'><div class='vertical-center'><img style='vertical-align:center; align:center' src=img/fixation3.jpg></div><div class='cl'><div class='vertical-center'>$55<br>for<br>yourself</div></div><div class='cr'><div class='vertical-center'>$75<br>for<br>Finely W</div></div><div class='respDivL'><div class='vertical-center'>(E)</div></div><div class='respDivR'><div class='vertical-center'>(I)</div></div></div>","E","$55<br>for<br>yourself","$75<br>for<br>4","0","55","75","4","SELF"
"html-keyboard-response","28","212592","0.0-6.0-3.7","5f9873550513db147c9d2958","bdp_sd","Sat Mar 25 2023 22:02:53 GMT-0400 (Eastern Daylight Time)","261409","","null","","","","","offerFB","","<div class='trialBorder'><div class='vertical-center'><img style='vertical-align:center; align:center' src=img/fixation3.jpg></div><div class='cl'><div class='vertical-center'><font style='color:orange'>$55<br>for<br>yourself</font></div></div><div class='cr'><div class='vertical-center'>$75<br>for<br>Finely W</div></div><div class='respDivL'><div class='vertical-center'><font style='color:orange'>(E)</font></div></div><div class='respDivR'><div class='vertical-center'>(I)</div></div></div>","null","$55<br>for<br>yourself","$75<br>for<br>4","0","55","75","4",""
"html-keyboard-response","29","213094","0.0-6.0-1.8","5f9873550513db147c9d2958","bdp_sd","Sat Mar 25 2023 22:02:53 GMT-0400 (Eastern Daylight Time)","261409","","null","","","","","FIX","","<div class='trialBorder'><div class='vertical-center'><img style='vertical-align:center; align:center' src=img/fixation3.jpg></div></div>","null","","","","","","",""
"html-keyboard-response","30","214842","0.0-6.0-2.8","5f9873550513db147c9d2958","bdp_sd","Sat Mar 25 2023 22:02:53 GMT-0400 (Eastern Daylight Time)","261409","","1746","","","","","offer","","<div class='trialBorder'><div class='vertical-center'><img style='vertical-align:center; align:center' src=img/fixation3.jpg></div><div class='cl'><div class='vertical-center'>$34<br>for<br>yourself</div></div><div class='cr'><div class='vertical-center'>$35<br>for<br>Jupiter B</div></div><div class='respDivL'><div class='vertical-center'>(E)</div></div><div class='respDivR'><div class='vertical-center'>(I)</div></div></div>","E","$34<br>for<br>yourself","$35<br>for<br>5","0","34","35","5","SELF"
"html-keyboard-response","31","215094","0.0-6.0-3.8","5f9873550513db147c9d2958","bdp_sd","Sat Mar 25 2023 22:02:53 GMT-0400 (Eastern Daylight Time)","261409","","null","","","","","offerFB","","<div class='trialBorder'><div class='vertical-center'><img style='vertical-align:center; align:center' src=img/fixation3.jpg></div><div class='cl'><div class='vertical-center'><font style='color:orange'>$34<br>for<br>yourself</font></div></div><div class='cr'><div class='vertical-center'>$35<br>for<br>Jupiter B</div></div><div class='respDivL'><div class='vertical-center'><font style='color:orange'>(E)</font></div></div><div class='respDivR'><div class='vertical-center'>(I)</div></div></div>","null","$34<br>for<br>yourself","$35<br>for<br>5","0","34","35","5",""
"html-keyboard-response","32","215596","0.0-6.0-1.9","5f9873550513db147c9d2958","bdp_sd","Sat Mar 25 2023 22:02:53 GMT-0400 (Eastern Daylight Time)","261409","","null","","","","","FIX","","<div class='trialBorder'><div class='vertical-center'><img style='vertical-align:center; align:center' src=img/fixation3.jpg></div></div>","null","","","","","","",""
"html-keyboard-response","33","217769","0.0-6.0-2.9","5f9873550513db147c9d2958","bdp_sd","Sat Mar 25 2023 22:02:53 GMT-0400 (Eastern Daylight Time)","261409","","2172","","","","","offer","","<div class='trialBorder'><div class='vertical-center'><img style='vertical-align:center; align:center' src=img/fixation3.jpg></div><div class='cl'><div class='vertical-center'>$50<br>for<br>Finely W</div></div><div class='cr'><div class='vertical-center'>$34<br>for<br>yourself</div></div><div class='respDivL'><div class='vertical-center'>(E)</div></div><div class='respDivR'><div class='vertical-center'>(I)</div></div></div>","I","$34<br>for<br>yourself","$50<br>for<br>4","1","34","50","4","SELF"
"html-keyboard-response","34","218021","0.0-6.0-3.9","5f9873550513db147c9d2958","bdp_sd","Sat Mar 25 2023 22:02:53 GMT-0400 (Eastern Daylight Time)","261409","","null","","","","","offerFB","","<div class='trialBorder'><div class='vertical-center'><img style='vertical-align:center; align:center' src=img/fixation3.jpg></div><div class='cl'><div class='vertical-center'>$50<br>for<br>Finely W</div></div><div class='cr'><div class='vertical-center'><font style='color:orange'>$34<br>for<br>yourself</font></div></div><div class='respDivL'><div class='vertical-center'>(E)</div></div><div class='respDivR'><div class='vertical-center'><font style='color:orange'>(I)</font></div></div></div>","null","$34<br>for<br>yourself","$50<br>for<br>4","1","34","50","4",""
"html-keyboard-response","35","218523","0.0-6.0-1.10","5f9873550513db147c9d2958","bdp_sd","Sat Mar 25 2023 22:02:53 GMT-0400 (Eastern Daylight Time)","261409","","null","","","","","FIX","","<div class='trialBorder'><div class='vertical-center'><img style='vertical-align:center; align:center' src=img/fixation3.jpg></div></div>","null","","","","","","",""
"html-keyboard-response","36","220144","0.0-6.0-2.10","5f9873550513db147c9d2958","bdp_sd","Sat Mar 25 2023 22:02:53 GMT-0400 (Eastern Daylight Time)","261409","","1620","","","","","offer","","<div class='trialBorder'><div class='vertical-center'><img style='vertical-align:center; align:center' src=img/fixation3.jpg></div><div class='cl'><div class='vertical-center'>$11<br>for<br>yourself</div></div><div class='cr'><div class='vertical-center'>$30<br>for<br>Virginia G</div></div><div class='respDivL'><div class='vertical-center'>(E)</div></div><div class='respDivR'><div class='vertical-center'>(I)</div></div></div>","I","$11<br>for<br>yourself","$30<br>for<br>2","0","11","30","2","OTHER"
"html-keyboard-response","37","220396","0.0-6.0-3.10","5f9873550513db147c9d2958","bdp_sd","Sat Mar 25 2023 22:02:53 GMT-0400 (Eastern Daylight Time)","261409","","null","","","","","offerFB","","<div class='trialBorder'><div class='vertical-center'><img style='vertical-align:center; align:center' src=img/fixation3.jpg></div><div class='cl'><div class='vertical-center'>$11<br>for<br>yourself</div></div><div class='cr'><div class='vertical-center'><font style='color:orange'>$30<br>for<br>Virginia G</font></div></div><div class='respDivL'><div class='vertical-center'>(E)</div></div><div class='respDivR'><div class='vertical-center'><font style='color:orange'>(I)</font></div></div></div>","null","$11<br>for<br>yourself","$30<br>for<br>2","0","11","30","2",""
"html-keyboard-response","38","220897","0.0-6.0-1.11","5f9873550513db147c9d2958","bdp_sd","Sat Mar 25 2023 22:02:53 GMT-0400 (Eastern Daylight Time)","261409","","null","","","","","FIX","","<div class='trialBorder'><div class='vertical-center'><img style='vertical-align:center; align:center' src=img/fixation3.jpg></div></div>","null","","","","","","",""
"html-keyboard-response","39","222836","0.0-6.0-2.11","5f9873550513db147c9d2958","bdp_sd","Sat Mar 25 2023 22:02:53 GMT-0400 (Eastern Daylight Time)","261409","","1938","","","","","offer","","<div class='trialBorder'><div class='vertical-center'><img style='vertical-align:center; align:center' src=img/fixation3.jpg></div><div class='cl'><div class='vertical-center'>$60<br>for<br>Daniel S</div></div><div class='cr'><div class='vertical-center'>$25<br>for<br>yourself</div></div><div class='respDivL'><div class='vertical-center'>(E)</div></div><div class='respDivR'><div class='vertical-center'>(I)</div></div></div>","I","$25<br>for<br>yourself","$60<br>for<br>3","1","25","60","3","SELF"
"html-keyboard-response","40","223089","0.0-6.0-3.11","5f9873550513db147c9d2958","bdp_sd","Sat Mar 25 2023 22:02:53 GMT-0400 (Eastern Daylight Time)","261409","","null","","","","","offerFB","","<div class='trialBorder'><div class='vertical-center'><img style='vertical-align:center; align:center' src=img/fixation3.jpg></div><div class='cl'><div class='vertical-center'>$60<br>for<br>Daniel S</div></div><div class='cr'><div class='vertical-center'><font style='color:orange'>$25<br>for<br>yourself</font></div></div><div class='respDivL'><div class='vertical-center'>(E)</div></div><div class='respDivR'><div class='vertical-center'><font style='color:orange'>(I)</font></div></div></div>","null","$25<br>for<br>yourself","$60<br>for<br>3","1","25","60","3",""
"html-keyboard-response","41","223591","0.0-6.0-1.12","5f9873550513db147c9d2958","bdp_sd","Sat Mar 25 2023 22:02:53 GMT-0400 (Eastern Daylight Time)","261409","","null","","","","","FIX","","<div class='trialBorder'><div class='vertical-center'><img style='vertical-align:center; align:center' src=img/fixation3.jpg></div></div>","null","","","","","","",""
"html-keyboard-response","42","225532","0.0-6.0-2.12","5f9873550513db147c9d2958","bdp_sd","Sat Mar 25 2023 22:02:53 GMT-0400 (Eastern Daylight Time)","261409","","1940","","","","","offer","","<div class='trialBorder'><div class='vertical-center'><img style='vertical-align:center; align:center' src=img/fixation3.jpg></div><div class='cl'><div class='vertical-center'>$60<br>for<br>Finely W</div></div><div class='cr'><div class='vertical-center'>$49<br>for<br>yourself</div></div><div class='respDivL'><div class='vertical-center'>(E)</div></div><div class='respDivR'><div class='vertical-center'>(I)</div></div></div>","I","$49<br>for<br>yourself","$60<br>for<br>4","1","49","60","4","SELF"
"html-keyboard-response","43","225783","0.0-6.0-3.12","5f9873550513db147c9d2958","bdp_sd","Sat Mar 25 2023 22:02:53 GMT-0400 (Eastern Daylight Time)","261409","","null","","","","","offerFB","","<div class='trialBorder'><div class='vertical-center'><img style='vertical-align:center; align:center' src=img/fixation3.jpg></div><div class='cl'><div class='vertical-center'>$60<br>for<br>Finely W</div></div><div class='cr'><div class='vertical-center'><font style='color:orange'>$49<br>for<br>yourself</font></div></div><div class='respDivL'><div class='vertical-center'>(E)</div></div><div class='respDivR'><div class='vertical-center'><font style='color:orange'>(I)</font></div></div></div>","null","$49<br>for<br>yourself","$60<br>for<br>4","1","49","60","4",""
"html-keyboard-response","44","226284","0.0-6.0-1.13","5f9873550513db147c9d2958","bdp_sd","Sat Mar 25 2023 22:02:53 GMT-0400 (Eastern Daylight Time)","261409","","null","","","","","FIX","","<div class='trialBorder'><div class='vertical-center'><img style='vertical-align:center; align:center' src=img/fixation3.jpg></div></div>","null","","","","","","",""
"html-keyboard-response","45","227459","0.0-6.0-2.13","5f9873550513db147c9d2958","bdp_sd","Sat Mar 25 2023 22:02:53 GMT-0400 (Eastern Daylight Time)","261409","","1174","","","","","offer","","<div class='trialBorder'><div class='vertical-center'><img style='vertical-align:center; align:center' src=img/fixation3.jpg></div><div class='cl'><div class='vertical-center'>$80<br>for<br>Virginia G</div></div><div class='cr'><div class='vertical-center'>$33<br>for<br>yourself</div></div><div class='respDivL'><div class='vertical-center'>(E)</div></div><div class='respDivR'><div class='vertical-center'>(I)</div></div></div>","E","$33<br>for<br>yourself","$80<br>for<br>2","1","33","80","2","OTHER"
"html-keyboard-response","46","227711","0.0-6.0-3.13","5f9873550513db147c9d2958","bdp_sd","Sat Mar 25 2023 22:02:53 GMT-0400 (Eastern Daylight Time)","261409","","null","","","","","offerFB","","<div class='trialBorder'><div class='vertical-center'><img style='vertical-align:center; align:center' src=img/fixation3.jpg></div><div class='cl'><div class='vertical-center'><font style='color:orange'>$80<br>for<br>Virginia G</font></div></div><div class='cr'><div class='vertical-center'>$33<br>for<br>yourself</div></div><div class='respDivL'><div class='vertical-center'><font style='color:orange'>(E)</font></div></div><div class='respDivR'><div class='vertical-center'>(I)</div></div></div>","null","$33<br>for<br>yourself","$80<br>for<br>2","1","33","80","2",""
"html-keyboard-response","47","228212","0.0-6.0-1.14","5f9873550513db147c9d2958","bdp_sd","Sat Mar 25 2023 22:02:53 GMT-0400 (Eastern Daylight Time)","261409","","null","","","","","FIX","","<div class='trialBorder'><div class='vertical-center'><img style='vertical-align:center; align:center' src=img/fixation3.jpg></div></div>","null","","","","","","",""
"html-keyboard-response","48","231783","0.0-6.0-2.14","5f9873550513db147c9d2958","bdp_sd","Sat Mar 25 2023 22:02:53 GMT-0400 (Eastern Daylight Time)","261409","","3570","","","","","offer","","<div class='trialBorder'><div class='vertical-center'><img style='vertical-align:center; align:center' src=img/fixation3.jpg></div><div class='cl'><div class='vertical-center'>$27<br>for<br>yourself</div></div><div class='cr'><div class='vertical-center'>$50<br>for<br>Daniel S</div></div><div class='respDivL'><div class='vertical-center'>(E)</div></div><div class='respDivR'><div class='vertical-center'>(I)</div></div></div>","E","$27<br>for<br>yourself","$50<br>for<br>3","0","27","50","3","SELF"
"html-keyboard-response","49","232035","0.0-6.0-3.14","5f9873550513db147c9d2958","bdp_sd","Sat Mar 25 2023 22:02:53 GMT-0400 (Eastern Daylight Time)","261409","","null","","","","","offerFB","","<div class='trialBorder'><div class='vertical-center'><img style='vertical-align:center; align:center' src=img/fixation3.jpg></div><div class='cl'><div class='vertical-center'><font style='color:orange'>$27<br>for<br>yourself</font></div></div><div class='cr'><div class='vertical-center'>$50<br>for<br>Daniel S</div></div><div class='respDivL'><div class='vertical-center'><font style='color:orange'>(E)</font></div></div><div class='respDivR'><div class='vertical-center'>(I)</div></div></div>","null","$27<br>for<br>yourself","$50<br>for<br>3","0","27","50","3",""
"html-keyboard-response","50","232537","0.0-6.0-1.15","5f9873550513db147c9d2958","bdp_sd","Sat Mar 25 2023 22:02:53 GMT-0400 (Eastern Daylight Time)","261409","","null","","","","","FIX","","<div class='trialBorder'><div class='vertical-center'><img style='vertical-align:center; align:center' src=img/fixation3.jpg></div></div>","null","","","","","","",""
"html-keyboard-response","51","234452","0.0-6.0-2.15","5f9873550513db147c9d2958","bdp_sd","Sat Mar 25 2023 22:02:53 GMT-0400 (Eastern Daylight Time)","261409","","1914","","","","","offer","","<div class='trialBorder'><div class='vertical-center'><img style='vertical-align:center; align:center' src=img/fixation3.jpg></div><div class='cl'><div class='vertical-center'>$55<br>for<br>Finely W</div></div><div class='cr'><div class='vertical-center'>$40<br>for<br>yourself</div></div><div class='respDivL'><div class='vertical-center'>(E)</div></div><div class='respDivR'><div class='vertical-center'>(I)</div></div></div>","I","$40<br>for<br>yourself","$55<br>for<br>4","1","40","55","4","SELF"
"html-keyboard-response","52","234704","0.0-6.0-3.15","5f9873550513db147c9d2958","bdp_sd","Sat Mar 25 2023 22:02:53 GMT-0400 (Eastern Daylight Time)","261409","","null","","","","","offerFB","","<div class='trialBorder'><div class='vertical-center'><img style='vertical-align:center; align:center' src=img/fixation3.jpg></div><div class='cl'><div class='vertical-center'>$55<br>for<br>Finely W</div></div><div class='cr'><div class='vertical-center'><font style='color:orange'>$40<br>for<br>yourself</font></div></div><div class='respDivL'><div class='vertical-center'>(E)</div></div><div class='respDivR'><div class='vertical-center'><font style='color:orange'>(I)</font></div></div></div>","null","$40<br>for<br>yourself","$55<br>for<br>4","1","40","55","4",""
"html-keyboard-response","53","235206","0.0-6.0-1.16","5f9873550513db147c9d2958","bdp_sd","Sat Mar 25 2023 22:02:53 GMT-0400 (Eastern Daylight Time)","261409","","null","","","","","FIX","","<div class='trialBorder'><div class='vertical-center'><img style='vertical-align:center; align:center' src=img/fixation3.jpg></div></div>","null","","","","","","",""
"html-keyboard-response","54","236405","0.0-6.0-2.16","5f9873550513db147c9d2958","bdp_sd","Sat Mar 25 2023 22:02:53 GMT-0400 (Eastern Daylight Time)","261409","","1198","","","","","offer","","<div class='trialBorder'><div class='vertical-center'><img style='vertical-align:center; align:center' src=img/fixation3.jpg></div><div class='cl'><div class='vertical-center'>$69<br>for<br>yourself</div></div><div class='cr'><div class='vertical-center'>$85<br>for<br>Finely W</div></div><div class='respDivL'><div class='vertical-center'>(E)</div></div><div class='respDivR'><div class='vertical-center'>(I)</div></div></div>","E","$69<br>for<br>yourself","$85<br>for<br>4","0","69","85","4","SELF"
"html-keyboard-response","55","236657","0.0-6.0-3.16","5f9873550513db147c9d2958","bdp_sd","Sat Mar 25 2023 22:02:53 GMT-0400 (Eastern Daylight Time)","261409","","null","","","","","offerFB","","<div class='trialBorder'><div class='vertical-center'><img style='vertical-align:center; align:center' src=img/fixation3.jpg></div><div class='cl'><div class='vertical-center'><font style='color:orange'>$69<br>for<br>yourself</font></div></div><div class='cr'><div class='vertical-center'>$85<br>for<br>Finely W</div></div><div class='respDivL'><div class='vertical-center'><font style='color:orange'>(E)</font></div></div><div class='respDivR'><div class='vertical-center'>(I)</div></div></div>","null","$69<br>for<br>yourself","$85<br>for<br>4","0","69","85","4",""
"html-keyboard-response","56","237159","0.0-6.0-1.17","5f9873550513db147c9d2958","bdp_sd","Sat Mar 25 2023 22:02:53 GMT-0400 (Eastern Daylight Time)","261409","","null","","","","","FIX","","<div class='trialBorder'><div class='vertical-center'><img style='vertical-align:center; align:center' src=img/fixation3.jpg></div></div>","null","","","","","","",""
"html-keyboard-response","57","239573","0.0-6.0-2.17","5f9873550513db147c9d2958","bdp_sd","Sat Mar 25 2023 22:02:53 GMT-0400 (Eastern Daylight Time)","261409","","2414","","","","","offer","","<div class='trialBorder'><div class='vertical-center'><img style='vertical-align:center; align:center' src=img/fixation3.jpg></div><div class='cl'><div class='vertical-center'>$67<br>for<br>yourself</div></div><div class='cr'><div class='vertical-center'>$75<br>for<br>Jupiter B</div></div><div class='respDivL'><div class='vertical-center'>(E)</div></div><div class='respDivR'><div class='vertical-center'>(I)</div></div></div>","E","$67<br>for<br>yourself","$75<br>for<br>5","0","67","75","5","SELF"
"html-keyboard-response","58","239825","0.0-6.0-3.17","5f9873550513db147c9d2958","bdp_sd","Sat Mar 25 2023 22:02:53 GMT-0400 (Eastern Daylight Time)","261409","","null","","","","","offerFB","","<div class='trialBorder'><div class='vertical-center'><img style='vertical-align:center; align:center' src=img/fixation3.jpg></div><div class='cl'><div class='vertical-center'><font style='color:orange'>$67<br>for<br>yourself</font></div></div><div class='cr'><div class='vertical-center'>$75<br>for<br>Jupiter B</div></div><div class='respDivL'><div class='vertical-center'><font style='color:orange'>(E)</font></div></div><div class='respDivR'><div class='vertical-center'>(I)</div></div></div>","null","$67<br>for<br>yourself","$75<br>for<br>5","0","67","75","5",""
"html-keyboard-response","59","240327","0.0-6.0-1.18","5f9873550513db147c9d2958","bdp_sd","Sat Mar 25 2023 22:02:53 GMT-0400 (Eastern Daylight Time)","261409","","null","","","","","FIX","","<div class='trialBorder'><div class='vertical-center'><img style='vertical-align:center; align:center' src=img/fixation3.jpg></div></div>","null","","","","","","",""
"html-keyboard-response","60","242703","0.0-6.0-2.18","5f9873550513db147c9d2958","bdp_sd","Sat Mar 25 2023 22:02:53 GMT-0400 (Eastern Daylight Time)","261409","","2376","","","","","offer","","<div class='trialBorder'><div class='vertical-center'><img style='vertical-align:center; align:center' src=img/fixation3.jpg></div><div class='cl'><div class='vertical-center'>$78<br>for<br>yourself</div></div><div class='cr'><div class='vertical-center'>$80<br>for<br>Jupiter B</div></div><div class='respDivL'><div class='vertical-center'>(E)</div></div><div class='respDivR'><div class='vertical-center'>(I)</div></div></div>","E","$78<br>for<br>yourself","$80<br>for<br>5","0","78","80","5","SELF"
"html-keyboard-response","61","242955","0.0-6.0-3.18","5f9873550513db147c9d2958","bdp_sd","Sat Mar 25 2023 22:02:53 GMT-0400 (Eastern Daylight Time)","261409","","null","","","","","offerFB","","<div class='trialBorder'><div class='vertical-center'><img style='vertical-align:center; align:center' src=img/fixation3.jpg></div><div class='cl'><div class='vertical-center'><font style='color:orange'>$78<br>for<br>yourself</font></div></div><div class='cr'><div class='vertical-center'>$80<br>for<br>Jupiter B</div></div><div class='respDivL'><div class='vertical-center'><font style='color:orange'>(E)</font></div></div><div class='respDivR'><div class='vertical-center'>(I)</div></div></div>","null","$78<br>for<br>yourself","$80<br>for<br>5","0","78","80","5",""
"html-keyboard-response","62","243458","0.0-6.0-1.19","5f9873550513db147c9d2958","bdp_sd","Sat Mar 25 2023 22:02:53 GMT-0400 (Eastern Daylight Time)","261409","","null","","","","","FIX","","<div class='trialBorder'><div class='vertical-center'><img style='vertical-align:center; align:center' src=img/fixation3.jpg></div></div>","null","","","","","","",""
"html-keyboard-response","63","245024","0.0-6.0-2.19","5f9873550513db147c9d2958","bdp_sd","Sat Mar 25 2023 22:02:53 GMT-0400 (Eastern Daylight Time)","261409","","1565","","","","","offer","","<div class='trialBorder'><div class='vertical-center'><img style='vertical-align:center; align:center' src=img/fixation3.jpg></div><div class='cl'><div class='vertical-center'>$31<br>for<br>yourself</div></div><div class='cr'><div class='vertical-center'>$85<br>for<br>Alicia L</div></div><div class='respDivL'><div class='vertical-center'>(E)</div></div><div class='respDivR'><div class='vertical-center'>(I)</div></div></div>","I","$31<br>for<br>yourself","$85<br>for<br>1","0","31","85","1","OTHER"
"html-keyboard-response","64","245275","0.0-6.0-3.19","5f9873550513db147c9d2958","bdp_sd","Sat Mar 25 2023 22:02:53 GMT-0400 (Eastern Daylight Time)","261409","","null","","","","","offerFB","","<div class='trialBorder'><div class='vertical-center'><img style='vertical-align:center; align:center' src=img/fixation3.jpg></div><div class='cl'><div class='vertical-center'>$31<br>for<br>yourself</div></div><div class='cr'><div class='vertical-center'><font style='color:orange'>$85<br>for<br>Alicia L</font></div></div><div class='respDivL'><div class='vertical-center'>(E)</div></div><div class='respDivR'><div class='vertical-center'><font style='color:orange'>(I)</font></div></div></div>","null","$31<br>for<br>yourself","$85<br>for<br>1","0","31","85","1",""
"html-keyboard-response","65","245777","0.0-6.0-1.20","5f9873550513db147c9d2958","bdp_sd","Sat Mar 25 2023 22:02:53 GMT-0400 (Eastern Daylight Time)","261409","","null","","","","","FIX","","<div class='trialBorder'><div class='vertical-center'><img style='vertical-align:center; align:center' src=img/fixation3.jpg></div></div>","null","","","","","","",""
"html-keyboard-response","66","247517","0.0-6.0-2.20","5f9873550513db147c9d2958","bdp_sd","Sat Mar 25 2023 22:02:53 GMT-0400 (Eastern Daylight Time)","261409","","1739","","","","","offer","","<div class='trialBorder'><div class='vertical-center'><img style='vertical-align:center; align:center' src=img/fixation3.jpg></div><div class='cl'><div class='vertical-center'>$25<br>for<br>Jupiter B</div></div><div class='cr'><div class='vertical-center'>$22<br>for<br>yourself</div></div><div class='respDivL'><div class='vertical-center'>(E)</div></div><div class='respDivR'><div class='vertical-center'>(I)</div></div></div>","I","$22<br>for<br>yourself","$25<br>for<br>5","1","22","25","5","SELF"
"html-keyboard-response","67","247769","0.0-6.0-3.20","5f9873550513db147c9d2958","bdp_sd","Sat Mar 25 2023 22:02:53 GMT-0400 (Eastern Daylight Time)","261409","","null","","","","","offerFB","","<div class='trialBorder'><div class='vertical-center'><img style='vertical-align:center; align:center' src=img/fixation3.jpg></div><div class='cl'><div class='vertical-center'>$25<br>for<br>Jupiter B</div></div><div class='cr'><div class='vertical-center'><font style='color:orange'>$22<br>for<br>yourself</font></div></div><div class='respDivL'><div class='vertical-center'>(E)</div></div><div class='respDivR'><div class='vertical-center'><font style='color:orange'>(I)</font></div></div></div>","null","$22<br>for<br>yourself","$25<br>for<br>5","1","22","25","5",""
"html-keyboard-response","68","248271","0.0-6.0-1.21","5f9873550513db147c9d2958","bdp_sd","Sat Mar 25 2023 22:02:53 GMT-0400 (Eastern Daylight Time)","261409","","null","","","","","FIX","","<div class='trialBorder'><div class='vertical-center'><img style='vertical-align:center; align:center' src=img/fixation3.jpg></div></div>","null","","","","","","",""
"html-keyboard-response","69","249409","0.0-6.0-2.21","5f9873550513db147c9d2958","bdp_sd","Sat Mar 25 2023 22:02:53 GMT-0400 (Eastern Daylight Time)","261409","","1137","","","","","offer","","<div class='trialBorder'><div class='vertical-center'><img style='vertical-align:center; align:center' src=img/fixation3.jpg></div><div class='cl'><div class='vertical-center'>$47<br>for<br>yourself</div></div><div class='cr'><div class='vertical-center'>$50<br>for<br>Jupiter B</div></div><div class='respDivL'><div class='vertical-center'>(E)</div></div><div class='respDivR'><div class='vertical-center'>(I)</div></div></div>","E","$47<br>for<br>yourself","$50<br>for<br>5","0","47","50","5","SELF"
"html-keyboard-response","70","249662","0.0-6.0-3.21","5f9873550513db147c9d2958","bdp_sd","Sat Mar 25 2023 22:02:53 GMT-0400 (Eastern Daylight Time)","261409","","null","","","","","offerFB","","<div class='trialBorder'><div class='vertical-center'><img style='vertical-align:center; align:center' src=img/fixation3.jpg></div><div class='cl'><div class='vertical-center'><font style='color:orange'>$47<br>for<br>yourself</font></div></div><div class='cr'><div class='vertical-center'>$50<br>for<br>Jupiter B</div></div><div class='respDivL'><div class='vertical-center'><font style='color:orange'>(E)</font></div></div><div class='respDivR'><div class='vertical-center'>(I)</div></div></div>","null","$47<br>for<br>yourself","$50<br>for<br>5","0","47","50","5",""
"html-keyboard-response","71","250164","0.0-6.0-1.22","5f9873550513db147c9d2958","bdp_sd","Sat Mar 25 2023 22:02:53 GMT-0400 (Eastern Daylight Time)","261409","","null","","","","","FIX","","<div class='trialBorder'><div class='vertical-center'><img style='vertical-align:center; align:center' src=img/fixation3.jpg></div></div>","null","","","","","","",""
"html-keyboard-response","72","251463","0.0-6.0-2.22","5f9873550513db147c9d2958","bdp_sd","Sat Mar 25 2023 22:02:53 GMT-0400 (Eastern Daylight Time)","261409","","1298","","","","","offer","","<div class='trialBorder'><div class='vertical-center'><img style='vertical-align:center; align:center' src=img/fixation3.jpg></div><div class='cl'><div class='vertical-center'>$54<br>for<br>yourself</div></div><div class='cr'><div class='vertical-center'>$60<br>for<br>Jupiter B</div></div><div class='respDivL'><div class='vertical-center'>(E)</div></div><div class='respDivR'><div class='vertical-center'>(I)</div></div></div>","E","$54<br>for<br>yourself","$60<br>for<br>5","0","54","60","5","SELF"
"html-keyboard-response","73","251715","0.0-6.0-3.22","5f9873550513db147c9d2958","bdp_sd","Sat Mar 25 2023 22:02:53 GMT-0400 (Eastern Daylight Time)","261409","","null","","","","","offerFB","","<div class='trialBorder'><div class='vertical-center'><img style='vertical-align:center; align:center' src=img/fixation3.jpg></div><div class='cl'><div class='vertical-center'><font style='color:orange'>$54<br>for<br>yourself</font></div></div><div class='cr'><div class='vertical-center'>$60<br>for<br>Jupiter B</div></div><div class='respDivL'><div class='vertical-center'><font style='color:orange'>(E)</font></div></div><div class='respDivR'><div class='vertical-center'>(I)</div></div></div>","null","$54<br>for<br>yourself","$60<br>for<br>5","0","54","60","5",""
"html-keyboard-response","74","252217","0.0-6.0-1.23","5f9873550513db147c9d2958","bdp_sd","Sat Mar 25 2023 22:02:53 GMT-0400 (Eastern Daylight Time)","261409","","null","","","","","FIX","","<div class='trialBorder'><div class='vertical-center'><img style='vertical-align:center; align:center' src=img/fixation3.jpg></div></div>","null","","","","","","",""
"html-keyboard-response","75","253369","0.0-6.0-2.23","5f9873550513db147c9d2958","bdp_sd","Sat Mar 25 2023 22:02:53 GMT-0400 (Eastern Daylight Time)","261409","","1151","","","","","offer","","<div class='trialBorder'><div class='vertical-center'><img style='vertical-align:center; align:center' src=img/fixation3.jpg></div><div class='cl'><div class='vertical-center'>$25<br>for<br>Finely W</div></div><div class='cr'><div class='vertical-center'>$19<br>for<br>yourself</div></div><div class='respDivL'><div class='vertical-center'>(E)</div></div><div class='respDivR'><div class='vertical-center'>(I)</div></div></div>","I","$19<br>for<br>yourself","$25<br>for<br>4","1","19","25","4","SELF"
"html-keyboard-response","76","253620","0.0-6.0-3.23","5f9873550513db147c9d2958","bdp_sd","Sat Mar 25 2023 22:02:53 GMT-0400 (Eastern Daylight Time)","261409","","null","","","","","offerFB","","<div class='trialBorder'><div class='vertical-center'><img style='vertical-align:center; align:center' src=img/fixation3.jpg></div><div class='cl'><div class='vertical-center'>$25<br>for<br>Finely W</div></div><div class='cr'><div class='vertical-center'><font style='color:orange'>$19<br>for<br>yourself</font></div></div><div class='respDivL'><div class='vertical-center'>(E)</div></div><div class='respDivR'><div class='vertical-center'><font style='color:orange'>(I)</font></div></div></div>","null","$19<br>for<br>yourself","$25<br>for<br>4","1","19","25","4",""
"html-keyboard-response","77","254122","0.0-6.0-1.24","5f9873550513db147c9d2958","bdp_sd","Sat Mar 25 2023 22:02:53 GMT-0400 (Eastern Daylight Time)","261409","","null","","","","","FIX","","<div class='trialBorder'><div class='vertical-center'><img style='vertical-align:center; align:center' src=img/fixation3.jpg></div></div>","null","","","","","","",""
"html-keyboard-response","78","255448","0.0-6.0-2.24","5f9873550513db147c9d2958","bdp_sd","Sat Mar 25 2023 22:02:53 GMT-0400 (Eastern Daylight Time)","261409","","1326","","","","","offer","","<div class='trialBorder'><div class='vertical-center'><img style='vertical-align:center; align:center' src=img/fixation3.jpg></div><div class='cl'><div class='vertical-center'>$25<br>for<br>Daniel S</div></div><div class='cr'><div class='vertical-center'>$14<br>for<br>yourself</div></div><div class='respDivL'><div class='vertical-center'>(E)</div></div><div class='respDivR'><div class='vertical-center'>(I)</div></div></div>","I","$14<br>for<br>yourself","$25<br>for<br>3","1","14","25","3","SELF"
"html-keyboard-response","79","255700","0.0-6.0-3.24","5f9873550513db147c9d2958","bdp_sd","Sat Mar 25 2023 22:02:53 GMT-0400 (Eastern Daylight Time)","261409","","null","","","","","offerFB","","<div class='trialBorder'><div class='vertical-center'><img style='vertical-align:center; align:center' src=img/fixation3.jpg></div><div class='cl'><div class='vertical-center'>$25<br>for<br>Daniel S</div></div><div class='cr'><div class='vertical-center'><font style='color:orange'>$14<br>for<br>yourself</font></div></div><div class='respDivL'><div class='vertical-center'>(E)</div></div><div class='respDivR'><div class='vertical-center'><font style='color:orange'>(I)</font></div></div></div>","null","$14<br>for<br>yourself","$25<br>for<br>3","1","14","25","3",""
"html-keyboard-response","80","256202","0.0-6.0-1.25","5f9873550513db147c9d2958","bdp_sd","Sat Mar 25 2023 22:02:53 GMT-0400 (Eastern Daylight Time)","261409","","null","","","","","FIX","","<div class='trialBorder'><div class='vertical-center'><img style='vertical-align:center; align:center' src=img/fixation3.jpg></div></div>","null","","","","","","",""
"html-keyboard-response","81","258123","0.0-6.0-2.25","5f9873550513db147c9d2958","bdp_sd","Sat Mar 25 2023 22:02:53 GMT-0400 (Eastern Daylight Time)","261409","","1921","","","","","offer","","<div class='trialBorder'><div class='vertical-center'><img style='vertical-align:center; align:center' src=img/fixation3.jpg></div><div class='cl'><div class='vertical-center'>$80<br>for<br>yourself</div></div><div class='cr'><div class='vertical-center'>$85<br>for<br>Jupiter B</div></div><div class='respDivL'><div class='vertical-center'>(E)</div></div><div class='respDivR'><div class='vertical-center'>(I)</div></div></div>","E","$80<br>for<br>yourself","$85<br>for<br>5","0","80","85","5","SELF"
"html-keyboard-response","82","258375","0.0-6.0-3.25","5f9873550513db147c9d2958","bdp_sd","Sat Mar 25 2023 22:02:53 GMT-0400 (Eastern Daylight Time)","261409","","null","","","","","offerFB","","<div class='trialBorder'><div class='vertical-center'><img style='vertical-align:center; align:center' src=img/fixation3.jpg></div><div class='cl'><div class='vertical-center'><font style='color:orange'>$80<br>for<br>yourself</font></div></div><div class='cr'><div class='vertical-center'>$85<br>for<br>Jupiter B</div></div><div class='respDivL'><div class='vertical-center'><font style='color:orange'>(E)</font></div></div><div class='respDivR'><div class='vertical-center'>(I)</div></div></div>","null","$80<br>for<br>yourself","$85<br>for<br>5","0","80","85","5",""
"html-keyboard-response","83","258876","0.0-6.0-1.26","5f9873550513db147c9d2958","bdp_sd","Sat Mar 25 2023 22:02:53 GMT-0400 (Eastern Daylight Time)","261409","","null","","","","","FIX","","<div class='trialBorder'><div class='vertical-center'><img style='vertical-align:center; align:center' src=img/fixation3.jpg></div></div>","null","","","","","","",""
"html-keyboard-response","84","260155","0.0-6.0-2.26","5f9873550513db147c9d2958","bdp_sd","Sat Mar 25 2023 22:02:53 GMT-0400 (Eastern Daylight Time)","261409","","1278","","","","","offer","","<div class='trialBorder'><div class='vertical-center'><img style='vertical-align:center; align:center' src=img/fixation3.jpg></div><div class='cl'><div class='vertical-center'>$20<br>for<br>yourself</div></div><div class='cr'><div class='vertical-center'>$55<br>for<br>Alicia L</div></div><div class='respDivL'><div class='vertical-center'>(E)</div></div><div class='respDivR'><div class='vertical-center'>(I)</div></div></div>","I","$20<br>for<br>yourself","$55<br>for<br>1","0","20","55","1","OTHER"
"html-keyboard-response","85","260407","0.0-6.0-3.26","5f9873550513db147c9d2958","bdp_sd","Sat Mar 25 2023 22:02:53 GMT-0400 (Eastern Daylight Time)","261409","","null","","","","","offerFB","","<div class='trialBorder'><div class='vertical-center'><img style='vertical-align:center; align:center' src=img/fixation3.jpg></div><div class='cl'><div class='vertical-center'>$20<br>for<br>yourself</div></div><div class='cr'><div class='vertical-center'><font style='color:orange'>$55<br>for<br>Alicia L</font></div></div><div class='respDivL'><div class='vertical-center'>(E)</div></div><div class='respDivR'><div class='vertical-center'><font style='color:orange'>(I)</font></div></div></div>","null","$20<br>for<br>yourself","$55<br>for<br>1","0","20","55","1",""
"","","","","5f9873550513db147c9d2958","bdp_sd","Sat Mar 25 2023 22:02:53 GMT-0400 (Eastern Daylight Time)","261409","","","","fullscreenexit","86","260950","fullscreenexit","","","","","","","","","",""
"","","","","5f9873550513db147c9d2958","bdp_sd","Sat Mar 25 2023 22:02:53 GMT-0400 (Eastern Daylight Time)","261409","","","","fullscreenexit","86","260950","fullscreenexit","","","","","","","","","",""
"fullscreen","86","261408","0.0-7.0","5f9873550513db147c9d2958","bdp_sd","Sat Mar 25 2023 22:02:53 GMT-0400 (Eastern Daylight Time)","261409","","","","","","","","true","","","","","","","","",""
"html-keyboard-response","87","261910","0.0-8.0","","","","","","null","","","","","","","","null","","","","","","",""
