"event","trial","time","trialtype","subject_id","task","startTime","totalTime","trial_type","trial_index","time_elapsed","internal_node_id","view_history","rt","responses","success","stimulus","key_press","selfOffer","otherOffer","otherLeft","selfAmt","otherAmt","otherDist","chosen"
"focus","0","0","focusevent","63ea5b93d1c6d38e1f57dcfa","bdp_sd","Sun Apr 09 2023 20:25:21 GMT-0400 (Eastern Daylight Time)","200646","","","","","","","","","","","","","","","","",""
"","","","","63ea5b93d1c6d38e1f57dcfa","bdp_sd","Sun Apr 09 2023 20:25:21 GMT-0400 (Eastern Daylight Time)","200646","pavlovia","0","2","0.0-0.0","","","","","","","","","","","","",""
"","","","","63ea5b93d1c6d38e1f57dcfa","bdp_sd","Sun Apr 09 2023 20:25:21 GMT-0400 (Eastern Daylight Time)","200646","instructions","1","3745","0.0-1.0","[{""page_index"":0,""viewing_time"":3743}]","3743","","","","","","","","","","",""
"","","","","63ea5b93d1c6d38e1f57dcfa","bdp_sd","Sun Apr 09 2023 20:25:21 GMT-0400 (Eastern Daylight Time)","200646","survey-text","2","89569","0.0-2.0","","85822","{""Q0"":""Pippi O"",""Q1"":""Will B"",""Q2"":""John R"",""Q3"":""Ken J"",""Q4"":""Kyle T""}","","","","","","","","","",""
"fullscreenexit","3","93456","fullscreenexit","63ea5b93d1c6d38e1f57dcfa","bdp_sd","Sun Apr 09 2023 20:25:21 GMT-0400 (Eastern Daylight Time)","200646","","","","","","","","","","","","","","","","",""
"","","","","63ea5b93d1c6d38e1f57dcfa","bdp_sd","Sun Apr 09 2023 20:25:21 GMT-0400 (Eastern Daylight Time)","200646","fullscreen","3","94264","0.0-3.0","","","","true","","","","","","","","",""
"","","","fullscreenfail","63ea5b93d1c6d38e1f57dcfa","bdp_sd","Sun Apr 09 2023 20:25:21 GMT-0400 (Eastern Daylight Time)","200646","image-keyboard-response","4","96742","0.0-4.0-0.0","","2477","","","","32","","","","","","",""
"","","","","63ea5b93d1c6d38e1f57dcfa","bdp_sd","Sun Apr 09 2023 20:25:21 GMT-0400 (Eastern Daylight Time)","200646","instructions","5","133490","0.0-5.0","[{""page_index"":0,""viewing_time"":12631},{""page_index"":1,""viewing_time"":20099},{""page_index"":2,""viewing_time"":3753}]","36484","","","","","","","","","","",""
"","","","FIX","63ea5b93d1c6d38e1f57dcfa","bdp_sd","Sun Apr 09 2023 20:25:21 GMT-0400 (Eastern Daylight Time)","200646","html-keyboard-response","6","134003","0.0-6.0-1.0","","null","","","<div class='trialBorder'><div class='vertical-center'><img style='vertical-align:center; align:center' src=img/fixation3.jpg></div></div>","null","","","","","","",""
"","","","offer","63ea5b93d1c6d38e1f57dcfa","bdp_sd","Sun Apr 09 2023 20:25:21 GMT-0400 (Eastern Daylight Time)","200646","html-keyboard-response","7","135695","0.0-6.0-2.0","","1691","","","<div class='trialBorder'><div class='vertical-center'><img style='vertical-align:center; align:center' src=img/fixation3.jpg></div><div class='cl'><div class='vertical-center'>$20<br>for<br>yourself</div></div><div class='cr'><div class='vertical-center'>$55<br>for<br>Pippi O</div></div><div class='respDivL'><div class='vertical-center'>(E)</div></div><div class='respDivR'><div class='vertical-center'>(I)</div></div></div>","I","$20<br>for<br>yourself","$55<br>for<br>1","0","20","55","1","OTHER"
"","","","offerFB","63ea5b93d1c6d38e1f57dcfa","bdp_sd","Sun Apr 09 2023 20:25:21 GMT-0400 (Eastern Daylight Time)","200646","html-keyboard-response","8","135947","0.0-6.0-3.0","","null","","","<div class='trialBorder'><div class='vertical-center'><img style='vertical-align:center; align:center' src=img/fixation3.jpg></div><div class='cl'><div class='vertical-center'>$20<br>for<br>yourself</div></div><div class='cr'><div class='vertical-center'><font style='color:orange'>$55<br>for<br>Pippi O</font></div></div><div class='respDivL'><div class='vertical-center'>(E)</div></div><div class='respDivR'><div class='vertical-center'><font style='color:orange'>(I)</font></div></div></div>","null","$20<br>for<br>yourself","$55<br>for<br>1","0","20","55","1",""
"","","","FIX","63ea5b93d1c6d38e1f57dcfa","bdp_sd","Sun Apr 09 2023 20:25:21 GMT-0400 (Eastern Daylight Time)","200646","html-keyboard-response","9","136462","0.0-6.0-1.1","","null","","","<div class='trialBorder'><div class='vertical-center'><img style='vertical-align:center; align:center' src=img/fixation3.jpg></div></div>","null","","","","","","",""
"","","","offer","63ea5b93d1c6d38e1f57dcfa","bdp_sd","Sun Apr 09 2023 20:25:21 GMT-0400 (Eastern Daylight Time)","200646","html-keyboard-response","10","138223","0.0-6.0-2.1","","1759","","","<div class='trialBorder'><div class='vertical-center'><img style='vertical-align:center; align:center' src=img/fixation3.jpg></div><div class='cl'><div class='vertical-center'>$80<br>for<br>Kyle T</div></div><div class='cr'><div class='vertical-center'>$78<br>for<br>yourself</div></div><div class='respDivL'><div class='vertical-center'>(E)</div></div><div class='respDivR'><div class='vertical-center'>(I)</div></div></div>","I","$78<br>for<br>yourself","$80<br>for<br>5","1","78","80","5","SELF"
"","","","offerFB","63ea5b93d1c6d38e1f57dcfa","bdp_sd","Sun Apr 09 2023 20:25:21 GMT-0400 (Eastern Daylight Time)","200646","html-keyboard-response","11","138478","0.0-6.0-3.1","","null","","","<div class='trialBorder'><div class='vertical-center'><img style='vertical-align:center; align:center' src=img/fixation3.jpg></div><div class='cl'><div class='vertical-center'>$80<br>for<br>Kyle T</div></div><div class='cr'><div class='vertical-center'><font style='color:orange'>$78<br>for<br>yourself</font></div></div><div class='respDivL'><div class='vertical-center'>(E)</div></div><div class='respDivR'><div class='vertical-center'><font style='color:orange'>(I)</font></div></div></div>","null","$78<br>for<br>yourself","$80<br>for<br>5","1","78","80","5",""
"","","","FIX","63ea5b93d1c6d38e1f57dcfa","bdp_sd","Sun Apr 09 2023 20:25:21 GMT-0400 (Eastern Daylight Time)","200646","html-keyboard-response","12","138993","0.0-6.0-1.2","","null","","","<div class='trialBorder'><div class='vertical-center'><img style='vertical-align:center; align:center' src=img/fixation3.jpg></div></div>","null","","","","","","",""
"","","","offer","63ea5b93d1c6d38e1f57dcfa","bdp_sd","Sun Apr 09 2023 20:25:21 GMT-0400 (Eastern Daylight Time)","200646","html-keyboard-response","13","141067","0.0-6.0-2.2","","2073","","","<div class='trialBorder'><div class='vertical-center'><img style='vertical-align:center; align:center' src=img/fixation3.jpg></div><div class='cl'><div class='vertical-center'>$75<br>for<br>Ken J</div></div><div class='cr'><div class='vertical-center'>$55<br>for<br>yourself</div></div><div class='respDivL'><div class='vertical-center'>(E)</div></div><div class='respDivR'><div class='vertical-center'>(I)</div></div></div>","E","$55<br>for<br>yourself","$75<br>for<br>4","1","55","75","4","OTHER"
"","","","offerFB","63ea5b93d1c6d38e1f57dcfa","bdp_sd","Sun Apr 09 2023 20:25:21 GMT-0400 (Eastern Daylight Time)","200646","html-keyboard-response","14","141320","0.0-6.0-3.2","","null","","","<div class='trialBorder'><div class='vertical-center'><img style='vertical-align:center; align:center' src=img/fixation3.jpg></div><div class='cl'><div class='vertical-center'><font style='color:orange'>$75<br>for<br>Ken J</font></div></div><div class='cr'><div class='vertical-center'>$55<br>for<br>yourself</div></div><div class='respDivL'><div class='vertical-center'><font style='color:orange'>(E)</font></div></div><div class='respDivR'><div class='vertical-center'>(I)</div></div></div>","null","$55<br>for<br>yourself","$75<br>for<br>4","1","55","75","4",""
"","","","FIX","63ea5b93d1c6d38e1f57dcfa","bdp_sd","Sun Apr 09 2023 20:25:21 GMT-0400 (Eastern Daylight Time)","200646","html-keyboard-response","15","141832","0.0-6.0-1.3","","null","","","<div class='trialBorder'><div class='vertical-center'><img style='vertical-align:center; align:center' src=img/fixation3.jpg></div></div>","null","","","","","","",""
"","","","offer","63ea5b93d1c6d38e1f57dcfa","bdp_sd","Sun Apr 09 2023 20:25:21 GMT-0400 (Eastern Daylight Time)","200646","html-keyboard-response","16","143763","0.0-6.0-2.3","","1931","","","<div class='trialBorder'><div class='vertical-center'><img style='vertical-align:center; align:center' src=img/fixation3.jpg></div><div class='cl'><div class='vertical-center'>$55<br>for<br>Kyle T</div></div><div class='cr'><div class='vertical-center'>$54<br>for<br>yourself</div></div><div class='respDivL'><div class='vertical-center'>(E)</div></div><div class='respDivR'><div class='vertical-center'>(I)</div></div></div>","I","$54<br>for<br>yourself","$55<br>for<br>5","1","54","55","5","SELF"
"","","","offerFB","63ea5b93d1c6d38e1f57dcfa","bdp_sd","Sun Apr 09 2023 20:25:21 GMT-0400 (Eastern Daylight Time)","200646","html-keyboard-response","17","144017","0.0-6.0-3.3","","null","","","<div class='trialBorder'><div class='vertical-center'><img style='vertical-align:center; align:center' src=img/fixation3.jpg></div><div class='cl'><div class='vertical-center'>$55<br>for<br>Kyle T</div></div><div class='cr'><div class='vertical-center'><font style='color:orange'>$54<br>for<br>yourself</font></div></div><div class='respDivL'><div class='vertical-center'>(E)</div></div><div class='respDivR'><div class='vertical-center'><font style='color:orange'>(I)</font></div></div></div>","null","$54<br>for<br>yourself","$55<br>for<br>5","1","54","55","5",""
"","","","FIX","63ea5b93d1c6d38e1f57dcfa","bdp_sd","Sun Apr 09 2023 20:25:21 GMT-0400 (Eastern Daylight Time)","200646","html-keyboard-response","18","144527","0.0-6.0-1.4","","null","","","<div class='trialBorder'><div class='vertical-center'><img style='vertical-align:center; align:center' src=img/fixation3.jpg></div></div>","null","","","","","","",""
"","","","offer","63ea5b93d1c6d38e1f57dcfa","bdp_sd","Sun Apr 09 2023 20:25:21 GMT-0400 (Eastern Daylight Time)","200646","html-keyboard-response","19","146820","0.0-6.0-2.4","","2292","","","<div class='trialBorder'><div class='vertical-center'><img style='vertical-align:center; align:center' src=img/fixation3.jpg></div><div class='cl'><div class='vertical-center'>$15<br>for<br>yourself</div></div><div class='cr'><div class='vertical-center'>$35<br>for<br>Will B</div></div><div class='respDivL'><div class='vertical-center'>(E)</div></div><div class='respDivR'><div class='vertical-center'>(I)</div></div></div>","I","$15<br>for<br>yourself","$35<br>for<br>2","0","15","35","2","OTHER"
"","","","offerFB","63ea5b93d1c6d38e1f57dcfa","bdp_sd","Sun Apr 09 2023 20:25:21 GMT-0400 (Eastern Daylight Time)","200646","html-keyboard-response","20","147082","0.0-6.0-3.4","","null","","","<div class='trialBorder'><div class='vertical-center'><img style='vertical-align:center; align:center' src=img/fixation3.jpg></div><div class='cl'><div class='vertical-center'>$15<br>for<br>yourself</div></div><div class='cr'><div class='vertical-center'><font style='color:orange'>$35<br>for<br>Will B</font></div></div><div class='respDivL'><div class='vertical-center'>(E)</div></div><div class='respDivR'><div class='vertical-center'><font style='color:orange'>(I)</font></div></div></div>","null","$15<br>for<br>yourself","$35<br>for<br>2","0","15","35","2",""
"","","","FIX","63ea5b93d1c6d38e1f57dcfa","bdp_sd","Sun Apr 09 2023 20:25:21 GMT-0400 (Eastern Daylight Time)","200646","html-keyboard-response","21","147583","0.0-6.0-1.5","","null","","","<div class='trialBorder'><div class='vertical-center'><img style='vertical-align:center; align:center' src=img/fixation3.jpg></div></div>","null","","","","","","",""
"","","","offer","63ea5b93d1c6d38e1f57dcfa","bdp_sd","Sun Apr 09 2023 20:25:21 GMT-0400 (Eastern Daylight Time)","200646","html-keyboard-response","22","149763","0.0-6.0-2.5","","2180","","","<div class='trialBorder'><div class='vertical-center'><img style='vertical-align:center; align:center' src=img/fixation3.jpg></div><div class='cl'><div class='vertical-center'>$19<br>for<br>yourself</div></div><div class='cr'><div class='vertical-center'>$25<br>for<br>Ken J</div></div><div class='respDivL'><div class='vertical-center'>(E)</div></div><div class='respDivR'><div class='vertical-center'>(I)</div></div></div>","I","$19<br>for<br>yourself","$25<br>for<br>4","0","19","25","4","OTHER"
"","","","offerFB","63ea5b93d1c6d38e1f57dcfa","bdp_sd","Sun Apr 09 2023 20:25:21 GMT-0400 (Eastern Daylight Time)","200646","html-keyboard-response","23","150015","0.0-6.0-3.5","","null","","","<div class='trialBorder'><div class='vertical-center'><img style='vertical-align:center; align:center' src=img/fixation3.jpg></div><div class='cl'><div class='vertical-center'>$19<br>for<br>yourself</div></div><div class='cr'><div class='vertical-center'><font style='color:orange'>$25<br>for<br>Ken J</font></div></div><div class='respDivL'><div class='vertical-center'>(E)</div></div><div class='respDivR'><div class='vertical-center'><font style='color:orange'>(I)</font></div></div></div>","null","$19<br>for<br>yourself","$25<br>for<br>4","0","19","25","4",""
"","","","FIX","63ea5b93d1c6d38e1f57dcfa","bdp_sd","Sun Apr 09 2023 20:25:21 GMT-0400 (Eastern Daylight Time)","200646","html-keyboard-response","24","150530","0.0-6.0-1.6","","null","","","<div class='trialBorder'><div class='vertical-center'><img style='vertical-align:center; align:center' src=img/fixation3.jpg></div></div>","null","","","","","","",""
"","","","offer","63ea5b93d1c6d38e1f57dcfa","bdp_sd","Sun Apr 09 2023 20:25:21 GMT-0400 (Eastern Daylight Time)","200646","html-keyboard-response","25","152166","0.0-6.0-2.6","","1636","","","<div class='trialBorder'><div class='vertical-center'><img style='vertical-align:center; align:center' src=img/fixation3.jpg></div><div class='cl'><div class='vertical-center'>$30<br>for<br>Ken J</div></div><div class='cr'><div class='vertical-center'>$25<br>for<br>yourself</div></div><div class='respDivL'><div class='vertical-center'>(E)</div></div><div class='respDivR'><div class='vertical-center'>(I)</div></div></div>","E","$25<br>for<br>yourself","$30<br>for<br>4","1","25","30","4","OTHER"
"","","","offerFB","63ea5b93d1c6d38e1f57dcfa","bdp_sd","Sun Apr 09 2023 20:25:21 GMT-0400 (Eastern Daylight Time)","200646","html-keyboard-response","26","152430","0.0-6.0-3.6","","null","","","<div class='trialBorder'><div class='vertical-center'><img style='vertical-align:center; align:center' src=img/fixation3.jpg></div><div class='cl'><div class='vertical-center'><font style='color:orange'>$30<br>for<br>Ken J</font></div></div><div class='cr'><div class='vertical-center'>$25<br>for<br>yourself</div></div><div class='respDivL'><div class='vertical-center'><font style='color:orange'>(E)</font></div></div><div class='respDivR'><div class='vertical-center'>(I)</div></div></div>","null","$25<br>for<br>yourself","$30<br>for<br>4","1","25","30","4",""
"","","","FIX","63ea5b93d1c6d38e1f57dcfa","bdp_sd","Sun Apr 09 2023 20:25:21 GMT-0400 (Eastern Daylight Time)","200646","html-keyboard-response","27","152942","0.0-6.0-1.7","","null","","","<div class='trialBorder'><div class='vertical-center'><img style='vertical-align:center; align:center' src=img/fixation3.jpg></div></div>","null","","","","","","",""
"","","","offer","63ea5b93d1c6d38e1f57dcfa","bdp_sd","Sun Apr 09 2023 20:25:21 GMT-0400 (Eastern Daylight Time)","200646","html-keyboard-response","28","154676","0.0-6.0-2.7","","1734","","","<div class='trialBorder'><div class='vertical-center'><img style='vertical-align:center; align:center' src=img/fixation3.jpg></div><div class='cl'><div class='vertical-center'>$54<br>for<br>yourself</div></div><div class='cr'><div class='vertical-center'>$60<br>for<br>Kyle T</div></div><div class='respDivL'><div class='vertical-center'>(E)</div></div><div class='respDivR'><div class='vertical-center'>(I)</div></div></div>","I","$54<br>for<br>yourself","$60<br>for<br>5","0","54","60","5","OTHER"
"","","","offerFB","63ea5b93d1c6d38e1f57dcfa","bdp_sd","Sun Apr 09 2023 20:25:21 GMT-0400 (Eastern Daylight Time)","200646","html-keyboard-response","29","154941","0.0-6.0-3.7","","null","","","<div class='trialBorder'><div class='vertical-center'><img style='vertical-align:center; align:center' src=img/fixation3.jpg></div><div class='cl'><div class='vertical-center'>$54<br>for<br>yourself</div></div><div class='cr'><div class='vertical-center'><font style='color:orange'>$60<br>for<br>Kyle T</font></div></div><div class='respDivL'><div class='vertical-center'>(E)</div></div><div class='respDivR'><div class='vertical-center'><font style='color:orange'>(I)</font></div></div></div>","null","$54<br>for<br>yourself","$60<br>for<br>5","0","54","60","5",""
"","","","FIX","63ea5b93d1c6d38e1f57dcfa","bdp_sd","Sun Apr 09 2023 20:25:21 GMT-0400 (Eastern Daylight Time)","200646","html-keyboard-response","30","155451","0.0-6.0-1.8","","null","","","<div class='trialBorder'><div class='vertical-center'><img style='vertical-align:center; align:center' src=img/fixation3.jpg></div></div>","null","","","","","","",""
"","","","offer","63ea5b93d1c6d38e1f57dcfa","bdp_sd","Sun Apr 09 2023 20:25:21 GMT-0400 (Eastern Daylight Time)","200646","html-keyboard-response","31","156903","0.0-6.0-2.8","","1452","","","<div class='trialBorder'><div class='vertical-center'><img style='vertical-align:center; align:center' src=img/fixation3.jpg></div><div class='cl'><div class='vertical-center'>$33<br>for<br>yourself</div></div><div class='cr'><div class='vertical-center'>$80<br>for<br>Will B</div></div><div class='respDivL'><div class='vertical-center'>(E)</div></div><div class='respDivR'><div class='vertical-center'>(I)</div></div></div>","I","$33<br>for<br>yourself","$80<br>for<br>2","0","33","80","2","OTHER"
"","","","offerFB","63ea5b93d1c6d38e1f57dcfa","bdp_sd","Sun Apr 09 2023 20:25:21 GMT-0400 (Eastern Daylight Time)","200646","html-keyboard-response","32","157164","0.0-6.0-3.8","","null","","","<div class='trialBorder'><div class='vertical-center'><img style='vertical-align:center; align:center' src=img/fixation3.jpg></div><div class='cl'><div class='vertical-center'>$33<br>for<br>yourself</div></div><div class='cr'><div class='vertical-center'><font style='color:orange'>$80<br>for<br>Will B</font></div></div><div class='respDivL'><div class='vertical-center'>(E)</div></div><div class='respDivR'><div class='vertical-center'><font style='color:orange'>(I)</font></div></div></div>","null","$33<br>for<br>yourself","$80<br>for<br>2","0","33","80","2",""
"","","","FIX","63ea5b93d1c6d38e1f57dcfa","bdp_sd","Sun Apr 09 2023 20:25:21 GMT-0400 (Eastern Daylight Time)","200646","html-keyboard-response","33","157678","0.0-6.0-1.9","","null","","","<div class='trialBorder'><div class='vertical-center'><img style='vertical-align:center; align:center' src=img/fixation3.jpg></div></div>","null","","","","","","",""
"","","","offer","63ea5b93d1c6d38e1f57dcfa","bdp_sd","Sun Apr 09 2023 20:25:21 GMT-0400 (Eastern Daylight Time)","200646","html-keyboard-response","34","159423","0.0-6.0-2.9","","1744","","","<div class='trialBorder'><div class='vertical-center'><img style='vertical-align:center; align:center' src=img/fixation3.jpg></div><div class='cl'><div class='vertical-center'>$24<br>for<br>yourself</div></div><div class='cr'><div class='vertical-center'>$35<br>for<br>John R</div></div><div class='respDivL'><div class='vertical-center'>(E)</div></div><div class='respDivR'><div class='vertical-center'>(I)</div></div></div>","E","$24<br>for<br>yourself","$35<br>for<br>3","0","24","35","3","SELF"
"","","","offerFB","63ea5b93d1c6d38e1f57dcfa","bdp_sd","Sun Apr 09 2023 20:25:21 GMT-0400 (Eastern Daylight Time)","200646","html-keyboard-response","35","159677","0.0-6.0-3.9","","null","","","<div class='trialBorder'><div class='vertical-center'><img style='vertical-align:center; align:center' src=img/fixation3.jpg></div><div class='cl'><div class='vertical-center'><font style='color:orange'>$24<br>for<br>yourself</font></div></div><div class='cr'><div class='vertical-center'>$35<br>for<br>John R</div></div><div class='respDivL'><div class='vertical-center'><font style='color:orange'>(E)</font></div></div><div class='respDivR'><div class='vertical-center'>(I)</div></div></div>","null","$24<br>for<br>yourself","$35<br>for<br>3","0","24","35","3",""
"","","","FIX","63ea5b93d1c6d38e1f57dcfa","bdp_sd","Sun Apr 09 2023 20:25:21 GMT-0400 (Eastern Daylight Time)","200646","html-keyboard-response","36","160187","0.0-6.0-1.10","","null","","","<div class='trialBorder'><div class='vertical-center'><img style='vertical-align:center; align:center' src=img/fixation3.jpg></div></div>","null","","","","","","",""
"","","","offer","63ea5b93d1c6d38e1f57dcfa","bdp_sd","Sun Apr 09 2023 20:25:21 GMT-0400 (Eastern Daylight Time)","200646","html-keyboard-response","37","162235","0.0-6.0-2.10","","2048","","","<div class='trialBorder'><div class='vertical-center'><img style='vertical-align:center; align:center' src=img/fixation3.jpg></div><div class='cl'><div class='vertical-center'>$25<br>for<br>Kyle T</div></div><div class='cr'><div class='vertical-center'>$22<br>for<br>yourself</div></div><div class='respDivL'><div class='vertical-center'>(E)</div></div><div class='respDivR'><div class='vertical-center'>(I)</div></div></div>","I","$22<br>for<br>yourself","$25<br>for<br>5","1","22","25","5","SELF"
"","","","offerFB","63ea5b93d1c6d38e1f57dcfa","bdp_sd","Sun Apr 09 2023 20:25:21 GMT-0400 (Eastern Daylight Time)","200646","html-keyboard-response","38","162491","0.0-6.0-3.10","","null","","","<div class='trialBorder'><div class='vertical-center'><img style='vertical-align:center; align:center' src=img/fixation3.jpg></div><div class='cl'><div class='vertical-center'>$25<br>for<br>Kyle T</div></div><div class='cr'><div class='vertical-center'><font style='color:orange'>$22<br>for<br>yourself</font></div></div><div class='respDivL'><div class='vertical-center'>(E)</div></div><div class='respDivR'><div class='vertical-center'><font style='color:orange'>(I)</font></div></div></div>","null","$22<br>for<br>yourself","$25<br>for<br>5","1","22","25","5",""
"","","","FIX","63ea5b93d1c6d38e1f57dcfa","bdp_sd","Sun Apr 09 2023 20:25:21 GMT-0400 (Eastern Daylight Time)","200646","html-keyboard-response","39","163001","0.0-6.0-1.11","","null","","","<div class='trialBorder'><div class='vertical-center'><img style='vertical-align:center; align:center' src=img/fixation3.jpg></div></div>","null","","","","","","",""
"","","","offer","63ea5b93d1c6d38e1f57dcfa","bdp_sd","Sun Apr 09 2023 20:25:21 GMT-0400 (Eastern Daylight Time)","200646","html-keyboard-response","40","165056","0.0-6.0-2.11","","2054","","","<div class='trialBorder'><div class='vertical-center'><img style='vertical-align:center; align:center' src=img/fixation3.jpg></div><div class='cl'><div class='vertical-center'>$50<br>for<br>Ken J</div></div><div class='cr'><div class='vertical-center'>$34<br>for<br>yourself</div></div><div class='respDivL'><div class='vertical-center'>(E)</div></div><div class='respDivR'><div class='vertical-center'>(I)</div></div></div>","E","$34<br>for<br>yourself","$50<br>for<br>4","1","34","50","4","OTHER"
"","","","offerFB","63ea5b93d1c6d38e1f57dcfa","bdp_sd","Sun Apr 09 2023 20:25:21 GMT-0400 (Eastern Daylight Time)","200646","html-keyboard-response","41","165320","0.0-6.0-3.11","","null","","","<div class='trialBorder'><div class='vertical-center'><img style='vertical-align:center; align:center' src=img/fixation3.jpg></div><div class='cl'><div class='vertical-center'><font style='color:orange'>$50<br>for<br>Ken J</font></div></div><div class='cr'><div class='vertical-center'>$34<br>for<br>yourself</div></div><div class='respDivL'><div class='vertical-center'><font style='color:orange'>(E)</font></div></div><div class='respDivR'><div class='vertical-center'>(I)</div></div></div>","null","$34<br>for<br>yourself","$50<br>for<br>4","1","34","50","4",""
"","","","FIX","63ea5b93d1c6d38e1f57dcfa","bdp_sd","Sun Apr 09 2023 20:25:21 GMT-0400 (Eastern Daylight Time)","200646","html-keyboard-response","42","165830","0.0-6.0-1.12","","null","","","<div class='trialBorder'><div class='vertical-center'><img style='vertical-align:center; align:center' src=img/fixation3.jpg></div></div>","null","","","","","","",""
"","","","offer","63ea5b93d1c6d38e1f57dcfa","bdp_sd","Sun Apr 09 2023 20:25:21 GMT-0400 (Eastern Daylight Time)","200646","html-keyboard-response","43","167289","0.0-6.0-2.12","","1459","","","<div class='trialBorder'><div class='vertical-center'><img style='vertical-align:center; align:center' src=img/fixation3.jpg></div><div class='cl'><div class='vertical-center'>$80<br>for<br>yourself</div></div><div class='cr'><div class='vertical-center'>$85<br>for<br>Kyle T</div></div><div class='respDivL'><div class='vertical-center'>(E)</div></div><div class='respDivR'><div class='vertical-center'>(I)</div></div></div>","I","$80<br>for<br>yourself","$85<br>for<br>5","0","80","85","5","OTHER"
"","","","offerFB","63ea5b93d1c6d38e1f57dcfa","bdp_sd","Sun Apr 09 2023 20:25:21 GMT-0400 (Eastern Daylight Time)","200646","html-keyboard-response","44","167554","0.0-6.0-3.12","","null","","","<div class='trialBorder'><div class='vertical-center'><img style='vertical-align:center; align:center' src=img/fixation3.jpg></div><div class='cl'><div class='vertical-center'>$80<br>for<br>yourself</div></div><div class='cr'><div class='vertical-center'><font style='color:orange'>$85<br>for<br>Kyle T</font></div></div><div class='respDivL'><div class='vertical-center'>(E)</div></div><div class='respDivR'><div class='vertical-center'><font style='color:orange'>(I)</font></div></div></div>","null","$80<br>for<br>yourself","$85<br>for<br>5","0","80","85","5",""
"","","","FIX","63ea5b93d1c6d38e1f57dcfa","bdp_sd","Sun Apr 09 2023 20:25:21 GMT-0400 (Eastern Daylight Time)","200646","html-keyboard-response","45","168060","0.0-6.0-1.13","","null","","","<div class='trialBorder'><div class='vertical-center'><img style='vertical-align:center; align:center' src=img/fixation3.jpg></div></div>","null","","","","","","",""
"","","","offer","63ea5b93d1c6d38e1f57dcfa","bdp_sd","Sun Apr 09 2023 20:25:21 GMT-0400 (Eastern Daylight Time)","200646","html-keyboard-response","46","170903","0.0-6.0-2.13","","2843","","","<div class='trialBorder'><div class='vertical-center'><img style='vertical-align:center; align:center' src=img/fixation3.jpg></div><div class='cl'><div class='vertical-center'>$30<br>for<br>Kyle T</div></div><div class='cr'><div class='vertical-center'>$28<br>for<br>yourself</div></div><div class='respDivL'><div class='vertical-center'>(E)</div></div><div class='respDivR'><div class='vertical-center'>(I)</div></div></div>","I","$28<br>for<br>yourself","$30<br>for<br>5","1","28","30","5","SELF"
"","","","offerFB","63ea5b93d1c6d38e1f57dcfa","bdp_sd","Sun Apr 09 2023 20:25:21 GMT-0400 (Eastern Daylight Time)","200646","html-keyboard-response","47","171156","0.0-6.0-3.13","","null","","","<div class='trialBorder'><div class='vertical-center'><img style='vertical-align:center; align:center' src=img/fixation3.jpg></div><div class='cl'><div class='vertical-center'>$30<br>for<br>Kyle T</div></div><div class='cr'><div class='vertical-center'><font style='color:orange'>$28<br>for<br>yourself</font></div></div><div class='respDivL'><div class='vertical-center'>(E)</div></div><div class='respDivR'><div class='vertical-center'><font style='color:orange'>(I)</font></div></div></div>","null","$28<br>for<br>yourself","$30<br>for<br>5","1","28","30","5",""
"","","","FIX","63ea5b93d1c6d38e1f57dcfa","bdp_sd","Sun Apr 09 2023 20:25:21 GMT-0400 (Eastern Daylight Time)","200646","html-keyboard-response","48","171669","0.0-6.0-1.14","","null","","","<div class='trialBorder'><div class='vertical-center'><img style='vertical-align:center; align:center' src=img/fixation3.jpg></div></div>","null","","","","","","",""
"","","","offer","63ea5b93d1c6d38e1f57dcfa","bdp_sd","Sun Apr 09 2023 20:25:21 GMT-0400 (Eastern Daylight Time)","200646","html-keyboard-response","49","173245","0.0-6.0-2.14","","1575","","","<div class='trialBorder'><div class='vertical-center'><img style='vertical-align:center; align:center' src=img/fixation3.jpg></div><div class='cl'><div class='vertical-center'>$25<br>for<br>yourself</div></div><div class='cr'><div class='vertical-center'>$60<br>for<br>John R</div></div><div class='respDivL'><div class='vertical-center'>(E)</div></div><div class='respDivR'><div class='vertical-center'>(I)</div></div></div>","I","$25<br>for<br>yourself","$60<br>for<br>3","0","25","60","3","OTHER"
"","","","offerFB","63ea5b93d1c6d38e1f57dcfa","bdp_sd","Sun Apr 09 2023 20:25:21 GMT-0400 (Eastern Daylight Time)","200646","html-keyboard-response","50","173499","0.0-6.0-3.14","","null","","","<div class='trialBorder'><div class='vertical-center'><img style='vertical-align:center; align:center' src=img/fixation3.jpg></div><div class='cl'><div class='vertical-center'>$25<br>for<br>yourself</div></div><div class='cr'><div class='vertical-center'><font style='color:orange'>$60<br>for<br>John R</font></div></div><div class='respDivL'><div class='vertical-center'>(E)</div></div><div class='respDivR'><div class='vertical-center'><font style='color:orange'>(I)</font></div></div></div>","null","$25<br>for<br>yourself","$60<br>for<br>3","0","25","60","3",""
"","","","FIX","63ea5b93d1c6d38e1f57dcfa","bdp_sd","Sun Apr 09 2023 20:25:21 GMT-0400 (Eastern Daylight Time)","200646","html-keyboard-response","51","174006","0.0-6.0-1.15","","null","","","<div class='trialBorder'><div class='vertical-center'><img style='vertical-align:center; align:center' src=img/fixation3.jpg></div></div>","null","","","","","","",""
"","","","offer","63ea5b93d1c6d38e1f57dcfa","bdp_sd","Sun Apr 09 2023 20:25:21 GMT-0400 (Eastern Daylight Time)","200646","html-keyboard-response","52","175696","0.0-6.0-2.15","","1690","","","<div class='trialBorder'><div class='vertical-center'><img style='vertical-align:center; align:center' src=img/fixation3.jpg></div><div class='cl'><div class='vertical-center'>$55<br>for<br>Ken J</div></div><div class='cr'><div class='vertical-center'>$40<br>for<br>yourself</div></div><div class='respDivL'><div class='vertical-center'>(E)</div></div><div class='respDivR'><div class='vertical-center'>(I)</div></div></div>","E","$40<br>for<br>yourself","$55<br>for<br>4","1","40","55","4","OTHER"
"","","","offerFB","63ea5b93d1c6d38e1f57dcfa","bdp_sd","Sun Apr 09 2023 20:25:21 GMT-0400 (Eastern Daylight Time)","200646","html-keyboard-response","53","175951","0.0-6.0-3.15","","null","","","<div class='trialBorder'><div class='vertical-center'><img style='vertical-align:center; align:center' src=img/fixation3.jpg></div><div class='cl'><div class='vertical-center'><font style='color:orange'>$55<br>for<br>Ken J</font></div></div><div class='cr'><div class='vertical-center'>$40<br>for<br>yourself</div></div><div class='respDivL'><div class='vertical-center'><font style='color:orange'>(E)</font></div></div><div class='respDivR'><div class='vertical-center'>(I)</div></div></div>","null","$40<br>for<br>yourself","$55<br>for<br>4","1","40","55","4",""
"","","","FIX","63ea5b93d1c6d38e1f57dcfa","bdp_sd","Sun Apr 09 2023 20:25:21 GMT-0400 (Eastern Daylight Time)","200646","html-keyboard-response","54","176462","0.0-6.0-1.16","","null","","","<div class='trialBorder'><div class='vertical-center'><img style='vertical-align:center; align:center' src=img/fixation3.jpg></div></div>","null","","","","","","",""
"","","","offer","63ea5b93d1c6d38e1f57dcfa","bdp_sd","Sun Apr 09 2023 20:25:21 GMT-0400 (Eastern Daylight Time)","200646","html-keyboard-response","55","178139","0.0-6.0-2.16","","1677","","","<div class='trialBorder'><div class='vertical-center'><img style='vertical-align:center; align:center' src=img/fixation3.jpg></div><div class='cl'><div class='vertical-center'>$54<br>for<br>yourself</div></div><div class='cr'><div class='vertical-center'>$80<br>for<br>John R</div></div><div class='respDivL'><div class='vertical-center'>(E)</div></div><div class='respDivR'><div class='vertical-center'>(I)</div></div></div>","I","$54<br>for<br>yourself","$80<br>for<br>3","0","54","80","3","OTHER"
"","","","offerFB","63ea5b93d1c6d38e1f57dcfa","bdp_sd","Sun Apr 09 2023 20:25:21 GMT-0400 (Eastern Daylight Time)","200646","html-keyboard-response","56","178393","0.0-6.0-3.16","","null","","","<div class='trialBorder'><div class='vertical-center'><img style='vertical-align:center; align:center' src=img/fixation3.jpg></div><div class='cl'><div class='vertical-center'>$54<br>for<br>yourself</div></div><div class='cr'><div class='vertical-center'><font style='color:orange'>$80<br>for<br>John R</font></div></div><div class='respDivL'><div class='vertical-center'>(E)</div></div><div class='respDivR'><div class='vertical-center'><font style='color:orange'>(I)</font></div></div></div>","null","$54<br>for<br>yourself","$80<br>for<br>3","0","54","80","3",""
"","","","FIX","63ea5b93d1c6d38e1f57dcfa","bdp_sd","Sun Apr 09 2023 20:25:21 GMT-0400 (Eastern Daylight Time)","200646","html-keyboard-response","57","178908","0.0-6.0-1.17","","null","","","<div class='trialBorder'><div class='vertical-center'><img style='vertical-align:center; align:center' src=img/fixation3.jpg></div></div>","null","","","","","","",""
"","","","offer","63ea5b93d1c6d38e1f57dcfa","bdp_sd","Sun Apr 09 2023 20:25:21 GMT-0400 (Eastern Daylight Time)","200646","html-keyboard-response","58","180344","0.0-6.0-2.17","","1435","","","<div class='trialBorder'><div class='vertical-center'><img style='vertical-align:center; align:center' src=img/fixation3.jpg></div><div class='cl'><div class='vertical-center'>$31<br>for<br>yourself</div></div><div class='cr'><div class='vertical-center'>$85<br>for<br>Pippi O</div></div><div class='respDivL'><div class='vertical-center'>(E)</div></div><div class='respDivR'><div class='vertical-center'>(I)</div></div></div>","I","$31<br>for<br>yourself","$85<br>for<br>1","0","31","85","1","OTHER"
"","","","offerFB","63ea5b93d1c6d38e1f57dcfa","bdp_sd","Sun Apr 09 2023 20:25:21 GMT-0400 (Eastern Daylight Time)","200646","html-keyboard-response","59","180603","0.0-6.0-3.17","","null","","","<div class='trialBorder'><div class='vertical-center'><img style='vertical-align:center; align:center' src=img/fixation3.jpg></div><div class='cl'><div class='vertical-center'>$31<br>for<br>yourself</div></div><div class='cr'><div class='vertical-center'><font style='color:orange'>$85<br>for<br>Pippi O</font></div></div><div class='respDivL'><div class='vertical-center'>(E)</div></div><div class='respDivR'><div class='vertical-center'><font style='color:orange'>(I)</font></div></div></div>","null","$31<br>for<br>yourself","$85<br>for<br>1","0","31","85","1",""
"","","","FIX","63ea5b93d1c6d38e1f57dcfa","bdp_sd","Sun Apr 09 2023 20:25:21 GMT-0400 (Eastern Daylight Time)","200646","html-keyboard-response","60","181116","0.0-6.0-1.18","","null","","","<div class='trialBorder'><div class='vertical-center'><img style='vertical-align:center; align:center' src=img/fixation3.jpg></div></div>","null","","","","","","",""
"","","","offer","63ea5b93d1c6d38e1f57dcfa","bdp_sd","Sun Apr 09 2023 20:25:21 GMT-0400 (Eastern Daylight Time)","200646","html-keyboard-response","61","182655","0.0-6.0-2.18","","1538","","","<div class='trialBorder'><div class='vertical-center'><img style='vertical-align:center; align:center' src=img/fixation3.jpg></div><div class='cl'><div class='vertical-center'>$35<br>for<br>Kyle T</div></div><div class='cr'><div class='vertical-center'>$34<br>for<br>yourself</div></div><div class='respDivL'><div class='vertical-center'>(E)</div></div><div class='respDivR'><div class='vertical-center'>(I)</div></div></div>","E","$34<br>for<br>yourself","$35<br>for<br>5","1","34","35","5","OTHER"
"","","","offerFB","63ea5b93d1c6d38e1f57dcfa","bdp_sd","Sun Apr 09 2023 20:25:21 GMT-0400 (Eastern Daylight Time)","200646","html-keyboard-response","62","182907","0.0-6.0-3.18","","null","","","<div class='trialBorder'><div class='vertical-center'><img style='vertical-align:center; align:center' src=img/fixation3.jpg></div><div class='cl'><div class='vertical-center'><font style='color:orange'>$35<br>for<br>Kyle T</font></div></div><div class='cr'><div class='vertical-center'>$34<br>for<br>yourself</div></div><div class='respDivL'><div class='vertical-center'><font style='color:orange'>(E)</font></div></div><div class='respDivR'><div class='vertical-center'>(I)</div></div></div>","null","$34<br>for<br>yourself","$35<br>for<br>5","1","34","35","5",""
"","","","FIX","63ea5b93d1c6d38e1f57dcfa","bdp_sd","Sun Apr 09 2023 20:25:21 GMT-0400 (Eastern Daylight Time)","200646","html-keyboard-response","63","183421","0.0-6.0-1.19","","null","","","<div class='trialBorder'><div class='vertical-center'><img style='vertical-align:center; align:center' src=img/fixation3.jpg></div></div>","null","","","","","","",""
"","","","offer","63ea5b93d1c6d38e1f57dcfa","bdp_sd","Sun Apr 09 2023 20:25:21 GMT-0400 (Eastern Daylight Time)","200646","html-keyboard-response","64","185236","0.0-6.0-2.19","","1814","","","<div class='trialBorder'><div class='vertical-center'><img style='vertical-align:center; align:center' src=img/fixation3.jpg></div><div class='cl'><div class='vertical-center'>$69<br>for<br>yourself</div></div><div class='cr'><div class='vertical-center'>$85<br>for<br>Ken J</div></div><div class='respDivL'><div class='vertical-center'>(E)</div></div><div class='respDivR'><div class='vertical-center'>(I)</div></div></div>","I","$69<br>for<br>yourself","$85<br>for<br>4","0","69","85","4","OTHER"
"","","","offerFB","63ea5b93d1c6d38e1f57dcfa","bdp_sd","Sun Apr 09 2023 20:25:21 GMT-0400 (Eastern Daylight Time)","200646","html-keyboard-response","65","185502","0.0-6.0-3.19","","null","","","<div class='trialBorder'><div class='vertical-center'><img style='vertical-align:center; align:center' src=img/fixation3.jpg></div><div class='cl'><div class='vertical-center'>$69<br>for<br>yourself</div></div><div class='cr'><div class='vertical-center'><font style='color:orange'>$85<br>for<br>Ken J</font></div></div><div class='respDivL'><div class='vertical-center'>(E)</div></div><div class='respDivR'><div class='vertical-center'><font style='color:orange'>(I)</font></div></div></div>","null","$69<br>for<br>yourself","$85<br>for<br>4","0","69","85","4",""
"","","","FIX","63ea5b93d1c6d38e1f57dcfa","bdp_sd","Sun Apr 09 2023 20:25:21 GMT-0400 (Eastern Daylight Time)","200646","html-keyboard-response","66","186012","0.0-6.0-1.20","","null","","","<div class='trialBorder'><div class='vertical-center'><img style='vertical-align:center; align:center' src=img/fixation3.jpg></div></div>","null","","","","","","",""
"","","","offer","63ea5b93d1c6d38e1f57dcfa","bdp_sd","Sun Apr 09 2023 20:25:21 GMT-0400 (Eastern Daylight Time)","200646","html-keyboard-response","67","187810","0.0-6.0-2.20","","1798","","","<div class='trialBorder'><div class='vertical-center'><img style='vertical-align:center; align:center' src=img/fixation3.jpg></div><div class='cl'><div class='vertical-center'>$47<br>for<br>yourself</div></div><div class='cr'><div class='vertical-center'>$50<br>for<br>Kyle T</div></div><div class='respDivL'><div class='vertical-center'>(E)</div></div><div class='respDivR'><div class='vertical-center'>(I)</div></div></div>","I","$47<br>for<br>yourself","$50<br>for<br>5","0","47","50","5","OTHER"
"","","","offerFB","63ea5b93d1c6d38e1f57dcfa","bdp_sd","Sun Apr 09 2023 20:25:21 GMT-0400 (Eastern Daylight Time)","200646","html-keyboard-response","68","188061","0.0-6.0-3.20","","null","","","<div class='trialBorder'><div class='vertical-center'><img style='vertical-align:center; align:center' src=img/fixation3.jpg></div><div class='cl'><div class='vertical-center'>$47<br>for<br>yourself</div></div><div class='cr'><div class='vertical-center'><font style='color:orange'>$50<br>for<br>Kyle T</font></div></div><div class='respDivL'><div class='vertical-center'>(E)</div></div><div class='respDivR'><div class='vertical-center'><font style='color:orange'>(I)</font></div></div></div>","null","$47<br>for<br>yourself","$50<br>for<br>5","0","47","50","5",""
"","","","FIX","63ea5b93d1c6d38e1f57dcfa","bdp_sd","Sun Apr 09 2023 20:25:21 GMT-0400 (Eastern Daylight Time)","200646","html-keyboard-response","69","188574","0.0-6.0-1.21","","null","","","<div class='trialBorder'><div class='vertical-center'><img style='vertical-align:center; align:center' src=img/fixation3.jpg></div></div>","null","","","","","","",""
"","","","offer","63ea5b93d1c6d38e1f57dcfa","bdp_sd","Sun Apr 09 2023 20:25:21 GMT-0400 (Eastern Daylight Time)","200646","html-keyboard-response","70","189845","0.0-6.0-2.21","","1270","","","<div class='trialBorder'><div class='vertical-center'><img style='vertical-align:center; align:center' src=img/fixation3.jpg></div><div class='cl'><div class='vertical-center'>$50<br>for<br>John R</div></div><div class='cr'><div class='vertical-center'>$27<br>for<br>yourself</div></div><div class='respDivL'><div class='vertical-center'>(E)</div></div><div class='respDivR'><div class='vertical-center'>(I)</div></div></div>","E","$27<br>for<br>yourself","$50<br>for<br>3","1","27","50","3","OTHER"
"","","","offerFB","63ea5b93d1c6d38e1f57dcfa","bdp_sd","Sun Apr 09 2023 20:25:21 GMT-0400 (Eastern Daylight Time)","200646","html-keyboard-response","71","190099","0.0-6.0-3.21","","null","","","<div class='trialBorder'><div class='vertical-center'><img style='vertical-align:center; align:center' src=img/fixation3.jpg></div><div class='cl'><div class='vertical-center'><font style='color:orange'>$50<br>for<br>John R</font></div></div><div class='cr'><div class='vertical-center'>$27<br>for<br>yourself</div></div><div class='respDivL'><div class='vertical-center'><font style='color:orange'>(E)</font></div></div><div class='respDivR'><div class='vertical-center'>(I)</div></div></div>","null","$27<br>for<br>yourself","$50<br>for<br>3","1","27","50","3",""
"","","","FIX","63ea5b93d1c6d38e1f57dcfa","bdp_sd","Sun Apr 09 2023 20:25:21 GMT-0400 (Eastern Daylight Time)","200646","html-keyboard-response","72","190610","0.0-6.0-1.22","","null","","","<div class='trialBorder'><div class='vertical-center'><img style='vertical-align:center; align:center' src=img/fixation3.jpg></div></div>","null","","","","","","",""
"","","","offer","63ea5b93d1c6d38e1f57dcfa","bdp_sd","Sun Apr 09 2023 20:25:21 GMT-0400 (Eastern Daylight Time)","200646","html-keyboard-response","73","191654","0.0-6.0-2.22","","1044","","","<div class='trialBorder'><div class='vertical-center'><img style='vertical-align:center; align:center' src=img/fixation3.jpg></div><div class='cl'><div class='vertical-center'>$75<br>for<br>John R</div></div><div class='cr'><div class='vertical-center'>$41<br>for<br>yourself</div></div><div class='respDivL'><div class='vertical-center'>(E)</div></div><div class='respDivR'><div class='vertical-center'>(I)</div></div></div>","E","$41<br>for<br>yourself","$75<br>for<br>3","1","41","75","3","OTHER"
"","","","offerFB","63ea5b93d1c6d38e1f57dcfa","bdp_sd","Sun Apr 09 2023 20:25:21 GMT-0400 (Eastern Daylight Time)","200646","html-keyboard-response","74","191918","0.0-6.0-3.22","","null","","","<div class='trialBorder'><div class='vertical-center'><img style='vertical-align:center; align:center' src=img/fixation3.jpg></div><div class='cl'><div class='vertical-center'><font style='color:orange'>$75<br>for<br>John R</font></div></div><div class='cr'><div class='vertical-center'>$41<br>for<br>yourself</div></div><div class='respDivL'><div class='vertical-center'><font style='color:orange'>(E)</font></div></div><div class='respDivR'><div class='vertical-center'>(I)</div></div></div>","null","$41<br>for<br>yourself","$75<br>for<br>3","1","41","75","3",""
"","","","FIX","63ea5b93d1c6d38e1f57dcfa","bdp_sd","Sun Apr 09 2023 20:25:21 GMT-0400 (Eastern Daylight Time)","200646","html-keyboard-response","75","192427","0.0-6.0-1.23","","null","","","<div class='trialBorder'><div class='vertical-center'><img style='vertical-align:center; align:center' src=img/fixation3.jpg></div></div>","null","","","","","","",""
"","","","offer","63ea5b93d1c6d38e1f57dcfa","bdp_sd","Sun Apr 09 2023 20:25:21 GMT-0400 (Eastern Daylight Time)","200646","html-keyboard-response","76","193956","0.0-6.0-2.23","","1529","","","<div class='trialBorder'><div class='vertical-center'><img style='vertical-align:center; align:center' src=img/fixation3.jpg></div><div class='cl'><div class='vertical-center'>$14<br>for<br>yourself</div></div><div class='cr'><div class='vertical-center'>$25<br>for<br>John R</div></div><div class='respDivL'><div class='vertical-center'>(E)</div></div><div class='respDivR'><div class='vertical-center'>(I)</div></div></div>","I","$14<br>for<br>yourself","$25<br>for<br>3","0","14","25","3","OTHER"
"","","","offerFB","63ea5b93d1c6d38e1f57dcfa","bdp_sd","Sun Apr 09 2023 20:25:21 GMT-0400 (Eastern Daylight Time)","200646","html-keyboard-response","77","194207","0.0-6.0-3.23","","null","","","<div class='trialBorder'><div class='vertical-center'><img style='vertical-align:center; align:center' src=img/fixation3.jpg></div><div class='cl'><div class='vertical-center'>$14<br>for<br>yourself</div></div><div class='cr'><div class='vertical-center'><font style='color:orange'>$25<br>for<br>John R</font></div></div><div class='respDivL'><div class='vertical-center'>(E)</div></div><div class='respDivR'><div class='vertical-center'><font style='color:orange'>(I)</font></div></div></div>","null","$14<br>for<br>yourself","$25<br>for<br>3","0","14","25","3",""
"","","","FIX","63ea5b93d1c6d38e1f57dcfa","bdp_sd","Sun Apr 09 2023 20:25:21 GMT-0400 (Eastern Daylight Time)","200646","html-keyboard-response","78","194718","0.0-6.0-1.24","","null","","","<div class='trialBorder'><div class='vertical-center'><img style='vertical-align:center; align:center' src=img/fixation3.jpg></div></div>","null","","","","","","",""
"","","","offer","63ea5b93d1c6d38e1f57dcfa","bdp_sd","Sun Apr 09 2023 20:25:21 GMT-0400 (Eastern Daylight Time)","200646","html-keyboard-response","79","195689","0.0-6.0-2.24","","970","","","<div class='trialBorder'><div class='vertical-center'><img style='vertical-align:center; align:center' src=img/fixation3.jpg></div><div class='cl'><div class='vertical-center'>$30<br>for<br>Will B</div></div><div class='cr'><div class='vertical-center'>$11<br>for<br>yourself</div></div><div class='respDivL'><div class='vertical-center'>(E)</div></div><div class='respDivR'><div class='vertical-center'>(I)</div></div></div>","E","$11<br>for<br>yourself","$30<br>for<br>2","1","11","30","2","OTHER"
"","","","offerFB","63ea5b93d1c6d38e1f57dcfa","bdp_sd","Sun Apr 09 2023 20:25:21 GMT-0400 (Eastern Daylight Time)","200646","html-keyboard-response","80","195950","0.0-6.0-3.24","","null","","","<div class='trialBorder'><div class='vertical-center'><img style='vertical-align:center; align:center' src=img/fixation3.jpg></div><div class='cl'><div class='vertical-center'><font style='color:orange'>$30<br>for<br>Will B</font></div></div><div class='cr'><div class='vertical-center'>$11<br>for<br>yourself</div></div><div class='respDivL'><div class='vertical-center'><font style='color:orange'>(E)</font></div></div><div class='respDivR'><div class='vertical-center'>(I)</div></div></div>","null","$11<br>for<br>yourself","$30<br>for<br>2","1","11","30","2",""
"","","","FIX","63ea5b93d1c6d38e1f57dcfa","bdp_sd","Sun Apr 09 2023 20:25:21 GMT-0400 (Eastern Daylight Time)","200646","html-keyboard-response","81","196458","0.0-6.0-1.25","","null","","","<div class='trialBorder'><div class='vertical-center'><img style='vertical-align:center; align:center' src=img/fixation3.jpg></div></div>","null","","","","","","",""
"","","","offer","63ea5b93d1c6d38e1f57dcfa","bdp_sd","Sun Apr 09 2023 20:25:21 GMT-0400 (Eastern Daylight Time)","200646","html-keyboard-response","82","197407","0.0-6.0-2.25","","949","","","<div class='trialBorder'><div class='vertical-center'><img style='vertical-align:center; align:center' src=img/fixation3.jpg></div><div class='cl'><div class='vertical-center'>$60<br>for<br>Ken J</div></div><div class='cr'><div class='vertical-center'>$49<br>for<br>yourself</div></div><div class='respDivL'><div class='vertical-center'>(E)</div></div><div class='respDivR'><div class='vertical-center'>(I)</div></div></div>","E","$49<br>for<br>yourself","$60<br>for<br>4","1","49","60","4","OTHER"
"","","","offerFB","63ea5b93d1c6d38e1f57dcfa","bdp_sd","Sun Apr 09 2023 20:25:21 GMT-0400 (Eastern Daylight Time)","200646","html-keyboard-response","83","197663","0.0-6.0-3.25","","null","","","<div class='trialBorder'><div class='vertical-center'><img style='vertical-align:center; align:center' src=img/fixation3.jpg></div><div class='cl'><div class='vertical-center'><font style='color:orange'>$60<br>for<br>Ken J</font></div></div><div class='cr'><div class='vertical-center'>$49<br>for<br>yourself</div></div><div class='respDivL'><div class='vertical-center'><font style='color:orange'>(E)</font></div></div><div class='respDivR'><div class='vertical-center'>(I)</div></div></div>","null","$49<br>for<br>yourself","$60<br>for<br>4","1","49","60","4",""
"","","","FIX","63ea5b93d1c6d38e1f57dcfa","bdp_sd","Sun Apr 09 2023 20:25:21 GMT-0400 (Eastern Daylight Time)","200646","html-keyboard-response","84","198175","0.0-6.0-1.26","","null","","","<div class='trialBorder'><div class='vertical-center'><img style='vertical-align:center; align:center' src=img/fixation3.jpg></div></div>","null","","","","","","",""
"","","","offer","63ea5b93d1c6d38e1f57dcfa","bdp_sd","Sun Apr 09 2023 20:25:21 GMT-0400 (Eastern Daylight Time)","200646","html-keyboard-response","85","199379","0.0-6.0-2.26","","1204","","","<div class='trialBorder'><div class='vertical-center'><img style='vertical-align:center; align:center' src=img/fixation3.jpg></div><div class='cl'><div class='vertical-center'>$75<br>for<br>Kyle T</div></div><div class='cr'><div class='vertical-center'>$67<br>for<br>yourself</div></div><div class='respDivL'><div class='vertical-center'>(E)</div></div><div class='respDivR'><div class='vertical-center'>(I)</div></div></div>","E","$67<br>for<br>yourself","$75<br>for<br>5","1","67","75","5","OTHER"
"","","","offerFB","63ea5b93d1c6d38e1f57dcfa","bdp_sd","Sun Apr 09 2023 20:25:21 GMT-0400 (Eastern Daylight Time)","200646","html-keyboard-response","86","199632","0.0-6.0-3.26","","null","","","<div class='trialBorder'><div class='vertical-center'><img style='vertical-align:center; align:center' src=img/fixation3.jpg></div><div class='cl'><div class='vertical-center'><font style='color:orange'>$75<br>for<br>Kyle T</font></div></div><div class='cr'><div class='vertical-center'>$67<br>for<br>yourself</div></div><div class='respDivL'><div class='vertical-center'><font style='color:orange'>(E)</font></div></div><div class='respDivR'><div class='vertical-center'>(I)</div></div></div>","null","$67<br>for<br>yourself","$75<br>for<br>5","1","67","75","5",""
"fullscreenexit","87","199826","fullscreenexit","63ea5b93d1c6d38e1f57dcfa","bdp_sd","Sun Apr 09 2023 20:25:21 GMT-0400 (Eastern Daylight Time)","200646","","","","","","","","","","","","","","","","",""
"","","","","63ea5b93d1c6d38e1f57dcfa","bdp_sd","Sun Apr 09 2023 20:25:21 GMT-0400 (Eastern Daylight Time)","200646","fullscreen","87","200646","0.0-7.0","","","","true","","","","","","","","",""
"","","","","","","","","html-keyboard-response","88","201155","0.0-8.0","","null","","","","null","","","","","","",""
