"trial_type","trial_index","time_elapsed","internal_node_id","subject_id","task","startTime","totalTime","view_history","rt","responses","event","trial","time","trialtype","success","stimulus","key_press","selfOffer","otherOffer","otherLeft","selfAmt","otherAmt","otherDist","chosen"
"pavlovia","0","8","0.0-0.0","63f791692fa22034babcdda1","bdp_sd","Sat Mar 25 2023 20:00:19 GMT-0400 (Eastern Daylight Time)","169044","","","","","","","","","","","","","","","","",""
"instructions","1","3631","0.0-1.0","63f791692fa22034babcdda1","bdp_sd","Sat Mar 25 2023 20:00:19 GMT-0400 (Eastern Daylight Time)","169044","[{""page_index"":0,""viewing_time"":3622}]","3622","","","","","","","","","","","","","","",""
"survey-text","2","61996","0.0-2.0","63f791692fa22034babcdda1","bdp_sd","Sat Mar 25 2023 20:00:19 GMT-0400 (Eastern Daylight Time)","169044","","58363","{""Q0"":""Tommy H"",""Q1"":""Bill A"",""Q2"":""Sammy C"",""Q3"":""Paula B"",""Q4"":""Sarah C""}","","","","","","","","","","","","","",""
"","","","","63f791692fa22034babcdda1","bdp_sd","Sat Mar 25 2023 20:00:19 GMT-0400 (Eastern Daylight Time)","169044","","","","fullscreenenter","3","63604","fullscreenenter","","","","","","","","","",""
"fullscreen","3","64580","0.0-3.0","63f791692fa22034babcdda1","bdp_sd","Sat Mar 25 2023 20:00:19 GMT-0400 (Eastern Daylight Time)","169044","","","","","","","","true","","","","","","","","",""
"instructions","4","108529","0.0-5.0","63f791692fa22034babcdda1","bdp_sd","Sat Mar 25 2023 20:00:19 GMT-0400 (Eastern Daylight Time)","169044","[{""page_index"":0,""viewing_time"":4332},{""page_index"":1,""viewing_time"":30465},{""page_index"":2,""viewing_time"":9148}]","43946","","","","","","","","","","","","","","",""
"html-keyboard-response","5","109032","0.0-6.0-1.0","63f791692fa22034babcdda1","bdp_sd","Sat Mar 25 2023 20:00:19 GMT-0400 (Eastern Daylight Time)","169044","","null","","","","","FIX","","<div class='trialBorder'><div class='vertical-center'><img style='vertical-align:center; align:center' src=img/fixation3.jpg></div></div>","null","","","","","","",""
"html-keyboard-response","6","111301","0.0-6.0-2.0","63f791692fa22034babcdda1","bdp_sd","Sat Mar 25 2023 20:00:19 GMT-0400 (Eastern Daylight Time)","169044","","2267","","","","","offer","","<div class='trialBorder'><div class='vertical-center'><img style='vertical-align:center; align:center' src=img/fixation3.jpg></div><div class='cl'><div class='vertical-center'>$31<br>for<br>yourself</div></div><div class='cr'><div class='vertical-center'>$85<br>for<br>Tommy H</div></div><div class='respDivL'><div class='vertical-center'>(E)</div></div><div class='respDivR'><div class='vertical-center'>(I)</div></div></div>","I","$31<br>for<br>yourself","$85<br>for<br>1","0","31","85","1","OTHER"
"html-keyboard-response","7","111554","0.0-6.0-3.0","63f791692fa22034babcdda1","bdp_sd","Sat Mar 25 2023 20:00:19 GMT-0400 (Eastern Daylight Time)","169044","","null","","","","","offerFB","","<div class='trialBorder'><div class='vertical-center'><img style='vertical-align:center; align:center' src=img/fixation3.jpg></div><div class='cl'><div class='vertical-center'>$31<br>for<br>yourself</div></div><div class='cr'><div class='vertical-center'><font style='color:orange'>$85<br>for<br>Tommy H</font></div></div><div class='respDivL'><div class='vertical-center'>(E)</div></div><div class='respDivR'><div class='vertical-center'><font style='color:orange'>(I)</font></div></div></div>","null","$31<br>for<br>yourself","$85<br>for<br>1","0","31","85","1",""
"html-keyboard-response","8","112057","0.0-6.0-1.1","63f791692fa22034babcdda1","bdp_sd","Sat Mar 25 2023 20:00:19 GMT-0400 (Eastern Daylight Time)","169044","","null","","","","","FIX","","<div class='trialBorder'><div class='vertical-center'><img style='vertical-align:center; align:center' src=img/fixation3.jpg></div></div>","null","","","","","","",""
"html-keyboard-response","9","113876","0.0-6.0-2.1","63f791692fa22034babcdda1","bdp_sd","Sat Mar 25 2023 20:00:19 GMT-0400 (Eastern Daylight Time)","169044","","1818","","","","","offer","","<div class='trialBorder'><div class='vertical-center'><img style='vertical-align:center; align:center' src=img/fixation3.jpg></div><div class='cl'><div class='vertical-center'>$47<br>for<br>yourself</div></div><div class='cr'><div class='vertical-center'>$50<br>for<br>Sarah C</div></div><div class='respDivL'><div class='vertical-center'>(E)</div></div><div class='respDivR'><div class='vertical-center'>(I)</div></div></div>","E","$47<br>for<br>yourself","$50<br>for<br>5","0","47","50","5","SELF"
"html-keyboard-response","10","114129","0.0-6.0-3.1","63f791692fa22034babcdda1","bdp_sd","Sat Mar 25 2023 20:00:19 GMT-0400 (Eastern Daylight Time)","169044","","null","","","","","offerFB","","<div class='trialBorder'><div class='vertical-center'><img style='vertical-align:center; align:center' src=img/fixation3.jpg></div><div class='cl'><div class='vertical-center'><font style='color:orange'>$47<br>for<br>yourself</font></div></div><div class='cr'><div class='vertical-center'>$50<br>for<br>Sarah C</div></div><div class='respDivL'><div class='vertical-center'><font style='color:orange'>(E)</font></div></div><div class='respDivR'><div class='vertical-center'>(I)</div></div></div>","null","$47<br>for<br>yourself","$50<br>for<br>5","0","47","50","5",""
"html-keyboard-response","11","114632","0.0-6.0-1.2","63f791692fa22034babcdda1","bdp_sd","Sat Mar 25 2023 20:00:19 GMT-0400 (Eastern Daylight Time)","169044","","null","","","","","FIX","","<div class='trialBorder'><div class='vertical-center'><img style='vertical-align:center; align:center' src=img/fixation3.jpg></div></div>","null","","","","","","",""
"html-keyboard-response","12","116453","0.0-6.0-2.2","63f791692fa22034babcdda1","bdp_sd","Sat Mar 25 2023 20:00:19 GMT-0400 (Eastern Daylight Time)","169044","","1818","","","","","offer","","<div class='trialBorder'><div class='vertical-center'><img style='vertical-align:center; align:center' src=img/fixation3.jpg></div><div class='cl'><div class='vertical-center'>$25<br>for<br>yourself</div></div><div class='cr'><div class='vertical-center'>$60<br>for<br>Sammy C</div></div><div class='respDivL'><div class='vertical-center'>(E)</div></div><div class='respDivR'><div class='vertical-center'>(I)</div></div></div>","I","$25<br>for<br>yourself","$60<br>for<br>3","0","25","60","3","OTHER"
"html-keyboard-response","13","116706","0.0-6.0-3.2","63f791692fa22034babcdda1","bdp_sd","Sat Mar 25 2023 20:00:19 GMT-0400 (Eastern Daylight Time)","169044","","null","","","","","offerFB","","<div class='trialBorder'><div class='vertical-center'><img style='vertical-align:center; align:center' src=img/fixation3.jpg></div><div class='cl'><div class='vertical-center'>$25<br>for<br>yourself</div></div><div class='cr'><div class='vertical-center'><font style='color:orange'>$60<br>for<br>Sammy C</font></div></div><div class='respDivL'><div class='vertical-center'>(E)</div></div><div class='respDivR'><div class='vertical-center'><font style='color:orange'>(I)</font></div></div></div>","null","$25<br>for<br>yourself","$60<br>for<br>3","0","25","60","3",""
"html-keyboard-response","14","117208","0.0-6.0-1.3","63f791692fa22034babcdda1","bdp_sd","Sat Mar 25 2023 20:00:19 GMT-0400 (Eastern Daylight Time)","169044","","null","","","","","FIX","","<div class='trialBorder'><div class='vertical-center'><img style='vertical-align:center; align:center' src=img/fixation3.jpg></div></div>","null","","","","","","",""
"html-keyboard-response","15","118877","0.0-6.0-2.3","63f791692fa22034babcdda1","bdp_sd","Sat Mar 25 2023 20:00:19 GMT-0400 (Eastern Daylight Time)","169044","","1667","","","","","offer","","<div class='trialBorder'><div class='vertical-center'><img style='vertical-align:center; align:center' src=img/fixation3.jpg></div><div class='cl'><div class='vertical-center'>$35<br>for<br>Sammy C</div></div><div class='cr'><div class='vertical-center'>$24<br>for<br>yourself</div></div><div class='respDivL'><div class='vertical-center'>(E)</div></div><div class='respDivR'><div class='vertical-center'>(I)</div></div></div>","E","$24<br>for<br>yourself","$35<br>for<br>3","1","24","35","3","OTHER"
"html-keyboard-response","16","119129","0.0-6.0-3.3","63f791692fa22034babcdda1","bdp_sd","Sat Mar 25 2023 20:00:19 GMT-0400 (Eastern Daylight Time)","169044","","null","","","","","offerFB","","<div class='trialBorder'><div class='vertical-center'><img style='vertical-align:center; align:center' src=img/fixation3.jpg></div><div class='cl'><div class='vertical-center'><font style='color:orange'>$35<br>for<br>Sammy C</font></div></div><div class='cr'><div class='vertical-center'>$24<br>for<br>yourself</div></div><div class='respDivL'><div class='vertical-center'><font style='color:orange'>(E)</font></div></div><div class='respDivR'><div class='vertical-center'>(I)</div></div></div>","null","$24<br>for<br>yourself","$35<br>for<br>3","1","24","35","3",""
"html-keyboard-response","17","119631","0.0-6.0-1.4","63f791692fa22034babcdda1","bdp_sd","Sat Mar 25 2023 20:00:19 GMT-0400 (Eastern Daylight Time)","169044","","null","","","","","FIX","","<div class='trialBorder'><div class='vertical-center'><img style='vertical-align:center; align:center' src=img/fixation3.jpg></div></div>","null","","","","","","",""
"html-keyboard-response","18","121861","0.0-6.0-2.4","63f791692fa22034babcdda1","bdp_sd","Sat Mar 25 2023 20:00:19 GMT-0400 (Eastern Daylight Time)","169044","","2227","","","","","offer","","<div class='trialBorder'><div class='vertical-center'><img style='vertical-align:center; align:center' src=img/fixation3.jpg></div><div class='cl'><div class='vertical-center'>$80<br>for<br>Sarah C</div></div><div class='cr'><div class='vertical-center'>$78<br>for<br>yourself</div></div><div class='respDivL'><div class='vertical-center'>(E)</div></div><div class='respDivR'><div class='vertical-center'>(I)</div></div></div>","I","$78<br>for<br>yourself","$80<br>for<br>5","1","78","80","5","SELF"
"html-keyboard-response","19","122113","0.0-6.0-3.4","63f791692fa22034babcdda1","bdp_sd","Sat Mar 25 2023 20:00:19 GMT-0400 (Eastern Daylight Time)","169044","","null","","","","","offerFB","","<div class='trialBorder'><div class='vertical-center'><img style='vertical-align:center; align:center' src=img/fixation3.jpg></div><div class='cl'><div class='vertical-center'>$80<br>for<br>Sarah C</div></div><div class='cr'><div class='vertical-center'><font style='color:orange'>$78<br>for<br>yourself</font></div></div><div class='respDivL'><div class='vertical-center'>(E)</div></div><div class='respDivR'><div class='vertical-center'><font style='color:orange'>(I)</font></div></div></div>","null","$78<br>for<br>yourself","$80<br>for<br>5","1","78","80","5",""
"html-keyboard-response","20","122616","0.0-6.0-1.5","63f791692fa22034babcdda1","bdp_sd","Sat Mar 25 2023 20:00:19 GMT-0400 (Eastern Daylight Time)","169044","","null","","","","","FIX","","<div class='trialBorder'><div class='vertical-center'><img style='vertical-align:center; align:center' src=img/fixation3.jpg></div></div>","null","","","","","","",""
"html-keyboard-response","21","125260","0.0-6.0-2.5","63f791692fa22034babcdda1","bdp_sd","Sat Mar 25 2023 20:00:19 GMT-0400 (Eastern Daylight Time)","169044","","2642","","","","","offer","","<div class='trialBorder'><div class='vertical-center'><img style='vertical-align:center; align:center' src=img/fixation3.jpg></div><div class='cl'><div class='vertical-center'>$30<br>for<br>Bill A</div></div><div class='cr'><div class='vertical-center'>$11<br>for<br>yourself</div></div><div class='respDivL'><div class='vertical-center'>(E)</div></div><div class='respDivR'><div class='vertical-center'>(I)</div></div></div>","E","$11<br>for<br>yourself","$30<br>for<br>2","1","11","30","2","OTHER"
"html-keyboard-response","22","125513","0.0-6.0-3.5","63f791692fa22034babcdda1","bdp_sd","Sat Mar 25 2023 20:00:19 GMT-0400 (Eastern Daylight Time)","169044","","null","","","","","offerFB","","<div class='trialBorder'><div class='vertical-center'><img style='vertical-align:center; align:center' src=img/fixation3.jpg></div><div class='cl'><div class='vertical-center'><font style='color:orange'>$30<br>for<br>Bill A</font></div></div><div class='cr'><div class='vertical-center'>$11<br>for<br>yourself</div></div><div class='respDivL'><div class='vertical-center'><font style='color:orange'>(E)</font></div></div><div class='respDivR'><div class='vertical-center'>(I)</div></div></div>","null","$11<br>for<br>yourself","$30<br>for<br>2","1","11","30","2",""
"html-keyboard-response","23","126016","0.0-6.0-1.6","63f791692fa22034babcdda1","bdp_sd","Sat Mar 25 2023 20:00:19 GMT-0400 (Eastern Daylight Time)","169044","","null","","","","","FIX","","<div class='trialBorder'><div class='vertical-center'><img style='vertical-align:center; align:center' src=img/fixation3.jpg></div></div>","null","","","","","","",""
"html-keyboard-response","24","128733","0.0-6.0-2.6","63f791692fa22034babcdda1","bdp_sd","Sat Mar 25 2023 20:00:19 GMT-0400 (Eastern Daylight Time)","169044","","2715","","","","","offer","","<div class='trialBorder'><div class='vertical-center'><img style='vertical-align:center; align:center' src=img/fixation3.jpg></div><div class='cl'><div class='vertical-center'>$34<br>for<br>yourself</div></div><div class='cr'><div class='vertical-center'>$50<br>for<br>Paula B</div></div><div class='respDivL'><div class='vertical-center'>(E)</div></div><div class='respDivR'><div class='vertical-center'>(I)</div></div></div>","I","$34<br>for<br>yourself","$50<br>for<br>4","0","34","50","4","OTHER"
"html-keyboard-response","25","128987","0.0-6.0-3.6","63f791692fa22034babcdda1","bdp_sd","Sat Mar 25 2023 20:00:19 GMT-0400 (Eastern Daylight Time)","169044","","null","","","","","offerFB","","<div class='trialBorder'><div class='vertical-center'><img style='vertical-align:center; align:center' src=img/fixation3.jpg></div><div class='cl'><div class='vertical-center'>$34<br>for<br>yourself</div></div><div class='cr'><div class='vertical-center'><font style='color:orange'>$50<br>for<br>Paula B</font></div></div><div class='respDivL'><div class='vertical-center'>(E)</div></div><div class='respDivR'><div class='vertical-center'><font style='color:orange'>(I)</font></div></div></div>","null","$34<br>for<br>yourself","$50<br>for<br>4","0","34","50","4",""
"html-keyboard-response","26","129489","0.0-6.0-1.7","63f791692fa22034babcdda1","bdp_sd","Sat Mar 25 2023 20:00:19 GMT-0400 (Eastern Daylight Time)","169044","","null","","","","","FIX","","<div class='trialBorder'><div class='vertical-center'><img style='vertical-align:center; align:center' src=img/fixation3.jpg></div></div>","null","","","","","","",""
"html-keyboard-response","27","131137","0.0-6.0-2.7","63f791692fa22034babcdda1","bdp_sd","Sat Mar 25 2023 20:00:19 GMT-0400 (Eastern Daylight Time)","169044","","1645","","","","","offer","","<div class='trialBorder'><div class='vertical-center'><img style='vertical-align:center; align:center' src=img/fixation3.jpg></div><div class='cl'><div class='vertical-center'>$80<br>for<br>yourself</div></div><div class='cr'><div class='vertical-center'>$85<br>for<br>Sarah C</div></div><div class='respDivL'><div class='vertical-center'>(E)</div></div><div class='respDivR'><div class='vertical-center'>(I)</div></div></div>","I","$80<br>for<br>yourself","$85<br>for<br>5","0","80","85","5","OTHER"
"html-keyboard-response","28","131389","0.0-6.0-3.7","63f791692fa22034babcdda1","bdp_sd","Sat Mar 25 2023 20:00:19 GMT-0400 (Eastern Daylight Time)","169044","","null","","","","","offerFB","","<div class='trialBorder'><div class='vertical-center'><img style='vertical-align:center; align:center' src=img/fixation3.jpg></div><div class='cl'><div class='vertical-center'>$80<br>for<br>yourself</div></div><div class='cr'><div class='vertical-center'><font style='color:orange'>$85<br>for<br>Sarah C</font></div></div><div class='respDivL'><div class='vertical-center'>(E)</div></div><div class='respDivR'><div class='vertical-center'><font style='color:orange'>(I)</font></div></div></div>","null","$80<br>for<br>yourself","$85<br>for<br>5","0","80","85","5",""
"html-keyboard-response","29","131891","0.0-6.0-1.8","63f791692fa22034babcdda1","bdp_sd","Sat Mar 25 2023 20:00:19 GMT-0400 (Eastern Daylight Time)","169044","","null","","","","","FIX","","<div class='trialBorder'><div class='vertical-center'><img style='vertical-align:center; align:center' src=img/fixation3.jpg></div></div>","null","","","","","","",""
"html-keyboard-response","30","134939","0.0-6.0-2.8","63f791692fa22034babcdda1","bdp_sd","Sat Mar 25 2023 20:00:19 GMT-0400 (Eastern Daylight Time)","169044","","3045","","","","","offer","","<div class='trialBorder'><div class='vertical-center'><img style='vertical-align:center; align:center' src=img/fixation3.jpg></div><div class='cl'><div class='vertical-center'>$30<br>for<br>Sarah C</div></div><div class='cr'><div class='vertical-center'>$28<br>for<br>yourself</div></div><div class='respDivL'><div class='vertical-center'>(E)</div></div><div class='respDivR'><div class='vertical-center'>(I)</div></div></div>","E","$28<br>for<br>yourself","$30<br>for<br>5","1","28","30","5","OTHER"
"html-keyboard-response","31","135191","0.0-6.0-3.8","63f791692fa22034babcdda1","bdp_sd","Sat Mar 25 2023 20:00:19 GMT-0400 (Eastern Daylight Time)","169044","","null","","","","","offerFB","","<div class='trialBorder'><div class='vertical-center'><img style='vertical-align:center; align:center' src=img/fixation3.jpg></div><div class='cl'><div class='vertical-center'><font style='color:orange'>$30<br>for<br>Sarah C</font></div></div><div class='cr'><div class='vertical-center'>$28<br>for<br>yourself</div></div><div class='respDivL'><div class='vertical-center'><font style='color:orange'>(E)</font></div></div><div class='respDivR'><div class='vertical-center'>(I)</div></div></div>","null","$28<br>for<br>yourself","$30<br>for<br>5","1","28","30","5",""
"html-keyboard-response","32","135694","0.0-6.0-1.9","63f791692fa22034babcdda1","bdp_sd","Sat Mar 25 2023 20:00:19 GMT-0400 (Eastern Daylight Time)","169044","","null","","","","","FIX","","<div class='trialBorder'><div class='vertical-center'><img style='vertical-align:center; align:center' src=img/fixation3.jpg></div></div>","null","","","","","","",""
"html-keyboard-response","33","137716","0.0-6.0-2.9","63f791692fa22034babcdda1","bdp_sd","Sat Mar 25 2023 20:00:19 GMT-0400 (Eastern Daylight Time)","169044","","2019","","","","","offer","","<div class='trialBorder'><div class='vertical-center'><img style='vertical-align:center; align:center' src=img/fixation3.jpg></div><div class='cl'><div class='vertical-center'>$67<br>for<br>yourself</div></div><div class='cr'><div class='vertical-center'>$75<br>for<br>Sarah C</div></div><div class='respDivL'><div class='vertical-center'>(E)</div></div><div class='respDivR'><div class='vertical-center'>(I)</div></div></div>","E","$67<br>for<br>yourself","$75<br>for<br>5","0","67","75","5","SELF"
"html-keyboard-response","34","137967","0.0-6.0-3.9","63f791692fa22034babcdda1","bdp_sd","Sat Mar 25 2023 20:00:19 GMT-0400 (Eastern Daylight Time)","169044","","null","","","","","offerFB","","<div class='trialBorder'><div class='vertical-center'><img style='vertical-align:center; align:center' src=img/fixation3.jpg></div><div class='cl'><div class='vertical-center'><font style='color:orange'>$67<br>for<br>yourself</font></div></div><div class='cr'><div class='vertical-center'>$75<br>for<br>Sarah C</div></div><div class='respDivL'><div class='vertical-center'><font style='color:orange'>(E)</font></div></div><div class='respDivR'><div class='vertical-center'>(I)</div></div></div>","null","$67<br>for<br>yourself","$75<br>for<br>5","0","67","75","5",""
"html-keyboard-response","35","138469","0.0-6.0-1.10","63f791692fa22034babcdda1","bdp_sd","Sat Mar 25 2023 20:00:19 GMT-0400 (Eastern Daylight Time)","169044","","null","","","","","FIX","","<div class='trialBorder'><div class='vertical-center'><img style='vertical-align:center; align:center' src=img/fixation3.jpg></div></div>","null","","","","","","",""
"html-keyboard-response","36","139356","0.0-6.0-2.10","63f791692fa22034babcdda1","bdp_sd","Sat Mar 25 2023 20:00:19 GMT-0400 (Eastern Daylight Time)","169044","","885","","","","","offer","","<div class='trialBorder'><div class='vertical-center'><img style='vertical-align:center; align:center' src=img/fixation3.jpg></div><div class='cl'><div class='vertical-center'>$55<br>for<br>Tommy H</div></div><div class='cr'><div class='vertical-center'>$20<br>for<br>yourself</div></div><div class='respDivL'><div class='vertical-center'>(E)</div></div><div class='respDivR'><div class='vertical-center'>(I)</div></div></div>","E","$20<br>for<br>yourself","$55<br>for<br>1","1","20","55","1","OTHER"
"html-keyboard-response","37","139609","0.0-6.0-3.10","63f791692fa22034babcdda1","bdp_sd","Sat Mar 25 2023 20:00:19 GMT-0400 (Eastern Daylight Time)","169044","","null","","","","","offerFB","","<div class='trialBorder'><div class='vertical-center'><img style='vertical-align:center; align:center' src=img/fixation3.jpg></div><div class='cl'><div class='vertical-center'><font style='color:orange'>$55<br>for<br>Tommy H</font></div></div><div class='cr'><div class='vertical-center'>$20<br>for<br>yourself</div></div><div class='respDivL'><div class='vertical-center'><font style='color:orange'>(E)</font></div></div><div class='respDivR'><div class='vertical-center'>(I)</div></div></div>","null","$20<br>for<br>yourself","$55<br>for<br>1","1","20","55","1",""
"html-keyboard-response","38","140112","0.0-6.0-1.11","63f791692fa22034babcdda1","bdp_sd","Sat Mar 25 2023 20:00:19 GMT-0400 (Eastern Daylight Time)","169044","","null","","","","","FIX","","<div class='trialBorder'><div class='vertical-center'><img style='vertical-align:center; align:center' src=img/fixation3.jpg></div></div>","null","","","","","","",""
"html-keyboard-response","39","141312","0.0-6.0-2.11","63f791692fa22034babcdda1","bdp_sd","Sat Mar 25 2023 20:00:19 GMT-0400 (Eastern Daylight Time)","169044","","1198","","","","","offer","","<div class='trialBorder'><div class='vertical-center'><img style='vertical-align:center; align:center' src=img/fixation3.jpg></div><div class='cl'><div class='vertical-center'>$25<br>for<br>Sarah C</div></div><div class='cr'><div class='vertical-center'>$22<br>for<br>yourself</div></div><div class='respDivL'><div class='vertical-center'>(E)</div></div><div class='respDivR'><div class='vertical-center'>(I)</div></div></div>","E","$22<br>for<br>yourself","$25<br>for<br>5","1","22","25","5","OTHER"
"html-keyboard-response","40","141563","0.0-6.0-3.11","63f791692fa22034babcdda1","bdp_sd","Sat Mar 25 2023 20:00:19 GMT-0400 (Eastern Daylight Time)","169044","","null","","","","","offerFB","","<div class='trialBorder'><div class='vertical-center'><img style='vertical-align:center; align:center' src=img/fixation3.jpg></div><div class='cl'><div class='vertical-center'><font style='color:orange'>$25<br>for<br>Sarah C</font></div></div><div class='cr'><div class='vertical-center'>$22<br>for<br>yourself</div></div><div class='respDivL'><div class='vertical-center'><font style='color:orange'>(E)</font></div></div><div class='respDivR'><div class='vertical-center'>(I)</div></div></div>","null","$22<br>for<br>yourself","$25<br>for<br>5","1","22","25","5",""
"html-keyboard-response","41","142065","0.0-6.0-1.12","63f791692fa22034babcdda1","bdp_sd","Sat Mar 25 2023 20:00:19 GMT-0400 (Eastern Daylight Time)","169044","","null","","","","","FIX","","<div class='trialBorder'><div class='vertical-center'><img style='vertical-align:center; align:center' src=img/fixation3.jpg></div></div>","null","","","","","","",""
"html-keyboard-response","42","144500","0.0-6.0-2.12","63f791692fa22034babcdda1","bdp_sd","Sat Mar 25 2023 20:00:19 GMT-0400 (Eastern Daylight Time)","169044","","2432","","","","","offer","","<div class='trialBorder'><div class='vertical-center'><img style='vertical-align:center; align:center' src=img/fixation3.jpg></div><div class='cl'><div class='vertical-center'>$54<br>for<br>yourself</div></div><div class='cr'><div class='vertical-center'>$80<br>for<br>Sammy C</div></div><div class='respDivL'><div class='vertical-center'>(E)</div></div><div class='respDivR'><div class='vertical-center'>(I)</div></div></div>","I","$54<br>for<br>yourself","$80<br>for<br>3","0","54","80","3","OTHER"
"html-keyboard-response","43","144752","0.0-6.0-3.12","63f791692fa22034babcdda1","bdp_sd","Sat Mar 25 2023 20:00:19 GMT-0400 (Eastern Daylight Time)","169044","","null","","","","","offerFB","","<div class='trialBorder'><div class='vertical-center'><img style='vertical-align:center; align:center' src=img/fixation3.jpg></div><div class='cl'><div class='vertical-center'>$54<br>for<br>yourself</div></div><div class='cr'><div class='vertical-center'><font style='color:orange'>$80<br>for<br>Sammy C</font></div></div><div class='respDivL'><div class='vertical-center'>(E)</div></div><div class='respDivR'><div class='vertical-center'><font style='color:orange'>(I)</font></div></div></div>","null","$54<br>for<br>yourself","$80<br>for<br>3","0","54","80","3",""
"html-keyboard-response","44","145253","0.0-6.0-1.13","63f791692fa22034babcdda1","bdp_sd","Sat Mar 25 2023 20:00:19 GMT-0400 (Eastern Daylight Time)","169044","","null","","","","","FIX","","<div class='trialBorder'><div class='vertical-center'><img style='vertical-align:center; align:center' src=img/fixation3.jpg></div></div>","null","","","","","","",""
"html-keyboard-response","45","146164","0.0-6.0-2.13","63f791692fa22034babcdda1","bdp_sd","Sat Mar 25 2023 20:00:19 GMT-0400 (Eastern Daylight Time)","169044","","909","","","","","offer","","<div class='trialBorder'><div class='vertical-center'><img style='vertical-align:center; align:center' src=img/fixation3.jpg></div><div class='cl'><div class='vertical-center'>$50<br>for<br>Sammy C</div></div><div class='cr'><div class='vertical-center'>$27<br>for<br>yourself</div></div><div class='respDivL'><div class='vertical-center'>(E)</div></div><div class='respDivR'><div class='vertical-center'>(I)</div></div></div>","E","$27<br>for<br>yourself","$50<br>for<br>3","1","27","50","3","OTHER"
"html-keyboard-response","46","146417","0.0-6.0-3.13","63f791692fa22034babcdda1","bdp_sd","Sat Mar 25 2023 20:00:19 GMT-0400 (Eastern Daylight Time)","169044","","null","","","","","offerFB","","<div class='trialBorder'><div class='vertical-center'><img style='vertical-align:center; align:center' src=img/fixation3.jpg></div><div class='cl'><div class='vertical-center'><font style='color:orange'>$50<br>for<br>Sammy C</font></div></div><div class='cr'><div class='vertical-center'>$27<br>for<br>yourself</div></div><div class='respDivL'><div class='vertical-center'><font style='color:orange'>(E)</font></div></div><div class='respDivR'><div class='vertical-center'>(I)</div></div></div>","null","$27<br>for<br>yourself","$50<br>for<br>3","1","27","50","3",""
"html-keyboard-response","47","146919","0.0-6.0-1.14","63f791692fa22034babcdda1","bdp_sd","Sat Mar 25 2023 20:00:19 GMT-0400 (Eastern Daylight Time)","169044","","null","","","","","FIX","","<div class='trialBorder'><div class='vertical-center'><img style='vertical-align:center; align:center' src=img/fixation3.jpg></div></div>","null","","","","","","",""
"html-keyboard-response","48","147676","0.0-6.0-2.14","63f791692fa22034babcdda1","bdp_sd","Sat Mar 25 2023 20:00:19 GMT-0400 (Eastern Daylight Time)","169044","","756","","","","","offer","","<div class='trialBorder'><div class='vertical-center'><img style='vertical-align:center; align:center' src=img/fixation3.jpg></div><div class='cl'><div class='vertical-center'>$85<br>for<br>Paula B</div></div><div class='cr'><div class='vertical-center'>$69<br>for<br>yourself</div></div><div class='respDivL'><div class='vertical-center'>(E)</div></div><div class='respDivR'><div class='vertical-center'>(I)</div></div></div>","E","$69<br>for<br>yourself","$85<br>for<br>4","1","69","85","4","OTHER"
"html-keyboard-response","49","147929","0.0-6.0-3.14","63f791692fa22034babcdda1","bdp_sd","Sat Mar 25 2023 20:00:19 GMT-0400 (Eastern Daylight Time)","169044","","null","","","","","offerFB","","<div class='trialBorder'><div class='vertical-center'><img style='vertical-align:center; align:center' src=img/fixation3.jpg></div><div class='cl'><div class='vertical-center'><font style='color:orange'>$85<br>for<br>Paula B</font></div></div><div class='cr'><div class='vertical-center'>$69<br>for<br>yourself</div></div><div class='respDivL'><div class='vertical-center'><font style='color:orange'>(E)</font></div></div><div class='respDivR'><div class='vertical-center'>(I)</div></div></div>","null","$69<br>for<br>yourself","$85<br>for<br>4","1","69","85","4",""
"html-keyboard-response","50","148431","0.0-6.0-1.15","63f791692fa22034babcdda1","bdp_sd","Sat Mar 25 2023 20:00:19 GMT-0400 (Eastern Daylight Time)","169044","","null","","","","","FIX","","<div class='trialBorder'><div class='vertical-center'><img style='vertical-align:center; align:center' src=img/fixation3.jpg></div></div>","null","","","","","","",""
"html-keyboard-response","51","149492","0.0-6.0-2.15","63f791692fa22034babcdda1","bdp_sd","Sat Mar 25 2023 20:00:19 GMT-0400 (Eastern Daylight Time)","169044","","1059","","","","","offer","","<div class='trialBorder'><div class='vertical-center'><img style='vertical-align:center; align:center' src=img/fixation3.jpg></div><div class='cl'><div class='vertical-center'>$55<br>for<br>Sarah C</div></div><div class='cr'><div class='vertical-center'>$54<br>for<br>yourself</div></div><div class='respDivL'><div class='vertical-center'>(E)</div></div><div class='respDivR'><div class='vertical-center'>(I)</div></div></div>","I","$54<br>for<br>yourself","$55<br>for<br>5","1","54","55","5","SELF"
"html-keyboard-response","52","149745","0.0-6.0-3.15","63f791692fa22034babcdda1","bdp_sd","Sat Mar 25 2023 20:00:19 GMT-0400 (Eastern Daylight Time)","169044","","null","","","","","offerFB","","<div class='trialBorder'><div class='vertical-center'><img style='vertical-align:center; align:center' src=img/fixation3.jpg></div><div class='cl'><div class='vertical-center'>$55<br>for<br>Sarah C</div></div><div class='cr'><div class='vertical-center'><font style='color:orange'>$54<br>for<br>yourself</font></div></div><div class='respDivL'><div class='vertical-center'>(E)</div></div><div class='respDivR'><div class='vertical-center'><font style='color:orange'>(I)</font></div></div></div>","null","$54<br>for<br>yourself","$55<br>for<br>5","1","54","55","5",""
"html-keyboard-response","53","150246","0.0-6.0-1.16","63f791692fa22034babcdda1","bdp_sd","Sat Mar 25 2023 20:00:19 GMT-0400 (Eastern Daylight Time)","169044","","null","","","","","FIX","","<div class='trialBorder'><div class='vertical-center'><img style='vertical-align:center; align:center' src=img/fixation3.jpg></div></div>","null","","","","","","",""
"html-keyboard-response","54","151440","0.0-6.0-2.16","63f791692fa22034babcdda1","bdp_sd","Sat Mar 25 2023 20:00:19 GMT-0400 (Eastern Daylight Time)","169044","","1192","","","","","offer","","<div class='trialBorder'><div class='vertical-center'><img style='vertical-align:center; align:center' src=img/fixation3.jpg></div><div class='cl'><div class='vertical-center'>$25<br>for<br>yourself</div></div><div class='cr'><div class='vertical-center'>$30<br>for<br>Paula B</div></div><div class='respDivL'><div class='vertical-center'>(E)</div></div><div class='respDivR'><div class='vertical-center'>(I)</div></div></div>","I","$25<br>for<br>yourself","$30<br>for<br>4","0","25","30","4","OTHER"
"html-keyboard-response","55","151692","0.0-6.0-3.16","63f791692fa22034babcdda1","bdp_sd","Sat Mar 25 2023 20:00:19 GMT-0400 (Eastern Daylight Time)","169044","","null","","","","","offerFB","","<div class='trialBorder'><div class='vertical-center'><img style='vertical-align:center; align:center' src=img/fixation3.jpg></div><div class='cl'><div class='vertical-center'>$25<br>for<br>yourself</div></div><div class='cr'><div class='vertical-center'><font style='color:orange'>$30<br>for<br>Paula B</font></div></div><div class='respDivL'><div class='vertical-center'>(E)</div></div><div class='respDivR'><div class='vertical-center'><font style='color:orange'>(I)</font></div></div></div>","null","$25<br>for<br>yourself","$30<br>for<br>4","0","25","30","4",""
"html-keyboard-response","56","152195","0.0-6.0-1.17","63f791692fa22034babcdda1","bdp_sd","Sat Mar 25 2023 20:00:19 GMT-0400 (Eastern Daylight Time)","169044","","null","","","","","FIX","","<div class='trialBorder'><div class='vertical-center'><img style='vertical-align:center; align:center' src=img/fixation3.jpg></div></div>","null","","","","","","",""
"html-keyboard-response","57","153148","0.0-6.0-2.17","63f791692fa22034babcdda1","bdp_sd","Sat Mar 25 2023 20:00:19 GMT-0400 (Eastern Daylight Time)","169044","","952","","","","","offer","","<div class='trialBorder'><div class='vertical-center'><img style='vertical-align:center; align:center' src=img/fixation3.jpg></div><div class='cl'><div class='vertical-center'>$80<br>for<br>Bill A</div></div><div class='cr'><div class='vertical-center'>$33<br>for<br>yourself</div></div><div class='respDivL'><div class='vertical-center'>(E)</div></div><div class='respDivR'><div class='vertical-center'>(I)</div></div></div>","E","$33<br>for<br>yourself","$80<br>for<br>2","1","33","80","2","OTHER"
"html-keyboard-response","58","153401","0.0-6.0-3.17","63f791692fa22034babcdda1","bdp_sd","Sat Mar 25 2023 20:00:19 GMT-0400 (Eastern Daylight Time)","169044","","null","","","","","offerFB","","<div class='trialBorder'><div class='vertical-center'><img style='vertical-align:center; align:center' src=img/fixation3.jpg></div><div class='cl'><div class='vertical-center'><font style='color:orange'>$80<br>for<br>Bill A</font></div></div><div class='cr'><div class='vertical-center'>$33<br>for<br>yourself</div></div><div class='respDivL'><div class='vertical-center'><font style='color:orange'>(E)</font></div></div><div class='respDivR'><div class='vertical-center'>(I)</div></div></div>","null","$33<br>for<br>yourself","$80<br>for<br>2","1","33","80","2",""
"html-keyboard-response","59","153903","0.0-6.0-1.18","63f791692fa22034babcdda1","bdp_sd","Sat Mar 25 2023 20:00:19 GMT-0400 (Eastern Daylight Time)","169044","","null","","","","","FIX","","<div class='trialBorder'><div class='vertical-center'><img style='vertical-align:center; align:center' src=img/fixation3.jpg></div></div>","null","","","","","","",""
"html-keyboard-response","60","154987","0.0-6.0-2.18","63f791692fa22034babcdda1","bdp_sd","Sat Mar 25 2023 20:00:19 GMT-0400 (Eastern Daylight Time)","169044","","1082","","","","","offer","","<div class='trialBorder'><div class='vertical-center'><img style='vertical-align:center; align:center' src=img/fixation3.jpg></div><div class='cl'><div class='vertical-center'>$41<br>for<br>yourself</div></div><div class='cr'><div class='vertical-center'>$75<br>for<br>Sammy C</div></div><div class='respDivL'><div class='vertical-center'>(E)</div></div><div class='respDivR'><div class='vertical-center'>(I)</div></div></div>","I","$41<br>for<br>yourself","$75<br>for<br>3","0","41","75","3","OTHER"
"html-keyboard-response","61","155239","0.0-6.0-3.18","63f791692fa22034babcdda1","bdp_sd","Sat Mar 25 2023 20:00:19 GMT-0400 (Eastern Daylight Time)","169044","","null","","","","","offerFB","","<div class='trialBorder'><div class='vertical-center'><img style='vertical-align:center; align:center' src=img/fixation3.jpg></div><div class='cl'><div class='vertical-center'>$41<br>for<br>yourself</div></div><div class='cr'><div class='vertical-center'><font style='color:orange'>$75<br>for<br>Sammy C</font></div></div><div class='respDivL'><div class='vertical-center'>(E)</div></div><div class='respDivR'><div class='vertical-center'><font style='color:orange'>(I)</font></div></div></div>","null","$41<br>for<br>yourself","$75<br>for<br>3","0","41","75","3",""
"html-keyboard-response","62","155741","0.0-6.0-1.19","63f791692fa22034babcdda1","bdp_sd","Sat Mar 25 2023 20:00:19 GMT-0400 (Eastern Daylight Time)","169044","","null","","","","","FIX","","<div class='trialBorder'><div class='vertical-center'><img style='vertical-align:center; align:center' src=img/fixation3.jpg></div></div>","null","","","","","","",""
"html-keyboard-response","63","156716","0.0-6.0-2.19","63f791692fa22034babcdda1","bdp_sd","Sat Mar 25 2023 20:00:19 GMT-0400 (Eastern Daylight Time)","169044","","973","","","","","offer","","<div class='trialBorder'><div class='vertical-center'><img style='vertical-align:center; align:center' src=img/fixation3.jpg></div><div class='cl'><div class='vertical-center'>$40<br>for<br>yourself</div></div><div class='cr'><div class='vertical-center'>$55<br>for<br>Paula B</div></div><div class='respDivL'><div class='vertical-center'>(E)</div></div><div class='respDivR'><div class='vertical-center'>(I)</div></div></div>","I","$40<br>for<br>yourself","$55<br>for<br>4","0","40","55","4","OTHER"
"html-keyboard-response","64","156969","0.0-6.0-3.19","63f791692fa22034babcdda1","bdp_sd","Sat Mar 25 2023 20:00:19 GMT-0400 (Eastern Daylight Time)","169044","","null","","","","","offerFB","","<div class='trialBorder'><div class='vertical-center'><img style='vertical-align:center; align:center' src=img/fixation3.jpg></div><div class='cl'><div class='vertical-center'>$40<br>for<br>yourself</div></div><div class='cr'><div class='vertical-center'><font style='color:orange'>$55<br>for<br>Paula B</font></div></div><div class='respDivL'><div class='vertical-center'>(E)</div></div><div class='respDivR'><div class='vertical-center'><font style='color:orange'>(I)</font></div></div></div>","null","$40<br>for<br>yourself","$55<br>for<br>4","0","40","55","4",""
"html-keyboard-response","65","157472","0.0-6.0-1.20","63f791692fa22034babcdda1","bdp_sd","Sat Mar 25 2023 20:00:19 GMT-0400 (Eastern Daylight Time)","169044","","null","","","","","FIX","","<div class='trialBorder'><div class='vertical-center'><img style='vertical-align:center; align:center' src=img/fixation3.jpg></div></div>","null","","","","","","",""
"html-keyboard-response","66","158731","0.0-6.0-2.20","63f791692fa22034babcdda1","bdp_sd","Sat Mar 25 2023 20:00:19 GMT-0400 (Eastern Daylight Time)","169044","","1259","","","","","offer","","<div class='trialBorder'><div class='vertical-center'><img style='vertical-align:center; align:center' src=img/fixation3.jpg></div><div class='cl'><div class='vertical-center'>$35<br>for<br>Sarah C</div></div><div class='cr'><div class='vertical-center'>$34<br>for<br>yourself</div></div><div class='respDivL'><div class='vertical-center'>(E)</div></div><div class='respDivR'><div class='vertical-center'>(I)</div></div></div>","E","$34<br>for<br>yourself","$35<br>for<br>5","1","34","35","5","OTHER"
"html-keyboard-response","67","158983","0.0-6.0-3.20","63f791692fa22034babcdda1","bdp_sd","Sat Mar 25 2023 20:00:19 GMT-0400 (Eastern Daylight Time)","169044","","null","","","","","offerFB","","<div class='trialBorder'><div class='vertical-center'><img style='vertical-align:center; align:center' src=img/fixation3.jpg></div><div class='cl'><div class='vertical-center'><font style='color:orange'>$35<br>for<br>Sarah C</font></div></div><div class='cr'><div class='vertical-center'>$34<br>for<br>yourself</div></div><div class='respDivL'><div class='vertical-center'><font style='color:orange'>(E)</font></div></div><div class='respDivR'><div class='vertical-center'>(I)</div></div></div>","null","$34<br>for<br>yourself","$35<br>for<br>5","1","34","35","5",""
"html-keyboard-response","68","159485","0.0-6.0-1.21","63f791692fa22034babcdda1","bdp_sd","Sat Mar 25 2023 20:00:19 GMT-0400 (Eastern Daylight Time)","169044","","null","","","","","FIX","","<div class='trialBorder'><div class='vertical-center'><img style='vertical-align:center; align:center' src=img/fixation3.jpg></div></div>","null","","","","","","",""
"html-keyboard-response","69","160067","0.0-6.0-2.21","63f791692fa22034babcdda1","bdp_sd","Sat Mar 25 2023 20:00:19 GMT-0400 (Eastern Daylight Time)","169044","","582","","","","","offer","","<div class='trialBorder'><div class='vertical-center'><img style='vertical-align:center; align:center' src=img/fixation3.jpg></div><div class='cl'><div class='vertical-center'>$49<br>for<br>yourself</div></div><div class='cr'><div class='vertical-center'>$60<br>for<br>Paula B</div></div><div class='respDivL'><div class='vertical-center'>(E)</div></div><div class='respDivR'><div class='vertical-center'>(I)</div></div></div>","I","$49<br>for<br>yourself","$60<br>for<br>4","0","49","60","4","OTHER"
"html-keyboard-response","70","160318","0.0-6.0-3.21","63f791692fa22034babcdda1","bdp_sd","Sat Mar 25 2023 20:00:19 GMT-0400 (Eastern Daylight Time)","169044","","null","","","","","offerFB","","<div class='trialBorder'><div class='vertical-center'><img style='vertical-align:center; align:center' src=img/fixation3.jpg></div><div class='cl'><div class='vertical-center'>$49<br>for<br>yourself</div></div><div class='cr'><div class='vertical-center'><font style='color:orange'>$60<br>for<br>Paula B</font></div></div><div class='respDivL'><div class='vertical-center'>(E)</div></div><div class='respDivR'><div class='vertical-center'><font style='color:orange'>(I)</font></div></div></div>","null","$49<br>for<br>yourself","$60<br>for<br>4","0","49","60","4",""
"html-keyboard-response","71","160820","0.0-6.0-1.22","63f791692fa22034babcdda1","bdp_sd","Sat Mar 25 2023 20:00:19 GMT-0400 (Eastern Daylight Time)","169044","","null","","","","","FIX","","<div class='trialBorder'><div class='vertical-center'><img style='vertical-align:center; align:center' src=img/fixation3.jpg></div></div>","null","","","","","","",""
"html-keyboard-response","72","161371","0.0-6.0-2.22","63f791692fa22034babcdda1","bdp_sd","Sat Mar 25 2023 20:00:19 GMT-0400 (Eastern Daylight Time)","169044","","549","","","","","offer","","<div class='trialBorder'><div class='vertical-center'><img style='vertical-align:center; align:center' src=img/fixation3.jpg></div><div class='cl'><div class='vertical-center'>$54<br>for<br>yourself</div></div><div class='cr'><div class='vertical-center'>$60<br>for<br>Sarah C</div></div><div class='respDivL'><div class='vertical-center'>(E)</div></div><div class='respDivR'><div class='vertical-center'>(I)</div></div></div>","E","$54<br>for<br>yourself","$60<br>for<br>5","0","54","60","5","SELF"
"html-keyboard-response","73","161623","0.0-6.0-3.22","63f791692fa22034babcdda1","bdp_sd","Sat Mar 25 2023 20:00:19 GMT-0400 (Eastern Daylight Time)","169044","","null","","","","","offerFB","","<div class='trialBorder'><div class='vertical-center'><img style='vertical-align:center; align:center' src=img/fixation3.jpg></div><div class='cl'><div class='vertical-center'><font style='color:orange'>$54<br>for<br>yourself</font></div></div><div class='cr'><div class='vertical-center'>$60<br>for<br>Sarah C</div></div><div class='respDivL'><div class='vertical-center'><font style='color:orange'>(E)</font></div></div><div class='respDivR'><div class='vertical-center'>(I)</div></div></div>","null","$54<br>for<br>yourself","$60<br>for<br>5","0","54","60","5",""
"html-keyboard-response","74","162124","0.0-6.0-1.23","63f791692fa22034babcdda1","bdp_sd","Sat Mar 25 2023 20:00:19 GMT-0400 (Eastern Daylight Time)","169044","","null","","","","","FIX","","<div class='trialBorder'><div class='vertical-center'><img style='vertical-align:center; align:center' src=img/fixation3.jpg></div></div>","null","","","","","","",""
"html-keyboard-response","75","162941","0.0-6.0-2.23","63f791692fa22034babcdda1","bdp_sd","Sat Mar 25 2023 20:00:19 GMT-0400 (Eastern Daylight Time)","169044","","815","","","","","offer","","<div class='trialBorder'><div class='vertical-center'><img style='vertical-align:center; align:center' src=img/fixation3.jpg></div><div class='cl'><div class='vertical-center'>$25<br>for<br>Paula B</div></div><div class='cr'><div class='vertical-center'>$19<br>for<br>yourself</div></div><div class='respDivL'><div class='vertical-center'>(E)</div></div><div class='respDivR'><div class='vertical-center'>(I)</div></div></div>","I","$19<br>for<br>yourself","$25<br>for<br>4","1","19","25","4","SELF"
"html-keyboard-response","76","163192","0.0-6.0-3.23","63f791692fa22034babcdda1","bdp_sd","Sat Mar 25 2023 20:00:19 GMT-0400 (Eastern Daylight Time)","169044","","null","","","","","offerFB","","<div class='trialBorder'><div class='vertical-center'><img style='vertical-align:center; align:center' src=img/fixation3.jpg></div><div class='cl'><div class='vertical-center'>$25<br>for<br>Paula B</div></div><div class='cr'><div class='vertical-center'><font style='color:orange'>$19<br>for<br>yourself</font></div></div><div class='respDivL'><div class='vertical-center'>(E)</div></div><div class='respDivR'><div class='vertical-center'><font style='color:orange'>(I)</font></div></div></div>","null","$19<br>for<br>yourself","$25<br>for<br>4","1","19","25","4",""
"html-keyboard-response","77","163695","0.0-6.0-1.24","63f791692fa22034babcdda1","bdp_sd","Sat Mar 25 2023 20:00:19 GMT-0400 (Eastern Daylight Time)","169044","","null","","","","","FIX","","<div class='trialBorder'><div class='vertical-center'><img style='vertical-align:center; align:center' src=img/fixation3.jpg></div></div>","null","","","","","","",""
"html-keyboard-response","78","164387","0.0-6.0-2.24","63f791692fa22034babcdda1","bdp_sd","Sat Mar 25 2023 20:00:19 GMT-0400 (Eastern Daylight Time)","169044","","690","","","","","offer","","<div class='trialBorder'><div class='vertical-center'><img style='vertical-align:center; align:center' src=img/fixation3.jpg></div><div class='cl'><div class='vertical-center'>$55<br>for<br>yourself</div></div><div class='cr'><div class='vertical-center'>$75<br>for<br>Paula B</div></div><div class='respDivL'><div class='vertical-center'>(E)</div></div><div class='respDivR'><div class='vertical-center'>(I)</div></div></div>","E","$55<br>for<br>yourself","$75<br>for<br>4","0","55","75","4","SELF"
"html-keyboard-response","79","164639","0.0-6.0-3.24","63f791692fa22034babcdda1","bdp_sd","Sat Mar 25 2023 20:00:19 GMT-0400 (Eastern Daylight Time)","169044","","null","","","","","offerFB","","<div class='trialBorder'><div class='vertical-center'><img style='vertical-align:center; align:center' src=img/fixation3.jpg></div><div class='cl'><div class='vertical-center'><font style='color:orange'>$55<br>for<br>yourself</font></div></div><div class='cr'><div class='vertical-center'>$75<br>for<br>Paula B</div></div><div class='respDivL'><div class='vertical-center'><font style='color:orange'>(E)</font></div></div><div class='respDivR'><div class='vertical-center'>(I)</div></div></div>","null","$55<br>for<br>yourself","$75<br>for<br>4","0","55","75","4",""
"html-keyboard-response","80","165141","0.0-6.0-1.25","63f791692fa22034babcdda1","bdp_sd","Sat Mar 25 2023 20:00:19 GMT-0400 (Eastern Daylight Time)","169044","","null","","","","","FIX","","<div class='trialBorder'><div class='vertical-center'><img style='vertical-align:center; align:center' src=img/fixation3.jpg></div></div>","null","","","","","","",""
"html-keyboard-response","81","166204","0.0-6.0-2.25","63f791692fa22034babcdda1","bdp_sd","Sat Mar 25 2023 20:00:19 GMT-0400 (Eastern Daylight Time)","169044","","1060","","","","","offer","","<div class='trialBorder'><div class='vertical-center'><img style='vertical-align:center; align:center' src=img/fixation3.jpg></div><div class='cl'><div class='vertical-center'>$15<br>for<br>yourself</div></div><div class='cr'><div class='vertical-center'>$35<br>for<br>Bill A</div></div><div class='respDivL'><div class='vertical-center'>(E)</div></div><div class='respDivR'><div class='vertical-center'>(I)</div></div></div>","I","$15<br>for<br>yourself","$35<br>for<br>2","0","15","35","2","OTHER"
"html-keyboard-response","82","166455","0.0-6.0-3.25","63f791692fa22034babcdda1","bdp_sd","Sat Mar 25 2023 20:00:19 GMT-0400 (Eastern Daylight Time)","169044","","null","","","","","offerFB","","<div class='trialBorder'><div class='vertical-center'><img style='vertical-align:center; align:center' src=img/fixation3.jpg></div><div class='cl'><div class='vertical-center'>$15<br>for<br>yourself</div></div><div class='cr'><div class='vertical-center'><font style='color:orange'>$35<br>for<br>Bill A</font></div></div><div class='respDivL'><div class='vertical-center'>(E)</div></div><div class='respDivR'><div class='vertical-center'><font style='color:orange'>(I)</font></div></div></div>","null","$15<br>for<br>yourself","$35<br>for<br>2","0","15","35","2",""
"html-keyboard-response","83","166957","0.0-6.0-1.26","63f791692fa22034babcdda1","bdp_sd","Sat Mar 25 2023 20:00:19 GMT-0400 (Eastern Daylight Time)","169044","","null","","","","","FIX","","<div class='trialBorder'><div class='vertical-center'><img style='vertical-align:center; align:center' src=img/fixation3.jpg></div></div>","null","","","","","","",""
"html-keyboard-response","84","167788","0.0-6.0-2.26","63f791692fa22034babcdda1","bdp_sd","Sat Mar 25 2023 20:00:19 GMT-0400 (Eastern Daylight Time)","169044","","830","","","","","offer","","<div class='trialBorder'><div class='vertical-center'><img style='vertical-align:center; align:center' src=img/fixation3.jpg></div><div class='cl'><div class='vertical-center'>$25<br>for<br>Sammy C</div></div><div class='cr'><div class='vertical-center'>$14<br>for<br>yourself</div></div><div class='respDivL'><div class='vertical-center'>(E)</div></div><div class='respDivR'><div class='vertical-center'>(I)</div></div></div>","E","$14<br>for<br>yourself","$25<br>for<br>3","1","14","25","3","OTHER"
"html-keyboard-response","85","168042","0.0-6.0-3.26","63f791692fa22034babcdda1","bdp_sd","Sat Mar 25 2023 20:00:19 GMT-0400 (Eastern Daylight Time)","169044","","null","","","","","offerFB","","<div class='trialBorder'><div class='vertical-center'><img style='vertical-align:center; align:center' src=img/fixation3.jpg></div><div class='cl'><div class='vertical-center'><font style='color:orange'>$25<br>for<br>Sammy C</font></div></div><div class='cr'><div class='vertical-center'>$14<br>for<br>yourself</div></div><div class='respDivL'><div class='vertical-center'><font style='color:orange'>(E)</font></div></div><div class='respDivR'><div class='vertical-center'>(I)</div></div></div>","null","$14<br>for<br>yourself","$25<br>for<br>3","1","14","25","3",""
"","","","","63f791692fa22034babcdda1","bdp_sd","Sat Mar 25 2023 20:00:19 GMT-0400 (Eastern Daylight Time)","169044","","","","fullscreenexit","86","168078","fullscreenexit","","","","","","","","","",""
"fullscreen","86","169043","0.0-7.0","63f791692fa22034babcdda1","bdp_sd","Sat Mar 25 2023 20:00:19 GMT-0400 (Eastern Daylight Time)","169044","","","","","","","","true","","","","","","","","",""
"html-keyboard-response","87","169544","0.0-8.0","","","","","","null","","","","","","","","null","","","","","","",""
