"trial_type","trial_index","time_elapsed","internal_node_id","subject_id","task","startTime","totalTime","view_history","rt","responses","event","trial","time","trialtype","success","stimulus","key_press","selfOffer","otherOffer","otherLeft","selfAmt","otherAmt","otherDist","chosen"
"pavlovia","0","5","0.0-0.0","sconelab1","bdp_sd","Tue Feb 21 2023 18:56:26 GMT-0500 (Eastern Standard Time)","285688","","","","","","","","","","","","","","","","",""
"instructions","1","2383","0.0-1.0","sconelab1","bdp_sd","Tue Feb 21 2023 18:56:26 GMT-0500 (Eastern Standard Time)","285688","[{""page_index"":0,""viewing_time"":2377}]","2377","","","","","","","","","","","","","","",""
"survey-text","2","168486","0.0-2.0","sconelab1","bdp_sd","Tue Feb 21 2023 18:56:26 GMT-0500 (Eastern Standard Time)","285688","","166100","{""Q0"":""Jose O"",""Q1"":""Ashley E"",""Q2"":""Natalie P"",""Q3"":""Adrian P"",""Q4"":""Amber R""}","","","","","","","","","","","","","",""
"","","","","sconelab1","bdp_sd","Tue Feb 21 2023 18:56:26 GMT-0500 (Eastern Standard Time)","285688","","","","fullscreenenter","3","170722","fullscreenenter","","","","","","","","","",""
"fullscreen","3","171717","0.0-3.0","sconelab1","bdp_sd","Tue Feb 21 2023 18:56:26 GMT-0500 (Eastern Standard Time)","285688","","","","","","","","true","","","","","","","","",""
"instructions","4","211053","0.0-5.0","sconelab1","bdp_sd","Tue Feb 21 2023 18:56:26 GMT-0500 (Eastern Standard Time)","285688","[{""page_index"":0,""viewing_time"":10298},{""page_index"":1,""viewing_time"":19477},{""page_index"":2,""viewing_time"":9558}]","39334","","","","","","","","","","","","","","",""
"html-keyboard-response","5","211563","0.0-6.0-1.0","sconelab1","bdp_sd","Tue Feb 21 2023 18:56:26 GMT-0500 (Eastern Standard Time)","285688","","null","","","","","FIX","","<div class='trialBorder'><div class='vertical-center'><img style='vertical-align:center; align:center' src=img/fixation3.jpg></div></div>","null","","","","","","",""
"html-keyboard-response","6","214247","0.0-6.0-2.0","sconelab1","bdp_sd","Tue Feb 21 2023 18:56:26 GMT-0500 (Eastern Standard Time)","285688","","2680","","","","","offer","","<div class='trialBorder'><div class='vertical-center'><img style='vertical-align:center; align:center' src=img/fixation3.jpg></div><div class='cl'><div class='vertical-center'>$19<br>for<br>yourself</div></div><div class='cr'><div class='vertical-center'>$25<br>for<br>Adrian P</div></div><div class='respDivL'><div class='vertical-center'>(E)</div></div><div class='respDivR'><div class='vertical-center'>(I)</div></div></div>","E","$19<br>for<br>yourself","$25<br>for<br>4","0","19","25","4","SELF"
"html-keyboard-response","7","214505","0.0-6.0-3.0","sconelab1","bdp_sd","Tue Feb 21 2023 18:56:26 GMT-0500 (Eastern Standard Time)","285688","","null","","","","","offer","","<div class='trialBorder'><div class='vertical-center'><img style='vertical-align:center; align:center' src=img/fixation3.jpg></div><div class='cl'><div class='vertical-center'><font style='color:orange'>$19<br>for<br>yourself</font></div></div><div class='cr'><div class='vertical-center'>$25<br>for<br>Adrian P</div></div><div class='respDivL'><div class='vertical-center'><font style='color:orange'>(E)</font></div></div><div class='respDivR'><div class='vertical-center'>(I)</div></div></div>","null","$19<br>for<br>yourself","$25<br>for<br>4","0","19","25","4",""
"html-keyboard-response","8","215009","0.0-6.0-1.1","sconelab1","bdp_sd","Tue Feb 21 2023 18:56:26 GMT-0500 (Eastern Standard Time)","285688","","null","","","","","FIX","","<div class='trialBorder'><div class='vertical-center'><img style='vertical-align:center; align:center' src=img/fixation3.jpg></div></div>","null","","","","","","",""
"html-keyboard-response","9","217519","0.0-6.0-2.1","sconelab1","bdp_sd","Tue Feb 21 2023 18:56:26 GMT-0500 (Eastern Standard Time)","285688","","2507","","","","","offer","","<div class='trialBorder'><div class='vertical-center'><img style='vertical-align:center; align:center' src=img/fixation3.jpg></div><div class='cl'><div class='vertical-center'>$11<br>for<br>yourself</div></div><div class='cr'><div class='vertical-center'>$30<br>for<br>Ashley E</div></div><div class='respDivL'><div class='vertical-center'>(E)</div></div><div class='respDivR'><div class='vertical-center'>(I)</div></div></div>","I","$11<br>for<br>yourself","$30<br>for<br>2","0","11","30","2","OTHER"
"html-keyboard-response","10","217774","0.0-6.0-3.1","sconelab1","bdp_sd","Tue Feb 21 2023 18:56:26 GMT-0500 (Eastern Standard Time)","285688","","null","","","","","offer","","<div class='trialBorder'><div class='vertical-center'><img style='vertical-align:center; align:center' src=img/fixation3.jpg></div><div class='cl'><div class='vertical-center'>$11<br>for<br>yourself</div></div><div class='cr'><div class='vertical-center'><font style='color:orange'>$30<br>for<br>Ashley E</font></div></div><div class='respDivL'><div class='vertical-center'>(E)</div></div><div class='respDivR'><div class='vertical-center'><font style='color:orange'>(I)</font></div></div></div>","null","$11<br>for<br>yourself","$30<br>for<br>2","0","11","30","2",""
"html-keyboard-response","11","218283","0.0-6.0-1.2","sconelab1","bdp_sd","Tue Feb 21 2023 18:56:26 GMT-0500 (Eastern Standard Time)","285688","","null","","","","","FIX","","<div class='trialBorder'><div class='vertical-center'><img style='vertical-align:center; align:center' src=img/fixation3.jpg></div></div>","null","","","","","","",""
"html-keyboard-response","12","219998","0.0-6.0-2.2","sconelab1","bdp_sd","Tue Feb 21 2023 18:56:26 GMT-0500 (Eastern Standard Time)","285688","","1712","","","","","offer","","<div class='trialBorder'><div class='vertical-center'><img style='vertical-align:center; align:center' src=img/fixation3.jpg></div><div class='cl'><div class='vertical-center'>$50<br>for<br>Natalie P</div></div><div class='cr'><div class='vertical-center'>$27<br>for<br>yourself</div></div><div class='respDivL'><div class='vertical-center'>(E)</div></div><div class='respDivR'><div class='vertical-center'>(I)</div></div></div>","E","$27<br>for<br>yourself","$50<br>for<br>3","1","27","50","3","OTHER"
"html-keyboard-response","13","220256","0.0-6.0-3.2","sconelab1","bdp_sd","Tue Feb 21 2023 18:56:26 GMT-0500 (Eastern Standard Time)","285688","","null","","","","","offer","","<div class='trialBorder'><div class='vertical-center'><img style='vertical-align:center; align:center' src=img/fixation3.jpg></div><div class='cl'><div class='vertical-center'><font style='color:orange'>$50<br>for<br>Natalie P</font></div></div><div class='cr'><div class='vertical-center'>$27<br>for<br>yourself</div></div><div class='respDivL'><div class='vertical-center'><font style='color:orange'>(E)</font></div></div><div class='respDivR'><div class='vertical-center'>(I)</div></div></div>","null","$27<br>for<br>yourself","$50<br>for<br>3","1","27","50","3",""
"html-keyboard-response","14","220764","0.0-6.0-1.3","sconelab1","bdp_sd","Tue Feb 21 2023 18:56:26 GMT-0500 (Eastern Standard Time)","285688","","null","","","","","FIX","","<div class='trialBorder'><div class='vertical-center'><img style='vertical-align:center; align:center' src=img/fixation3.jpg></div></div>","null","","","","","","",""
"html-keyboard-response","15","222162","0.0-6.0-2.3","sconelab1","bdp_sd","Tue Feb 21 2023 18:56:26 GMT-0500 (Eastern Standard Time)","285688","","1395","","","","","offer","","<div class='trialBorder'><div class='vertical-center'><img style='vertical-align:center; align:center' src=img/fixation3.jpg></div><div class='cl'><div class='vertical-center'>$47<br>for<br>yourself</div></div><div class='cr'><div class='vertical-center'>$50<br>for<br>Amber R</div></div><div class='respDivL'><div class='vertical-center'>(E)</div></div><div class='respDivR'><div class='vertical-center'>(I)</div></div></div>","E","$47<br>for<br>yourself","$50<br>for<br>5","0","47","50","5","SELF"
"html-keyboard-response","16","222416","0.0-6.0-3.3","sconelab1","bdp_sd","Tue Feb 21 2023 18:56:26 GMT-0500 (Eastern Standard Time)","285688","","null","","","","","offer","","<div class='trialBorder'><div class='vertical-center'><img style='vertical-align:center; align:center' src=img/fixation3.jpg></div><div class='cl'><div class='vertical-center'><font style='color:orange'>$47<br>for<br>yourself</font></div></div><div class='cr'><div class='vertical-center'>$50<br>for<br>Amber R</div></div><div class='respDivL'><div class='vertical-center'><font style='color:orange'>(E)</font></div></div><div class='respDivR'><div class='vertical-center'>(I)</div></div></div>","null","$47<br>for<br>yourself","$50<br>for<br>5","0","47","50","5",""
"html-keyboard-response","17","222921","0.0-6.0-1.4","sconelab1","bdp_sd","Tue Feb 21 2023 18:56:26 GMT-0500 (Eastern Standard Time)","285688","","null","","","","","FIX","","<div class='trialBorder'><div class='vertical-center'><img style='vertical-align:center; align:center' src=img/fixation3.jpg></div></div>","null","","","","","","",""
"html-keyboard-response","18","224424","0.0-6.0-2.4","sconelab1","bdp_sd","Tue Feb 21 2023 18:56:26 GMT-0500 (Eastern Standard Time)","285688","","1499","","","","","offer","","<div class='trialBorder'><div class='vertical-center'><img style='vertical-align:center; align:center' src=img/fixation3.jpg></div><div class='cl'><div class='vertical-center'>$78<br>for<br>yourself</div></div><div class='cr'><div class='vertical-center'>$80<br>for<br>Amber R</div></div><div class='respDivL'><div class='vertical-center'>(E)</div></div><div class='respDivR'><div class='vertical-center'>(I)</div></div></div>","E","$78<br>for<br>yourself","$80<br>for<br>5","0","78","80","5","SELF"
"html-keyboard-response","19","224683","0.0-6.0-3.4","sconelab1","bdp_sd","Tue Feb 21 2023 18:56:26 GMT-0500 (Eastern Standard Time)","285688","","null","","","","","offer","","<div class='trialBorder'><div class='vertical-center'><img style='vertical-align:center; align:center' src=img/fixation3.jpg></div><div class='cl'><div class='vertical-center'><font style='color:orange'>$78<br>for<br>yourself</font></div></div><div class='cr'><div class='vertical-center'>$80<br>for<br>Amber R</div></div><div class='respDivL'><div class='vertical-center'><font style='color:orange'>(E)</font></div></div><div class='respDivR'><div class='vertical-center'>(I)</div></div></div>","null","$78<br>for<br>yourself","$80<br>for<br>5","0","78","80","5",""
"html-keyboard-response","20","225186","0.0-6.0-1.5","sconelab1","bdp_sd","Tue Feb 21 2023 18:56:26 GMT-0500 (Eastern Standard Time)","285688","","null","","","","","FIX","","<div class='trialBorder'><div class='vertical-center'><img style='vertical-align:center; align:center' src=img/fixation3.jpg></div></div>","null","","","","","","",""
"html-keyboard-response","21","227597","0.0-6.0-2.5","sconelab1","bdp_sd","Tue Feb 21 2023 18:56:26 GMT-0500 (Eastern Standard Time)","285688","","2408","","","","","offer","","<div class='trialBorder'><div class='vertical-center'><img style='vertical-align:center; align:center' src=img/fixation3.jpg></div><div class='cl'><div class='vertical-center'>$49<br>for<br>yourself</div></div><div class='cr'><div class='vertical-center'>$60<br>for<br>Adrian P</div></div><div class='respDivL'><div class='vertical-center'>(E)</div></div><div class='respDivR'><div class='vertical-center'>(I)</div></div></div>","E","$49<br>for<br>yourself","$60<br>for<br>4","0","49","60","4","SELF"
"html-keyboard-response","22","227850","0.0-6.0-3.5","sconelab1","bdp_sd","Tue Feb 21 2023 18:56:26 GMT-0500 (Eastern Standard Time)","285688","","null","","","","","offer","","<div class='trialBorder'><div class='vertical-center'><img style='vertical-align:center; align:center' src=img/fixation3.jpg></div><div class='cl'><div class='vertical-center'><font style='color:orange'>$49<br>for<br>yourself</font></div></div><div class='cr'><div class='vertical-center'>$60<br>for<br>Adrian P</div></div><div class='respDivL'><div class='vertical-center'><font style='color:orange'>(E)</font></div></div><div class='respDivR'><div class='vertical-center'>(I)</div></div></div>","null","$49<br>for<br>yourself","$60<br>for<br>4","0","49","60","4",""
"html-keyboard-response","23","228363","0.0-6.0-1.6","sconelab1","bdp_sd","Tue Feb 21 2023 18:56:26 GMT-0500 (Eastern Standard Time)","285688","","null","","","","","FIX","","<div class='trialBorder'><div class='vertical-center'><img style='vertical-align:center; align:center' src=img/fixation3.jpg></div></div>","null","","","","","","",""
"html-keyboard-response","24","230733","0.0-6.0-2.6","sconelab1","bdp_sd","Tue Feb 21 2023 18:56:26 GMT-0500 (Eastern Standard Time)","285688","","2368","","","","","offer","","<div class='trialBorder'><div class='vertical-center'><img style='vertical-align:center; align:center' src=img/fixation3.jpg></div><div class='cl'><div class='vertical-center'>$85<br>for<br>Adrian P</div></div><div class='cr'><div class='vertical-center'>$69<br>for<br>yourself</div></div><div class='respDivL'><div class='vertical-center'>(E)</div></div><div class='respDivR'><div class='vertical-center'>(I)</div></div></div>","I","$69<br>for<br>yourself","$85<br>for<br>4","1","69","85","4","SELF"
"html-keyboard-response","25","230995","0.0-6.0-3.6","sconelab1","bdp_sd","Tue Feb 21 2023 18:56:26 GMT-0500 (Eastern Standard Time)","285688","","null","","","","","offer","","<div class='trialBorder'><div class='vertical-center'><img style='vertical-align:center; align:center' src=img/fixation3.jpg></div><div class='cl'><div class='vertical-center'>$85<br>for<br>Adrian P</div></div><div class='cr'><div class='vertical-center'><font style='color:orange'>$69<br>for<br>yourself</font></div></div><div class='respDivL'><div class='vertical-center'>(E)</div></div><div class='respDivR'><div class='vertical-center'><font style='color:orange'>(I)</font></div></div></div>","null","$69<br>for<br>yourself","$85<br>for<br>4","1","69","85","4",""
"html-keyboard-response","26","231505","0.0-6.0-1.7","sconelab1","bdp_sd","Tue Feb 21 2023 18:56:26 GMT-0500 (Eastern Standard Time)","285688","","null","","","","","FIX","","<div class='trialBorder'><div class='vertical-center'><img style='vertical-align:center; align:center' src=img/fixation3.jpg></div></div>","null","","","","","","",""
"html-keyboard-response","27","232767","0.0-6.0-2.7","sconelab1","bdp_sd","Tue Feb 21 2023 18:56:26 GMT-0500 (Eastern Standard Time)","285688","","1258","","","","","offer","","<div class='trialBorder'><div class='vertical-center'><img style='vertical-align:center; align:center' src=img/fixation3.jpg></div><div class='cl'><div class='vertical-center'>$28<br>for<br>yourself</div></div><div class='cr'><div class='vertical-center'>$30<br>for<br>Amber R</div></div><div class='respDivL'><div class='vertical-center'>(E)</div></div><div class='respDivR'><div class='vertical-center'>(I)</div></div></div>","E","$28<br>for<br>yourself","$30<br>for<br>5","0","28","30","5","SELF"
"html-keyboard-response","28","233025","0.0-6.0-3.7","sconelab1","bdp_sd","Tue Feb 21 2023 18:56:26 GMT-0500 (Eastern Standard Time)","285688","","null","","","","","offer","","<div class='trialBorder'><div class='vertical-center'><img style='vertical-align:center; align:center' src=img/fixation3.jpg></div><div class='cl'><div class='vertical-center'><font style='color:orange'>$28<br>for<br>yourself</font></div></div><div class='cr'><div class='vertical-center'>$30<br>for<br>Amber R</div></div><div class='respDivL'><div class='vertical-center'><font style='color:orange'>(E)</font></div></div><div class='respDivR'><div class='vertical-center'>(I)</div></div></div>","null","$28<br>for<br>yourself","$30<br>for<br>5","0","28","30","5",""
"html-keyboard-response","29","233530","0.0-6.0-1.8","sconelab1","bdp_sd","Tue Feb 21 2023 18:56:26 GMT-0500 (Eastern Standard Time)","285688","","null","","","","","FIX","","<div class='trialBorder'><div class='vertical-center'><img style='vertical-align:center; align:center' src=img/fixation3.jpg></div></div>","null","","","","","","",""
"html-keyboard-response","30","235398","0.0-6.0-2.8","sconelab1","bdp_sd","Tue Feb 21 2023 18:56:26 GMT-0500 (Eastern Standard Time)","285688","","1865","","","","","offer","","<div class='trialBorder'><div class='vertical-center'><img style='vertical-align:center; align:center' src=img/fixation3.jpg></div><div class='cl'><div class='vertical-center'>$85<br>for<br>Jose O</div></div><div class='cr'><div class='vertical-center'>$31<br>for<br>yourself</div></div><div class='respDivL'><div class='vertical-center'>(E)</div></div><div class='respDivR'><div class='vertical-center'>(I)</div></div></div>","E","$31<br>for<br>yourself","$85<br>for<br>1","1","31","85","1","OTHER"
"html-keyboard-response","31","235655","0.0-6.0-3.8","sconelab1","bdp_sd","Tue Feb 21 2023 18:56:26 GMT-0500 (Eastern Standard Time)","285688","","null","","","","","offer","","<div class='trialBorder'><div class='vertical-center'><img style='vertical-align:center; align:center' src=img/fixation3.jpg></div><div class='cl'><div class='vertical-center'><font style='color:orange'>$85<br>for<br>Jose O</font></div></div><div class='cr'><div class='vertical-center'>$31<br>for<br>yourself</div></div><div class='respDivL'><div class='vertical-center'><font style='color:orange'>(E)</font></div></div><div class='respDivR'><div class='vertical-center'>(I)</div></div></div>","null","$31<br>for<br>yourself","$85<br>for<br>1","1","31","85","1",""
"html-keyboard-response","32","236161","0.0-6.0-1.9","sconelab1","bdp_sd","Tue Feb 21 2023 18:56:26 GMT-0500 (Eastern Standard Time)","285688","","null","","","","","FIX","","<div class='trialBorder'><div class='vertical-center'><img style='vertical-align:center; align:center' src=img/fixation3.jpg></div></div>","null","","","","","","",""
"html-keyboard-response","33","237586","0.0-6.0-2.9","sconelab1","bdp_sd","Tue Feb 21 2023 18:56:26 GMT-0500 (Eastern Standard Time)","285688","","1422","","","","","offer","","<div class='trialBorder'><div class='vertical-center'><img style='vertical-align:center; align:center' src=img/fixation3.jpg></div><div class='cl'><div class='vertical-center'>$50<br>for<br>Adrian P</div></div><div class='cr'><div class='vertical-center'>$34<br>for<br>yourself</div></div><div class='respDivL'><div class='vertical-center'>(E)</div></div><div class='respDivR'><div class='vertical-center'>(I)</div></div></div>","I","$34<br>for<br>yourself","$50<br>for<br>4","1","34","50","4","SELF"
"html-keyboard-response","34","237842","0.0-6.0-3.9","sconelab1","bdp_sd","Tue Feb 21 2023 18:56:26 GMT-0500 (Eastern Standard Time)","285688","","null","","","","","offer","","<div class='trialBorder'><div class='vertical-center'><img style='vertical-align:center; align:center' src=img/fixation3.jpg></div><div class='cl'><div class='vertical-center'>$50<br>for<br>Adrian P</div></div><div class='cr'><div class='vertical-center'><font style='color:orange'>$34<br>for<br>yourself</font></div></div><div class='respDivL'><div class='vertical-center'>(E)</div></div><div class='respDivR'><div class='vertical-center'><font style='color:orange'>(I)</font></div></div></div>","null","$34<br>for<br>yourself","$50<br>for<br>4","1","34","50","4",""
"html-keyboard-response","35","238353","0.0-6.0-1.10","sconelab1","bdp_sd","Tue Feb 21 2023 18:56:26 GMT-0500 (Eastern Standard Time)","285688","","null","","","","","FIX","","<div class='trialBorder'><div class='vertical-center'><img style='vertical-align:center; align:center' src=img/fixation3.jpg></div></div>","null","","","","","","",""
"html-keyboard-response","36","239565","0.0-6.0-2.10","sconelab1","bdp_sd","Tue Feb 21 2023 18:56:26 GMT-0500 (Eastern Standard Time)","285688","","1209","","","","","offer","","<div class='trialBorder'><div class='vertical-center'><img style='vertical-align:center; align:center' src=img/fixation3.jpg></div><div class='cl'><div class='vertical-center'>$80<br>for<br>Ashley E</div></div><div class='cr'><div class='vertical-center'>$33<br>for<br>yourself</div></div><div class='respDivL'><div class='vertical-center'>(E)</div></div><div class='respDivR'><div class='vertical-center'>(I)</div></div></div>","E","$33<br>for<br>yourself","$80<br>for<br>2","1","33","80","2","OTHER"
"html-keyboard-response","37","239824","0.0-6.0-3.10","sconelab1","bdp_sd","Tue Feb 21 2023 18:56:26 GMT-0500 (Eastern Standard Time)","285688","","null","","","","","offer","","<div class='trialBorder'><div class='vertical-center'><img style='vertical-align:center; align:center' src=img/fixation3.jpg></div><div class='cl'><div class='vertical-center'><font style='color:orange'>$80<br>for<br>Ashley E</font></div></div><div class='cr'><div class='vertical-center'>$33<br>for<br>yourself</div></div><div class='respDivL'><div class='vertical-center'><font style='color:orange'>(E)</font></div></div><div class='respDivR'><div class='vertical-center'>(I)</div></div></div>","null","$33<br>for<br>yourself","$80<br>for<br>2","1","33","80","2",""
"html-keyboard-response","38","240334","0.0-6.0-1.11","sconelab1","bdp_sd","Tue Feb 21 2023 18:56:26 GMT-0500 (Eastern Standard Time)","285688","","null","","","","","FIX","","<div class='trialBorder'><div class='vertical-center'><img style='vertical-align:center; align:center' src=img/fixation3.jpg></div></div>","null","","","","","","",""
"html-keyboard-response","39","241938","0.0-6.0-2.11","sconelab1","bdp_sd","Tue Feb 21 2023 18:56:26 GMT-0500 (Eastern Standard Time)","285688","","1601","","","","","offer","","<div class='trialBorder'><div class='vertical-center'><img style='vertical-align:center; align:center' src=img/fixation3.jpg></div><div class='cl'><div class='vertical-center'>$55<br>for<br>Amber R</div></div><div class='cr'><div class='vertical-center'>$54<br>for<br>yourself</div></div><div class='respDivL'><div class='vertical-center'>(E)</div></div><div class='respDivR'><div class='vertical-center'>(I)</div></div></div>","I","$54<br>for<br>yourself","$55<br>for<br>5","1","54","55","5","SELF"
"html-keyboard-response","40","242193","0.0-6.0-3.11","sconelab1","bdp_sd","Tue Feb 21 2023 18:56:26 GMT-0500 (Eastern Standard Time)","285688","","null","","","","","offer","","<div class='trialBorder'><div class='vertical-center'><img style='vertical-align:center; align:center' src=img/fixation3.jpg></div><div class='cl'><div class='vertical-center'>$55<br>for<br>Amber R</div></div><div class='cr'><div class='vertical-center'><font style='color:orange'>$54<br>for<br>yourself</font></div></div><div class='respDivL'><div class='vertical-center'>(E)</div></div><div class='respDivR'><div class='vertical-center'><font style='color:orange'>(I)</font></div></div></div>","null","$54<br>for<br>yourself","$55<br>for<br>5","1","54","55","5",""
"html-keyboard-response","41","242704","0.0-6.0-1.12","sconelab1","bdp_sd","Tue Feb 21 2023 18:56:26 GMT-0500 (Eastern Standard Time)","285688","","null","","","","","FIX","","<div class='trialBorder'><div class='vertical-center'><img style='vertical-align:center; align:center' src=img/fixation3.jpg></div></div>","null","","","","","","",""
"html-keyboard-response","42","249115","0.0-6.0-2.12","sconelab1","bdp_sd","Tue Feb 21 2023 18:56:26 GMT-0500 (Eastern Standard Time)","285688","","6410","","","","","offer","","<div class='trialBorder'><div class='vertical-center'><img style='vertical-align:center; align:center' src=img/fixation3.jpg></div><div class='cl'><div class='vertical-center'>$35<br>for<br>Natalie P</div></div><div class='cr'><div class='vertical-center'>$24<br>for<br>yourself</div></div><div class='respDivL'><div class='vertical-center'>(E)</div></div><div class='respDivR'><div class='vertical-center'>(I)</div></div></div>","E","$24<br>for<br>yourself","$35<br>for<br>3","1","24","35","3","OTHER"
"html-keyboard-response","43","249374","0.0-6.0-3.12","sconelab1","bdp_sd","Tue Feb 21 2023 18:56:26 GMT-0500 (Eastern Standard Time)","285688","","null","","","","","offer","","<div class='trialBorder'><div class='vertical-center'><img style='vertical-align:center; align:center' src=img/fixation3.jpg></div><div class='cl'><div class='vertical-center'><font style='color:orange'>$35<br>for<br>Natalie P</font></div></div><div class='cr'><div class='vertical-center'>$24<br>for<br>yourself</div></div><div class='respDivL'><div class='vertical-center'><font style='color:orange'>(E)</font></div></div><div class='respDivR'><div class='vertical-center'>(I)</div></div></div>","null","$24<br>for<br>yourself","$35<br>for<br>3","1","24","35","3",""
"html-keyboard-response","44","249882","0.0-6.0-1.13","sconelab1","bdp_sd","Tue Feb 21 2023 18:56:26 GMT-0500 (Eastern Standard Time)","285688","","null","","","","","FIX","","<div class='trialBorder'><div class='vertical-center'><img style='vertical-align:center; align:center' src=img/fixation3.jpg></div></div>","null","","","","","","",""
"html-keyboard-response","45","254223","0.0-6.0-2.13","sconelab1","bdp_sd","Tue Feb 21 2023 18:56:26 GMT-0500 (Eastern Standard Time)","285688","","4338","","","","","offer","","<div class='trialBorder'><div class='vertical-center'><img style='vertical-align:center; align:center' src=img/fixation3.jpg></div><div class='cl'><div class='vertical-center'>$54<br>for<br>yourself</div></div><div class='cr'><div class='vertical-center'>$80<br>for<br>Natalie P</div></div><div class='respDivL'><div class='vertical-center'>(E)</div></div><div class='respDivR'><div class='vertical-center'>(I)</div></div></div>","I","$54<br>for<br>yourself","$80<br>for<br>3","0","54","80","3","OTHER"
"html-keyboard-response","46","254480","0.0-6.0-3.13","sconelab1","bdp_sd","Tue Feb 21 2023 18:56:26 GMT-0500 (Eastern Standard Time)","285688","","null","","","","","offer","","<div class='trialBorder'><div class='vertical-center'><img style='vertical-align:center; align:center' src=img/fixation3.jpg></div><div class='cl'><div class='vertical-center'>$54<br>for<br>yourself</div></div><div class='cr'><div class='vertical-center'><font style='color:orange'>$80<br>for<br>Natalie P</font></div></div><div class='respDivL'><div class='vertical-center'>(E)</div></div><div class='respDivR'><div class='vertical-center'><font style='color:orange'>(I)</font></div></div></div>","null","$54<br>for<br>yourself","$80<br>for<br>3","0","54","80","3",""
"html-keyboard-response","47","254993","0.0-6.0-1.14","sconelab1","bdp_sd","Tue Feb 21 2023 18:56:26 GMT-0500 (Eastern Standard Time)","285688","","null","","","","","FIX","","<div class='trialBorder'><div class='vertical-center'><img style='vertical-align:center; align:center' src=img/fixation3.jpg></div></div>","null","","","","","","",""
"html-keyboard-response","48","256198","0.0-6.0-2.14","sconelab1","bdp_sd","Tue Feb 21 2023 18:56:26 GMT-0500 (Eastern Standard Time)","285688","","1204","","","","","offer","","<div class='trialBorder'><div class='vertical-center'><img style='vertical-align:center; align:center' src=img/fixation3.jpg></div><div class='cl'><div class='vertical-center'>$34<br>for<br>yourself</div></div><div class='cr'><div class='vertical-center'>$35<br>for<br>Amber R</div></div><div class='respDivL'><div class='vertical-center'>(E)</div></div><div class='respDivR'><div class='vertical-center'>(I)</div></div></div>","E","$34<br>for<br>yourself","$35<br>for<br>5","0","34","35","5","SELF"
"html-keyboard-response","49","256454","0.0-6.0-3.14","sconelab1","bdp_sd","Tue Feb 21 2023 18:56:26 GMT-0500 (Eastern Standard Time)","285688","","null","","","","","offer","","<div class='trialBorder'><div class='vertical-center'><img style='vertical-align:center; align:center' src=img/fixation3.jpg></div><div class='cl'><div class='vertical-center'><font style='color:orange'>$34<br>for<br>yourself</font></div></div><div class='cr'><div class='vertical-center'>$35<br>for<br>Amber R</div></div><div class='respDivL'><div class='vertical-center'><font style='color:orange'>(E)</font></div></div><div class='respDivR'><div class='vertical-center'>(I)</div></div></div>","null","$34<br>for<br>yourself","$35<br>for<br>5","0","34","35","5",""
"html-keyboard-response","50","256959","0.0-6.0-1.15","sconelab1","bdp_sd","Tue Feb 21 2023 18:56:26 GMT-0500 (Eastern Standard Time)","285688","","null","","","","","FIX","","<div class='trialBorder'><div class='vertical-center'><img style='vertical-align:center; align:center' src=img/fixation3.jpg></div></div>","null","","","","","","",""
"html-keyboard-response","51","258218","0.0-6.0-2.15","sconelab1","bdp_sd","Tue Feb 21 2023 18:56:26 GMT-0500 (Eastern Standard Time)","285688","","1257","","","","","offer","","<div class='trialBorder'><div class='vertical-center'><img style='vertical-align:center; align:center' src=img/fixation3.jpg></div><div class='cl'><div class='vertical-center'>$60<br>for<br>Natalie P</div></div><div class='cr'><div class='vertical-center'>$25<br>for<br>yourself</div></div><div class='respDivL'><div class='vertical-center'>(E)</div></div><div class='respDivR'><div class='vertical-center'>(I)</div></div></div>","E","$25<br>for<br>yourself","$60<br>for<br>3","1","25","60","3","OTHER"
"html-keyboard-response","52","258478","0.0-6.0-3.15","sconelab1","bdp_sd","Tue Feb 21 2023 18:56:26 GMT-0500 (Eastern Standard Time)","285688","","null","","","","","offer","","<div class='trialBorder'><div class='vertical-center'><img style='vertical-align:center; align:center' src=img/fixation3.jpg></div><div class='cl'><div class='vertical-center'><font style='color:orange'>$60<br>for<br>Natalie P</font></div></div><div class='cr'><div class='vertical-center'>$25<br>for<br>yourself</div></div><div class='respDivL'><div class='vertical-center'><font style='color:orange'>(E)</font></div></div><div class='respDivR'><div class='vertical-center'>(I)</div></div></div>","null","$25<br>for<br>yourself","$60<br>for<br>3","1","25","60","3",""
"html-keyboard-response","53","258982","0.0-6.0-1.16","sconelab1","bdp_sd","Tue Feb 21 2023 18:56:26 GMT-0500 (Eastern Standard Time)","285688","","null","","","","","FIX","","<div class='trialBorder'><div class='vertical-center'><img style='vertical-align:center; align:center' src=img/fixation3.jpg></div></div>","null","","","","","","",""
"html-keyboard-response","54","260400","0.0-6.0-2.16","sconelab1","bdp_sd","Tue Feb 21 2023 18:56:26 GMT-0500 (Eastern Standard Time)","285688","","1417","","","","","offer","","<div class='trialBorder'><div class='vertical-center'><img style='vertical-align:center; align:center' src=img/fixation3.jpg></div><div class='cl'><div class='vertical-center'>$25<br>for<br>Natalie P</div></div><div class='cr'><div class='vertical-center'>$14<br>for<br>yourself</div></div><div class='respDivL'><div class='vertical-center'>(E)</div></div><div class='respDivR'><div class='vertical-center'>(I)</div></div></div>","I","$14<br>for<br>yourself","$25<br>for<br>3","1","14","25","3","SELF"
"html-keyboard-response","55","260654","0.0-6.0-3.16","sconelab1","bdp_sd","Tue Feb 21 2023 18:56:26 GMT-0500 (Eastern Standard Time)","285688","","null","","","","","offer","","<div class='trialBorder'><div class='vertical-center'><img style='vertical-align:center; align:center' src=img/fixation3.jpg></div><div class='cl'><div class='vertical-center'>$25<br>for<br>Natalie P</div></div><div class='cr'><div class='vertical-center'><font style='color:orange'>$14<br>for<br>yourself</font></div></div><div class='respDivL'><div class='vertical-center'>(E)</div></div><div class='respDivR'><div class='vertical-center'><font style='color:orange'>(I)</font></div></div></div>","null","$14<br>for<br>yourself","$25<br>for<br>3","1","14","25","3",""
"html-keyboard-response","56","261160","0.0-6.0-1.17","sconelab1","bdp_sd","Tue Feb 21 2023 18:56:26 GMT-0500 (Eastern Standard Time)","285688","","null","","","","","FIX","","<div class='trialBorder'><div class='vertical-center'><img style='vertical-align:center; align:center' src=img/fixation3.jpg></div></div>","null","","","","","","",""
"html-keyboard-response","57","262368","0.0-6.0-2.17","sconelab1","bdp_sd","Tue Feb 21 2023 18:56:26 GMT-0500 (Eastern Standard Time)","285688","","1207","","","","","offer","","<div class='trialBorder'><div class='vertical-center'><img style='vertical-align:center; align:center' src=img/fixation3.jpg></div><div class='cl'><div class='vertical-center'>$75<br>for<br>Amber R</div></div><div class='cr'><div class='vertical-center'>$67<br>for<br>yourself</div></div><div class='respDivL'><div class='vertical-center'>(E)</div></div><div class='respDivR'><div class='vertical-center'>(I)</div></div></div>","I","$67<br>for<br>yourself","$75<br>for<br>5","1","67","75","5","SELF"
"html-keyboard-response","58","262622","0.0-6.0-3.17","sconelab1","bdp_sd","Tue Feb 21 2023 18:56:26 GMT-0500 (Eastern Standard Time)","285688","","null","","","","","offer","","<div class='trialBorder'><div class='vertical-center'><img style='vertical-align:center; align:center' src=img/fixation3.jpg></div><div class='cl'><div class='vertical-center'>$75<br>for<br>Amber R</div></div><div class='cr'><div class='vertical-center'><font style='color:orange'>$67<br>for<br>yourself</font></div></div><div class='respDivL'><div class='vertical-center'>(E)</div></div><div class='respDivR'><div class='vertical-center'><font style='color:orange'>(I)</font></div></div></div>","null","$67<br>for<br>yourself","$75<br>for<br>5","1","67","75","5",""
"html-keyboard-response","59","263125","0.0-6.0-1.18","sconelab1","bdp_sd","Tue Feb 21 2023 18:56:26 GMT-0500 (Eastern Standard Time)","285688","","null","","","","","FIX","","<div class='trialBorder'><div class='vertical-center'><img style='vertical-align:center; align:center' src=img/fixation3.jpg></div></div>","null","","","","","","",""
"html-keyboard-response","60","267434","0.0-6.0-2.18","sconelab1","bdp_sd","Tue Feb 21 2023 18:56:26 GMT-0500 (Eastern Standard Time)","285688","","4307","","","","","offer","","<div class='trialBorder'><div class='vertical-center'><img style='vertical-align:center; align:center' src=img/fixation3.jpg></div><div class='cl'><div class='vertical-center'>$75<br>for<br>Adrian P</div></div><div class='cr'><div class='vertical-center'>$55<br>for<br>yourself</div></div><div class='respDivL'><div class='vertical-center'>(E)</div></div><div class='respDivR'><div class='vertical-center'>(I)</div></div></div>","E","$55<br>for<br>yourself","$75<br>for<br>4","1","55","75","4","OTHER"
"html-keyboard-response","61","267688","0.0-6.0-3.18","sconelab1","bdp_sd","Tue Feb 21 2023 18:56:26 GMT-0500 (Eastern Standard Time)","285688","","null","","","","","offer","","<div class='trialBorder'><div class='vertical-center'><img style='vertical-align:center; align:center' src=img/fixation3.jpg></div><div class='cl'><div class='vertical-center'><font style='color:orange'>$75<br>for<br>Adrian P</font></div></div><div class='cr'><div class='vertical-center'>$55<br>for<br>yourself</div></div><div class='respDivL'><div class='vertical-center'><font style='color:orange'>(E)</font></div></div><div class='respDivR'><div class='vertical-center'>(I)</div></div></div>","null","$55<br>for<br>yourself","$75<br>for<br>4","1","55","75","4",""
"html-keyboard-response","62","268200","0.0-6.0-1.19","sconelab1","bdp_sd","Tue Feb 21 2023 18:56:26 GMT-0500 (Eastern Standard Time)","285688","","null","","","","","FIX","","<div class='trialBorder'><div class='vertical-center'><img style='vertical-align:center; align:center' src=img/fixation3.jpg></div></div>","null","","","","","","",""
"html-keyboard-response","63","269484","0.0-6.0-2.19","sconelab1","bdp_sd","Tue Feb 21 2023 18:56:26 GMT-0500 (Eastern Standard Time)","285688","","1281","","","","","offer","","<div class='trialBorder'><div class='vertical-center'><img style='vertical-align:center; align:center' src=img/fixation3.jpg></div><div class='cl'><div class='vertical-center'>$55<br>for<br>Adrian P</div></div><div class='cr'><div class='vertical-center'>$40<br>for<br>yourself</div></div><div class='respDivL'><div class='vertical-center'>(E)</div></div><div class='respDivR'><div class='vertical-center'>(I)</div></div></div>","I","$40<br>for<br>yourself","$55<br>for<br>4","1","40","55","4","SELF"
"html-keyboard-response","64","269737","0.0-6.0-3.19","sconelab1","bdp_sd","Tue Feb 21 2023 18:56:26 GMT-0500 (Eastern Standard Time)","285688","","null","","","","","offer","","<div class='trialBorder'><div class='vertical-center'><img style='vertical-align:center; align:center' src=img/fixation3.jpg></div><div class='cl'><div class='vertical-center'>$55<br>for<br>Adrian P</div></div><div class='cr'><div class='vertical-center'><font style='color:orange'>$40<br>for<br>yourself</font></div></div><div class='respDivL'><div class='vertical-center'>(E)</div></div><div class='respDivR'><div class='vertical-center'><font style='color:orange'>(I)</font></div></div></div>","null","$40<br>for<br>yourself","$55<br>for<br>4","1","40","55","4",""
"html-keyboard-response","65","270248","0.0-6.0-1.20","sconelab1","bdp_sd","Tue Feb 21 2023 18:56:26 GMT-0500 (Eastern Standard Time)","285688","","null","","","","","FIX","","<div class='trialBorder'><div class='vertical-center'><img style='vertical-align:center; align:center' src=img/fixation3.jpg></div></div>","null","","","","","","",""
"html-keyboard-response","66","271554","0.0-6.0-2.20","sconelab1","bdp_sd","Tue Feb 21 2023 18:56:26 GMT-0500 (Eastern Standard Time)","285688","","1304","","","","","offer","","<div class='trialBorder'><div class='vertical-center'><img style='vertical-align:center; align:center' src=img/fixation3.jpg></div><div class='cl'><div class='vertical-center'>$20<br>for<br>yourself</div></div><div class='cr'><div class='vertical-center'>$55<br>for<br>Jose O</div></div><div class='respDivL'><div class='vertical-center'>(E)</div></div><div class='respDivR'><div class='vertical-center'>(I)</div></div></div>","I","$20<br>for<br>yourself","$55<br>for<br>1","0","20","55","1","OTHER"
"html-keyboard-response","67","271813","0.0-6.0-3.20","sconelab1","bdp_sd","Tue Feb 21 2023 18:56:26 GMT-0500 (Eastern Standard Time)","285688","","null","","","","","offer","","<div class='trialBorder'><div class='vertical-center'><img style='vertical-align:center; align:center' src=img/fixation3.jpg></div><div class='cl'><div class='vertical-center'>$20<br>for<br>yourself</div></div><div class='cr'><div class='vertical-center'><font style='color:orange'>$55<br>for<br>Jose O</font></div></div><div class='respDivL'><div class='vertical-center'>(E)</div></div><div class='respDivR'><div class='vertical-center'><font style='color:orange'>(I)</font></div></div></div>","null","$20<br>for<br>yourself","$55<br>for<br>1","0","20","55","1",""
"html-keyboard-response","68","272319","0.0-6.0-1.21","sconelab1","bdp_sd","Tue Feb 21 2023 18:56:26 GMT-0500 (Eastern Standard Time)","285688","","null","","","","","FIX","","<div class='trialBorder'><div class='vertical-center'><img style='vertical-align:center; align:center' src=img/fixation3.jpg></div></div>","null","","","","","","",""
"html-keyboard-response","69","273534","0.0-6.0-2.21","sconelab1","bdp_sd","Tue Feb 21 2023 18:56:26 GMT-0500 (Eastern Standard Time)","285688","","1212","","","","","offer","","<div class='trialBorder'><div class='vertical-center'><img style='vertical-align:center; align:center' src=img/fixation3.jpg></div><div class='cl'><div class='vertical-center'>$35<br>for<br>Ashley E</div></div><div class='cr'><div class='vertical-center'>$15<br>for<br>yourself</div></div><div class='respDivL'><div class='vertical-center'>(E)</div></div><div class='respDivR'><div class='vertical-center'>(I)</div></div></div>","E","$15<br>for<br>yourself","$35<br>for<br>2","1","15","35","2","OTHER"
"html-keyboard-response","70","273793","0.0-6.0-3.21","sconelab1","bdp_sd","Tue Feb 21 2023 18:56:26 GMT-0500 (Eastern Standard Time)","285688","","null","","","","","offer","","<div class='trialBorder'><div class='vertical-center'><img style='vertical-align:center; align:center' src=img/fixation3.jpg></div><div class='cl'><div class='vertical-center'><font style='color:orange'>$35<br>for<br>Ashley E</font></div></div><div class='cr'><div class='vertical-center'>$15<br>for<br>yourself</div></div><div class='respDivL'><div class='vertical-center'><font style='color:orange'>(E)</font></div></div><div class='respDivR'><div class='vertical-center'>(I)</div></div></div>","null","$15<br>for<br>yourself","$35<br>for<br>2","1","15","35","2",""
"html-keyboard-response","71","274301","0.0-6.0-1.22","sconelab1","bdp_sd","Tue Feb 21 2023 18:56:26 GMT-0500 (Eastern Standard Time)","285688","","null","","","","","FIX","","<div class='trialBorder'><div class='vertical-center'><img style='vertical-align:center; align:center' src=img/fixation3.jpg></div></div>","null","","","","","","",""
"html-keyboard-response","72","275516","0.0-6.0-2.22","sconelab1","bdp_sd","Tue Feb 21 2023 18:56:26 GMT-0500 (Eastern Standard Time)","285688","","1212","","","","","offer","","<div class='trialBorder'><div class='vertical-center'><img style='vertical-align:center; align:center' src=img/fixation3.jpg></div><div class='cl'><div class='vertical-center'>$22<br>for<br>yourself</div></div><div class='cr'><div class='vertical-center'>$25<br>for<br>Amber R</div></div><div class='respDivL'><div class='vertical-center'>(E)</div></div><div class='respDivR'><div class='vertical-center'>(I)</div></div></div>","E","$22<br>for<br>yourself","$25<br>for<br>5","0","22","25","5","SELF"
"html-keyboard-response","73","275773","0.0-6.0-3.22","sconelab1","bdp_sd","Tue Feb 21 2023 18:56:26 GMT-0500 (Eastern Standard Time)","285688","","null","","","","","offer","","<div class='trialBorder'><div class='vertical-center'><img style='vertical-align:center; align:center' src=img/fixation3.jpg></div><div class='cl'><div class='vertical-center'><font style='color:orange'>$22<br>for<br>yourself</font></div></div><div class='cr'><div class='vertical-center'>$25<br>for<br>Amber R</div></div><div class='respDivL'><div class='vertical-center'><font style='color:orange'>(E)</font></div></div><div class='respDivR'><div class='vertical-center'>(I)</div></div></div>","null","$22<br>for<br>yourself","$25<br>for<br>5","0","22","25","5",""
"html-keyboard-response","74","276280","0.0-6.0-1.23","sconelab1","bdp_sd","Tue Feb 21 2023 18:56:26 GMT-0500 (Eastern Standard Time)","285688","","null","","","","","FIX","","<div class='trialBorder'><div class='vertical-center'><img style='vertical-align:center; align:center' src=img/fixation3.jpg></div></div>","null","","","","","","",""
"html-keyboard-response","75","277557","0.0-6.0-2.23","sconelab1","bdp_sd","Tue Feb 21 2023 18:56:26 GMT-0500 (Eastern Standard Time)","285688","","1275","","","","","offer","","<div class='trialBorder'><div class='vertical-center'><img style='vertical-align:center; align:center' src=img/fixation3.jpg></div><div class='cl'><div class='vertical-center'>$80<br>for<br>yourself</div></div><div class='cr'><div class='vertical-center'>$85<br>for<br>Amber R</div></div><div class='respDivL'><div class='vertical-center'>(E)</div></div><div class='respDivR'><div class='vertical-center'>(I)</div></div></div>","E","$80<br>for<br>yourself","$85<br>for<br>5","0","80","85","5","SELF"
"html-keyboard-response","76","277813","0.0-6.0-3.23","sconelab1","bdp_sd","Tue Feb 21 2023 18:56:26 GMT-0500 (Eastern Standard Time)","285688","","null","","","","","offer","","<div class='trialBorder'><div class='vertical-center'><img style='vertical-align:center; align:center' src=img/fixation3.jpg></div><div class='cl'><div class='vertical-center'><font style='color:orange'>$80<br>for<br>yourself</font></div></div><div class='cr'><div class='vertical-center'>$85<br>for<br>Amber R</div></div><div class='respDivL'><div class='vertical-center'><font style='color:orange'>(E)</font></div></div><div class='respDivR'><div class='vertical-center'>(I)</div></div></div>","null","$80<br>for<br>yourself","$85<br>for<br>5","0","80","85","5",""
"html-keyboard-response","77","278321","0.0-6.0-1.24","sconelab1","bdp_sd","Tue Feb 21 2023 18:56:26 GMT-0500 (Eastern Standard Time)","285688","","null","","","","","FIX","","<div class='trialBorder'><div class='vertical-center'><img style='vertical-align:center; align:center' src=img/fixation3.jpg></div></div>","null","","","","","","",""
"html-keyboard-response","78","279780","0.0-6.0-2.24","sconelab1","bdp_sd","Tue Feb 21 2023 18:56:26 GMT-0500 (Eastern Standard Time)","285688","","1458","","","","","offer","","<div class='trialBorder'><div class='vertical-center'><img style='vertical-align:center; align:center' src=img/fixation3.jpg></div><div class='cl'><div class='vertical-center'>$25<br>for<br>yourself</div></div><div class='cr'><div class='vertical-center'>$30<br>for<br>Adrian P</div></div><div class='respDivL'><div class='vertical-center'>(E)</div></div><div class='respDivR'><div class='vertical-center'>(I)</div></div></div>","E","$25<br>for<br>yourself","$30<br>for<br>4","0","25","30","4","SELF"
"html-keyboard-response","79","280040","0.0-6.0-3.24","sconelab1","bdp_sd","Tue Feb 21 2023 18:56:26 GMT-0500 (Eastern Standard Time)","285688","","null","","","","","offer","","<div class='trialBorder'><div class='vertical-center'><img style='vertical-align:center; align:center' src=img/fixation3.jpg></div><div class='cl'><div class='vertical-center'><font style='color:orange'>$25<br>for<br>yourself</font></div></div><div class='cr'><div class='vertical-center'>$30<br>for<br>Adrian P</div></div><div class='respDivL'><div class='vertical-center'><font style='color:orange'>(E)</font></div></div><div class='respDivR'><div class='vertical-center'>(I)</div></div></div>","null","$25<br>for<br>yourself","$30<br>for<br>4","0","25","30","4",""
"html-keyboard-response","80","280546","0.0-6.0-1.25","sconelab1","bdp_sd","Tue Feb 21 2023 18:56:26 GMT-0500 (Eastern Standard Time)","285688","","null","","","","","FIX","","<div class='trialBorder'><div class='vertical-center'><img style='vertical-align:center; align:center' src=img/fixation3.jpg></div></div>","null","","","","","","",""
"html-keyboard-response","81","282465","0.0-6.0-2.25","sconelab1","bdp_sd","Tue Feb 21 2023 18:56:26 GMT-0500 (Eastern Standard Time)","285688","","1917","","","","","offer","","<div class='trialBorder'><div class='vertical-center'><img style='vertical-align:center; align:center' src=img/fixation3.jpg></div><div class='cl'><div class='vertical-center'>$41<br>for<br>yourself</div></div><div class='cr'><div class='vertical-center'>$75<br>for<br>Natalie P</div></div><div class='respDivL'><div class='vertical-center'>(E)</div></div><div class='respDivR'><div class='vertical-center'>(I)</div></div></div>","I","$41<br>for<br>yourself","$75<br>for<br>3","0","41","75","3","OTHER"
"html-keyboard-response","82","282728","0.0-6.0-3.25","sconelab1","bdp_sd","Tue Feb 21 2023 18:56:26 GMT-0500 (Eastern Standard Time)","285688","","null","","","","","offer","","<div class='trialBorder'><div class='vertical-center'><img style='vertical-align:center; align:center' src=img/fixation3.jpg></div><div class='cl'><div class='vertical-center'>$41<br>for<br>yourself</div></div><div class='cr'><div class='vertical-center'><font style='color:orange'>$75<br>for<br>Natalie P</font></div></div><div class='respDivL'><div class='vertical-center'>(E)</div></div><div class='respDivR'><div class='vertical-center'><font style='color:orange'>(I)</font></div></div></div>","null","$41<br>for<br>yourself","$75<br>for<br>3","0","41","75","3",""
"html-keyboard-response","83","283240","0.0-6.0-1.26","sconelab1","bdp_sd","Tue Feb 21 2023 18:56:26 GMT-0500 (Eastern Standard Time)","285688","","null","","","","","FIX","","<div class='trialBorder'><div class='vertical-center'><img style='vertical-align:center; align:center' src=img/fixation3.jpg></div></div>","null","","","","","","",""
"html-keyboard-response","84","284419","0.0-6.0-2.26","sconelab1","bdp_sd","Tue Feb 21 2023 18:56:26 GMT-0500 (Eastern Standard Time)","285688","","1178","","","","","offer","","<div class='trialBorder'><div class='vertical-center'><img style='vertical-align:center; align:center' src=img/fixation3.jpg></div><div class='cl'><div class='vertical-center'>$60<br>for<br>Amber R</div></div><div class='cr'><div class='vertical-center'>$54<br>for<br>yourself</div></div><div class='respDivL'><div class='vertical-center'>(E)</div></div><div class='respDivR'><div class='vertical-center'>(I)</div></div></div>","I","$54<br>for<br>yourself","$60<br>for<br>5","1","54","60","5","SELF"
"html-keyboard-response","85","284675","0.0-6.0-3.26","sconelab1","bdp_sd","Tue Feb 21 2023 18:56:26 GMT-0500 (Eastern Standard Time)","285688","","null","","","","","offer","","<div class='trialBorder'><div class='vertical-center'><img style='vertical-align:center; align:center' src=img/fixation3.jpg></div><div class='cl'><div class='vertical-center'>$60<br>for<br>Amber R</div></div><div class='cr'><div class='vertical-center'><font style='color:orange'>$54<br>for<br>yourself</font></div></div><div class='respDivL'><div class='vertical-center'>(E)</div></div><div class='respDivR'><div class='vertical-center'><font style='color:orange'>(I)</font></div></div></div>","null","$54<br>for<br>yourself","$60<br>for<br>5","1","54","60","5",""
"","","","","sconelab1","bdp_sd","Tue Feb 21 2023 18:56:26 GMT-0500 (Eastern Standard Time)","285688","","","","fullscreenexit","86","284692","fullscreenexit","","","","","","","","","",""
"fullscreen","86","285687","0.0-7.0","sconelab1","bdp_sd","Tue Feb 21 2023 18:56:26 GMT-0500 (Eastern Standard Time)","285688","","","","","","","","true","","","","","","","","",""
"html-keyboard-response","87","286192","0.0-8.0","","","","","","null","","","","","","","","null","","","","","","",""
