"trial_type","trial_index","time_elapsed","internal_node_id","subject_id","task","startTime","totalTime","view_history","rt","responses","event","trial","time","trialtype","success","stimulus","key_press","selfOffer","otherOffer","otherLeft","selfAmt","otherAmt","otherDist","chosen"
"pavlovia","0","3","0.0-0.0","61038afee6aa0fcfbf968e56","bdp_sd","Tue Mar 28 2023 00:12:13 GMT-0400 (Eastern Daylight Time)","400480","","","","","","","","","","","","","","","","",""
"instructions","1","4914","0.0-1.0","61038afee6aa0fcfbf968e56","bdp_sd","Tue Mar 28 2023 00:12:13 GMT-0400 (Eastern Daylight Time)","400480","[{""page_index"":0,""viewing_time"":4911}]","4911","","","","","","","","","","","","","","",""
"survey-text","2","202880","0.0-2.0","61038afee6aa0fcfbf968e56","bdp_sd","Tue Mar 28 2023 00:12:13 GMT-0400 (Eastern Daylight Time)","400480","","197964","{""Q0"":""Carlo T"",""Q1"":""Marianna P"",""Q2"":""Elaine W"",""Q3"":""Veester M"",""Q4"":""Debra M""}","","","","","","","","","","","","","",""
"","","","","61038afee6aa0fcfbf968e56","bdp_sd","Tue Mar 28 2023 00:12:13 GMT-0400 (Eastern Daylight Time)","400480","","","","fullscreenenter","3","204688","fullscreenenter","","","","","","","","","",""
"fullscreen","3","205672","0.0-3.0","61038afee6aa0fcfbf968e56","bdp_sd","Tue Mar 28 2023 00:12:13 GMT-0400 (Eastern Daylight Time)","400480","","","","","","","","true","","","","","","","","",""
"instructions","4","272888","0.0-5.0","61038afee6aa0fcfbf968e56","bdp_sd","Tue Mar 28 2023 00:12:13 GMT-0400 (Eastern Daylight Time)","400480","[{""page_index"":0,""viewing_time"":14738},{""page_index"":1,""viewing_time"":14196},{""page_index"":2,""viewing_time"":38281}]","67215","","","","","","","","","","","","","","",""
"html-keyboard-response","5","273390","0.0-6.0-1.0","61038afee6aa0fcfbf968e56","bdp_sd","Tue Mar 28 2023 00:12:13 GMT-0400 (Eastern Daylight Time)","400480","","null","","","","","FIX","","<div class='trialBorder'><div class='vertical-center'><img style='vertical-align:center; align:center' src=img/fixation3.jpg></div></div>","null","","","","","","",""
"html-keyboard-response","6","281047","0.0-6.0-2.0","61038afee6aa0fcfbf968e56","bdp_sd","Tue Mar 28 2023 00:12:13 GMT-0400 (Eastern Daylight Time)","400480","","7656","","","","","offer","","<div class='trialBorder'><div class='vertical-center'><img style='vertical-align:center; align:center' src=img/fixation3.jpg></div><div class='cl'><div class='vertical-center'>$30<br>for<br>Veester M</div></div><div class='cr'><div class='vertical-center'>$25<br>for<br>yourself</div></div><div class='respDivL'><div class='vertical-center'>(E)</div></div><div class='respDivR'><div class='vertical-center'>(I)</div></div></div>","I","$25<br>for<br>yourself","$30<br>for<br>4","1","25","30","4","SELF"
"html-keyboard-response","7","281300","0.0-6.0-3.0","61038afee6aa0fcfbf968e56","bdp_sd","Tue Mar 28 2023 00:12:13 GMT-0400 (Eastern Daylight Time)","400480","","null","","","","","offerFB","","<div class='trialBorder'><div class='vertical-center'><img style='vertical-align:center; align:center' src=img/fixation3.jpg></div><div class='cl'><div class='vertical-center'>$30<br>for<br>Veester M</div></div><div class='cr'><div class='vertical-center'><font style='color:orange'>$25<br>for<br>yourself</font></div></div><div class='respDivL'><div class='vertical-center'>(E)</div></div><div class='respDivR'><div class='vertical-center'><font style='color:orange'>(I)</font></div></div></div>","null","$25<br>for<br>yourself","$30<br>for<br>4","1","25","30","4",""
"html-keyboard-response","8","281803","0.0-6.0-1.1","61038afee6aa0fcfbf968e56","bdp_sd","Tue Mar 28 2023 00:12:13 GMT-0400 (Eastern Daylight Time)","400480","","null","","","","","FIX","","<div class='trialBorder'><div class='vertical-center'><img style='vertical-align:center; align:center' src=img/fixation3.jpg></div></div>","null","","","","","","",""
"html-keyboard-response","9","286110","0.0-6.0-2.1","61038afee6aa0fcfbf968e56","bdp_sd","Tue Mar 28 2023 00:12:13 GMT-0400 (Eastern Daylight Time)","400480","","4307","","","","","offer","","<div class='trialBorder'><div class='vertical-center'><img style='vertical-align:center; align:center' src=img/fixation3.jpg></div><div class='cl'><div class='vertical-center'>$54<br>for<br>yourself</div></div><div class='cr'><div class='vertical-center'>$80<br>for<br>Elaine W</div></div><div class='respDivL'><div class='vertical-center'>(E)</div></div><div class='respDivR'><div class='vertical-center'>(I)</div></div></div>","E","$54<br>for<br>yourself","$80<br>for<br>3","0","54","80","3","SELF"
"html-keyboard-response","10","286363","0.0-6.0-3.1","61038afee6aa0fcfbf968e56","bdp_sd","Tue Mar 28 2023 00:12:13 GMT-0400 (Eastern Daylight Time)","400480","","null","","","","","offerFB","","<div class='trialBorder'><div class='vertical-center'><img style='vertical-align:center; align:center' src=img/fixation3.jpg></div><div class='cl'><div class='vertical-center'><font style='color:orange'>$54<br>for<br>yourself</font></div></div><div class='cr'><div class='vertical-center'>$80<br>for<br>Elaine W</div></div><div class='respDivL'><div class='vertical-center'><font style='color:orange'>(E)</font></div></div><div class='respDivR'><div class='vertical-center'>(I)</div></div></div>","null","$54<br>for<br>yourself","$80<br>for<br>3","0","54","80","3",""
"html-keyboard-response","11","286866","0.0-6.0-1.2","61038afee6aa0fcfbf968e56","bdp_sd","Tue Mar 28 2023 00:12:13 GMT-0400 (Eastern Daylight Time)","400480","","null","","","","","FIX","","<div class='trialBorder'><div class='vertical-center'><img style='vertical-align:center; align:center' src=img/fixation3.jpg></div></div>","null","","","","","","",""
"html-keyboard-response","12","290088","0.0-6.0-2.2","61038afee6aa0fcfbf968e56","bdp_sd","Tue Mar 28 2023 00:12:13 GMT-0400 (Eastern Daylight Time)","400480","","3222","","","","","offer","","<div class='trialBorder'><div class='vertical-center'><img style='vertical-align:center; align:center' src=img/fixation3.jpg></div><div class='cl'><div class='vertical-center'>$34<br>for<br>yourself</div></div><div class='cr'><div class='vertical-center'>$50<br>for<br>Veester M</div></div><div class='respDivL'><div class='vertical-center'>(E)</div></div><div class='respDivR'><div class='vertical-center'>(I)</div></div></div>","E","$34<br>for<br>yourself","$50<br>for<br>4","0","34","50","4","SELF"
"html-keyboard-response","13","290341","0.0-6.0-3.2","61038afee6aa0fcfbf968e56","bdp_sd","Tue Mar 28 2023 00:12:13 GMT-0400 (Eastern Daylight Time)","400480","","null","","","","","offerFB","","<div class='trialBorder'><div class='vertical-center'><img style='vertical-align:center; align:center' src=img/fixation3.jpg></div><div class='cl'><div class='vertical-center'><font style='color:orange'>$34<br>for<br>yourself</font></div></div><div class='cr'><div class='vertical-center'>$50<br>for<br>Veester M</div></div><div class='respDivL'><div class='vertical-center'><font style='color:orange'>(E)</font></div></div><div class='respDivR'><div class='vertical-center'>(I)</div></div></div>","null","$34<br>for<br>yourself","$50<br>for<br>4","0","34","50","4",""
"html-keyboard-response","14","290843","0.0-6.0-1.3","61038afee6aa0fcfbf968e56","bdp_sd","Tue Mar 28 2023 00:12:13 GMT-0400 (Eastern Daylight Time)","400480","","null","","","","","FIX","","<div class='trialBorder'><div class='vertical-center'><img style='vertical-align:center; align:center' src=img/fixation3.jpg></div></div>","null","","","","","","",""
"html-keyboard-response","15","295378","0.0-6.0-2.3","61038afee6aa0fcfbf968e56","bdp_sd","Tue Mar 28 2023 00:12:13 GMT-0400 (Eastern Daylight Time)","400480","","4533","","","","","offer","","<div class='trialBorder'><div class='vertical-center'><img style='vertical-align:center; align:center' src=img/fixation3.jpg></div><div class='cl'><div class='vertical-center'>$85<br>for<br>Veester M</div></div><div class='cr'><div class='vertical-center'>$69<br>for<br>yourself</div></div><div class='respDivL'><div class='vertical-center'>(E)</div></div><div class='respDivR'><div class='vertical-center'>(I)</div></div></div>","E","$69<br>for<br>yourself","$85<br>for<br>4","1","69","85","4","OTHER"
"html-keyboard-response","16","295629","0.0-6.0-3.3","61038afee6aa0fcfbf968e56","bdp_sd","Tue Mar 28 2023 00:12:13 GMT-0400 (Eastern Daylight Time)","400480","","null","","","","","offerFB","","<div class='trialBorder'><div class='vertical-center'><img style='vertical-align:center; align:center' src=img/fixation3.jpg></div><div class='cl'><div class='vertical-center'><font style='color:orange'>$85<br>for<br>Veester M</font></div></div><div class='cr'><div class='vertical-center'>$69<br>for<br>yourself</div></div><div class='respDivL'><div class='vertical-center'><font style='color:orange'>(E)</font></div></div><div class='respDivR'><div class='vertical-center'>(I)</div></div></div>","null","$69<br>for<br>yourself","$85<br>for<br>4","1","69","85","4",""
"html-keyboard-response","17","296131","0.0-6.0-1.4","61038afee6aa0fcfbf968e56","bdp_sd","Tue Mar 28 2023 00:12:13 GMT-0400 (Eastern Daylight Time)","400480","","null","","","","","FIX","","<div class='trialBorder'><div class='vertical-center'><img style='vertical-align:center; align:center' src=img/fixation3.jpg></div></div>","null","","","","","","",""
"html-keyboard-response","18","299197","0.0-6.0-2.4","61038afee6aa0fcfbf968e56","bdp_sd","Tue Mar 28 2023 00:12:13 GMT-0400 (Eastern Daylight Time)","400480","","3066","","","","","offer","","<div class='trialBorder'><div class='vertical-center'><img style='vertical-align:center; align:center' src=img/fixation3.jpg></div><div class='cl'><div class='vertical-center'>$33<br>for<br>yourself</div></div><div class='cr'><div class='vertical-center'>$80<br>for<br>Marianna P</div></div><div class='respDivL'><div class='vertical-center'>(E)</div></div><div class='respDivR'><div class='vertical-center'>(I)</div></div></div>","I","$33<br>for<br>yourself","$80<br>for<br>2","0","33","80","2","OTHER"
"html-keyboard-response","19","299449","0.0-6.0-3.4","61038afee6aa0fcfbf968e56","bdp_sd","Tue Mar 28 2023 00:12:13 GMT-0400 (Eastern Daylight Time)","400480","","null","","","","","offerFB","","<div class='trialBorder'><div class='vertical-center'><img style='vertical-align:center; align:center' src=img/fixation3.jpg></div><div class='cl'><div class='vertical-center'>$33<br>for<br>yourself</div></div><div class='cr'><div class='vertical-center'><font style='color:orange'>$80<br>for<br>Marianna P</font></div></div><div class='respDivL'><div class='vertical-center'>(E)</div></div><div class='respDivR'><div class='vertical-center'><font style='color:orange'>(I)</font></div></div></div>","null","$33<br>for<br>yourself","$80<br>for<br>2","0","33","80","2",""
"html-keyboard-response","20","299950","0.0-6.0-1.5","61038afee6aa0fcfbf968e56","bdp_sd","Tue Mar 28 2023 00:12:13 GMT-0400 (Eastern Daylight Time)","400480","","null","","","","","FIX","","<div class='trialBorder'><div class='vertical-center'><img style='vertical-align:center; align:center' src=img/fixation3.jpg></div></div>","null","","","","","","",""
"html-keyboard-response","21","302025","0.0-6.0-2.5","61038afee6aa0fcfbf968e56","bdp_sd","Tue Mar 28 2023 00:12:13 GMT-0400 (Eastern Daylight Time)","400480","","2074","","","","","offer","","<div class='trialBorder'><div class='vertical-center'><img style='vertical-align:center; align:center' src=img/fixation3.jpg></div><div class='cl'><div class='vertical-center'>$41<br>for<br>yourself</div></div><div class='cr'><div class='vertical-center'>$75<br>for<br>Elaine W</div></div><div class='respDivL'><div class='vertical-center'>(E)</div></div><div class='respDivR'><div class='vertical-center'>(I)</div></div></div>","I","$41<br>for<br>yourself","$75<br>for<br>3","0","41","75","3","OTHER"
"html-keyboard-response","22","302276","0.0-6.0-3.5","61038afee6aa0fcfbf968e56","bdp_sd","Tue Mar 28 2023 00:12:13 GMT-0400 (Eastern Daylight Time)","400480","","null","","","","","offerFB","","<div class='trialBorder'><div class='vertical-center'><img style='vertical-align:center; align:center' src=img/fixation3.jpg></div><div class='cl'><div class='vertical-center'>$41<br>for<br>yourself</div></div><div class='cr'><div class='vertical-center'><font style='color:orange'>$75<br>for<br>Elaine W</font></div></div><div class='respDivL'><div class='vertical-center'>(E)</div></div><div class='respDivR'><div class='vertical-center'><font style='color:orange'>(I)</font></div></div></div>","null","$41<br>for<br>yourself","$75<br>for<br>3","0","41","75","3",""
"html-keyboard-response","23","302779","0.0-6.0-1.6","61038afee6aa0fcfbf968e56","bdp_sd","Tue Mar 28 2023 00:12:13 GMT-0400 (Eastern Daylight Time)","400480","","null","","","","","FIX","","<div class='trialBorder'><div class='vertical-center'><img style='vertical-align:center; align:center' src=img/fixation3.jpg></div></div>","null","","","","","","",""
"html-keyboard-response","24","313194","0.0-6.0-2.6","61038afee6aa0fcfbf968e56","bdp_sd","Tue Mar 28 2023 00:12:13 GMT-0400 (Eastern Daylight Time)","400480","","10414","","","","","offer","","<div class='trialBorder'><div class='vertical-center'><img style='vertical-align:center; align:center' src=img/fixation3.jpg></div><div class='cl'><div class='vertical-center'>$19<br>for<br>yourself</div></div><div class='cr'><div class='vertical-center'>$25<br>for<br>Veester M</div></div><div class='respDivL'><div class='vertical-center'>(E)</div></div><div class='respDivR'><div class='vertical-center'>(I)</div></div></div>","E","$19<br>for<br>yourself","$25<br>for<br>4","0","19","25","4","SELF"
"html-keyboard-response","25","313446","0.0-6.0-3.6","61038afee6aa0fcfbf968e56","bdp_sd","Tue Mar 28 2023 00:12:13 GMT-0400 (Eastern Daylight Time)","400480","","null","","","","","offerFB","","<div class='trialBorder'><div class='vertical-center'><img style='vertical-align:center; align:center' src=img/fixation3.jpg></div><div class='cl'><div class='vertical-center'><font style='color:orange'>$19<br>for<br>yourself</font></div></div><div class='cr'><div class='vertical-center'>$25<br>for<br>Veester M</div></div><div class='respDivL'><div class='vertical-center'><font style='color:orange'>(E)</font></div></div><div class='respDivR'><div class='vertical-center'>(I)</div></div></div>","null","$19<br>for<br>yourself","$25<br>for<br>4","0","19","25","4",""
"html-keyboard-response","26","313947","0.0-6.0-1.7","61038afee6aa0fcfbf968e56","bdp_sd","Tue Mar 28 2023 00:12:13 GMT-0400 (Eastern Daylight Time)","400480","","null","","","","","FIX","","<div class='trialBorder'><div class='vertical-center'><img style='vertical-align:center; align:center' src=img/fixation3.jpg></div></div>","null","","","","","","",""
"html-keyboard-response","27","317737","0.0-6.0-2.7","61038afee6aa0fcfbf968e56","bdp_sd","Tue Mar 28 2023 00:12:13 GMT-0400 (Eastern Daylight Time)","400480","","3790","","","","","offer","","<div class='trialBorder'><div class='vertical-center'><img style='vertical-align:center; align:center' src=img/fixation3.jpg></div><div class='cl'><div class='vertical-center'>$47<br>for<br>yourself</div></div><div class='cr'><div class='vertical-center'>$50<br>for<br>Debra M</div></div><div class='respDivL'><div class='vertical-center'>(E)</div></div><div class='respDivR'><div class='vertical-center'>(I)</div></div></div>","E","$47<br>for<br>yourself","$50<br>for<br>5","0","47","50","5","SELF"
"html-keyboard-response","28","317989","0.0-6.0-3.7","61038afee6aa0fcfbf968e56","bdp_sd","Tue Mar 28 2023 00:12:13 GMT-0400 (Eastern Daylight Time)","400480","","null","","","","","offerFB","","<div class='trialBorder'><div class='vertical-center'><img style='vertical-align:center; align:center' src=img/fixation3.jpg></div><div class='cl'><div class='vertical-center'><font style='color:orange'>$47<br>for<br>yourself</font></div></div><div class='cr'><div class='vertical-center'>$50<br>for<br>Debra M</div></div><div class='respDivL'><div class='vertical-center'><font style='color:orange'>(E)</font></div></div><div class='respDivR'><div class='vertical-center'>(I)</div></div></div>","null","$47<br>for<br>yourself","$50<br>for<br>5","0","47","50","5",""
"html-keyboard-response","29","318491","0.0-6.0-1.8","61038afee6aa0fcfbf968e56","bdp_sd","Tue Mar 28 2023 00:12:13 GMT-0400 (Eastern Daylight Time)","400480","","null","","","","","FIX","","<div class='trialBorder'><div class='vertical-center'><img style='vertical-align:center; align:center' src=img/fixation3.jpg></div></div>","null","","","","","","",""
"html-keyboard-response","30","321284","0.0-6.0-2.8","61038afee6aa0fcfbf968e56","bdp_sd","Tue Mar 28 2023 00:12:13 GMT-0400 (Eastern Daylight Time)","400480","","2793","","","","","offer","","<div class='trialBorder'><div class='vertical-center'><img style='vertical-align:center; align:center' src=img/fixation3.jpg></div><div class='cl'><div class='vertical-center'>$54<br>for<br>yourself</div></div><div class='cr'><div class='vertical-center'>$60<br>for<br>Debra M</div></div><div class='respDivL'><div class='vertical-center'>(E)</div></div><div class='respDivR'><div class='vertical-center'>(I)</div></div></div>","E","$54<br>for<br>yourself","$60<br>for<br>5","0","54","60","5","SELF"
"html-keyboard-response","31","321536","0.0-6.0-3.8","61038afee6aa0fcfbf968e56","bdp_sd","Tue Mar 28 2023 00:12:13 GMT-0400 (Eastern Daylight Time)","400480","","null","","","","","offerFB","","<div class='trialBorder'><div class='vertical-center'><img style='vertical-align:center; align:center' src=img/fixation3.jpg></div><div class='cl'><div class='vertical-center'><font style='color:orange'>$54<br>for<br>yourself</font></div></div><div class='cr'><div class='vertical-center'>$60<br>for<br>Debra M</div></div><div class='respDivL'><div class='vertical-center'><font style='color:orange'>(E)</font></div></div><div class='respDivR'><div class='vertical-center'>(I)</div></div></div>","null","$54<br>for<br>yourself","$60<br>for<br>5","0","54","60","5",""
"html-keyboard-response","32","322038","0.0-6.0-1.9","61038afee6aa0fcfbf968e56","bdp_sd","Tue Mar 28 2023 00:12:13 GMT-0400 (Eastern Daylight Time)","400480","","null","","","","","FIX","","<div class='trialBorder'><div class='vertical-center'><img style='vertical-align:center; align:center' src=img/fixation3.jpg></div></div>","null","","","","","","",""
"html-keyboard-response","33","323843","0.0-6.0-2.9","61038afee6aa0fcfbf968e56","bdp_sd","Tue Mar 28 2023 00:12:13 GMT-0400 (Eastern Daylight Time)","400480","","1804","","","","","offer","","<div class='trialBorder'><div class='vertical-center'><img style='vertical-align:center; align:center' src=img/fixation3.jpg></div><div class='cl'><div class='vertical-center'>$30<br>for<br>Debra M</div></div><div class='cr'><div class='vertical-center'>$28<br>for<br>yourself</div></div><div class='respDivL'><div class='vertical-center'>(E)</div></div><div class='respDivR'><div class='vertical-center'>(I)</div></div></div>","E","$28<br>for<br>yourself","$30<br>for<br>5","1","28","30","5","OTHER"
"html-keyboard-response","34","324095","0.0-6.0-3.9","61038afee6aa0fcfbf968e56","bdp_sd","Tue Mar 28 2023 00:12:13 GMT-0400 (Eastern Daylight Time)","400480","","null","","","","","offerFB","","<div class='trialBorder'><div class='vertical-center'><img style='vertical-align:center; align:center' src=img/fixation3.jpg></div><div class='cl'><div class='vertical-center'><font style='color:orange'>$30<br>for<br>Debra M</font></div></div><div class='cr'><div class='vertical-center'>$28<br>for<br>yourself</div></div><div class='respDivL'><div class='vertical-center'><font style='color:orange'>(E)</font></div></div><div class='respDivR'><div class='vertical-center'>(I)</div></div></div>","null","$28<br>for<br>yourself","$30<br>for<br>5","1","28","30","5",""
"html-keyboard-response","35","324597","0.0-6.0-1.10","61038afee6aa0fcfbf968e56","bdp_sd","Tue Mar 28 2023 00:12:13 GMT-0400 (Eastern Daylight Time)","400480","","null","","","","","FIX","","<div class='trialBorder'><div class='vertical-center'><img style='vertical-align:center; align:center' src=img/fixation3.jpg></div></div>","null","","","","","","",""
"html-keyboard-response","36","327305","0.0-6.0-2.10","61038afee6aa0fcfbf968e56","bdp_sd","Tue Mar 28 2023 00:12:13 GMT-0400 (Eastern Daylight Time)","400480","","2707","","","","","offer","","<div class='trialBorder'><div class='vertical-center'><img style='vertical-align:center; align:center' src=img/fixation3.jpg></div><div class='cl'><div class='vertical-center'>$25<br>for<br>yourself</div></div><div class='cr'><div class='vertical-center'>$60<br>for<br>Elaine W</div></div><div class='respDivL'><div class='vertical-center'>(E)</div></div><div class='respDivR'><div class='vertical-center'>(I)</div></div></div>","E","$25<br>for<br>yourself","$60<br>for<br>3","0","25","60","3","SELF"
"html-keyboard-response","37","327557","0.0-6.0-3.10","61038afee6aa0fcfbf968e56","bdp_sd","Tue Mar 28 2023 00:12:13 GMT-0400 (Eastern Daylight Time)","400480","","null","","","","","offerFB","","<div class='trialBorder'><div class='vertical-center'><img style='vertical-align:center; align:center' src=img/fixation3.jpg></div><div class='cl'><div class='vertical-center'><font style='color:orange'>$25<br>for<br>yourself</font></div></div><div class='cr'><div class='vertical-center'>$60<br>for<br>Elaine W</div></div><div class='respDivL'><div class='vertical-center'><font style='color:orange'>(E)</font></div></div><div class='respDivR'><div class='vertical-center'>(I)</div></div></div>","null","$25<br>for<br>yourself","$60<br>for<br>3","0","25","60","3",""
"html-keyboard-response","38","328058","0.0-6.0-1.11","61038afee6aa0fcfbf968e56","bdp_sd","Tue Mar 28 2023 00:12:13 GMT-0400 (Eastern Daylight Time)","400480","","null","","","","","FIX","","<div class='trialBorder'><div class='vertical-center'><img style='vertical-align:center; align:center' src=img/fixation3.jpg></div></div>","null","","","","","","",""
"html-keyboard-response","39","331763","0.0-6.0-2.11","61038afee6aa0fcfbf968e56","bdp_sd","Tue Mar 28 2023 00:12:13 GMT-0400 (Eastern Daylight Time)","400480","","3705","","","","","offer","","<div class='trialBorder'><div class='vertical-center'><img style='vertical-align:center; align:center' src=img/fixation3.jpg></div><div class='cl'><div class='vertical-center'>$49<br>for<br>yourself</div></div><div class='cr'><div class='vertical-center'>$60<br>for<br>Veester M</div></div><div class='respDivL'><div class='vertical-center'>(E)</div></div><div class='respDivR'><div class='vertical-center'>(I)</div></div></div>","E","$49<br>for<br>yourself","$60<br>for<br>4","0","49","60","4","SELF"
"html-keyboard-response","40","332015","0.0-6.0-3.11","61038afee6aa0fcfbf968e56","bdp_sd","Tue Mar 28 2023 00:12:13 GMT-0400 (Eastern Daylight Time)","400480","","null","","","","","offerFB","","<div class='trialBorder'><div class='vertical-center'><img style='vertical-align:center; align:center' src=img/fixation3.jpg></div><div class='cl'><div class='vertical-center'><font style='color:orange'>$49<br>for<br>yourself</font></div></div><div class='cr'><div class='vertical-center'>$60<br>for<br>Veester M</div></div><div class='respDivL'><div class='vertical-center'><font style='color:orange'>(E)</font></div></div><div class='respDivR'><div class='vertical-center'>(I)</div></div></div>","null","$49<br>for<br>yourself","$60<br>for<br>4","0","49","60","4",""
"html-keyboard-response","41","332516","0.0-6.0-1.12","61038afee6aa0fcfbf968e56","bdp_sd","Tue Mar 28 2023 00:12:13 GMT-0400 (Eastern Daylight Time)","400480","","null","","","","","FIX","","<div class='trialBorder'><div class='vertical-center'><img style='vertical-align:center; align:center' src=img/fixation3.jpg></div></div>","null","","","","","","",""
"html-keyboard-response","42","336148","0.0-6.0-2.12","61038afee6aa0fcfbf968e56","bdp_sd","Tue Mar 28 2023 00:12:13 GMT-0400 (Eastern Daylight Time)","400480","","3631","","","","","offer","","<div class='trialBorder'><div class='vertical-center'><img style='vertical-align:center; align:center' src=img/fixation3.jpg></div><div class='cl'><div class='vertical-center'>$27<br>for<br>yourself</div></div><div class='cr'><div class='vertical-center'>$50<br>for<br>Elaine W</div></div><div class='respDivL'><div class='vertical-center'>(E)</div></div><div class='respDivR'><div class='vertical-center'>(I)</div></div></div>","E","$27<br>for<br>yourself","$50<br>for<br>3","0","27","50","3","SELF"
"html-keyboard-response","43","336400","0.0-6.0-3.12","61038afee6aa0fcfbf968e56","bdp_sd","Tue Mar 28 2023 00:12:13 GMT-0400 (Eastern Daylight Time)","400480","","null","","","","","offerFB","","<div class='trialBorder'><div class='vertical-center'><img style='vertical-align:center; align:center' src=img/fixation3.jpg></div><div class='cl'><div class='vertical-center'><font style='color:orange'>$27<br>for<br>yourself</font></div></div><div class='cr'><div class='vertical-center'>$50<br>for<br>Elaine W</div></div><div class='respDivL'><div class='vertical-center'><font style='color:orange'>(E)</font></div></div><div class='respDivR'><div class='vertical-center'>(I)</div></div></div>","null","$27<br>for<br>yourself","$50<br>for<br>3","0","27","50","3",""
"html-keyboard-response","44","336902","0.0-6.0-1.13","61038afee6aa0fcfbf968e56","bdp_sd","Tue Mar 28 2023 00:12:13 GMT-0400 (Eastern Daylight Time)","400480","","null","","","","","FIX","","<div class='trialBorder'><div class='vertical-center'><img style='vertical-align:center; align:center' src=img/fixation3.jpg></div></div>","null","","","","","","",""
"html-keyboard-response","45","339159","0.0-6.0-2.13","61038afee6aa0fcfbf968e56","bdp_sd","Tue Mar 28 2023 00:12:13 GMT-0400 (Eastern Daylight Time)","400480","","2257","","","","","offer","","<div class='trialBorder'><div class='vertical-center'><img style='vertical-align:center; align:center' src=img/fixation3.jpg></div><div class='cl'><div class='vertical-center'>$35<br>for<br>Elaine W</div></div><div class='cr'><div class='vertical-center'>$24<br>for<br>yourself</div></div><div class='respDivL'><div class='vertical-center'>(E)</div></div><div class='respDivR'><div class='vertical-center'>(I)</div></div></div>","I","$24<br>for<br>yourself","$35<br>for<br>3","1","24","35","3","SELF"
"html-keyboard-response","46","339411","0.0-6.0-3.13","61038afee6aa0fcfbf968e56","bdp_sd","Tue Mar 28 2023 00:12:13 GMT-0400 (Eastern Daylight Time)","400480","","null","","","","","offerFB","","<div class='trialBorder'><div class='vertical-center'><img style='vertical-align:center; align:center' src=img/fixation3.jpg></div><div class='cl'><div class='vertical-center'>$35<br>for<br>Elaine W</div></div><div class='cr'><div class='vertical-center'><font style='color:orange'>$24<br>for<br>yourself</font></div></div><div class='respDivL'><div class='vertical-center'>(E)</div></div><div class='respDivR'><div class='vertical-center'><font style='color:orange'>(I)</font></div></div></div>","null","$24<br>for<br>yourself","$35<br>for<br>3","1","24","35","3",""
"html-keyboard-response","47","339913","0.0-6.0-1.14","61038afee6aa0fcfbf968e56","bdp_sd","Tue Mar 28 2023 00:12:13 GMT-0400 (Eastern Daylight Time)","400480","","null","","","","","FIX","","<div class='trialBorder'><div class='vertical-center'><img style='vertical-align:center; align:center' src=img/fixation3.jpg></div></div>","null","","","","","","",""
"html-keyboard-response","48","345620","0.0-6.0-2.14","61038afee6aa0fcfbf968e56","bdp_sd","Tue Mar 28 2023 00:12:13 GMT-0400 (Eastern Daylight Time)","400480","","5707","","","","","offer","","<div class='trialBorder'><div class='vertical-center'><img style='vertical-align:center; align:center' src=img/fixation3.jpg></div><div class='cl'><div class='vertical-center'>$34<br>for<br>yourself</div></div><div class='cr'><div class='vertical-center'>$35<br>for<br>Debra M</div></div><div class='respDivL'><div class='vertical-center'>(E)</div></div><div class='respDivR'><div class='vertical-center'>(I)</div></div></div>","E","$34<br>for<br>yourself","$35<br>for<br>5","0","34","35","5","SELF"
"html-keyboard-response","49","345872","0.0-6.0-3.14","61038afee6aa0fcfbf968e56","bdp_sd","Tue Mar 28 2023 00:12:13 GMT-0400 (Eastern Daylight Time)","400480","","null","","","","","offerFB","","<div class='trialBorder'><div class='vertical-center'><img style='vertical-align:center; align:center' src=img/fixation3.jpg></div><div class='cl'><div class='vertical-center'><font style='color:orange'>$34<br>for<br>yourself</font></div></div><div class='cr'><div class='vertical-center'>$35<br>for<br>Debra M</div></div><div class='respDivL'><div class='vertical-center'><font style='color:orange'>(E)</font></div></div><div class='respDivR'><div class='vertical-center'>(I)</div></div></div>","null","$34<br>for<br>yourself","$35<br>for<br>5","0","34","35","5",""
"html-keyboard-response","50","346372","0.0-6.0-1.15","61038afee6aa0fcfbf968e56","bdp_sd","Tue Mar 28 2023 00:12:13 GMT-0400 (Eastern Daylight Time)","400480","","null","","","","","FIX","","<div class='trialBorder'><div class='vertical-center'><img style='vertical-align:center; align:center' src=img/fixation3.jpg></div></div>","null","","","","","","",""
"html-keyboard-response","51","350567","0.0-6.0-2.15","61038afee6aa0fcfbf968e56","bdp_sd","Tue Mar 28 2023 00:12:13 GMT-0400 (Eastern Daylight Time)","400480","","4194","","","","","offer","","<div class='trialBorder'><div class='vertical-center'><img style='vertical-align:center; align:center' src=img/fixation3.jpg></div><div class='cl'><div class='vertical-center'>$55<br>for<br>Carlo T</div></div><div class='cr'><div class='vertical-center'>$20<br>for<br>yourself</div></div><div class='respDivL'><div class='vertical-center'>(E)</div></div><div class='respDivR'><div class='vertical-center'>(I)</div></div></div>","E","$20<br>for<br>yourself","$55<br>for<br>1","1","20","55","1","OTHER"
"html-keyboard-response","52","350818","0.0-6.0-3.15","61038afee6aa0fcfbf968e56","bdp_sd","Tue Mar 28 2023 00:12:13 GMT-0400 (Eastern Daylight Time)","400480","","null","","","","","offerFB","","<div class='trialBorder'><div class='vertical-center'><img style='vertical-align:center; align:center' src=img/fixation3.jpg></div><div class='cl'><div class='vertical-center'><font style='color:orange'>$55<br>for<br>Carlo T</font></div></div><div class='cr'><div class='vertical-center'>$20<br>for<br>yourself</div></div><div class='respDivL'><div class='vertical-center'><font style='color:orange'>(E)</font></div></div><div class='respDivR'><div class='vertical-center'>(I)</div></div></div>","null","$20<br>for<br>yourself","$55<br>for<br>1","1","20","55","1",""
"html-keyboard-response","53","351320","0.0-6.0-1.16","61038afee6aa0fcfbf968e56","bdp_sd","Tue Mar 28 2023 00:12:13 GMT-0400 (Eastern Daylight Time)","400480","","null","","","","","FIX","","<div class='trialBorder'><div class='vertical-center'><img style='vertical-align:center; align:center' src=img/fixation3.jpg></div></div>","null","","","","","","",""
"html-keyboard-response","54","359400","0.0-6.0-2.16","61038afee6aa0fcfbf968e56","bdp_sd","Tue Mar 28 2023 00:12:13 GMT-0400 (Eastern Daylight Time)","400480","","8079","","","","","offer","","<div class='trialBorder'><div class='vertical-center'><img style='vertical-align:center; align:center' src=img/fixation3.jpg></div><div class='cl'><div class='vertical-center'>$55<br>for<br>Veester M</div></div><div class='cr'><div class='vertical-center'>$40<br>for<br>yourself</div></div><div class='respDivL'><div class='vertical-center'>(E)</div></div><div class='respDivR'><div class='vertical-center'>(I)</div></div></div>","I","$40<br>for<br>yourself","$55<br>for<br>4","1","40","55","4","SELF"
"html-keyboard-response","55","359652","0.0-6.0-3.16","61038afee6aa0fcfbf968e56","bdp_sd","Tue Mar 28 2023 00:12:13 GMT-0400 (Eastern Daylight Time)","400480","","null","","","","","offerFB","","<div class='trialBorder'><div class='vertical-center'><img style='vertical-align:center; align:center' src=img/fixation3.jpg></div><div class='cl'><div class='vertical-center'>$55<br>for<br>Veester M</div></div><div class='cr'><div class='vertical-center'><font style='color:orange'>$40<br>for<br>yourself</font></div></div><div class='respDivL'><div class='vertical-center'>(E)</div></div><div class='respDivR'><div class='vertical-center'><font style='color:orange'>(I)</font></div></div></div>","null","$40<br>for<br>yourself","$55<br>for<br>4","1","40","55","4",""
"html-keyboard-response","56","360153","0.0-6.0-1.17","61038afee6aa0fcfbf968e56","bdp_sd","Tue Mar 28 2023 00:12:13 GMT-0400 (Eastern Daylight Time)","400480","","null","","","","","FIX","","<div class='trialBorder'><div class='vertical-center'><img style='vertical-align:center; align:center' src=img/fixation3.jpg></div></div>","null","","","","","","",""
"html-keyboard-response","57","362690","0.0-6.0-2.17","61038afee6aa0fcfbf968e56","bdp_sd","Tue Mar 28 2023 00:12:13 GMT-0400 (Eastern Daylight Time)","400480","","2537","","","","","offer","","<div class='trialBorder'><div class='vertical-center'><img style='vertical-align:center; align:center' src=img/fixation3.jpg></div><div class='cl'><div class='vertical-center'>$85<br>for<br>Carlo T</div></div><div class='cr'><div class='vertical-center'>$31<br>for<br>yourself</div></div><div class='respDivL'><div class='vertical-center'>(E)</div></div><div class='respDivR'><div class='vertical-center'>(I)</div></div></div>","E","$31<br>for<br>yourself","$85<br>for<br>1","1","31","85","1","OTHER"
"html-keyboard-response","58","362942","0.0-6.0-3.17","61038afee6aa0fcfbf968e56","bdp_sd","Tue Mar 28 2023 00:12:13 GMT-0400 (Eastern Daylight Time)","400480","","null","","","","","offerFB","","<div class='trialBorder'><div class='vertical-center'><img style='vertical-align:center; align:center' src=img/fixation3.jpg></div><div class='cl'><div class='vertical-center'><font style='color:orange'>$85<br>for<br>Carlo T</font></div></div><div class='cr'><div class='vertical-center'>$31<br>for<br>yourself</div></div><div class='respDivL'><div class='vertical-center'><font style='color:orange'>(E)</font></div></div><div class='respDivR'><div class='vertical-center'>(I)</div></div></div>","null","$31<br>for<br>yourself","$85<br>for<br>1","1","31","85","1",""
"html-keyboard-response","59","363445","0.0-6.0-1.18","61038afee6aa0fcfbf968e56","bdp_sd","Tue Mar 28 2023 00:12:13 GMT-0400 (Eastern Daylight Time)","400480","","null","","","","","FIX","","<div class='trialBorder'><div class='vertical-center'><img style='vertical-align:center; align:center' src=img/fixation3.jpg></div></div>","null","","","","","","",""
"html-keyboard-response","60","367901","0.0-6.0-2.18","61038afee6aa0fcfbf968e56","bdp_sd","Tue Mar 28 2023 00:12:13 GMT-0400 (Eastern Daylight Time)","400480","","4456","","","","","offer","","<div class='trialBorder'><div class='vertical-center'><img style='vertical-align:center; align:center' src=img/fixation3.jpg></div><div class='cl'><div class='vertical-center'>$80<br>for<br>yourself</div></div><div class='cr'><div class='vertical-center'>$85<br>for<br>Debra M</div></div><div class='respDivL'><div class='vertical-center'>(E)</div></div><div class='respDivR'><div class='vertical-center'>(I)</div></div></div>","E","$80<br>for<br>yourself","$85<br>for<br>5","0","80","85","5","SELF"
"html-keyboard-response","61","368154","0.0-6.0-3.18","61038afee6aa0fcfbf968e56","bdp_sd","Tue Mar 28 2023 00:12:13 GMT-0400 (Eastern Daylight Time)","400480","","null","","","","","offerFB","","<div class='trialBorder'><div class='vertical-center'><img style='vertical-align:center; align:center' src=img/fixation3.jpg></div><div class='cl'><div class='vertical-center'><font style='color:orange'>$80<br>for<br>yourself</font></div></div><div class='cr'><div class='vertical-center'>$85<br>for<br>Debra M</div></div><div class='respDivL'><div class='vertical-center'><font style='color:orange'>(E)</font></div></div><div class='respDivR'><div class='vertical-center'>(I)</div></div></div>","null","$80<br>for<br>yourself","$85<br>for<br>5","0","80","85","5",""
"html-keyboard-response","62","368656","0.0-6.0-1.19","61038afee6aa0fcfbf968e56","bdp_sd","Tue Mar 28 2023 00:12:13 GMT-0400 (Eastern Daylight Time)","400480","","null","","","","","FIX","","<div class='trialBorder'><div class='vertical-center'><img style='vertical-align:center; align:center' src=img/fixation3.jpg></div></div>","null","","","","","","",""
"html-keyboard-response","63","371826","0.0-6.0-2.19","61038afee6aa0fcfbf968e56","bdp_sd","Tue Mar 28 2023 00:12:13 GMT-0400 (Eastern Daylight Time)","400480","","3169","","","","","offer","","<div class='trialBorder'><div class='vertical-center'><img style='vertical-align:center; align:center' src=img/fixation3.jpg></div><div class='cl'><div class='vertical-center'>$75<br>for<br>Veester M</div></div><div class='cr'><div class='vertical-center'>$55<br>for<br>yourself</div></div><div class='respDivL'><div class='vertical-center'>(E)</div></div><div class='respDivR'><div class='vertical-center'>(I)</div></div></div>","I","$55<br>for<br>yourself","$75<br>for<br>4","1","55","75","4","SELF"
"html-keyboard-response","64","372077","0.0-6.0-3.19","61038afee6aa0fcfbf968e56","bdp_sd","Tue Mar 28 2023 00:12:13 GMT-0400 (Eastern Daylight Time)","400480","","null","","","","","offerFB","","<div class='trialBorder'><div class='vertical-center'><img style='vertical-align:center; align:center' src=img/fixation3.jpg></div><div class='cl'><div class='vertical-center'>$75<br>for<br>Veester M</div></div><div class='cr'><div class='vertical-center'><font style='color:orange'>$55<br>for<br>yourself</font></div></div><div class='respDivL'><div class='vertical-center'>(E)</div></div><div class='respDivR'><div class='vertical-center'><font style='color:orange'>(I)</font></div></div></div>","null","$55<br>for<br>yourself","$75<br>for<br>4","1","55","75","4",""
"html-keyboard-response","65","372579","0.0-6.0-1.20","61038afee6aa0fcfbf968e56","bdp_sd","Tue Mar 28 2023 00:12:13 GMT-0400 (Eastern Daylight Time)","400480","","null","","","","","FIX","","<div class='trialBorder'><div class='vertical-center'><img style='vertical-align:center; align:center' src=img/fixation3.jpg></div></div>","null","","","","","","",""
"html-keyboard-response","66","374785","0.0-6.0-2.20","61038afee6aa0fcfbf968e56","bdp_sd","Tue Mar 28 2023 00:12:13 GMT-0400 (Eastern Daylight Time)","400480","","2204","","","","","offer","","<div class='trialBorder'><div class='vertical-center'><img style='vertical-align:center; align:center' src=img/fixation3.jpg></div><div class='cl'><div class='vertical-center'>$15<br>for<br>yourself</div></div><div class='cr'><div class='vertical-center'>$35<br>for<br>Marianna P</div></div><div class='respDivL'><div class='vertical-center'>(E)</div></div><div class='respDivR'><div class='vertical-center'>(I)</div></div></div>","I","$15<br>for<br>yourself","$35<br>for<br>2","0","15","35","2","OTHER"
"html-keyboard-response","67","375036","0.0-6.0-3.20","61038afee6aa0fcfbf968e56","bdp_sd","Tue Mar 28 2023 00:12:13 GMT-0400 (Eastern Daylight Time)","400480","","null","","","","","offerFB","","<div class='trialBorder'><div class='vertical-center'><img style='vertical-align:center; align:center' src=img/fixation3.jpg></div><div class='cl'><div class='vertical-center'>$15<br>for<br>yourself</div></div><div class='cr'><div class='vertical-center'><font style='color:orange'>$35<br>for<br>Marianna P</font></div></div><div class='respDivL'><div class='vertical-center'>(E)</div></div><div class='respDivR'><div class='vertical-center'><font style='color:orange'>(I)</font></div></div></div>","null","$15<br>for<br>yourself","$35<br>for<br>2","0","15","35","2",""
"html-keyboard-response","68","375538","0.0-6.0-1.21","61038afee6aa0fcfbf968e56","bdp_sd","Tue Mar 28 2023 00:12:13 GMT-0400 (Eastern Daylight Time)","400480","","null","","","","","FIX","","<div class='trialBorder'><div class='vertical-center'><img style='vertical-align:center; align:center' src=img/fixation3.jpg></div></div>","null","","","","","","",""
"html-keyboard-response","69","377263","0.0-6.0-2.21","61038afee6aa0fcfbf968e56","bdp_sd","Tue Mar 28 2023 00:12:13 GMT-0400 (Eastern Daylight Time)","400480","","1724","","","","","offer","","<div class='trialBorder'><div class='vertical-center'><img style='vertical-align:center; align:center' src=img/fixation3.jpg></div><div class='cl'><div class='vertical-center'>$30<br>for<br>Marianna P</div></div><div class='cr'><div class='vertical-center'>$11<br>for<br>yourself</div></div><div class='respDivL'><div class='vertical-center'>(E)</div></div><div class='respDivR'><div class='vertical-center'>(I)</div></div></div>","E","$11<br>for<br>yourself","$30<br>for<br>2","1","11","30","2","OTHER"
"html-keyboard-response","70","377515","0.0-6.0-3.21","61038afee6aa0fcfbf968e56","bdp_sd","Tue Mar 28 2023 00:12:13 GMT-0400 (Eastern Daylight Time)","400480","","null","","","","","offerFB","","<div class='trialBorder'><div class='vertical-center'><img style='vertical-align:center; align:center' src=img/fixation3.jpg></div><div class='cl'><div class='vertical-center'><font style='color:orange'>$30<br>for<br>Marianna P</font></div></div><div class='cr'><div class='vertical-center'>$11<br>for<br>yourself</div></div><div class='respDivL'><div class='vertical-center'><font style='color:orange'>(E)</font></div></div><div class='respDivR'><div class='vertical-center'>(I)</div></div></div>","null","$11<br>for<br>yourself","$30<br>for<br>2","1","11","30","2",""
"html-keyboard-response","71","378016","0.0-6.0-1.22","61038afee6aa0fcfbf968e56","bdp_sd","Tue Mar 28 2023 00:12:13 GMT-0400 (Eastern Daylight Time)","400480","","null","","","","","FIX","","<div class='trialBorder'><div class='vertical-center'><img style='vertical-align:center; align:center' src=img/fixation3.jpg></div></div>","null","","","","","","",""
"html-keyboard-response","72","381325","0.0-6.0-2.22","61038afee6aa0fcfbf968e56","bdp_sd","Tue Mar 28 2023 00:12:13 GMT-0400 (Eastern Daylight Time)","400480","","3308","","","","","offer","","<div class='trialBorder'><div class='vertical-center'><img style='vertical-align:center; align:center' src=img/fixation3.jpg></div><div class='cl'><div class='vertical-center'>$55<br>for<br>Debra M</div></div><div class='cr'><div class='vertical-center'>$54<br>for<br>yourself</div></div><div class='respDivL'><div class='vertical-center'>(E)</div></div><div class='respDivR'><div class='vertical-center'>(I)</div></div></div>","E","$54<br>for<br>yourself","$55<br>for<br>5","1","54","55","5","OTHER"
"html-keyboard-response","73","381577","0.0-6.0-3.22","61038afee6aa0fcfbf968e56","bdp_sd","Tue Mar 28 2023 00:12:13 GMT-0400 (Eastern Daylight Time)","400480","","null","","","","","offerFB","","<div class='trialBorder'><div class='vertical-center'><img style='vertical-align:center; align:center' src=img/fixation3.jpg></div><div class='cl'><div class='vertical-center'><font style='color:orange'>$55<br>for<br>Debra M</font></div></div><div class='cr'><div class='vertical-center'>$54<br>for<br>yourself</div></div><div class='respDivL'><div class='vertical-center'><font style='color:orange'>(E)</font></div></div><div class='respDivR'><div class='vertical-center'>(I)</div></div></div>","null","$54<br>for<br>yourself","$55<br>for<br>5","1","54","55","5",""
"html-keyboard-response","74","382079","0.0-6.0-1.23","61038afee6aa0fcfbf968e56","bdp_sd","Tue Mar 28 2023 00:12:13 GMT-0400 (Eastern Daylight Time)","400480","","null","","","","","FIX","","<div class='trialBorder'><div class='vertical-center'><img style='vertical-align:center; align:center' src=img/fixation3.jpg></div></div>","null","","","","","","",""
"html-keyboard-response","75","386144","0.0-6.0-2.23","61038afee6aa0fcfbf968e56","bdp_sd","Tue Mar 28 2023 00:12:13 GMT-0400 (Eastern Daylight Time)","400480","","4064","","","","","offer","","<div class='trialBorder'><div class='vertical-center'><img style='vertical-align:center; align:center' src=img/fixation3.jpg></div><div class='cl'><div class='vertical-center'>$80<br>for<br>Debra M</div></div><div class='cr'><div class='vertical-center'>$78<br>for<br>yourself</div></div><div class='respDivL'><div class='vertical-center'>(E)</div></div><div class='respDivR'><div class='vertical-center'>(I)</div></div></div>","I","$78<br>for<br>yourself","$80<br>for<br>5","1","78","80","5","SELF"
"html-keyboard-response","76","386397","0.0-6.0-3.23","61038afee6aa0fcfbf968e56","bdp_sd","Tue Mar 28 2023 00:12:13 GMT-0400 (Eastern Daylight Time)","400480","","null","","","","","offerFB","","<div class='trialBorder'><div class='vertical-center'><img style='vertical-align:center; align:center' src=img/fixation3.jpg></div><div class='cl'><div class='vertical-center'>$80<br>for<br>Debra M</div></div><div class='cr'><div class='vertical-center'><font style='color:orange'>$78<br>for<br>yourself</font></div></div><div class='respDivL'><div class='vertical-center'>(E)</div></div><div class='respDivR'><div class='vertical-center'><font style='color:orange'>(I)</font></div></div></div>","null","$78<br>for<br>yourself","$80<br>for<br>5","1","78","80","5",""
"html-keyboard-response","77","386898","0.0-6.0-1.24","61038afee6aa0fcfbf968e56","bdp_sd","Tue Mar 28 2023 00:12:13 GMT-0400 (Eastern Daylight Time)","400480","","null","","","","","FIX","","<div class='trialBorder'><div class='vertical-center'><img style='vertical-align:center; align:center' src=img/fixation3.jpg></div></div>","null","","","","","","",""
"html-keyboard-response","78","388512","0.0-6.0-2.24","61038afee6aa0fcfbf968e56","bdp_sd","Tue Mar 28 2023 00:12:13 GMT-0400 (Eastern Daylight Time)","400480","","1613","","","","","offer","","<div class='trialBorder'><div class='vertical-center'><img style='vertical-align:center; align:center' src=img/fixation3.jpg></div><div class='cl'><div class='vertical-center'>$25<br>for<br>Elaine W</div></div><div class='cr'><div class='vertical-center'>$14<br>for<br>yourself</div></div><div class='respDivL'><div class='vertical-center'>(E)</div></div><div class='respDivR'><div class='vertical-center'>(I)</div></div></div>","E","$14<br>for<br>yourself","$25<br>for<br>3","1","14","25","3","OTHER"
"html-keyboard-response","79","388764","0.0-6.0-3.24","61038afee6aa0fcfbf968e56","bdp_sd","Tue Mar 28 2023 00:12:13 GMT-0400 (Eastern Daylight Time)","400480","","null","","","","","offerFB","","<div class='trialBorder'><div class='vertical-center'><img style='vertical-align:center; align:center' src=img/fixation3.jpg></div><div class='cl'><div class='vertical-center'><font style='color:orange'>$25<br>for<br>Elaine W</font></div></div><div class='cr'><div class='vertical-center'>$14<br>for<br>yourself</div></div><div class='respDivL'><div class='vertical-center'><font style='color:orange'>(E)</font></div></div><div class='respDivR'><div class='vertical-center'>(I)</div></div></div>","null","$14<br>for<br>yourself","$25<br>for<br>3","1","14","25","3",""
"html-keyboard-response","80","389265","0.0-6.0-1.25","61038afee6aa0fcfbf968e56","bdp_sd","Tue Mar 28 2023 00:12:13 GMT-0400 (Eastern Daylight Time)","400480","","null","","","","","FIX","","<div class='trialBorder'><div class='vertical-center'><img style='vertical-align:center; align:center' src=img/fixation3.jpg></div></div>","null","","","","","","",""
"html-keyboard-response","81","393182","0.0-6.0-2.25","61038afee6aa0fcfbf968e56","bdp_sd","Tue Mar 28 2023 00:12:13 GMT-0400 (Eastern Daylight Time)","400480","","3916","","","","","offer","","<div class='trialBorder'><div class='vertical-center'><img style='vertical-align:center; align:center' src=img/fixation3.jpg></div><div class='cl'><div class='vertical-center'>$67<br>for<br>yourself</div></div><div class='cr'><div class='vertical-center'>$75<br>for<br>Debra M</div></div><div class='respDivL'><div class='vertical-center'>(E)</div></div><div class='respDivR'><div class='vertical-center'>(I)</div></div></div>","E","$67<br>for<br>yourself","$75<br>for<br>5","0","67","75","5","SELF"
"html-keyboard-response","82","393434","0.0-6.0-3.25","61038afee6aa0fcfbf968e56","bdp_sd","Tue Mar 28 2023 00:12:13 GMT-0400 (Eastern Daylight Time)","400480","","null","","","","","offerFB","","<div class='trialBorder'><div class='vertical-center'><img style='vertical-align:center; align:center' src=img/fixation3.jpg></div><div class='cl'><div class='vertical-center'><font style='color:orange'>$67<br>for<br>yourself</font></div></div><div class='cr'><div class='vertical-center'>$75<br>for<br>Debra M</div></div><div class='respDivL'><div class='vertical-center'><font style='color:orange'>(E)</font></div></div><div class='respDivR'><div class='vertical-center'>(I)</div></div></div>","null","$67<br>for<br>yourself","$75<br>for<br>5","0","67","75","5",""
"html-keyboard-response","83","393935","0.0-6.0-1.26","61038afee6aa0fcfbf968e56","bdp_sd","Tue Mar 28 2023 00:12:13 GMT-0400 (Eastern Daylight Time)","400480","","null","","","","","FIX","","<div class='trialBorder'><div class='vertical-center'><img style='vertical-align:center; align:center' src=img/fixation3.jpg></div></div>","null","","","","","","",""
"html-keyboard-response","84","399225","0.0-6.0-2.26","61038afee6aa0fcfbf968e56","bdp_sd","Tue Mar 28 2023 00:12:13 GMT-0400 (Eastern Daylight Time)","400480","","5289","","","","","offer","","<div class='trialBorder'><div class='vertical-center'><img style='vertical-align:center; align:center' src=img/fixation3.jpg></div><div class='cl'><div class='vertical-center'>$25<br>for<br>Debra M</div></div><div class='cr'><div class='vertical-center'>$22<br>for<br>yourself</div></div><div class='respDivL'><div class='vertical-center'>(E)</div></div><div class='respDivR'><div class='vertical-center'>(I)</div></div></div>","I","$22<br>for<br>yourself","$25<br>for<br>5","1","22","25","5","SELF"
"html-keyboard-response","85","399477","0.0-6.0-3.26","61038afee6aa0fcfbf968e56","bdp_sd","Tue Mar 28 2023 00:12:13 GMT-0400 (Eastern Daylight Time)","400480","","null","","","","","offerFB","","<div class='trialBorder'><div class='vertical-center'><img style='vertical-align:center; align:center' src=img/fixation3.jpg></div><div class='cl'><div class='vertical-center'>$25<br>for<br>Debra M</div></div><div class='cr'><div class='vertical-center'><font style='color:orange'>$22<br>for<br>yourself</font></div></div><div class='respDivL'><div class='vertical-center'>(E)</div></div><div class='respDivR'><div class='vertical-center'><font style='color:orange'>(I)</font></div></div></div>","null","$22<br>for<br>yourself","$25<br>for<br>5","1","22","25","5",""
"","","","","61038afee6aa0fcfbf968e56","bdp_sd","Tue Mar 28 2023 00:12:13 GMT-0400 (Eastern Daylight Time)","400480","","","","fullscreenexit","86","399501","fullscreenexit","","","","","","","","","",""
"fullscreen","86","400480","0.0-7.0","61038afee6aa0fcfbf968e56","bdp_sd","Tue Mar 28 2023 00:12:13 GMT-0400 (Eastern Daylight Time)","400480","","","","","","","","true","","","","","","","","",""
"html-keyboard-response","87","400981","0.0-8.0","","","","","","null","","","","","","","","null","","","","","","",""
