"trial_type","trial_index","time_elapsed","internal_node_id","subject_id","task","startTime","totalTime","view_history","rt","responses","event","trial","time","trialtype","success","stimulus","key_press","selfOffer","otherOffer","otherLeft","selfAmt","otherAmt","otherDist","chosen"
"pavlovia","0","2","0.0-0.0","63b6cc23f13731158517f900","bdp_sd","Tue Apr 11 2023 01:05:27 GMT-0600 (Mountain Daylight Time)","170300","","","","","","","","","","","","","","","","",""
"instructions","1","2114","0.0-1.0","63b6cc23f13731158517f900","bdp_sd","Tue Apr 11 2023 01:05:27 GMT-0600 (Mountain Daylight Time)","170300","[{""page_index"":0,""viewing_time"":2111}]","2111","","","","","","","","","","","","","","",""
"survey-text","2","64557","0.0-2.0","63b6cc23f13731158517f900","bdp_sd","Tue Apr 11 2023 01:05:27 GMT-0600 (Mountain Daylight Time)","170300","","62442","{""Q0"":""Tristen"",""Q1"":""Cy"",""Q2"":""Issa"",""Q3"":""Juli"",""Q4"":""Tom""}","","","","","","","","","","","","","",""
"","","","","63b6cc23f13731158517f900","bdp_sd","Tue Apr 11 2023 01:05:27 GMT-0600 (Mountain Daylight Time)","170300","","","","fullscreenenter","3","67519","fullscreenenter","","","","","","","","","",""
"fullscreen","3","68503","0.0-3.0","63b6cc23f13731158517f900","bdp_sd","Tue Apr 11 2023 01:05:27 GMT-0600 (Mountain Daylight Time)","170300","","","","","","","","true","","","","","","","","",""
"instructions","4","84249","0.0-5.0","63b6cc23f13731158517f900","bdp_sd","Tue Apr 11 2023 01:05:27 GMT-0600 (Mountain Daylight Time)","170300","[{""page_index"":0,""viewing_time"":4409},{""page_index"":1,""viewing_time"":8237},{""page_index"":2,""viewing_time"":3099}]","15746","","","","","","","","","","","","","","",""
"html-keyboard-response","5","84750","0.0-6.0-1.0","63b6cc23f13731158517f900","bdp_sd","Tue Apr 11 2023 01:05:27 GMT-0600 (Mountain Daylight Time)","170300","","null","","","","","FIX","","<div class='trialBorder'><div class='vertical-center'><img style='vertical-align:center; align:center' src=img/fixation3.jpg></div></div>","null","","","","","","",""
"html-keyboard-response","6","86759","0.0-6.0-2.0","63b6cc23f13731158517f900","bdp_sd","Tue Apr 11 2023 01:05:27 GMT-0600 (Mountain Daylight Time)","170300","","2007","","","","","offer","","<div class='trialBorder'><div class='vertical-center'><img style='vertical-align:center; align:center' src=img/fixation3.jpg></div><div class='cl'><div class='vertical-center'>$60<br>for<br>Issa</div></div><div class='cr'><div class='vertical-center'>$25<br>for<br>yourself</div></div><div class='respDivL'><div class='vertical-center'>(E)</div></div><div class='respDivR'><div class='vertical-center'>(I)</div></div></div>","E","$25<br>for<br>yourself","$60<br>for<br>3","1","25","60","3","OTHER"
"html-keyboard-response","7","87010","0.0-6.0-3.0","63b6cc23f13731158517f900","bdp_sd","Tue Apr 11 2023 01:05:27 GMT-0600 (Mountain Daylight Time)","170300","","null","","","","","offerFB","","<div class='trialBorder'><div class='vertical-center'><img style='vertical-align:center; align:center' src=img/fixation3.jpg></div><div class='cl'><div class='vertical-center'><font style='color:orange'>$60<br>for<br>Issa</font></div></div><div class='cr'><div class='vertical-center'>$25<br>for<br>yourself</div></div><div class='respDivL'><div class='vertical-center'><font style='color:orange'>(E)</font></div></div><div class='respDivR'><div class='vertical-center'>(I)</div></div></div>","null","$25<br>for<br>yourself","$60<br>for<br>3","1","25","60","3",""
"html-keyboard-response","8","87511","0.0-6.0-1.1","63b6cc23f13731158517f900","bdp_sd","Tue Apr 11 2023 01:05:27 GMT-0600 (Mountain Daylight Time)","170300","","null","","","","","FIX","","<div class='trialBorder'><div class='vertical-center'><img style='vertical-align:center; align:center' src=img/fixation3.jpg></div></div>","null","","","","","","",""
"html-keyboard-response","9","88994","0.0-6.0-2.1","63b6cc23f13731158517f900","bdp_sd","Tue Apr 11 2023 01:05:27 GMT-0600 (Mountain Daylight Time)","170300","","1482","","","","","offer","","<div class='trialBorder'><div class='vertical-center'><img style='vertical-align:center; align:center' src=img/fixation3.jpg></div><div class='cl'><div class='vertical-center'>$20<br>for<br>yourself</div></div><div class='cr'><div class='vertical-center'>$55<br>for<br>Tristen</div></div><div class='respDivL'><div class='vertical-center'>(E)</div></div><div class='respDivR'><div class='vertical-center'>(I)</div></div></div>","I","$20<br>for<br>yourself","$55<br>for<br>1","0","20","55","1","OTHER"
"html-keyboard-response","10","89245","0.0-6.0-3.1","63b6cc23f13731158517f900","bdp_sd","Tue Apr 11 2023 01:05:27 GMT-0600 (Mountain Daylight Time)","170300","","null","","","","","offerFB","","<div class='trialBorder'><div class='vertical-center'><img style='vertical-align:center; align:center' src=img/fixation3.jpg></div><div class='cl'><div class='vertical-center'>$20<br>for<br>yourself</div></div><div class='cr'><div class='vertical-center'><font style='color:orange'>$55<br>for<br>Tristen</font></div></div><div class='respDivL'><div class='vertical-center'>(E)</div></div><div class='respDivR'><div class='vertical-center'><font style='color:orange'>(I)</font></div></div></div>","null","$20<br>for<br>yourself","$55<br>for<br>1","0","20","55","1",""
"html-keyboard-response","11","89746","0.0-6.0-1.2","63b6cc23f13731158517f900","bdp_sd","Tue Apr 11 2023 01:05:27 GMT-0600 (Mountain Daylight Time)","170300","","null","","","","","FIX","","<div class='trialBorder'><div class='vertical-center'><img style='vertical-align:center; align:center' src=img/fixation3.jpg></div></div>","null","","","","","","",""
"html-keyboard-response","12","91034","0.0-6.0-2.2","63b6cc23f13731158517f900","bdp_sd","Tue Apr 11 2023 01:05:27 GMT-0600 (Mountain Daylight Time)","170300","","1288","","","","","offer","","<div class='trialBorder'><div class='vertical-center'><img style='vertical-align:center; align:center' src=img/fixation3.jpg></div><div class='cl'><div class='vertical-center'>$85<br>for<br>Tristen</div></div><div class='cr'><div class='vertical-center'>$31<br>for<br>yourself</div></div><div class='respDivL'><div class='vertical-center'>(E)</div></div><div class='respDivR'><div class='vertical-center'>(I)</div></div></div>","E","$31<br>for<br>yourself","$85<br>for<br>1","1","31","85","1","OTHER"
"html-keyboard-response","13","91285","0.0-6.0-3.2","63b6cc23f13731158517f900","bdp_sd","Tue Apr 11 2023 01:05:27 GMT-0600 (Mountain Daylight Time)","170300","","null","","","","","offerFB","","<div class='trialBorder'><div class='vertical-center'><img style='vertical-align:center; align:center' src=img/fixation3.jpg></div><div class='cl'><div class='vertical-center'><font style='color:orange'>$85<br>for<br>Tristen</font></div></div><div class='cr'><div class='vertical-center'>$31<br>for<br>yourself</div></div><div class='respDivL'><div class='vertical-center'><font style='color:orange'>(E)</font></div></div><div class='respDivR'><div class='vertical-center'>(I)</div></div></div>","null","$31<br>for<br>yourself","$85<br>for<br>1","1","31","85","1",""
"html-keyboard-response","14","91786","0.0-6.0-1.3","63b6cc23f13731158517f900","bdp_sd","Tue Apr 11 2023 01:05:27 GMT-0600 (Mountain Daylight Time)","170300","","null","","","","","FIX","","<div class='trialBorder'><div class='vertical-center'><img style='vertical-align:center; align:center' src=img/fixation3.jpg></div></div>","null","","","","","","",""
"html-keyboard-response","15","93293","0.0-6.0-2.3","63b6cc23f13731158517f900","bdp_sd","Tue Apr 11 2023 01:05:27 GMT-0600 (Mountain Daylight Time)","170300","","1506","","","","","offer","","<div class='trialBorder'><div class='vertical-center'><img style='vertical-align:center; align:center' src=img/fixation3.jpg></div><div class='cl'><div class='vertical-center'>$80<br>for<br>Issa</div></div><div class='cr'><div class='vertical-center'>$54<br>for<br>yourself</div></div><div class='respDivL'><div class='vertical-center'>(E)</div></div><div class='respDivR'><div class='vertical-center'>(I)</div></div></div>","E","$54<br>for<br>yourself","$80<br>for<br>3","1","54","80","3","OTHER"
"html-keyboard-response","16","93544","0.0-6.0-3.3","63b6cc23f13731158517f900","bdp_sd","Tue Apr 11 2023 01:05:27 GMT-0600 (Mountain Daylight Time)","170300","","null","","","","","offerFB","","<div class='trialBorder'><div class='vertical-center'><img style='vertical-align:center; align:center' src=img/fixation3.jpg></div><div class='cl'><div class='vertical-center'><font style='color:orange'>$80<br>for<br>Issa</font></div></div><div class='cr'><div class='vertical-center'>$54<br>for<br>yourself</div></div><div class='respDivL'><div class='vertical-center'><font style='color:orange'>(E)</font></div></div><div class='respDivR'><div class='vertical-center'>(I)</div></div></div>","null","$54<br>for<br>yourself","$80<br>for<br>3","1","54","80","3",""
"html-keyboard-response","17","94045","0.0-6.0-1.4","63b6cc23f13731158517f900","bdp_sd","Tue Apr 11 2023 01:05:27 GMT-0600 (Mountain Daylight Time)","170300","","null","","","","","FIX","","<div class='trialBorder'><div class='vertical-center'><img style='vertical-align:center; align:center' src=img/fixation3.jpg></div></div>","null","","","","","","",""
"html-keyboard-response","18","96308","0.0-6.0-2.4","63b6cc23f13731158517f900","bdp_sd","Tue Apr 11 2023 01:05:27 GMT-0600 (Mountain Daylight Time)","170300","","2263","","","","","offer","","<div class='trialBorder'><div class='vertical-center'><img style='vertical-align:center; align:center' src=img/fixation3.jpg></div><div class='cl'><div class='vertical-center'>$47<br>for<br>yourself</div></div><div class='cr'><div class='vertical-center'>$50<br>for<br>Tom</div></div><div class='respDivL'><div class='vertical-center'>(E)</div></div><div class='respDivR'><div class='vertical-center'>(I)</div></div></div>","E","$47<br>for<br>yourself","$50<br>for<br>5","0","47","50","5","SELF"
"html-keyboard-response","19","96559","0.0-6.0-3.4","63b6cc23f13731158517f900","bdp_sd","Tue Apr 11 2023 01:05:27 GMT-0600 (Mountain Daylight Time)","170300","","null","","","","","offerFB","","<div class='trialBorder'><div class='vertical-center'><img style='vertical-align:center; align:center' src=img/fixation3.jpg></div><div class='cl'><div class='vertical-center'><font style='color:orange'>$47<br>for<br>yourself</font></div></div><div class='cr'><div class='vertical-center'>$50<br>for<br>Tom</div></div><div class='respDivL'><div class='vertical-center'><font style='color:orange'>(E)</font></div></div><div class='respDivR'><div class='vertical-center'>(I)</div></div></div>","null","$47<br>for<br>yourself","$50<br>for<br>5","0","47","50","5",""
"html-keyboard-response","20","97060","0.0-6.0-1.5","63b6cc23f13731158517f900","bdp_sd","Tue Apr 11 2023 01:05:27 GMT-0600 (Mountain Daylight Time)","170300","","null","","","","","FIX","","<div class='trialBorder'><div class='vertical-center'><img style='vertical-align:center; align:center' src=img/fixation3.jpg></div></div>","null","","","","","","",""
"html-keyboard-response","21","99672","0.0-6.0-2.5","63b6cc23f13731158517f900","bdp_sd","Tue Apr 11 2023 01:05:27 GMT-0600 (Mountain Daylight Time)","170300","","2611","","","","","offer","","<div class='trialBorder'><div class='vertical-center'><img style='vertical-align:center; align:center' src=img/fixation3.jpg></div><div class='cl'><div class='vertical-center'>$54<br>for<br>yourself</div></div><div class='cr'><div class='vertical-center'>$60<br>for<br>Tom</div></div><div class='respDivL'><div class='vertical-center'>(E)</div></div><div class='respDivR'><div class='vertical-center'>(I)</div></div></div>","E","$54<br>for<br>yourself","$60<br>for<br>5","0","54","60","5","SELF"
"html-keyboard-response","22","99923","0.0-6.0-3.5","63b6cc23f13731158517f900","bdp_sd","Tue Apr 11 2023 01:05:27 GMT-0600 (Mountain Daylight Time)","170300","","null","","","","","offerFB","","<div class='trialBorder'><div class='vertical-center'><img style='vertical-align:center; align:center' src=img/fixation3.jpg></div><div class='cl'><div class='vertical-center'><font style='color:orange'>$54<br>for<br>yourself</font></div></div><div class='cr'><div class='vertical-center'>$60<br>for<br>Tom</div></div><div class='respDivL'><div class='vertical-center'><font style='color:orange'>(E)</font></div></div><div class='respDivR'><div class='vertical-center'>(I)</div></div></div>","null","$54<br>for<br>yourself","$60<br>for<br>5","0","54","60","5",""
"html-keyboard-response","23","100424","0.0-6.0-1.6","63b6cc23f13731158517f900","bdp_sd","Tue Apr 11 2023 01:05:27 GMT-0600 (Mountain Daylight Time)","170300","","null","","","","","FIX","","<div class='trialBorder'><div class='vertical-center'><img style='vertical-align:center; align:center' src=img/fixation3.jpg></div></div>","null","","","","","","",""
"html-keyboard-response","24","102106","0.0-6.0-2.6","63b6cc23f13731158517f900","bdp_sd","Tue Apr 11 2023 01:05:27 GMT-0600 (Mountain Daylight Time)","170300","","1681","","","","","offer","","<div class='trialBorder'><div class='vertical-center'><img style='vertical-align:center; align:center' src=img/fixation3.jpg></div><div class='cl'><div class='vertical-center'>$60<br>for<br>Juli</div></div><div class='cr'><div class='vertical-center'>$49<br>for<br>yourself</div></div><div class='respDivL'><div class='vertical-center'>(E)</div></div><div class='respDivR'><div class='vertical-center'>(I)</div></div></div>","E","$49<br>for<br>yourself","$60<br>for<br>4","1","49","60","4","OTHER"
"html-keyboard-response","25","102357","0.0-6.0-3.6","63b6cc23f13731158517f900","bdp_sd","Tue Apr 11 2023 01:05:27 GMT-0600 (Mountain Daylight Time)","170300","","null","","","","","offerFB","","<div class='trialBorder'><div class='vertical-center'><img style='vertical-align:center; align:center' src=img/fixation3.jpg></div><div class='cl'><div class='vertical-center'><font style='color:orange'>$60<br>for<br>Juli</font></div></div><div class='cr'><div class='vertical-center'>$49<br>for<br>yourself</div></div><div class='respDivL'><div class='vertical-center'><font style='color:orange'>(E)</font></div></div><div class='respDivR'><div class='vertical-center'>(I)</div></div></div>","null","$49<br>for<br>yourself","$60<br>for<br>4","1","49","60","4",""
"html-keyboard-response","26","102858","0.0-6.0-1.7","63b6cc23f13731158517f900","bdp_sd","Tue Apr 11 2023 01:05:27 GMT-0600 (Mountain Daylight Time)","170300","","null","","","","","FIX","","<div class='trialBorder'><div class='vertical-center'><img style='vertical-align:center; align:center' src=img/fixation3.jpg></div></div>","null","","","","","","",""
"html-keyboard-response","27","106109","0.0-6.0-2.7","63b6cc23f13731158517f900","bdp_sd","Tue Apr 11 2023 01:05:27 GMT-0600 (Mountain Daylight Time)","170300","","3251","","","","","offer","","<div class='trialBorder'><div class='vertical-center'><img style='vertical-align:center; align:center' src=img/fixation3.jpg></div><div class='cl'><div class='vertical-center'>$55<br>for<br>Tom</div></div><div class='cr'><div class='vertical-center'>$54<br>for<br>yourself</div></div><div class='respDivL'><div class='vertical-center'>(E)</div></div><div class='respDivR'><div class='vertical-center'>(I)</div></div></div>","I","$54<br>for<br>yourself","$55<br>for<br>5","1","54","55","5","SELF"
"html-keyboard-response","28","106361","0.0-6.0-3.7","63b6cc23f13731158517f900","bdp_sd","Tue Apr 11 2023 01:05:27 GMT-0600 (Mountain Daylight Time)","170300","","null","","","","","offerFB","","<div class='trialBorder'><div class='vertical-center'><img style='vertical-align:center; align:center' src=img/fixation3.jpg></div><div class='cl'><div class='vertical-center'>$55<br>for<br>Tom</div></div><div class='cr'><div class='vertical-center'><font style='color:orange'>$54<br>for<br>yourself</font></div></div><div class='respDivL'><div class='vertical-center'>(E)</div></div><div class='respDivR'><div class='vertical-center'><font style='color:orange'>(I)</font></div></div></div>","null","$54<br>for<br>yourself","$55<br>for<br>5","1","54","55","5",""
"html-keyboard-response","29","106861","0.0-6.0-1.8","63b6cc23f13731158517f900","bdp_sd","Tue Apr 11 2023 01:05:27 GMT-0600 (Mountain Daylight Time)","170300","","null","","","","","FIX","","<div class='trialBorder'><div class='vertical-center'><img style='vertical-align:center; align:center' src=img/fixation3.jpg></div></div>","null","","","","","","",""
"html-keyboard-response","30","109652","0.0-6.0-2.8","63b6cc23f13731158517f900","bdp_sd","Tue Apr 11 2023 01:05:27 GMT-0600 (Mountain Daylight Time)","170300","","2789","","","","","offer","","<div class='trialBorder'><div class='vertical-center'><img style='vertical-align:center; align:center' src=img/fixation3.jpg></div><div class='cl'><div class='vertical-center'>$34<br>for<br>yourself</div></div><div class='cr'><div class='vertical-center'>$50<br>for<br>Juli</div></div><div class='respDivL'><div class='vertical-center'>(E)</div></div><div class='respDivR'><div class='vertical-center'>(I)</div></div></div>","I","$34<br>for<br>yourself","$50<br>for<br>4","0","34","50","4","OTHER"
"html-keyboard-response","31","109903","0.0-6.0-3.8","63b6cc23f13731158517f900","bdp_sd","Tue Apr 11 2023 01:05:27 GMT-0600 (Mountain Daylight Time)","170300","","null","","","","","offerFB","","<div class='trialBorder'><div class='vertical-center'><img style='vertical-align:center; align:center' src=img/fixation3.jpg></div><div class='cl'><div class='vertical-center'>$34<br>for<br>yourself</div></div><div class='cr'><div class='vertical-center'><font style='color:orange'>$50<br>for<br>Juli</font></div></div><div class='respDivL'><div class='vertical-center'>(E)</div></div><div class='respDivR'><div class='vertical-center'><font style='color:orange'>(I)</font></div></div></div>","null","$34<br>for<br>yourself","$50<br>for<br>4","0","34","50","4",""
"html-keyboard-response","32","110404","0.0-6.0-1.9","63b6cc23f13731158517f900","bdp_sd","Tue Apr 11 2023 01:05:27 GMT-0600 (Mountain Daylight Time)","170300","","null","","","","","FIX","","<div class='trialBorder'><div class='vertical-center'><img style='vertical-align:center; align:center' src=img/fixation3.jpg></div></div>","null","","","","","","",""
"html-keyboard-response","33","116459","0.0-6.0-2.9","63b6cc23f13731158517f900","bdp_sd","Tue Apr 11 2023 01:05:27 GMT-0600 (Mountain Daylight Time)","170300","","6055","","","","","offer","","<div class='trialBorder'><div class='vertical-center'><img style='vertical-align:center; align:center' src=img/fixation3.jpg></div><div class='cl'><div class='vertical-center'>$80<br>for<br>Tom</div></div><div class='cr'><div class='vertical-center'>$78<br>for<br>yourself</div></div><div class='respDivL'><div class='vertical-center'>(E)</div></div><div class='respDivR'><div class='vertical-center'>(I)</div></div></div>","I","$78<br>for<br>yourself","$80<br>for<br>5","1","78","80","5","SELF"
"html-keyboard-response","34","116710","0.0-6.0-3.9","63b6cc23f13731158517f900","bdp_sd","Tue Apr 11 2023 01:05:27 GMT-0600 (Mountain Daylight Time)","170300","","null","","","","","offerFB","","<div class='trialBorder'><div class='vertical-center'><img style='vertical-align:center; align:center' src=img/fixation3.jpg></div><div class='cl'><div class='vertical-center'>$80<br>for<br>Tom</div></div><div class='cr'><div class='vertical-center'><font style='color:orange'>$78<br>for<br>yourself</font></div></div><div class='respDivL'><div class='vertical-center'>(E)</div></div><div class='respDivR'><div class='vertical-center'><font style='color:orange'>(I)</font></div></div></div>","null","$78<br>for<br>yourself","$80<br>for<br>5","1","78","80","5",""
"html-keyboard-response","35","117211","0.0-6.0-1.10","63b6cc23f13731158517f900","bdp_sd","Tue Apr 11 2023 01:05:27 GMT-0600 (Mountain Daylight Time)","170300","","null","","","","","FIX","","<div class='trialBorder'><div class='vertical-center'><img style='vertical-align:center; align:center' src=img/fixation3.jpg></div></div>","null","","","","","","",""
"html-keyboard-response","36","120386","0.0-6.0-2.10","63b6cc23f13731158517f900","bdp_sd","Tue Apr 11 2023 01:05:27 GMT-0600 (Mountain Daylight Time)","170300","","3174","","","","","offer","","<div class='trialBorder'><div class='vertical-center'><img style='vertical-align:center; align:center' src=img/fixation3.jpg></div><div class='cl'><div class='vertical-center'>$67<br>for<br>yourself</div></div><div class='cr'><div class='vertical-center'>$75<br>for<br>Tom</div></div><div class='respDivL'><div class='vertical-center'>(E)</div></div><div class='respDivR'><div class='vertical-center'>(I)</div></div></div>","E","$67<br>for<br>yourself","$75<br>for<br>5","0","67","75","5","SELF"
"html-keyboard-response","37","120641","0.0-6.0-3.10","63b6cc23f13731158517f900","bdp_sd","Tue Apr 11 2023 01:05:27 GMT-0600 (Mountain Daylight Time)","170300","","null","","","","","offerFB","","<div class='trialBorder'><div class='vertical-center'><img style='vertical-align:center; align:center' src=img/fixation3.jpg></div><div class='cl'><div class='vertical-center'><font style='color:orange'>$67<br>for<br>yourself</font></div></div><div class='cr'><div class='vertical-center'>$75<br>for<br>Tom</div></div><div class='respDivL'><div class='vertical-center'><font style='color:orange'>(E)</font></div></div><div class='respDivR'><div class='vertical-center'>(I)</div></div></div>","null","$67<br>for<br>yourself","$75<br>for<br>5","0","67","75","5",""
"html-keyboard-response","38","121152","0.0-6.0-1.11","63b6cc23f13731158517f900","bdp_sd","Tue Apr 11 2023 01:05:27 GMT-0600 (Mountain Daylight Time)","170300","","null","","","","","FIX","","<div class='trialBorder'><div class='vertical-center'><img style='vertical-align:center; align:center' src=img/fixation3.jpg></div></div>","null","","","","","","",""
"html-keyboard-response","39","122568","0.0-6.0-2.11","63b6cc23f13731158517f900","bdp_sd","Tue Apr 11 2023 01:05:27 GMT-0600 (Mountain Daylight Time)","170300","","1415","","","","","offer","","<div class='trialBorder'><div class='vertical-center'><img style='vertical-align:center; align:center' src=img/fixation3.jpg></div><div class='cl'><div class='vertical-center'>$85<br>for<br>Juli</div></div><div class='cr'><div class='vertical-center'>$69<br>for<br>yourself</div></div><div class='respDivL'><div class='vertical-center'>(E)</div></div><div class='respDivR'><div class='vertical-center'>(I)</div></div></div>","E","$69<br>for<br>yourself","$85<br>for<br>4","1","69","85","4","OTHER"
"html-keyboard-response","40","122819","0.0-6.0-3.11","63b6cc23f13731158517f900","bdp_sd","Tue Apr 11 2023 01:05:27 GMT-0600 (Mountain Daylight Time)","170300","","null","","","","","offerFB","","<div class='trialBorder'><div class='vertical-center'><img style='vertical-align:center; align:center' src=img/fixation3.jpg></div><div class='cl'><div class='vertical-center'><font style='color:orange'>$85<br>for<br>Juli</font></div></div><div class='cr'><div class='vertical-center'>$69<br>for<br>yourself</div></div><div class='respDivL'><div class='vertical-center'><font style='color:orange'>(E)</font></div></div><div class='respDivR'><div class='vertical-center'>(I)</div></div></div>","null","$69<br>for<br>yourself","$85<br>for<br>4","1","69","85","4",""
"html-keyboard-response","41","123320","0.0-6.0-1.12","63b6cc23f13731158517f900","bdp_sd","Tue Apr 11 2023 01:05:27 GMT-0600 (Mountain Daylight Time)","170300","","null","","","","","FIX","","<div class='trialBorder'><div class='vertical-center'><img style='vertical-align:center; align:center' src=img/fixation3.jpg></div></div>","null","","","","","","",""
"html-keyboard-response","42","125596","0.0-6.0-2.12","63b6cc23f13731158517f900","bdp_sd","Tue Apr 11 2023 01:05:27 GMT-0600 (Mountain Daylight Time)","170300","","2275","","","","","offer","","<div class='trialBorder'><div class='vertical-center'><img style='vertical-align:center; align:center' src=img/fixation3.jpg></div><div class='cl'><div class='vertical-center'>$28<br>for<br>yourself</div></div><div class='cr'><div class='vertical-center'>$30<br>for<br>Tom</div></div><div class='respDivL'><div class='vertical-center'>(E)</div></div><div class='respDivR'><div class='vertical-center'>(I)</div></div></div>","E","$28<br>for<br>yourself","$30<br>for<br>5","0","28","30","5","SELF"
"html-keyboard-response","43","125847","0.0-6.0-3.12","63b6cc23f13731158517f900","bdp_sd","Tue Apr 11 2023 01:05:27 GMT-0600 (Mountain Daylight Time)","170300","","null","","","","","offerFB","","<div class='trialBorder'><div class='vertical-center'><img style='vertical-align:center; align:center' src=img/fixation3.jpg></div><div class='cl'><div class='vertical-center'><font style='color:orange'>$28<br>for<br>yourself</font></div></div><div class='cr'><div class='vertical-center'>$30<br>for<br>Tom</div></div><div class='respDivL'><div class='vertical-center'><font style='color:orange'>(E)</font></div></div><div class='respDivR'><div class='vertical-center'>(I)</div></div></div>","null","$28<br>for<br>yourself","$30<br>for<br>5","0","28","30","5",""
"html-keyboard-response","44","126348","0.0-6.0-1.13","63b6cc23f13731158517f900","bdp_sd","Tue Apr 11 2023 01:05:27 GMT-0600 (Mountain Daylight Time)","170300","","null","","","","","FIX","","<div class='trialBorder'><div class='vertical-center'><img style='vertical-align:center; align:center' src=img/fixation3.jpg></div></div>","null","","","","","","",""
"html-keyboard-response","45","128332","0.0-6.0-2.13","63b6cc23f13731158517f900","bdp_sd","Tue Apr 11 2023 01:05:27 GMT-0600 (Mountain Daylight Time)","170300","","1982","","","","","offer","","<div class='trialBorder'><div class='vertical-center'><img style='vertical-align:center; align:center' src=img/fixation3.jpg></div><div class='cl'><div class='vertical-center'>$24<br>for<br>yourself</div></div><div class='cr'><div class='vertical-center'>$35<br>for<br>Issa</div></div><div class='respDivL'><div class='vertical-center'>(E)</div></div><div class='respDivR'><div class='vertical-center'>(I)</div></div></div>","I","$24<br>for<br>yourself","$35<br>for<br>3","0","24","35","3","OTHER"
"html-keyboard-response","46","128583","0.0-6.0-3.13","63b6cc23f13731158517f900","bdp_sd","Tue Apr 11 2023 01:05:27 GMT-0600 (Mountain Daylight Time)","170300","","null","","","","","offerFB","","<div class='trialBorder'><div class='vertical-center'><img style='vertical-align:center; align:center' src=img/fixation3.jpg></div><div class='cl'><div class='vertical-center'>$24<br>for<br>yourself</div></div><div class='cr'><div class='vertical-center'><font style='color:orange'>$35<br>for<br>Issa</font></div></div><div class='respDivL'><div class='vertical-center'>(E)</div></div><div class='respDivR'><div class='vertical-center'><font style='color:orange'>(I)</font></div></div></div>","null","$24<br>for<br>yourself","$35<br>for<br>3","0","24","35","3",""
"html-keyboard-response","47","129084","0.0-6.0-1.14","63b6cc23f13731158517f900","bdp_sd","Tue Apr 11 2023 01:05:27 GMT-0600 (Mountain Daylight Time)","170300","","null","","","","","FIX","","<div class='trialBorder'><div class='vertical-center'><img style='vertical-align:center; align:center' src=img/fixation3.jpg></div></div>","null","","","","","","",""
"html-keyboard-response","48","131297","0.0-6.0-2.14","63b6cc23f13731158517f900","bdp_sd","Tue Apr 11 2023 01:05:27 GMT-0600 (Mountain Daylight Time)","170300","","2213","","","","","offer","","<div class='trialBorder'><div class='vertical-center'><img style='vertical-align:center; align:center' src=img/fixation3.jpg></div><div class='cl'><div class='vertical-center'>$14<br>for<br>yourself</div></div><div class='cr'><div class='vertical-center'>$25<br>for<br>Issa</div></div><div class='respDivL'><div class='vertical-center'>(E)</div></div><div class='respDivR'><div class='vertical-center'>(I)</div></div></div>","I","$14<br>for<br>yourself","$25<br>for<br>3","0","14","25","3","OTHER"
"html-keyboard-response","49","131548","0.0-6.0-3.14","63b6cc23f13731158517f900","bdp_sd","Tue Apr 11 2023 01:05:27 GMT-0600 (Mountain Daylight Time)","170300","","null","","","","","offerFB","","<div class='trialBorder'><div class='vertical-center'><img style='vertical-align:center; align:center' src=img/fixation3.jpg></div><div class='cl'><div class='vertical-center'>$14<br>for<br>yourself</div></div><div class='cr'><div class='vertical-center'><font style='color:orange'>$25<br>for<br>Issa</font></div></div><div class='respDivL'><div class='vertical-center'>(E)</div></div><div class='respDivR'><div class='vertical-center'><font style='color:orange'>(I)</font></div></div></div>","null","$14<br>for<br>yourself","$25<br>for<br>3","0","14","25","3",""
"html-keyboard-response","50","132049","0.0-6.0-1.15","63b6cc23f13731158517f900","bdp_sd","Tue Apr 11 2023 01:05:27 GMT-0600 (Mountain Daylight Time)","170300","","null","","","","","FIX","","<div class='trialBorder'><div class='vertical-center'><img style='vertical-align:center; align:center' src=img/fixation3.jpg></div></div>","null","","","","","","",""
"html-keyboard-response","51","135392","0.0-6.0-2.15","63b6cc23f13731158517f900","bdp_sd","Tue Apr 11 2023 01:05:27 GMT-0600 (Mountain Daylight Time)","170300","","3342","","","","","offer","","<div class='trialBorder'><div class='vertical-center'><img style='vertical-align:center; align:center' src=img/fixation3.jpg></div><div class='cl'><div class='vertical-center'>$22<br>for<br>yourself</div></div><div class='cr'><div class='vertical-center'>$25<br>for<br>Tom</div></div><div class='respDivL'><div class='vertical-center'>(E)</div></div><div class='respDivR'><div class='vertical-center'>(I)</div></div></div>","I","$22<br>for<br>yourself","$25<br>for<br>5","0","22","25","5","OTHER"
"html-keyboard-response","52","135643","0.0-6.0-3.15","63b6cc23f13731158517f900","bdp_sd","Tue Apr 11 2023 01:05:27 GMT-0600 (Mountain Daylight Time)","170300","","null","","","","","offerFB","","<div class='trialBorder'><div class='vertical-center'><img style='vertical-align:center; align:center' src=img/fixation3.jpg></div><div class='cl'><div class='vertical-center'>$22<br>for<br>yourself</div></div><div class='cr'><div class='vertical-center'><font style='color:orange'>$25<br>for<br>Tom</font></div></div><div class='respDivL'><div class='vertical-center'>(E)</div></div><div class='respDivR'><div class='vertical-center'><font style='color:orange'>(I)</font></div></div></div>","null","$22<br>for<br>yourself","$25<br>for<br>5","0","22","25","5",""
"html-keyboard-response","53","136144","0.0-6.0-1.16","63b6cc23f13731158517f900","bdp_sd","Tue Apr 11 2023 01:05:27 GMT-0600 (Mountain Daylight Time)","170300","","null","","","","","FIX","","<div class='trialBorder'><div class='vertical-center'><img style='vertical-align:center; align:center' src=img/fixation3.jpg></div></div>","null","","","","","","",""
"html-keyboard-response","54","137863","0.0-6.0-2.16","63b6cc23f13731158517f900","bdp_sd","Tue Apr 11 2023 01:05:27 GMT-0600 (Mountain Daylight Time)","170300","","1718","","","","","offer","","<div class='trialBorder'><div class='vertical-center'><img style='vertical-align:center; align:center' src=img/fixation3.jpg></div><div class='cl'><div class='vertical-center'>$40<br>for<br>yourself</div></div><div class='cr'><div class='vertical-center'>$55<br>for<br>Juli</div></div><div class='respDivL'><div class='vertical-center'>(E)</div></div><div class='respDivR'><div class='vertical-center'>(I)</div></div></div>","I","$40<br>for<br>yourself","$55<br>for<br>4","0","40","55","4","OTHER"
"html-keyboard-response","55","138114","0.0-6.0-3.16","63b6cc23f13731158517f900","bdp_sd","Tue Apr 11 2023 01:05:27 GMT-0600 (Mountain Daylight Time)","170300","","null","","","","","offerFB","","<div class='trialBorder'><div class='vertical-center'><img style='vertical-align:center; align:center' src=img/fixation3.jpg></div><div class='cl'><div class='vertical-center'>$40<br>for<br>yourself</div></div><div class='cr'><div class='vertical-center'><font style='color:orange'>$55<br>for<br>Juli</font></div></div><div class='respDivL'><div class='vertical-center'>(E)</div></div><div class='respDivR'><div class='vertical-center'><font style='color:orange'>(I)</font></div></div></div>","null","$40<br>for<br>yourself","$55<br>for<br>4","0","40","55","4",""
"html-keyboard-response","56","138615","0.0-6.0-1.17","63b6cc23f13731158517f900","bdp_sd","Tue Apr 11 2023 01:05:27 GMT-0600 (Mountain Daylight Time)","170300","","null","","","","","FIX","","<div class='trialBorder'><div class='vertical-center'><img style='vertical-align:center; align:center' src=img/fixation3.jpg></div></div>","null","","","","","","",""
"html-keyboard-response","57","141274","0.0-6.0-2.17","63b6cc23f13731158517f900","bdp_sd","Tue Apr 11 2023 01:05:27 GMT-0600 (Mountain Daylight Time)","170300","","2659","","","","","offer","","<div class='trialBorder'><div class='vertical-center'><img style='vertical-align:center; align:center' src=img/fixation3.jpg></div><div class='cl'><div class='vertical-center'>$25<br>for<br>Juli</div></div><div class='cr'><div class='vertical-center'>$19<br>for<br>yourself</div></div><div class='respDivL'><div class='vertical-center'>(E)</div></div><div class='respDivR'><div class='vertical-center'>(I)</div></div></div>","I","$19<br>for<br>yourself","$25<br>for<br>4","1","19","25","4","SELF"
"html-keyboard-response","58","141527","0.0-6.0-3.17","63b6cc23f13731158517f900","bdp_sd","Tue Apr 11 2023 01:05:27 GMT-0600 (Mountain Daylight Time)","170300","","null","","","","","offerFB","","<div class='trialBorder'><div class='vertical-center'><img style='vertical-align:center; align:center' src=img/fixation3.jpg></div><div class='cl'><div class='vertical-center'>$25<br>for<br>Juli</div></div><div class='cr'><div class='vertical-center'><font style='color:orange'>$19<br>for<br>yourself</font></div></div><div class='respDivL'><div class='vertical-center'>(E)</div></div><div class='respDivR'><div class='vertical-center'><font style='color:orange'>(I)</font></div></div></div>","null","$19<br>for<br>yourself","$25<br>for<br>4","1","19","25","4",""
"html-keyboard-response","59","142028","0.0-6.0-1.18","63b6cc23f13731158517f900","bdp_sd","Tue Apr 11 2023 01:05:27 GMT-0600 (Mountain Daylight Time)","170300","","null","","","","","FIX","","<div class='trialBorder'><div class='vertical-center'><img style='vertical-align:center; align:center' src=img/fixation3.jpg></div></div>","null","","","","","","",""
"html-keyboard-response","60","143566","0.0-6.0-2.18","63b6cc23f13731158517f900","bdp_sd","Tue Apr 11 2023 01:05:27 GMT-0600 (Mountain Daylight Time)","170300","","1538","","","","","offer","","<div class='trialBorder'><div class='vertical-center'><img style='vertical-align:center; align:center' src=img/fixation3.jpg></div><div class='cl'><div class='vertical-center'>$50<br>for<br>Issa</div></div><div class='cr'><div class='vertical-center'>$27<br>for<br>yourself</div></div><div class='respDivL'><div class='vertical-center'>(E)</div></div><div class='respDivR'><div class='vertical-center'>(I)</div></div></div>","E","$27<br>for<br>yourself","$50<br>for<br>3","1","27","50","3","OTHER"
"html-keyboard-response","61","143817","0.0-6.0-3.18","63b6cc23f13731158517f900","bdp_sd","Tue Apr 11 2023 01:05:27 GMT-0600 (Mountain Daylight Time)","170300","","null","","","","","offerFB","","<div class='trialBorder'><div class='vertical-center'><img style='vertical-align:center; align:center' src=img/fixation3.jpg></div><div class='cl'><div class='vertical-center'><font style='color:orange'>$50<br>for<br>Issa</font></div></div><div class='cr'><div class='vertical-center'>$27<br>for<br>yourself</div></div><div class='respDivL'><div class='vertical-center'><font style='color:orange'>(E)</font></div></div><div class='respDivR'><div class='vertical-center'>(I)</div></div></div>","null","$27<br>for<br>yourself","$50<br>for<br>3","1","27","50","3",""
"html-keyboard-response","62","144318","0.0-6.0-1.19","63b6cc23f13731158517f900","bdp_sd","Tue Apr 11 2023 01:05:27 GMT-0600 (Mountain Daylight Time)","170300","","null","","","","","FIX","","<div class='trialBorder'><div class='vertical-center'><img style='vertical-align:center; align:center' src=img/fixation3.jpg></div></div>","null","","","","","","",""
"html-keyboard-response","63","145805","0.0-6.0-2.19","63b6cc23f13731158517f900","bdp_sd","Tue Apr 11 2023 01:05:27 GMT-0600 (Mountain Daylight Time)","170300","","1486","","","","","offer","","<div class='trialBorder'><div class='vertical-center'><img style='vertical-align:center; align:center' src=img/fixation3.jpg></div><div class='cl'><div class='vertical-center'>$35<br>for<br>Cy</div></div><div class='cr'><div class='vertical-center'>$15<br>for<br>yourself</div></div><div class='respDivL'><div class='vertical-center'>(E)</div></div><div class='respDivR'><div class='vertical-center'>(I)</div></div></div>","E","$15<br>for<br>yourself","$35<br>for<br>2","1","15","35","2","OTHER"
"html-keyboard-response","64","146056","0.0-6.0-3.19","63b6cc23f13731158517f900","bdp_sd","Tue Apr 11 2023 01:05:27 GMT-0600 (Mountain Daylight Time)","170300","","null","","","","","offerFB","","<div class='trialBorder'><div class='vertical-center'><img style='vertical-align:center; align:center' src=img/fixation3.jpg></div><div class='cl'><div class='vertical-center'><font style='color:orange'>$35<br>for<br>Cy</font></div></div><div class='cr'><div class='vertical-center'>$15<br>for<br>yourself</div></div><div class='respDivL'><div class='vertical-center'><font style='color:orange'>(E)</font></div></div><div class='respDivR'><div class='vertical-center'>(I)</div></div></div>","null","$15<br>for<br>yourself","$35<br>for<br>2","1","15","35","2",""
"html-keyboard-response","65","146557","0.0-6.0-1.20","63b6cc23f13731158517f900","bdp_sd","Tue Apr 11 2023 01:05:27 GMT-0600 (Mountain Daylight Time)","170300","","null","","","","","FIX","","<div class='trialBorder'><div class='vertical-center'><img style='vertical-align:center; align:center' src=img/fixation3.jpg></div></div>","null","","","","","","",""
"html-keyboard-response","66","148018","0.0-6.0-2.20","63b6cc23f13731158517f900","bdp_sd","Tue Apr 11 2023 01:05:27 GMT-0600 (Mountain Daylight Time)","170300","","1460","","","","","offer","","<div class='trialBorder'><div class='vertical-center'><img style='vertical-align:center; align:center' src=img/fixation3.jpg></div><div class='cl'><div class='vertical-center'>$33<br>for<br>yourself</div></div><div class='cr'><div class='vertical-center'>$80<br>for<br>Cy</div></div><div class='respDivL'><div class='vertical-center'>(E)</div></div><div class='respDivR'><div class='vertical-center'>(I)</div></div></div>","I","$33<br>for<br>yourself","$80<br>for<br>2","0","33","80","2","OTHER"
"html-keyboard-response","67","148269","0.0-6.0-3.20","63b6cc23f13731158517f900","bdp_sd","Tue Apr 11 2023 01:05:27 GMT-0600 (Mountain Daylight Time)","170300","","null","","","","","offerFB","","<div class='trialBorder'><div class='vertical-center'><img style='vertical-align:center; align:center' src=img/fixation3.jpg></div><div class='cl'><div class='vertical-center'>$33<br>for<br>yourself</div></div><div class='cr'><div class='vertical-center'><font style='color:orange'>$80<br>for<br>Cy</font></div></div><div class='respDivL'><div class='vertical-center'>(E)</div></div><div class='respDivR'><div class='vertical-center'><font style='color:orange'>(I)</font></div></div></div>","null","$33<br>for<br>yourself","$80<br>for<br>2","0","33","80","2",""
"html-keyboard-response","68","148770","0.0-6.0-1.21","63b6cc23f13731158517f900","bdp_sd","Tue Apr 11 2023 01:05:27 GMT-0600 (Mountain Daylight Time)","170300","","null","","","","","FIX","","<div class='trialBorder'><div class='vertical-center'><img style='vertical-align:center; align:center' src=img/fixation3.jpg></div></div>","null","","","","","","",""
"html-keyboard-response","69","151134","0.0-6.0-2.21","63b6cc23f13731158517f900","bdp_sd","Tue Apr 11 2023 01:05:27 GMT-0600 (Mountain Daylight Time)","170300","","2363","","","","","offer","","<div class='trialBorder'><div class='vertical-center'><img style='vertical-align:center; align:center' src=img/fixation3.jpg></div><div class='cl'><div class='vertical-center'>$85<br>for<br>Tom</div></div><div class='cr'><div class='vertical-center'>$80<br>for<br>yourself</div></div><div class='respDivL'><div class='vertical-center'>(E)</div></div><div class='respDivR'><div class='vertical-center'>(I)</div></div></div>","E","$80<br>for<br>yourself","$85<br>for<br>5","1","80","85","5","OTHER"
"html-keyboard-response","70","151385","0.0-6.0-3.21","63b6cc23f13731158517f900","bdp_sd","Tue Apr 11 2023 01:05:27 GMT-0600 (Mountain Daylight Time)","170300","","null","","","","","offerFB","","<div class='trialBorder'><div class='vertical-center'><img style='vertical-align:center; align:center' src=img/fixation3.jpg></div><div class='cl'><div class='vertical-center'><font style='color:orange'>$85<br>for<br>Tom</font></div></div><div class='cr'><div class='vertical-center'>$80<br>for<br>yourself</div></div><div class='respDivL'><div class='vertical-center'><font style='color:orange'>(E)</font></div></div><div class='respDivR'><div class='vertical-center'>(I)</div></div></div>","null","$80<br>for<br>yourself","$85<br>for<br>5","1","80","85","5",""
"html-keyboard-response","71","151886","0.0-6.0-1.22","63b6cc23f13731158517f900","bdp_sd","Tue Apr 11 2023 01:05:27 GMT-0600 (Mountain Daylight Time)","170300","","null","","","","","FIX","","<div class='trialBorder'><div class='vertical-center'><img style='vertical-align:center; align:center' src=img/fixation3.jpg></div></div>","null","","","","","","",""
"html-keyboard-response","72","159618","0.0-6.0-2.22","63b6cc23f13731158517f900","bdp_sd","Tue Apr 11 2023 01:05:27 GMT-0600 (Mountain Daylight Time)","170300","","7730","","","","","offer","","<div class='trialBorder'><div class='vertical-center'><img style='vertical-align:center; align:center' src=img/fixation3.jpg></div><div class='cl'><div class='vertical-center'>$25<br>for<br>yourself</div></div><div class='cr'><div class='vertical-center'>$30<br>for<br>Juli</div></div><div class='respDivL'><div class='vertical-center'>(E)</div></div><div class='respDivR'><div class='vertical-center'>(I)</div></div></div>","E","$25<br>for<br>yourself","$30<br>for<br>4","0","25","30","4","SELF"
"html-keyboard-response","73","159869","0.0-6.0-3.22","63b6cc23f13731158517f900","bdp_sd","Tue Apr 11 2023 01:05:27 GMT-0600 (Mountain Daylight Time)","170300","","null","","","","","offerFB","","<div class='trialBorder'><div class='vertical-center'><img style='vertical-align:center; align:center' src=img/fixation3.jpg></div><div class='cl'><div class='vertical-center'><font style='color:orange'>$25<br>for<br>yourself</font></div></div><div class='cr'><div class='vertical-center'>$30<br>for<br>Juli</div></div><div class='respDivL'><div class='vertical-center'><font style='color:orange'>(E)</font></div></div><div class='respDivR'><div class='vertical-center'>(I)</div></div></div>","null","$25<br>for<br>yourself","$30<br>for<br>4","0","25","30","4",""
"html-keyboard-response","74","160370","0.0-6.0-1.23","63b6cc23f13731158517f900","bdp_sd","Tue Apr 11 2023 01:05:27 GMT-0600 (Mountain Daylight Time)","170300","","null","","","","","FIX","","<div class='trialBorder'><div class='vertical-center'><img style='vertical-align:center; align:center' src=img/fixation3.jpg></div></div>","null","","","","","","",""
"html-keyboard-response","75","162114","0.0-6.0-2.23","63b6cc23f13731158517f900","bdp_sd","Tue Apr 11 2023 01:05:27 GMT-0600 (Mountain Daylight Time)","170300","","1743","","","","","offer","","<div class='trialBorder'><div class='vertical-center'><img style='vertical-align:center; align:center' src=img/fixation3.jpg></div><div class='cl'><div class='vertical-center'>$35<br>for<br>Tom</div></div><div class='cr'><div class='vertical-center'>$34<br>for<br>yourself</div></div><div class='respDivL'><div class='vertical-center'>(E)</div></div><div class='respDivR'><div class='vertical-center'>(I)</div></div></div>","I","$34<br>for<br>yourself","$35<br>for<br>5","1","34","35","5","SELF"
"html-keyboard-response","76","162365","0.0-6.0-3.23","63b6cc23f13731158517f900","bdp_sd","Tue Apr 11 2023 01:05:27 GMT-0600 (Mountain Daylight Time)","170300","","null","","","","","offerFB","","<div class='trialBorder'><div class='vertical-center'><img style='vertical-align:center; align:center' src=img/fixation3.jpg></div><div class='cl'><div class='vertical-center'>$35<br>for<br>Tom</div></div><div class='cr'><div class='vertical-center'><font style='color:orange'>$34<br>for<br>yourself</font></div></div><div class='respDivL'><div class='vertical-center'>(E)</div></div><div class='respDivR'><div class='vertical-center'><font style='color:orange'>(I)</font></div></div></div>","null","$34<br>for<br>yourself","$35<br>for<br>5","1","34","35","5",""
"html-keyboard-response","77","162866","0.0-6.0-1.24","63b6cc23f13731158517f900","bdp_sd","Tue Apr 11 2023 01:05:27 GMT-0600 (Mountain Daylight Time)","170300","","null","","","","","FIX","","<div class='trialBorder'><div class='vertical-center'><img style='vertical-align:center; align:center' src=img/fixation3.jpg></div></div>","null","","","","","","",""
"html-keyboard-response","78","164523","0.0-6.0-2.24","63b6cc23f13731158517f900","bdp_sd","Tue Apr 11 2023 01:05:27 GMT-0600 (Mountain Daylight Time)","170300","","1657","","","","","offer","","<div class='trialBorder'><div class='vertical-center'><img style='vertical-align:center; align:center' src=img/fixation3.jpg></div><div class='cl'><div class='vertical-center'>$41<br>for<br>yourself</div></div><div class='cr'><div class='vertical-center'>$75<br>for<br>Issa</div></div><div class='respDivL'><div class='vertical-center'>(E)</div></div><div class='respDivR'><div class='vertical-center'>(I)</div></div></div>","I","$41<br>for<br>yourself","$75<br>for<br>3","0","41","75","3","OTHER"
"html-keyboard-response","79","164775","0.0-6.0-3.24","63b6cc23f13731158517f900","bdp_sd","Tue Apr 11 2023 01:05:27 GMT-0600 (Mountain Daylight Time)","170300","","null","","","","","offerFB","","<div class='trialBorder'><div class='vertical-center'><img style='vertical-align:center; align:center' src=img/fixation3.jpg></div><div class='cl'><div class='vertical-center'>$41<br>for<br>yourself</div></div><div class='cr'><div class='vertical-center'><font style='color:orange'>$75<br>for<br>Issa</font></div></div><div class='respDivL'><div class='vertical-center'>(E)</div></div><div class='respDivR'><div class='vertical-center'><font style='color:orange'>(I)</font></div></div></div>","null","$41<br>for<br>yourself","$75<br>for<br>3","0","41","75","3",""
"html-keyboard-response","80","165276","0.0-6.0-1.25","63b6cc23f13731158517f900","bdp_sd","Tue Apr 11 2023 01:05:27 GMT-0600 (Mountain Daylight Time)","170300","","null","","","","","FIX","","<div class='trialBorder'><div class='vertical-center'><img style='vertical-align:center; align:center' src=img/fixation3.jpg></div></div>","null","","","","","","",""
"html-keyboard-response","81","166804","0.0-6.0-2.25","63b6cc23f13731158517f900","bdp_sd","Tue Apr 11 2023 01:05:27 GMT-0600 (Mountain Daylight Time)","170300","","1527","","","","","offer","","<div class='trialBorder'><div class='vertical-center'><img style='vertical-align:center; align:center' src=img/fixation3.jpg></div><div class='cl'><div class='vertical-center'>$75<br>for<br>Juli</div></div><div class='cr'><div class='vertical-center'>$55<br>for<br>yourself</div></div><div class='respDivL'><div class='vertical-center'>(E)</div></div><div class='respDivR'><div class='vertical-center'>(I)</div></div></div>","E","$55<br>for<br>yourself","$75<br>for<br>4","1","55","75","4","OTHER"
"html-keyboard-response","82","167056","0.0-6.0-3.25","63b6cc23f13731158517f900","bdp_sd","Tue Apr 11 2023 01:05:27 GMT-0600 (Mountain Daylight Time)","170300","","null","","","","","offerFB","","<div class='trialBorder'><div class='vertical-center'><img style='vertical-align:center; align:center' src=img/fixation3.jpg></div><div class='cl'><div class='vertical-center'><font style='color:orange'>$75<br>for<br>Juli</font></div></div><div class='cr'><div class='vertical-center'>$55<br>for<br>yourself</div></div><div class='respDivL'><div class='vertical-center'><font style='color:orange'>(E)</font></div></div><div class='respDivR'><div class='vertical-center'>(I)</div></div></div>","null","$55<br>for<br>yourself","$75<br>for<br>4","1","55","75","4",""
"html-keyboard-response","83","167557","0.0-6.0-1.26","63b6cc23f13731158517f900","bdp_sd","Tue Apr 11 2023 01:05:27 GMT-0600 (Mountain Daylight Time)","170300","","null","","","","","FIX","","<div class='trialBorder'><div class='vertical-center'><img style='vertical-align:center; align:center' src=img/fixation3.jpg></div></div>","null","","","","","","",""
"html-keyboard-response","84","169048","0.0-6.0-2.26","63b6cc23f13731158517f900","bdp_sd","Tue Apr 11 2023 01:05:27 GMT-0600 (Mountain Daylight Time)","170300","","1491","","","","","offer","","<div class='trialBorder'><div class='vertical-center'><img style='vertical-align:center; align:center' src=img/fixation3.jpg></div><div class='cl'><div class='vertical-center'>$30<br>for<br>Cy</div></div><div class='cr'><div class='vertical-center'>$11<br>for<br>yourself</div></div><div class='respDivL'><div class='vertical-center'>(E)</div></div><div class='respDivR'><div class='vertical-center'>(I)</div></div></div>","E","$11<br>for<br>yourself","$30<br>for<br>2","1","11","30","2","OTHER"
"html-keyboard-response","85","169299","0.0-6.0-3.26","63b6cc23f13731158517f900","bdp_sd","Tue Apr 11 2023 01:05:27 GMT-0600 (Mountain Daylight Time)","170300","","null","","","","","offerFB","","<div class='trialBorder'><div class='vertical-center'><img style='vertical-align:center; align:center' src=img/fixation3.jpg></div><div class='cl'><div class='vertical-center'><font style='color:orange'>$30<br>for<br>Cy</font></div></div><div class='cr'><div class='vertical-center'>$11<br>for<br>yourself</div></div><div class='respDivL'><div class='vertical-center'><font style='color:orange'>(E)</font></div></div><div class='respDivR'><div class='vertical-center'>(I)</div></div></div>","null","$11<br>for<br>yourself","$30<br>for<br>2","1","11","30","2",""
"","","","","63b6cc23f13731158517f900","bdp_sd","Tue Apr 11 2023 01:05:27 GMT-0600 (Mountain Daylight Time)","170300","","","","fullscreenexit","86","169329","fullscreenexit","","","","","","","","","",""
"fullscreen","86","170300","0.0-7.0","63b6cc23f13731158517f900","bdp_sd","Tue Apr 11 2023 01:05:27 GMT-0600 (Mountain Daylight Time)","170300","","","","","","","","true","","","","","","","","",""
"html-keyboard-response","87","170801","0.0-8.0","","","","","","null","","","","","","","","null","","","","","","",""
