"trial_type","trial_index","time_elapsed","internal_node_id","subject_id","task","startTime","totalTime","event","trial","time","trialtype","numBlurs","view_history","rt","responses","success","stimulus","key_press","selfOffer","otherOffer","otherLeft","selfAmt","otherAmt","otherDist","chosen"
"pavlovia","0","6","0.0-0.0","5f934f7fdc89a111b5712011","bdp_sd","Sun Mar 26 2023 14:28:44 GMT-0400 (Eastern Daylight Time)","173517","","","","","","","","","","","","","","","","","",""
"","","","","5f934f7fdc89a111b5712011","bdp_sd","Sun Mar 26 2023 14:28:44 GMT-0400 (Eastern Daylight Time)","173517","blur","1","915","blurevent","1","","","","","","","","","","","","",""
"","","","","5f934f7fdc89a111b5712011","bdp_sd","Sun Mar 26 2023 14:28:44 GMT-0400 (Eastern Daylight Time)","173517","focus","1","3568","focusevent","","","","","","","","","","","","","",""
"instructions","1","5639","0.0-1.0","5f934f7fdc89a111b5712011","bdp_sd","Sun Mar 26 2023 14:28:44 GMT-0400 (Eastern Daylight Time)","173517","","","","","","[{""page_index"":0,""viewing_time"":5633}]","5633","","","","","","","","","","",""
"survey-text","2","45241","0.0-2.0","5f934f7fdc89a111b5712011","bdp_sd","Sun Mar 26 2023 14:28:44 GMT-0400 (Eastern Daylight Time)","173517","","","","","","","39600","{""Q0"":""Mark A"",""Q1"":""Jen S"",""Q2"":""Cayden S"",""Q3"":""Kristin R"",""Q4"":""Jacklyn R""}","","","","","","","","","",""
"","","","","5f934f7fdc89a111b5712011","bdp_sd","Sun Mar 26 2023 14:28:44 GMT-0400 (Eastern Daylight Time)","173517","fullscreenenter","3","69834","fullscreenenter","","","","","","","","","","","","","",""
"fullscreen","3","70827","0.0-3.0","5f934f7fdc89a111b5712011","bdp_sd","Sun Mar 26 2023 14:28:44 GMT-0400 (Eastern Daylight Time)","173517","","","","","","","","","true","","","","","","","","",""
"instructions","4","103864","0.0-5.0","5f934f7fdc89a111b5712011","bdp_sd","Sun Mar 26 2023 14:28:44 GMT-0400 (Eastern Daylight Time)","173517","","","","","","[{""page_index"":0,""viewing_time"":6107},{""page_index"":1,""viewing_time"":5168},{""page_index"":2,""viewing_time"":21760}]","33035","","","","","","","","","","",""
"image-keyboard-response","5","109710","0.0-6.0-0.0-0.0","5f934f7fdc89a111b5712011","bdp_sd","Sun Mar 26 2023 14:28:44 GMT-0400 (Eastern Daylight Time)","173517","","","","blurwarn","1","","5844","","","","49","","","","","","",""
"html-keyboard-response","6","110476","0.0-6.0-1.0","5f934f7fdc89a111b5712011","bdp_sd","Sun Mar 26 2023 14:28:44 GMT-0400 (Eastern Daylight Time)","173517","","","","FIX","","","null","","","<div class='trialBorder'><div class='vertical-center'><img style='vertical-align:center; align:center' src=img/fixation3.jpg></div></div>","null","","","","","","",""
"html-keyboard-response","7","114942","0.0-6.0-2.0","5f934f7fdc89a111b5712011","bdp_sd","Sun Mar 26 2023 14:28:44 GMT-0400 (Eastern Daylight Time)","173517","","","","offer","","","4463","","","<div class='trialBorder'><div class='vertical-center'><img style='vertical-align:center; align:center' src=img/fixation3.jpg></div><div class='cl'><div class='vertical-center'>$25<br>for<br>yourself</div></div><div class='cr'><div class='vertical-center'>$60<br>for<br>Cayden S</div></div><div class='respDivL'><div class='vertical-center'>(E)</div></div><div class='respDivR'><div class='vertical-center'>(I)</div></div></div>","I","$25<br>for<br>yourself","$60<br>for<br>3","0","25","60","3","OTHER"
"html-keyboard-response","8","115201","0.0-6.0-3.0","5f934f7fdc89a111b5712011","bdp_sd","Sun Mar 26 2023 14:28:44 GMT-0400 (Eastern Daylight Time)","173517","","","","offerFB","","","null","","","<div class='trialBorder'><div class='vertical-center'><img style='vertical-align:center; align:center' src=img/fixation3.jpg></div><div class='cl'><div class='vertical-center'>$25<br>for<br>yourself</div></div><div class='cr'><div class='vertical-center'><font style='color:orange'>$60<br>for<br>Cayden S</font></div></div><div class='respDivL'><div class='vertical-center'>(E)</div></div><div class='respDivR'><div class='vertical-center'><font style='color:orange'>(I)</font></div></div></div>","null","$25<br>for<br>yourself","$60<br>for<br>3","0","25","60","3",""
"html-keyboard-response","9","115708","0.0-6.0-1.1","5f934f7fdc89a111b5712011","bdp_sd","Sun Mar 26 2023 14:28:44 GMT-0400 (Eastern Daylight Time)","173517","","","","FIX","","","null","","","<div class='trialBorder'><div class='vertical-center'><img style='vertical-align:center; align:center' src=img/fixation3.jpg></div></div>","null","","","","","","",""
"html-keyboard-response","10","117228","0.0-6.0-2.1","5f934f7fdc89a111b5712011","bdp_sd","Sun Mar 26 2023 14:28:44 GMT-0400 (Eastern Daylight Time)","173517","","","","offer","","","1518","","","<div class='trialBorder'><div class='vertical-center'><img style='vertical-align:center; align:center' src=img/fixation3.jpg></div><div class='cl'><div class='vertical-center'>$14<br>for<br>yourself</div></div><div class='cr'><div class='vertical-center'>$25<br>for<br>Cayden S</div></div><div class='respDivL'><div class='vertical-center'>(E)</div></div><div class='respDivR'><div class='vertical-center'>(I)</div></div></div>","I","$14<br>for<br>yourself","$25<br>for<br>3","0","14","25","3","OTHER"
"html-keyboard-response","11","117484","0.0-6.0-3.1","5f934f7fdc89a111b5712011","bdp_sd","Sun Mar 26 2023 14:28:44 GMT-0400 (Eastern Daylight Time)","173517","","","","offerFB","","","null","","","<div class='trialBorder'><div class='vertical-center'><img style='vertical-align:center; align:center' src=img/fixation3.jpg></div><div class='cl'><div class='vertical-center'>$14<br>for<br>yourself</div></div><div class='cr'><div class='vertical-center'><font style='color:orange'>$25<br>for<br>Cayden S</font></div></div><div class='respDivL'><div class='vertical-center'>(E)</div></div><div class='respDivR'><div class='vertical-center'><font style='color:orange'>(I)</font></div></div></div>","null","$14<br>for<br>yourself","$25<br>for<br>3","0","14","25","3",""
"html-keyboard-response","12","117996","0.0-6.0-1.2","5f934f7fdc89a111b5712011","bdp_sd","Sun Mar 26 2023 14:28:44 GMT-0400 (Eastern Daylight Time)","173517","","","","FIX","","","null","","","<div class='trialBorder'><div class='vertical-center'><img style='vertical-align:center; align:center' src=img/fixation3.jpg></div></div>","null","","","","","","",""
"html-keyboard-response","13","119703","0.0-6.0-2.2","5f934f7fdc89a111b5712011","bdp_sd","Sun Mar 26 2023 14:28:44 GMT-0400 (Eastern Daylight Time)","173517","","","","offer","","","1705","","","<div class='trialBorder'><div class='vertical-center'><img style='vertical-align:center; align:center' src=img/fixation3.jpg></div><div class='cl'><div class='vertical-center'>$31<br>for<br>yourself</div></div><div class='cr'><div class='vertical-center'>$85<br>for<br>Mark A</div></div><div class='respDivL'><div class='vertical-center'>(E)</div></div><div class='respDivR'><div class='vertical-center'>(I)</div></div></div>","I","$31<br>for<br>yourself","$85<br>for<br>1","0","31","85","1","OTHER"
"html-keyboard-response","14","119964","0.0-6.0-3.2","5f934f7fdc89a111b5712011","bdp_sd","Sun Mar 26 2023 14:28:44 GMT-0400 (Eastern Daylight Time)","173517","","","","offerFB","","","null","","","<div class='trialBorder'><div class='vertical-center'><img style='vertical-align:center; align:center' src=img/fixation3.jpg></div><div class='cl'><div class='vertical-center'>$31<br>for<br>yourself</div></div><div class='cr'><div class='vertical-center'><font style='color:orange'>$85<br>for<br>Mark A</font></div></div><div class='respDivL'><div class='vertical-center'>(E)</div></div><div class='respDivR'><div class='vertical-center'><font style='color:orange'>(I)</font></div></div></div>","null","$31<br>for<br>yourself","$85<br>for<br>1","0","31","85","1",""
"html-keyboard-response","15","120476","0.0-6.0-1.3","5f934f7fdc89a111b5712011","bdp_sd","Sun Mar 26 2023 14:28:44 GMT-0400 (Eastern Daylight Time)","173517","","","","FIX","","","null","","","<div class='trialBorder'><div class='vertical-center'><img style='vertical-align:center; align:center' src=img/fixation3.jpg></div></div>","null","","","","","","",""
"html-keyboard-response","16","121921","0.0-6.0-2.3","5f934f7fdc89a111b5712011","bdp_sd","Sun Mar 26 2023 14:28:44 GMT-0400 (Eastern Daylight Time)","173517","","","","offer","","","1444","","","<div class='trialBorder'><div class='vertical-center'><img style='vertical-align:center; align:center' src=img/fixation3.jpg></div><div class='cl'><div class='vertical-center'>$75<br>for<br>Jacklyn R</div></div><div class='cr'><div class='vertical-center'>$67<br>for<br>yourself</div></div><div class='respDivL'><div class='vertical-center'>(E)</div></div><div class='respDivR'><div class='vertical-center'>(I)</div></div></div>","I","$67<br>for<br>yourself","$75<br>for<br>5","1","67","75","5","SELF"
"html-keyboard-response","17","122177","0.0-6.0-3.3","5f934f7fdc89a111b5712011","bdp_sd","Sun Mar 26 2023 14:28:44 GMT-0400 (Eastern Daylight Time)","173517","","","","offerFB","","","null","","","<div class='trialBorder'><div class='vertical-center'><img style='vertical-align:center; align:center' src=img/fixation3.jpg></div><div class='cl'><div class='vertical-center'>$75<br>for<br>Jacklyn R</div></div><div class='cr'><div class='vertical-center'><font style='color:orange'>$67<br>for<br>yourself</font></div></div><div class='respDivL'><div class='vertical-center'>(E)</div></div><div class='respDivR'><div class='vertical-center'><font style='color:orange'>(I)</font></div></div></div>","null","$67<br>for<br>yourself","$75<br>for<br>5","1","67","75","5",""
"html-keyboard-response","18","122683","0.0-6.0-1.4","5f934f7fdc89a111b5712011","bdp_sd","Sun Mar 26 2023 14:28:44 GMT-0400 (Eastern Daylight Time)","173517","","","","FIX","","","null","","","<div class='trialBorder'><div class='vertical-center'><img style='vertical-align:center; align:center' src=img/fixation3.jpg></div></div>","null","","","","","","",""
"html-keyboard-response","19","124252","0.0-6.0-2.4","5f934f7fdc89a111b5712011","bdp_sd","Sun Mar 26 2023 14:28:44 GMT-0400 (Eastern Daylight Time)","173517","","","","offer","","","1568","","","<div class='trialBorder'><div class='vertical-center'><img style='vertical-align:center; align:center' src=img/fixation3.jpg></div><div class='cl'><div class='vertical-center'>$34<br>for<br>yourself</div></div><div class='cr'><div class='vertical-center'>$50<br>for<br>Kristin R</div></div><div class='respDivL'><div class='vertical-center'>(E)</div></div><div class='respDivR'><div class='vertical-center'>(I)</div></div></div>","E","$34<br>for<br>yourself","$50<br>for<br>4","0","34","50","4","SELF"
"html-keyboard-response","20","124508","0.0-6.0-3.4","5f934f7fdc89a111b5712011","bdp_sd","Sun Mar 26 2023 14:28:44 GMT-0400 (Eastern Daylight Time)","173517","","","","offerFB","","","null","","","<div class='trialBorder'><div class='vertical-center'><img style='vertical-align:center; align:center' src=img/fixation3.jpg></div><div class='cl'><div class='vertical-center'><font style='color:orange'>$34<br>for<br>yourself</font></div></div><div class='cr'><div class='vertical-center'>$50<br>for<br>Kristin R</div></div><div class='respDivL'><div class='vertical-center'><font style='color:orange'>(E)</font></div></div><div class='respDivR'><div class='vertical-center'>(I)</div></div></div>","null","$34<br>for<br>yourself","$50<br>for<br>4","0","34","50","4",""
"html-keyboard-response","21","125020","0.0-6.0-1.5","5f934f7fdc89a111b5712011","bdp_sd","Sun Mar 26 2023 14:28:44 GMT-0400 (Eastern Daylight Time)","173517","","","","FIX","","","null","","","<div class='trialBorder'><div class='vertical-center'><img style='vertical-align:center; align:center' src=img/fixation3.jpg></div></div>","null","","","","","","",""
"html-keyboard-response","22","126745","0.0-6.0-2.5","5f934f7fdc89a111b5712011","bdp_sd","Sun Mar 26 2023 14:28:44 GMT-0400 (Eastern Daylight Time)","173517","","","","offer","","","1723","","","<div class='trialBorder'><div class='vertical-center'><img style='vertical-align:center; align:center' src=img/fixation3.jpg></div><div class='cl'><div class='vertical-center'>$54<br>for<br>yourself</div></div><div class='cr'><div class='vertical-center'>$60<br>for<br>Jacklyn R</div></div><div class='respDivL'><div class='vertical-center'>(E)</div></div><div class='respDivR'><div class='vertical-center'>(I)</div></div></div>","E","$54<br>for<br>yourself","$60<br>for<br>5","0","54","60","5","SELF"
"html-keyboard-response","23","127004","0.0-6.0-3.5","5f934f7fdc89a111b5712011","bdp_sd","Sun Mar 26 2023 14:28:44 GMT-0400 (Eastern Daylight Time)","173517","","","","offerFB","","","null","","","<div class='trialBorder'><div class='vertical-center'><img style='vertical-align:center; align:center' src=img/fixation3.jpg></div><div class='cl'><div class='vertical-center'><font style='color:orange'>$54<br>for<br>yourself</font></div></div><div class='cr'><div class='vertical-center'>$60<br>for<br>Jacklyn R</div></div><div class='respDivL'><div class='vertical-center'><font style='color:orange'>(E)</font></div></div><div class='respDivR'><div class='vertical-center'>(I)</div></div></div>","null","$54<br>for<br>yourself","$60<br>for<br>5","0","54","60","5",""
"html-keyboard-response","24","127516","0.0-6.0-1.6","5f934f7fdc89a111b5712011","bdp_sd","Sun Mar 26 2023 14:28:44 GMT-0400 (Eastern Daylight Time)","173517","","","","FIX","","","null","","","<div class='trialBorder'><div class='vertical-center'><img style='vertical-align:center; align:center' src=img/fixation3.jpg></div></div>","null","","","","","","",""
"html-keyboard-response","25","129159","0.0-6.0-2.6","5f934f7fdc89a111b5712011","bdp_sd","Sun Mar 26 2023 14:28:44 GMT-0400 (Eastern Daylight Time)","173517","","","","offer","","","1642","","","<div class='trialBorder'><div class='vertical-center'><img style='vertical-align:center; align:center' src=img/fixation3.jpg></div><div class='cl'><div class='vertical-center'>$11<br>for<br>yourself</div></div><div class='cr'><div class='vertical-center'>$30<br>for<br>Jen S</div></div><div class='respDivL'><div class='vertical-center'>(E)</div></div><div class='respDivR'><div class='vertical-center'>(I)</div></div></div>","I","$11<br>for<br>yourself","$30<br>for<br>2","0","11","30","2","OTHER"
"html-keyboard-response","26","129420","0.0-6.0-3.6","5f934f7fdc89a111b5712011","bdp_sd","Sun Mar 26 2023 14:28:44 GMT-0400 (Eastern Daylight Time)","173517","","","","offerFB","","","null","","","<div class='trialBorder'><div class='vertical-center'><img style='vertical-align:center; align:center' src=img/fixation3.jpg></div><div class='cl'><div class='vertical-center'>$11<br>for<br>yourself</div></div><div class='cr'><div class='vertical-center'><font style='color:orange'>$30<br>for<br>Jen S</font></div></div><div class='respDivL'><div class='vertical-center'>(E)</div></div><div class='respDivR'><div class='vertical-center'><font style='color:orange'>(I)</font></div></div></div>","null","$11<br>for<br>yourself","$30<br>for<br>2","0","11","30","2",""
"html-keyboard-response","27","129932","0.0-6.0-1.7","5f934f7fdc89a111b5712011","bdp_sd","Sun Mar 26 2023 14:28:44 GMT-0400 (Eastern Daylight Time)","173517","","","","FIX","","","null","","","<div class='trialBorder'><div class='vertical-center'><img style='vertical-align:center; align:center' src=img/fixation3.jpg></div></div>","null","","","","","","",""
"html-keyboard-response","28","132632","0.0-6.0-2.7","5f934f7fdc89a111b5712011","bdp_sd","Sun Mar 26 2023 14:28:44 GMT-0400 (Eastern Daylight Time)","173517","","","","offer","","","2699","","","<div class='trialBorder'><div class='vertical-center'><img style='vertical-align:center; align:center' src=img/fixation3.jpg></div><div class='cl'><div class='vertical-center'>$55<br>for<br>Kristin R</div></div><div class='cr'><div class='vertical-center'>$40<br>for<br>yourself</div></div><div class='respDivL'><div class='vertical-center'>(E)</div></div><div class='respDivR'><div class='vertical-center'>(I)</div></div></div>","E","$40<br>for<br>yourself","$55<br>for<br>4","1","40","55","4","OTHER"
"html-keyboard-response","29","132892","0.0-6.0-3.7","5f934f7fdc89a111b5712011","bdp_sd","Sun Mar 26 2023 14:28:44 GMT-0400 (Eastern Daylight Time)","173517","","","","offerFB","","","null","","","<div class='trialBorder'><div class='vertical-center'><img style='vertical-align:center; align:center' src=img/fixation3.jpg></div><div class='cl'><div class='vertical-center'><font style='color:orange'>$55<br>for<br>Kristin R</font></div></div><div class='cr'><div class='vertical-center'>$40<br>for<br>yourself</div></div><div class='respDivL'><div class='vertical-center'><font style='color:orange'>(E)</font></div></div><div class='respDivR'><div class='vertical-center'>(I)</div></div></div>","null","$40<br>for<br>yourself","$55<br>for<br>4","1","40","55","4",""
"html-keyboard-response","30","133404","0.0-6.0-1.8","5f934f7fdc89a111b5712011","bdp_sd","Sun Mar 26 2023 14:28:44 GMT-0400 (Eastern Daylight Time)","173517","","","","FIX","","","null","","","<div class='trialBorder'><div class='vertical-center'><img style='vertical-align:center; align:center' src=img/fixation3.jpg></div></div>","null","","","","","","",""
"html-keyboard-response","31","135598","0.0-6.0-2.8","5f934f7fdc89a111b5712011","bdp_sd","Sun Mar 26 2023 14:28:44 GMT-0400 (Eastern Daylight Time)","173517","","","","offer","","","2193","","","<div class='trialBorder'><div class='vertical-center'><img style='vertical-align:center; align:center' src=img/fixation3.jpg></div><div class='cl'><div class='vertical-center'>$50<br>for<br>Jacklyn R</div></div><div class='cr'><div class='vertical-center'>$47<br>for<br>yourself</div></div><div class='respDivL'><div class='vertical-center'>(E)</div></div><div class='respDivR'><div class='vertical-center'>(I)</div></div></div>","I","$47<br>for<br>yourself","$50<br>for<br>5","1","47","50","5","SELF"
"html-keyboard-response","32","135858","0.0-6.0-3.8","5f934f7fdc89a111b5712011","bdp_sd","Sun Mar 26 2023 14:28:44 GMT-0400 (Eastern Daylight Time)","173517","","","","offerFB","","","null","","","<div class='trialBorder'><div class='vertical-center'><img style='vertical-align:center; align:center' src=img/fixation3.jpg></div><div class='cl'><div class='vertical-center'>$50<br>for<br>Jacklyn R</div></div><div class='cr'><div class='vertical-center'><font style='color:orange'>$47<br>for<br>yourself</font></div></div><div class='respDivL'><div class='vertical-center'>(E)</div></div><div class='respDivR'><div class='vertical-center'><font style='color:orange'>(I)</font></div></div></div>","null","$47<br>for<br>yourself","$50<br>for<br>5","1","47","50","5",""
"html-keyboard-response","33","136364","0.0-6.0-1.9","5f934f7fdc89a111b5712011","bdp_sd","Sun Mar 26 2023 14:28:44 GMT-0400 (Eastern Daylight Time)","173517","","","","FIX","","","null","","","<div class='trialBorder'><div class='vertical-center'><img style='vertical-align:center; align:center' src=img/fixation3.jpg></div></div>","null","","","","","","",""
"html-keyboard-response","34","137309","0.0-6.0-2.9","5f934f7fdc89a111b5712011","bdp_sd","Sun Mar 26 2023 14:28:44 GMT-0400 (Eastern Daylight Time)","173517","","","","offer","","","943","","","<div class='trialBorder'><div class='vertical-center'><img style='vertical-align:center; align:center' src=img/fixation3.jpg></div><div class='cl'><div class='vertical-center'>$78<br>for<br>yourself</div></div><div class='cr'><div class='vertical-center'>$80<br>for<br>Jacklyn R</div></div><div class='respDivL'><div class='vertical-center'>(E)</div></div><div class='respDivR'><div class='vertical-center'>(I)</div></div></div>","E","$78<br>for<br>yourself","$80<br>for<br>5","0","78","80","5","SELF"
"html-keyboard-response","35","137569","0.0-6.0-3.9","5f934f7fdc89a111b5712011","bdp_sd","Sun Mar 26 2023 14:28:44 GMT-0400 (Eastern Daylight Time)","173517","","","","offerFB","","","null","","","<div class='trialBorder'><div class='vertical-center'><img style='vertical-align:center; align:center' src=img/fixation3.jpg></div><div class='cl'><div class='vertical-center'><font style='color:orange'>$78<br>for<br>yourself</font></div></div><div class='cr'><div class='vertical-center'>$80<br>for<br>Jacklyn R</div></div><div class='respDivL'><div class='vertical-center'><font style='color:orange'>(E)</font></div></div><div class='respDivR'><div class='vertical-center'>(I)</div></div></div>","null","$78<br>for<br>yourself","$80<br>for<br>5","0","78","80","5",""
"html-keyboard-response","36","138073","0.0-6.0-1.10","5f934f7fdc89a111b5712011","bdp_sd","Sun Mar 26 2023 14:28:44 GMT-0400 (Eastern Daylight Time)","173517","","","","FIX","","","null","","","<div class='trialBorder'><div class='vertical-center'><img style='vertical-align:center; align:center' src=img/fixation3.jpg></div></div>","null","","","","","","",""
"html-keyboard-response","37","141434","0.0-6.0-2.10","5f934f7fdc89a111b5712011","bdp_sd","Sun Mar 26 2023 14:28:44 GMT-0400 (Eastern Daylight Time)","173517","","","","offer","","","3360","","","<div class='trialBorder'><div class='vertical-center'><img style='vertical-align:center; align:center' src=img/fixation3.jpg></div><div class='cl'><div class='vertical-center'>$35<br>for<br>Jen S</div></div><div class='cr'><div class='vertical-center'>$15<br>for<br>yourself</div></div><div class='respDivL'><div class='vertical-center'>(E)</div></div><div class='respDivR'><div class='vertical-center'>(I)</div></div></div>","I","$15<br>for<br>yourself","$35<br>for<br>2","1","15","35","2","SELF"
"html-keyboard-response","38","141692","0.0-6.0-3.10","5f934f7fdc89a111b5712011","bdp_sd","Sun Mar 26 2023 14:28:44 GMT-0400 (Eastern Daylight Time)","173517","","","","offerFB","","","null","","","<div class='trialBorder'><div class='vertical-center'><img style='vertical-align:center; align:center' src=img/fixation3.jpg></div><div class='cl'><div class='vertical-center'>$35<br>for<br>Jen S</div></div><div class='cr'><div class='vertical-center'><font style='color:orange'>$15<br>for<br>yourself</font></div></div><div class='respDivL'><div class='vertical-center'>(E)</div></div><div class='respDivR'><div class='vertical-center'><font style='color:orange'>(I)</font></div></div></div>","null","$15<br>for<br>yourself","$35<br>for<br>2","1","15","35","2",""
"html-keyboard-response","39","142204","0.0-6.0-1.11","5f934f7fdc89a111b5712011","bdp_sd","Sun Mar 26 2023 14:28:44 GMT-0400 (Eastern Daylight Time)","173517","","","","FIX","","","null","","","<div class='trialBorder'><div class='vertical-center'><img style='vertical-align:center; align:center' src=img/fixation3.jpg></div></div>","null","","","","","","",""
"html-keyboard-response","40","143334","0.0-6.0-2.11","5f934f7fdc89a111b5712011","bdp_sd","Sun Mar 26 2023 14:28:44 GMT-0400 (Eastern Daylight Time)","173517","","","","offer","","","1128","","","<div class='trialBorder'><div class='vertical-center'><img style='vertical-align:center; align:center' src=img/fixation3.jpg></div><div class='cl'><div class='vertical-center'>$30<br>for<br>Jacklyn R</div></div><div class='cr'><div class='vertical-center'>$28<br>for<br>yourself</div></div><div class='respDivL'><div class='vertical-center'>(E)</div></div><div class='respDivR'><div class='vertical-center'>(I)</div></div></div>","I","$28<br>for<br>yourself","$30<br>for<br>5","1","28","30","5","SELF"
"html-keyboard-response","41","143596","0.0-6.0-3.11","5f934f7fdc89a111b5712011","bdp_sd","Sun Mar 26 2023 14:28:44 GMT-0400 (Eastern Daylight Time)","173517","","","","offerFB","","","null","","","<div class='trialBorder'><div class='vertical-center'><img style='vertical-align:center; align:center' src=img/fixation3.jpg></div><div class='cl'><div class='vertical-center'>$30<br>for<br>Jacklyn R</div></div><div class='cr'><div class='vertical-center'><font style='color:orange'>$28<br>for<br>yourself</font></div></div><div class='respDivL'><div class='vertical-center'>(E)</div></div><div class='respDivR'><div class='vertical-center'><font style='color:orange'>(I)</font></div></div></div>","null","$28<br>for<br>yourself","$30<br>for<br>5","1","28","30","5",""
"html-keyboard-response","42","144108","0.0-6.0-1.12","5f934f7fdc89a111b5712011","bdp_sd","Sun Mar 26 2023 14:28:44 GMT-0400 (Eastern Daylight Time)","173517","","","","FIX","","","null","","","<div class='trialBorder'><div class='vertical-center'><img style='vertical-align:center; align:center' src=img/fixation3.jpg></div></div>","null","","","","","","",""
"html-keyboard-response","43","145115","0.0-6.0-2.12","5f934f7fdc89a111b5712011","bdp_sd","Sun Mar 26 2023 14:28:44 GMT-0400 (Eastern Daylight Time)","173517","","","","offer","","","1006","","","<div class='trialBorder'><div class='vertical-center'><img style='vertical-align:center; align:center' src=img/fixation3.jpg></div><div class='cl'><div class='vertical-center'>$30<br>for<br>Kristin R</div></div><div class='cr'><div class='vertical-center'>$25<br>for<br>yourself</div></div><div class='respDivL'><div class='vertical-center'>(E)</div></div><div class='respDivR'><div class='vertical-center'>(I)</div></div></div>","I","$25<br>for<br>yourself","$30<br>for<br>4","1","25","30","4","SELF"
"html-keyboard-response","44","145372","0.0-6.0-3.12","5f934f7fdc89a111b5712011","bdp_sd","Sun Mar 26 2023 14:28:44 GMT-0400 (Eastern Daylight Time)","173517","","","","offerFB","","","null","","","<div class='trialBorder'><div class='vertical-center'><img style='vertical-align:center; align:center' src=img/fixation3.jpg></div><div class='cl'><div class='vertical-center'>$30<br>for<br>Kristin R</div></div><div class='cr'><div class='vertical-center'><font style='color:orange'>$25<br>for<br>yourself</font></div></div><div class='respDivL'><div class='vertical-center'>(E)</div></div><div class='respDivR'><div class='vertical-center'><font style='color:orange'>(I)</font></div></div></div>","null","$25<br>for<br>yourself","$30<br>for<br>4","1","25","30","4",""
"html-keyboard-response","45","145884","0.0-6.0-1.13","5f934f7fdc89a111b5712011","bdp_sd","Sun Mar 26 2023 14:28:44 GMT-0400 (Eastern Daylight Time)","173517","","","","FIX","","","null","","","<div class='trialBorder'><div class='vertical-center'><img style='vertical-align:center; align:center' src=img/fixation3.jpg></div></div>","null","","","","","","",""
"html-keyboard-response","46","146975","0.0-6.0-2.13","5f934f7fdc89a111b5712011","bdp_sd","Sun Mar 26 2023 14:28:44 GMT-0400 (Eastern Daylight Time)","173517","","","","offer","","","1090","","","<div class='trialBorder'><div class='vertical-center'><img style='vertical-align:center; align:center' src=img/fixation3.jpg></div><div class='cl'><div class='vertical-center'>$34<br>for<br>yourself</div></div><div class='cr'><div class='vertical-center'>$35<br>for<br>Jacklyn R</div></div><div class='respDivL'><div class='vertical-center'>(E)</div></div><div class='respDivR'><div class='vertical-center'>(I)</div></div></div>","E","$34<br>for<br>yourself","$35<br>for<br>5","0","34","35","5","SELF"
"html-keyboard-response","47","147233","0.0-6.0-3.13","5f934f7fdc89a111b5712011","bdp_sd","Sun Mar 26 2023 14:28:44 GMT-0400 (Eastern Daylight Time)","173517","","","","offerFB","","","null","","","<div class='trialBorder'><div class='vertical-center'><img style='vertical-align:center; align:center' src=img/fixation3.jpg></div><div class='cl'><div class='vertical-center'><font style='color:orange'>$34<br>for<br>yourself</font></div></div><div class='cr'><div class='vertical-center'>$35<br>for<br>Jacklyn R</div></div><div class='respDivL'><div class='vertical-center'><font style='color:orange'>(E)</font></div></div><div class='respDivR'><div class='vertical-center'>(I)</div></div></div>","null","$34<br>for<br>yourself","$35<br>for<br>5","0","34","35","5",""
"html-keyboard-response","48","147740","0.0-6.0-1.14","5f934f7fdc89a111b5712011","bdp_sd","Sun Mar 26 2023 14:28:44 GMT-0400 (Eastern Daylight Time)","173517","","","","FIX","","","null","","","<div class='trialBorder'><div class='vertical-center'><img style='vertical-align:center; align:center' src=img/fixation3.jpg></div></div>","null","","","","","","",""
"html-keyboard-response","49","149003","0.0-6.0-2.14","5f934f7fdc89a111b5712011","bdp_sd","Sun Mar 26 2023 14:28:44 GMT-0400 (Eastern Daylight Time)","173517","","","","offer","","","1262","","","<div class='trialBorder'><div class='vertical-center'><img style='vertical-align:center; align:center' src=img/fixation3.jpg></div><div class='cl'><div class='vertical-center'>$75<br>for<br>Kristin R</div></div><div class='cr'><div class='vertical-center'>$55<br>for<br>yourself</div></div><div class='respDivL'><div class='vertical-center'>(E)</div></div><div class='respDivR'><div class='vertical-center'>(I)</div></div></div>","I","$55<br>for<br>yourself","$75<br>for<br>4","1","55","75","4","SELF"
"html-keyboard-response","50","149261","0.0-6.0-3.14","5f934f7fdc89a111b5712011","bdp_sd","Sun Mar 26 2023 14:28:44 GMT-0400 (Eastern Daylight Time)","173517","","","","offerFB","","","null","","","<div class='trialBorder'><div class='vertical-center'><img style='vertical-align:center; align:center' src=img/fixation3.jpg></div><div class='cl'><div class='vertical-center'>$75<br>for<br>Kristin R</div></div><div class='cr'><div class='vertical-center'><font style='color:orange'>$55<br>for<br>yourself</font></div></div><div class='respDivL'><div class='vertical-center'>(E)</div></div><div class='respDivR'><div class='vertical-center'><font style='color:orange'>(I)</font></div></div></div>","null","$55<br>for<br>yourself","$75<br>for<br>4","1","55","75","4",""
"html-keyboard-response","51","149770","0.0-6.0-1.15","5f934f7fdc89a111b5712011","bdp_sd","Sun Mar 26 2023 14:28:44 GMT-0400 (Eastern Daylight Time)","173517","","","","FIX","","","null","","","<div class='trialBorder'><div class='vertical-center'><img style='vertical-align:center; align:center' src=img/fixation3.jpg></div></div>","null","","","","","","",""
"html-keyboard-response","52","151039","0.0-6.0-2.15","5f934f7fdc89a111b5712011","bdp_sd","Sun Mar 26 2023 14:28:44 GMT-0400 (Eastern Daylight Time)","173517","","","","offer","","","1267","","","<div class='trialBorder'><div class='vertical-center'><img style='vertical-align:center; align:center' src=img/fixation3.jpg></div><div class='cl'><div class='vertical-center'>$80<br>for<br>Cayden S</div></div><div class='cr'><div class='vertical-center'>$54<br>for<br>yourself</div></div><div class='respDivL'><div class='vertical-center'>(E)</div></div><div class='respDivR'><div class='vertical-center'>(I)</div></div></div>","I","$54<br>for<br>yourself","$80<br>for<br>3","1","54","80","3","SELF"
"html-keyboard-response","53","151298","0.0-6.0-3.15","5f934f7fdc89a111b5712011","bdp_sd","Sun Mar 26 2023 14:28:44 GMT-0400 (Eastern Daylight Time)","173517","","","","offerFB","","","null","","","<div class='trialBorder'><div class='vertical-center'><img style='vertical-align:center; align:center' src=img/fixation3.jpg></div><div class='cl'><div class='vertical-center'>$80<br>for<br>Cayden S</div></div><div class='cr'><div class='vertical-center'><font style='color:orange'>$54<br>for<br>yourself</font></div></div><div class='respDivL'><div class='vertical-center'>(E)</div></div><div class='respDivR'><div class='vertical-center'><font style='color:orange'>(I)</font></div></div></div>","null","$54<br>for<br>yourself","$80<br>for<br>3","1","54","80","3",""
"html-keyboard-response","54","151804","0.0-6.0-1.16","5f934f7fdc89a111b5712011","bdp_sd","Sun Mar 26 2023 14:28:44 GMT-0400 (Eastern Daylight Time)","173517","","","","FIX","","","null","","","<div class='trialBorder'><div class='vertical-center'><img style='vertical-align:center; align:center' src=img/fixation3.jpg></div></div>","null","","","","","","",""
"html-keyboard-response","55","152767","0.0-6.0-2.16","5f934f7fdc89a111b5712011","bdp_sd","Sun Mar 26 2023 14:28:44 GMT-0400 (Eastern Daylight Time)","173517","","","","offer","","","961","","","<div class='trialBorder'><div class='vertical-center'><img style='vertical-align:center; align:center' src=img/fixation3.jpg></div><div class='cl'><div class='vertical-center'>$55<br>for<br>Mark A</div></div><div class='cr'><div class='vertical-center'>$20<br>for<br>yourself</div></div><div class='respDivL'><div class='vertical-center'>(E)</div></div><div class='respDivR'><div class='vertical-center'>(I)</div></div></div>","E","$20<br>for<br>yourself","$55<br>for<br>1","1","20","55","1","OTHER"
"html-keyboard-response","56","153025","0.0-6.0-3.16","5f934f7fdc89a111b5712011","bdp_sd","Sun Mar 26 2023 14:28:44 GMT-0400 (Eastern Daylight Time)","173517","","","","offerFB","","","null","","","<div class='trialBorder'><div class='vertical-center'><img style='vertical-align:center; align:center' src=img/fixation3.jpg></div><div class='cl'><div class='vertical-center'><font style='color:orange'>$55<br>for<br>Mark A</font></div></div><div class='cr'><div class='vertical-center'>$20<br>for<br>yourself</div></div><div class='respDivL'><div class='vertical-center'><font style='color:orange'>(E)</font></div></div><div class='respDivR'><div class='vertical-center'>(I)</div></div></div>","null","$20<br>for<br>yourself","$55<br>for<br>1","1","20","55","1",""
"html-keyboard-response","57","153532","0.0-6.0-1.17","5f934f7fdc89a111b5712011","bdp_sd","Sun Mar 26 2023 14:28:44 GMT-0400 (Eastern Daylight Time)","173517","","","","FIX","","","null","","","<div class='trialBorder'><div class='vertical-center'><img style='vertical-align:center; align:center' src=img/fixation3.jpg></div></div>","null","","","","","","",""
"html-keyboard-response","58","154812","0.0-6.0-2.17","5f934f7fdc89a111b5712011","bdp_sd","Sun Mar 26 2023 14:28:44 GMT-0400 (Eastern Daylight Time)","173517","","","","offer","","","1277","","","<div class='trialBorder'><div class='vertical-center'><img style='vertical-align:center; align:center' src=img/fixation3.jpg></div><div class='cl'><div class='vertical-center'>$22<br>for<br>yourself</div></div><div class='cr'><div class='vertical-center'>$25<br>for<br>Jacklyn R</div></div><div class='respDivL'><div class='vertical-center'>(E)</div></div><div class='respDivR'><div class='vertical-center'>(I)</div></div></div>","E","$22<br>for<br>yourself","$25<br>for<br>5","0","22","25","5","SELF"
"html-keyboard-response","59","155068","0.0-6.0-3.17","5f934f7fdc89a111b5712011","bdp_sd","Sun Mar 26 2023 14:28:44 GMT-0400 (Eastern Daylight Time)","173517","","","","offerFB","","","null","","","<div class='trialBorder'><div class='vertical-center'><img style='vertical-align:center; align:center' src=img/fixation3.jpg></div><div class='cl'><div class='vertical-center'><font style='color:orange'>$22<br>for<br>yourself</font></div></div><div class='cr'><div class='vertical-center'>$25<br>for<br>Jacklyn R</div></div><div class='respDivL'><div class='vertical-center'><font style='color:orange'>(E)</font></div></div><div class='respDivR'><div class='vertical-center'>(I)</div></div></div>","null","$22<br>for<br>yourself","$25<br>for<br>5","0","22","25","5",""
"html-keyboard-response","60","155580","0.0-6.0-1.18","5f934f7fdc89a111b5712011","bdp_sd","Sun Mar 26 2023 14:28:44 GMT-0400 (Eastern Daylight Time)","173517","","","","FIX","","","null","","","<div class='trialBorder'><div class='vertical-center'><img style='vertical-align:center; align:center' src=img/fixation3.jpg></div></div>","null","","","","","","",""
"html-keyboard-response","61","157067","0.0-6.0-2.18","5f934f7fdc89a111b5712011","bdp_sd","Sun Mar 26 2023 14:28:44 GMT-0400 (Eastern Daylight Time)","173517","","","","offer","","","1485","","","<div class='trialBorder'><div class='vertical-center'><img style='vertical-align:center; align:center' src=img/fixation3.jpg></div><div class='cl'><div class='vertical-center'>$27<br>for<br>yourself</div></div><div class='cr'><div class='vertical-center'>$50<br>for<br>Cayden S</div></div><div class='respDivL'><div class='vertical-center'>(E)</div></div><div class='respDivR'><div class='vertical-center'>(I)</div></div></div>","E","$27<br>for<br>yourself","$50<br>for<br>3","0","27","50","3","SELF"
"html-keyboard-response","62","157324","0.0-6.0-3.18","5f934f7fdc89a111b5712011","bdp_sd","Sun Mar 26 2023 14:28:44 GMT-0400 (Eastern Daylight Time)","173517","","","","offerFB","","","null","","","<div class='trialBorder'><div class='vertical-center'><img style='vertical-align:center; align:center' src=img/fixation3.jpg></div><div class='cl'><div class='vertical-center'><font style='color:orange'>$27<br>for<br>yourself</font></div></div><div class='cr'><div class='vertical-center'>$50<br>for<br>Cayden S</div></div><div class='respDivL'><div class='vertical-center'><font style='color:orange'>(E)</font></div></div><div class='respDivR'><div class='vertical-center'>(I)</div></div></div>","null","$27<br>for<br>yourself","$50<br>for<br>3","0","27","50","3",""
"html-keyboard-response","63","157836","0.0-6.0-1.19","5f934f7fdc89a111b5712011","bdp_sd","Sun Mar 26 2023 14:28:44 GMT-0400 (Eastern Daylight Time)","173517","","","","FIX","","","null","","","<div class='trialBorder'><div class='vertical-center'><img style='vertical-align:center; align:center' src=img/fixation3.jpg></div></div>","null","","","","","","",""
"html-keyboard-response","64","159253","0.0-6.0-2.19","5f934f7fdc89a111b5712011","bdp_sd","Sun Mar 26 2023 14:28:44 GMT-0400 (Eastern Daylight Time)","173517","","","","offer","","","1415","","","<div class='trialBorder'><div class='vertical-center'><img style='vertical-align:center; align:center' src=img/fixation3.jpg></div><div class='cl'><div class='vertical-center'>$85<br>for<br>Kristin R</div></div><div class='cr'><div class='vertical-center'>$69<br>for<br>yourself</div></div><div class='respDivL'><div class='vertical-center'>(E)</div></div><div class='respDivR'><div class='vertical-center'>(I)</div></div></div>","I","$69<br>for<br>yourself","$85<br>for<br>4","1","69","85","4","SELF"
"html-keyboard-response","65","159515","0.0-6.0-3.19","5f934f7fdc89a111b5712011","bdp_sd","Sun Mar 26 2023 14:28:44 GMT-0400 (Eastern Daylight Time)","173517","","","","offerFB","","","null","","","<div class='trialBorder'><div class='vertical-center'><img style='vertical-align:center; align:center' src=img/fixation3.jpg></div><div class='cl'><div class='vertical-center'>$85<br>for<br>Kristin R</div></div><div class='cr'><div class='vertical-center'><font style='color:orange'>$69<br>for<br>yourself</font></div></div><div class='respDivL'><div class='vertical-center'>(E)</div></div><div class='respDivR'><div class='vertical-center'><font style='color:orange'>(I)</font></div></div></div>","null","$69<br>for<br>yourself","$85<br>for<br>4","1","69","85","4",""
"html-keyboard-response","66","160018","0.0-6.0-1.20","5f934f7fdc89a111b5712011","bdp_sd","Sun Mar 26 2023 14:28:44 GMT-0400 (Eastern Daylight Time)","173517","","","","FIX","","","null","","","<div class='trialBorder'><div class='vertical-center'><img style='vertical-align:center; align:center' src=img/fixation3.jpg></div></div>","null","","","","","","",""
"html-keyboard-response","67","161066","0.0-6.0-2.20","5f934f7fdc89a111b5712011","bdp_sd","Sun Mar 26 2023 14:28:44 GMT-0400 (Eastern Daylight Time)","173517","","","","offer","","","1046","","","<div class='trialBorder'><div class='vertical-center'><img style='vertical-align:center; align:center' src=img/fixation3.jpg></div><div class='cl'><div class='vertical-center'>$54<br>for<br>yourself</div></div><div class='cr'><div class='vertical-center'>$55<br>for<br>Jacklyn R</div></div><div class='respDivL'><div class='vertical-center'>(E)</div></div><div class='respDivR'><div class='vertical-center'>(I)</div></div></div>","E","$54<br>for<br>yourself","$55<br>for<br>5","0","54","55","5","SELF"
"html-keyboard-response","68","161324","0.0-6.0-3.20","5f934f7fdc89a111b5712011","bdp_sd","Sun Mar 26 2023 14:28:44 GMT-0400 (Eastern Daylight Time)","173517","","","","offerFB","","","null","","","<div class='trialBorder'><div class='vertical-center'><img style='vertical-align:center; align:center' src=img/fixation3.jpg></div><div class='cl'><div class='vertical-center'><font style='color:orange'>$54<br>for<br>yourself</font></div></div><div class='cr'><div class='vertical-center'>$55<br>for<br>Jacklyn R</div></div><div class='respDivL'><div class='vertical-center'><font style='color:orange'>(E)</font></div></div><div class='respDivR'><div class='vertical-center'>(I)</div></div></div>","null","$54<br>for<br>yourself","$55<br>for<br>5","0","54","55","5",""
"html-keyboard-response","69","161826","0.0-6.0-1.21","5f934f7fdc89a111b5712011","bdp_sd","Sun Mar 26 2023 14:28:44 GMT-0400 (Eastern Daylight Time)","173517","","","","FIX","","","null","","","<div class='trialBorder'><div class='vertical-center'><img style='vertical-align:center; align:center' src=img/fixation3.jpg></div></div>","null","","","","","","",""
"html-keyboard-response","70","162800","0.0-6.0-2.21","5f934f7fdc89a111b5712011","bdp_sd","Sun Mar 26 2023 14:28:44 GMT-0400 (Eastern Daylight Time)","173517","","","","offer","","","973","","","<div class='trialBorder'><div class='vertical-center'><img style='vertical-align:center; align:center' src=img/fixation3.jpg></div><div class='cl'><div class='vertical-center'>$80<br>for<br>yourself</div></div><div class='cr'><div class='vertical-center'>$85<br>for<br>Jacklyn R</div></div><div class='respDivL'><div class='vertical-center'>(E)</div></div><div class='respDivR'><div class='vertical-center'>(I)</div></div></div>","E","$80<br>for<br>yourself","$85<br>for<br>5","0","80","85","5","SELF"
"html-keyboard-response","71","163058","0.0-6.0-3.21","5f934f7fdc89a111b5712011","bdp_sd","Sun Mar 26 2023 14:28:44 GMT-0400 (Eastern Daylight Time)","173517","","","","offerFB","","","null","","","<div class='trialBorder'><div class='vertical-center'><img style='vertical-align:center; align:center' src=img/fixation3.jpg></div><div class='cl'><div class='vertical-center'><font style='color:orange'>$80<br>for<br>yourself</font></div></div><div class='cr'><div class='vertical-center'>$85<br>for<br>Jacklyn R</div></div><div class='respDivL'><div class='vertical-center'><font style='color:orange'>(E)</font></div></div><div class='respDivR'><div class='vertical-center'>(I)</div></div></div>","null","$80<br>for<br>yourself","$85<br>for<br>5","0","80","85","5",""
"html-keyboard-response","72","163564","0.0-6.0-1.22","5f934f7fdc89a111b5712011","bdp_sd","Sun Mar 26 2023 14:28:44 GMT-0400 (Eastern Daylight Time)","173517","","","","FIX","","","null","","","<div class='trialBorder'><div class='vertical-center'><img style='vertical-align:center; align:center' src=img/fixation3.jpg></div></div>","null","","","","","","",""
"html-keyboard-response","73","164925","0.0-6.0-2.22","5f934f7fdc89a111b5712011","bdp_sd","Sun Mar 26 2023 14:28:44 GMT-0400 (Eastern Daylight Time)","173517","","","","offer","","","1359","","","<div class='trialBorder'><div class='vertical-center'><img style='vertical-align:center; align:center' src=img/fixation3.jpg></div><div class='cl'><div class='vertical-center'>$41<br>for<br>yourself</div></div><div class='cr'><div class='vertical-center'>$75<br>for<br>Cayden S</div></div><div class='respDivL'><div class='vertical-center'>(E)</div></div><div class='respDivR'><div class='vertical-center'>(I)</div></div></div>","I","$41<br>for<br>yourself","$75<br>for<br>3","0","41","75","3","OTHER"
"html-keyboard-response","74","165178","0.0-6.0-3.22","5f934f7fdc89a111b5712011","bdp_sd","Sun Mar 26 2023 14:28:44 GMT-0400 (Eastern Daylight Time)","173517","","","","offerFB","","","null","","","<div class='trialBorder'><div class='vertical-center'><img style='vertical-align:center; align:center' src=img/fixation3.jpg></div><div class='cl'><div class='vertical-center'>$41<br>for<br>yourself</div></div><div class='cr'><div class='vertical-center'><font style='color:orange'>$75<br>for<br>Cayden S</font></div></div><div class='respDivL'><div class='vertical-center'>(E)</div></div><div class='respDivR'><div class='vertical-center'><font style='color:orange'>(I)</font></div></div></div>","null","$41<br>for<br>yourself","$75<br>for<br>3","0","41","75","3",""
"html-keyboard-response","75","165686","0.0-6.0-1.23","5f934f7fdc89a111b5712011","bdp_sd","Sun Mar 26 2023 14:28:44 GMT-0400 (Eastern Daylight Time)","173517","","","","FIX","","","null","","","<div class='trialBorder'><div class='vertical-center'><img style='vertical-align:center; align:center' src=img/fixation3.jpg></div></div>","null","","","","","","",""
"html-keyboard-response","76","166739","0.0-6.0-2.23","5f934f7fdc89a111b5712011","bdp_sd","Sun Mar 26 2023 14:28:44 GMT-0400 (Eastern Daylight Time)","173517","","","","offer","","","1052","","","<div class='trialBorder'><div class='vertical-center'><img style='vertical-align:center; align:center' src=img/fixation3.jpg></div><div class='cl'><div class='vertical-center'>$35<br>for<br>Cayden S</div></div><div class='cr'><div class='vertical-center'>$24<br>for<br>yourself</div></div><div class='respDivL'><div class='vertical-center'>(E)</div></div><div class='respDivR'><div class='vertical-center'>(I)</div></div></div>","I","$24<br>for<br>yourself","$35<br>for<br>3","1","24","35","3","SELF"
"html-keyboard-response","77","166995","0.0-6.0-3.23","5f934f7fdc89a111b5712011","bdp_sd","Sun Mar 26 2023 14:28:44 GMT-0400 (Eastern Daylight Time)","173517","","","","offerFB","","","null","","","<div class='trialBorder'><div class='vertical-center'><img style='vertical-align:center; align:center' src=img/fixation3.jpg></div><div class='cl'><div class='vertical-center'>$35<br>for<br>Cayden S</div></div><div class='cr'><div class='vertical-center'><font style='color:orange'>$24<br>for<br>yourself</font></div></div><div class='respDivL'><div class='vertical-center'>(E)</div></div><div class='respDivR'><div class='vertical-center'><font style='color:orange'>(I)</font></div></div></div>","null","$24<br>for<br>yourself","$35<br>for<br>3","1","24","35","3",""
"html-keyboard-response","78","167501","0.0-6.0-1.24","5f934f7fdc89a111b5712011","bdp_sd","Sun Mar 26 2023 14:28:44 GMT-0400 (Eastern Daylight Time)","173517","","","","FIX","","","null","","","<div class='trialBorder'><div class='vertical-center'><img style='vertical-align:center; align:center' src=img/fixation3.jpg></div></div>","null","","","","","","",""
"html-keyboard-response","79","168447","0.0-6.0-2.24","5f934f7fdc89a111b5712011","bdp_sd","Sun Mar 26 2023 14:28:44 GMT-0400 (Eastern Daylight Time)","173517","","","","offer","","","945","","","<div class='trialBorder'><div class='vertical-center'><img style='vertical-align:center; align:center' src=img/fixation3.jpg></div><div class='cl'><div class='vertical-center'>$80<br>for<br>Jen S</div></div><div class='cr'><div class='vertical-center'>$33<br>for<br>yourself</div></div><div class='respDivL'><div class='vertical-center'>(E)</div></div><div class='respDivR'><div class='vertical-center'>(I)</div></div></div>","I","$33<br>for<br>yourself","$80<br>for<br>2","1","33","80","2","SELF"
"html-keyboard-response","80","168706","0.0-6.0-3.24","5f934f7fdc89a111b5712011","bdp_sd","Sun Mar 26 2023 14:28:44 GMT-0400 (Eastern Daylight Time)","173517","","","","offerFB","","","null","","","<div class='trialBorder'><div class='vertical-center'><img style='vertical-align:center; align:center' src=img/fixation3.jpg></div><div class='cl'><div class='vertical-center'>$80<br>for<br>Jen S</div></div><div class='cr'><div class='vertical-center'><font style='color:orange'>$33<br>for<br>yourself</font></div></div><div class='respDivL'><div class='vertical-center'>(E)</div></div><div class='respDivR'><div class='vertical-center'><font style='color:orange'>(I)</font></div></div></div>","null","$33<br>for<br>yourself","$80<br>for<br>2","1","33","80","2",""
"html-keyboard-response","81","169213","0.0-6.0-1.25","5f934f7fdc89a111b5712011","bdp_sd","Sun Mar 26 2023 14:28:44 GMT-0400 (Eastern Daylight Time)","173517","","","","FIX","","","null","","","<div class='trialBorder'><div class='vertical-center'><img style='vertical-align:center; align:center' src=img/fixation3.jpg></div></div>","null","","","","","","",""
"html-keyboard-response","82","170209","0.0-6.0-2.25","5f934f7fdc89a111b5712011","bdp_sd","Sun Mar 26 2023 14:28:44 GMT-0400 (Eastern Daylight Time)","173517","","","","offer","","","994","","","<div class='trialBorder'><div class='vertical-center'><img style='vertical-align:center; align:center' src=img/fixation3.jpg></div><div class='cl'><div class='vertical-center'>$60<br>for<br>Kristin R</div></div><div class='cr'><div class='vertical-center'>$49<br>for<br>yourself</div></div><div class='respDivL'><div class='vertical-center'>(E)</div></div><div class='respDivR'><div class='vertical-center'>(I)</div></div></div>","I","$49<br>for<br>yourself","$60<br>for<br>4","1","49","60","4","SELF"
"html-keyboard-response","83","170466","0.0-6.0-3.25","5f934f7fdc89a111b5712011","bdp_sd","Sun Mar 26 2023 14:28:44 GMT-0400 (Eastern Daylight Time)","173517","","","","offerFB","","","null","","","<div class='trialBorder'><div class='vertical-center'><img style='vertical-align:center; align:center' src=img/fixation3.jpg></div><div class='cl'><div class='vertical-center'>$60<br>for<br>Kristin R</div></div><div class='cr'><div class='vertical-center'><font style='color:orange'>$49<br>for<br>yourself</font></div></div><div class='respDivL'><div class='vertical-center'>(E)</div></div><div class='respDivR'><div class='vertical-center'><font style='color:orange'>(I)</font></div></div></div>","null","$49<br>for<br>yourself","$60<br>for<br>4","1","49","60","4",""
"html-keyboard-response","84","170972","0.0-6.0-1.26","5f934f7fdc89a111b5712011","bdp_sd","Sun Mar 26 2023 14:28:44 GMT-0400 (Eastern Daylight Time)","173517","","","","FIX","","","null","","","<div class='trialBorder'><div class='vertical-center'><img style='vertical-align:center; align:center' src=img/fixation3.jpg></div></div>","null","","","","","","",""
"html-keyboard-response","85","172252","0.0-6.0-2.26","5f934f7fdc89a111b5712011","bdp_sd","Sun Mar 26 2023 14:28:44 GMT-0400 (Eastern Daylight Time)","173517","","","","offer","","","1278","","","<div class='trialBorder'><div class='vertical-center'><img style='vertical-align:center; align:center' src=img/fixation3.jpg></div><div class='cl'><div class='vertical-center'>$25<br>for<br>Kristin R</div></div><div class='cr'><div class='vertical-center'>$19<br>for<br>yourself</div></div><div class='respDivL'><div class='vertical-center'>(E)</div></div><div class='respDivR'><div class='vertical-center'>(I)</div></div></div>","I","$19<br>for<br>yourself","$25<br>for<br>4","1","19","25","4","SELF"
"html-keyboard-response","86","172509","0.0-6.0-3.26","5f934f7fdc89a111b5712011","bdp_sd","Sun Mar 26 2023 14:28:44 GMT-0400 (Eastern Daylight Time)","173517","","","","offerFB","","","null","","","<div class='trialBorder'><div class='vertical-center'><img style='vertical-align:center; align:center' src=img/fixation3.jpg></div><div class='cl'><div class='vertical-center'>$25<br>for<br>Kristin R</div></div><div class='cr'><div class='vertical-center'><font style='color:orange'>$19<br>for<br>yourself</font></div></div><div class='respDivL'><div class='vertical-center'>(E)</div></div><div class='respDivR'><div class='vertical-center'><font style='color:orange'>(I)</font></div></div></div>","null","$19<br>for<br>yourself","$25<br>for<br>4","1","19","25","4",""
"","","","","5f934f7fdc89a111b5712011","bdp_sd","Sun Mar 26 2023 14:28:44 GMT-0400 (Eastern Daylight Time)","173517","fullscreenexit","87","172516","fullscreenexit","","","","","","","","","","","","","",""
"fullscreen","87","173517","0.0-7.0","5f934f7fdc89a111b5712011","bdp_sd","Sun Mar 26 2023 14:28:44 GMT-0400 (Eastern Daylight Time)","173517","","","","","","","","","true","","","","","","","","",""
"html-keyboard-response","88","174029","0.0-8.0","","","","","","","","","","","null","","","","null","","","","","","",""
