"trial_type","trial_index","time_elapsed","internal_node_id","subject_id","task","startTime","totalTime","view_history","rt","responses","event","trial","time","trialtype","success","stimulus","key_press","selfOffer","otherOffer","otherLeft","selfAmt","otherAmt","otherDist","chosen"
"pavlovia","0","5","0.0-0.0","63356ce6be65e7962bfc424d","bdp_sd","Mon Apr 03 2023 21:24:36 GMT-0500 (Central Daylight Time)","734982","","","","","","","","","","","","","","","","",""
"instructions","1","2343","0.0-1.0","63356ce6be65e7962bfc424d","bdp_sd","Mon Apr 03 2023 21:24:36 GMT-0500 (Central Daylight Time)","734982","[{""page_index"":0,""viewing_time"":2337}]","2337","","","","","","","","","","","","","","",""
"survey-text","2","181235","0.0-2.0","63356ce6be65e7962bfc424d","bdp_sd","Mon Apr 03 2023 21:24:36 GMT-0500 (Central Daylight Time)","734982","","178891","{""Q0"":""Tyler R"",""Q1"":""Uriah W"",""Q2"":""Paul R"",""Q3"":""Annie H"",""Q4"":""Holly P""}","","","","","","","","","","","","","",""
"","","","","63356ce6be65e7962bfc424d","bdp_sd","Mon Apr 03 2023 21:24:36 GMT-0500 (Central Daylight Time)","734982","","","","fullscreenenter","3","183404","fullscreenenter","","","","","","","","","",""
"fullscreen","3","184388","0.0-3.0","63356ce6be65e7962bfc424d","bdp_sd","Mon Apr 03 2023 21:24:36 GMT-0500 (Central Daylight Time)","734982","","","","","","","","true","","","","","","","","",""
"instructions","4","608880","0.0-5.0","63356ce6be65e7962bfc424d","bdp_sd","Mon Apr 03 2023 21:24:36 GMT-0500 (Central Daylight Time)","734982","[{""page_index"":0,""viewing_time"":48944},{""page_index"":1,""viewing_time"":318529},{""page_index"":0,""viewing_time"":2369},{""page_index"":1,""viewing_time"":45146},{""page_index"":2,""viewing_time"":9503}]","424491","","","","","","","","","","","","","","",""
"html-keyboard-response","5","609382","0.0-6.0-1.0","63356ce6be65e7962bfc424d","bdp_sd","Mon Apr 03 2023 21:24:36 GMT-0500 (Central Daylight Time)","734982","","null","","","","","FIX","","<div class='trialBorder'><div class='vertical-center'><img style='vertical-align:center; align:center' src=img/fixation3.jpg></div></div>","null","","","","","","",""
"html-keyboard-response","6","613675","0.0-6.0-2.0","63356ce6be65e7962bfc424d","bdp_sd","Mon Apr 03 2023 21:24:36 GMT-0500 (Central Daylight Time)","734982","","4292","","","","","offer","","<div class='trialBorder'><div class='vertical-center'><img style='vertical-align:center; align:center' src=img/fixation3.jpg></div><div class='cl'><div class='vertical-center'>$24<br>for<br>yourself</div></div><div class='cr'><div class='vertical-center'>$35<br>for<br>Paul R</div></div><div class='respDivL'><div class='vertical-center'>(E)</div></div><div class='respDivR'><div class='vertical-center'>(I)</div></div></div>","E","$24<br>for<br>yourself","$35<br>for<br>3","0","24","35","3","SELF"
"html-keyboard-response","7","613928","0.0-6.0-3.0","63356ce6be65e7962bfc424d","bdp_sd","Mon Apr 03 2023 21:24:36 GMT-0500 (Central Daylight Time)","734982","","null","","","","","offerFB","","<div class='trialBorder'><div class='vertical-center'><img style='vertical-align:center; align:center' src=img/fixation3.jpg></div><div class='cl'><div class='vertical-center'><font style='color:orange'>$24<br>for<br>yourself</font></div></div><div class='cr'><div class='vertical-center'>$35<br>for<br>Paul R</div></div><div class='respDivL'><div class='vertical-center'><font style='color:orange'>(E)</font></div></div><div class='respDivR'><div class='vertical-center'>(I)</div></div></div>","null","$24<br>for<br>yourself","$35<br>for<br>3","0","24","35","3",""
"html-keyboard-response","8","614430","0.0-6.0-1.1","63356ce6be65e7962bfc424d","bdp_sd","Mon Apr 03 2023 21:24:36 GMT-0500 (Central Daylight Time)","734982","","null","","","","","FIX","","<div class='trialBorder'><div class='vertical-center'><img style='vertical-align:center; align:center' src=img/fixation3.jpg></div></div>","null","","","","","","",""
"html-keyboard-response","9","617684","0.0-6.0-2.1","63356ce6be65e7962bfc424d","bdp_sd","Mon Apr 03 2023 21:24:36 GMT-0500 (Central Daylight Time)","734982","","3253","","","","","offer","","<div class='trialBorder'><div class='vertical-center'><img style='vertical-align:center; align:center' src=img/fixation3.jpg></div><div class='cl'><div class='vertical-center'>$33<br>for<br>yourself</div></div><div class='cr'><div class='vertical-center'>$80<br>for<br>Uriah W</div></div><div class='respDivL'><div class='vertical-center'>(E)</div></div><div class='respDivR'><div class='vertical-center'>(I)</div></div></div>","I","$33<br>for<br>yourself","$80<br>for<br>2","0","33","80","2","OTHER"
"html-keyboard-response","10","617936","0.0-6.0-3.1","63356ce6be65e7962bfc424d","bdp_sd","Mon Apr 03 2023 21:24:36 GMT-0500 (Central Daylight Time)","734982","","null","","","","","offerFB","","<div class='trialBorder'><div class='vertical-center'><img style='vertical-align:center; align:center' src=img/fixation3.jpg></div><div class='cl'><div class='vertical-center'>$33<br>for<br>yourself</div></div><div class='cr'><div class='vertical-center'><font style='color:orange'>$80<br>for<br>Uriah W</font></div></div><div class='respDivL'><div class='vertical-center'>(E)</div></div><div class='respDivR'><div class='vertical-center'><font style='color:orange'>(I)</font></div></div></div>","null","$33<br>for<br>yourself","$80<br>for<br>2","0","33","80","2",""
"html-keyboard-response","11","618438","0.0-6.0-1.2","63356ce6be65e7962bfc424d","bdp_sd","Mon Apr 03 2023 21:24:36 GMT-0500 (Central Daylight Time)","734982","","null","","","","","FIX","","<div class='trialBorder'><div class='vertical-center'><img style='vertical-align:center; align:center' src=img/fixation3.jpg></div></div>","null","","","","","","",""
"html-keyboard-response","12","621422","0.0-6.0-2.2","63356ce6be65e7962bfc424d","bdp_sd","Mon Apr 03 2023 21:24:36 GMT-0500 (Central Daylight Time)","734982","","2983","","","","","offer","","<div class='trialBorder'><div class='vertical-center'><img style='vertical-align:center; align:center' src=img/fixation3.jpg></div><div class='cl'><div class='vertical-center'>$11<br>for<br>yourself</div></div><div class='cr'><div class='vertical-center'>$30<br>for<br>Uriah W</div></div><div class='respDivL'><div class='vertical-center'>(E)</div></div><div class='respDivR'><div class='vertical-center'>(I)</div></div></div>","E","$11<br>for<br>yourself","$30<br>for<br>2","0","11","30","2","SELF"
"html-keyboard-response","13","621675","0.0-6.0-3.2","63356ce6be65e7962bfc424d","bdp_sd","Mon Apr 03 2023 21:24:36 GMT-0500 (Central Daylight Time)","734982","","null","","","","","offerFB","","<div class='trialBorder'><div class='vertical-center'><img style='vertical-align:center; align:center' src=img/fixation3.jpg></div><div class='cl'><div class='vertical-center'><font style='color:orange'>$11<br>for<br>yourself</font></div></div><div class='cr'><div class='vertical-center'>$30<br>for<br>Uriah W</div></div><div class='respDivL'><div class='vertical-center'><font style='color:orange'>(E)</font></div></div><div class='respDivR'><div class='vertical-center'>(I)</div></div></div>","null","$11<br>for<br>yourself","$30<br>for<br>2","0","11","30","2",""
"html-keyboard-response","14","622176","0.0-6.0-1.3","63356ce6be65e7962bfc424d","bdp_sd","Mon Apr 03 2023 21:24:36 GMT-0500 (Central Daylight Time)","734982","","null","","","","","FIX","","<div class='trialBorder'><div class='vertical-center'><img style='vertical-align:center; align:center' src=img/fixation3.jpg></div></div>","null","","","","","","",""
"html-keyboard-response","15","625377","0.0-6.0-2.3","63356ce6be65e7962bfc424d","bdp_sd","Mon Apr 03 2023 21:24:36 GMT-0500 (Central Daylight Time)","734982","","3200","","","","","offer","","<div class='trialBorder'><div class='vertical-center'><img style='vertical-align:center; align:center' src=img/fixation3.jpg></div><div class='cl'><div class='vertical-center'>$25<br>for<br>Annie H</div></div><div class='cr'><div class='vertical-center'>$19<br>for<br>yourself</div></div><div class='respDivL'><div class='vertical-center'>(E)</div></div><div class='respDivR'><div class='vertical-center'>(I)</div></div></div>","I","$19<br>for<br>yourself","$25<br>for<br>4","1","19","25","4","SELF"
"html-keyboard-response","16","625629","0.0-6.0-3.3","63356ce6be65e7962bfc424d","bdp_sd","Mon Apr 03 2023 21:24:36 GMT-0500 (Central Daylight Time)","734982","","null","","","","","offerFB","","<div class='trialBorder'><div class='vertical-center'><img style='vertical-align:center; align:center' src=img/fixation3.jpg></div><div class='cl'><div class='vertical-center'>$25<br>for<br>Annie H</div></div><div class='cr'><div class='vertical-center'><font style='color:orange'>$19<br>for<br>yourself</font></div></div><div class='respDivL'><div class='vertical-center'>(E)</div></div><div class='respDivR'><div class='vertical-center'><font style='color:orange'>(I)</font></div></div></div>","null","$19<br>for<br>yourself","$25<br>for<br>4","1","19","25","4",""
"html-keyboard-response","17","626130","0.0-6.0-1.4","63356ce6be65e7962bfc424d","bdp_sd","Mon Apr 03 2023 21:24:36 GMT-0500 (Central Daylight Time)","734982","","null","","","","","FIX","","<div class='trialBorder'><div class='vertical-center'><img style='vertical-align:center; align:center' src=img/fixation3.jpg></div></div>","null","","","","","","",""
"html-keyboard-response","18","628060","0.0-6.0-2.4","63356ce6be65e7962bfc424d","bdp_sd","Mon Apr 03 2023 21:24:36 GMT-0500 (Central Daylight Time)","734982","","1930","","","","","offer","","<div class='trialBorder'><div class='vertical-center'><img style='vertical-align:center; align:center' src=img/fixation3.jpg></div><div class='cl'><div class='vertical-center'>$80<br>for<br>Holly P</div></div><div class='cr'><div class='vertical-center'>$78<br>for<br>yourself</div></div><div class='respDivL'><div class='vertical-center'>(E)</div></div><div class='respDivR'><div class='vertical-center'>(I)</div></div></div>","I","$78<br>for<br>yourself","$80<br>for<br>5","1","78","80","5","SELF"
"html-keyboard-response","19","628312","0.0-6.0-3.4","63356ce6be65e7962bfc424d","bdp_sd","Mon Apr 03 2023 21:24:36 GMT-0500 (Central Daylight Time)","734982","","null","","","","","offerFB","","<div class='trialBorder'><div class='vertical-center'><img style='vertical-align:center; align:center' src=img/fixation3.jpg></div><div class='cl'><div class='vertical-center'>$80<br>for<br>Holly P</div></div><div class='cr'><div class='vertical-center'><font style='color:orange'>$78<br>for<br>yourself</font></div></div><div class='respDivL'><div class='vertical-center'>(E)</div></div><div class='respDivR'><div class='vertical-center'><font style='color:orange'>(I)</font></div></div></div>","null","$78<br>for<br>yourself","$80<br>for<br>5","1","78","80","5",""
"html-keyboard-response","20","628813","0.0-6.0-1.5","63356ce6be65e7962bfc424d","bdp_sd","Mon Apr 03 2023 21:24:36 GMT-0500 (Central Daylight Time)","734982","","null","","","","","FIX","","<div class='trialBorder'><div class='vertical-center'><img style='vertical-align:center; align:center' src=img/fixation3.jpg></div></div>","null","","","","","","",""
"html-keyboard-response","21","630838","0.0-6.0-2.5","63356ce6be65e7962bfc424d","bdp_sd","Mon Apr 03 2023 21:24:36 GMT-0500 (Central Daylight Time)","734982","","2025","","","","","offer","","<div class='trialBorder'><div class='vertical-center'><img style='vertical-align:center; align:center' src=img/fixation3.jpg></div><div class='cl'><div class='vertical-center'>$80<br>for<br>yourself</div></div><div class='cr'><div class='vertical-center'>$85<br>for<br>Holly P</div></div><div class='respDivL'><div class='vertical-center'>(E)</div></div><div class='respDivR'><div class='vertical-center'>(I)</div></div></div>","E","$80<br>for<br>yourself","$85<br>for<br>5","0","80","85","5","SELF"
"html-keyboard-response","22","631089","0.0-6.0-3.5","63356ce6be65e7962bfc424d","bdp_sd","Mon Apr 03 2023 21:24:36 GMT-0500 (Central Daylight Time)","734982","","null","","","","","offerFB","","<div class='trialBorder'><div class='vertical-center'><img style='vertical-align:center; align:center' src=img/fixation3.jpg></div><div class='cl'><div class='vertical-center'><font style='color:orange'>$80<br>for<br>yourself</font></div></div><div class='cr'><div class='vertical-center'>$85<br>for<br>Holly P</div></div><div class='respDivL'><div class='vertical-center'><font style='color:orange'>(E)</font></div></div><div class='respDivR'><div class='vertical-center'>(I)</div></div></div>","null","$80<br>for<br>yourself","$85<br>for<br>5","0","80","85","5",""
"html-keyboard-response","23","631592","0.0-6.0-1.6","63356ce6be65e7962bfc424d","bdp_sd","Mon Apr 03 2023 21:24:36 GMT-0500 (Central Daylight Time)","734982","","null","","","","","FIX","","<div class='trialBorder'><div class='vertical-center'><img style='vertical-align:center; align:center' src=img/fixation3.jpg></div></div>","null","","","","","","",""
"html-keyboard-response","24","638143","0.0-6.0-2.6","63356ce6be65e7962bfc424d","bdp_sd","Mon Apr 03 2023 21:24:36 GMT-0500 (Central Daylight Time)","734982","","6550","","","","","offer","","<div class='trialBorder'><div class='vertical-center'><img style='vertical-align:center; align:center' src=img/fixation3.jpg></div><div class='cl'><div class='vertical-center'>$15<br>for<br>yourself</div></div><div class='cr'><div class='vertical-center'>$35<br>for<br>Uriah W</div></div><div class='respDivL'><div class='vertical-center'>(E)</div></div><div class='respDivR'><div class='vertical-center'>(I)</div></div></div>","E","$15<br>for<br>yourself","$35<br>for<br>2","0","15","35","2","SELF"
"html-keyboard-response","25","638395","0.0-6.0-3.6","63356ce6be65e7962bfc424d","bdp_sd","Mon Apr 03 2023 21:24:36 GMT-0500 (Central Daylight Time)","734982","","null","","","","","offerFB","","<div class='trialBorder'><div class='vertical-center'><img style='vertical-align:center; align:center' src=img/fixation3.jpg></div><div class='cl'><div class='vertical-center'><font style='color:orange'>$15<br>for<br>yourself</font></div></div><div class='cr'><div class='vertical-center'>$35<br>for<br>Uriah W</div></div><div class='respDivL'><div class='vertical-center'><font style='color:orange'>(E)</font></div></div><div class='respDivR'><div class='vertical-center'>(I)</div></div></div>","null","$15<br>for<br>yourself","$35<br>for<br>2","0","15","35","2",""
"html-keyboard-response","26","638896","0.0-6.0-1.7","63356ce6be65e7962bfc424d","bdp_sd","Mon Apr 03 2023 21:24:36 GMT-0500 (Central Daylight Time)","734982","","null","","","","","FIX","","<div class='trialBorder'><div class='vertical-center'><img style='vertical-align:center; align:center' src=img/fixation3.jpg></div></div>","null","","","","","","",""
"html-keyboard-response","27","641138","0.0-6.0-2.7","63356ce6be65e7962bfc424d","bdp_sd","Mon Apr 03 2023 21:24:36 GMT-0500 (Central Daylight Time)","734982","","2241","","","","","offer","","<div class='trialBorder'><div class='vertical-center'><img style='vertical-align:center; align:center' src=img/fixation3.jpg></div><div class='cl'><div class='vertical-center'>$60<br>for<br>Holly P</div></div><div class='cr'><div class='vertical-center'>$54<br>for<br>yourself</div></div><div class='respDivL'><div class='vertical-center'>(E)</div></div><div class='respDivR'><div class='vertical-center'>(I)</div></div></div>","I","$54<br>for<br>yourself","$60<br>for<br>5","1","54","60","5","SELF"
"html-keyboard-response","28","641390","0.0-6.0-3.7","63356ce6be65e7962bfc424d","bdp_sd","Mon Apr 03 2023 21:24:36 GMT-0500 (Central Daylight Time)","734982","","null","","","","","offerFB","","<div class='trialBorder'><div class='vertical-center'><img style='vertical-align:center; align:center' src=img/fixation3.jpg></div><div class='cl'><div class='vertical-center'>$60<br>for<br>Holly P</div></div><div class='cr'><div class='vertical-center'><font style='color:orange'>$54<br>for<br>yourself</font></div></div><div class='respDivL'><div class='vertical-center'>(E)</div></div><div class='respDivR'><div class='vertical-center'><font style='color:orange'>(I)</font></div></div></div>","null","$54<br>for<br>yourself","$60<br>for<br>5","1","54","60","5",""
"html-keyboard-response","29","641891","0.0-6.0-1.8","63356ce6be65e7962bfc424d","bdp_sd","Mon Apr 03 2023 21:24:36 GMT-0500 (Central Daylight Time)","734982","","null","","","","","FIX","","<div class='trialBorder'><div class='vertical-center'><img style='vertical-align:center; align:center' src=img/fixation3.jpg></div></div>","null","","","","","","",""
"html-keyboard-response","30","643847","0.0-6.0-2.8","63356ce6be65e7962bfc424d","bdp_sd","Mon Apr 03 2023 21:24:36 GMT-0500 (Central Daylight Time)","734982","","1956","","","","","offer","","<div class='trialBorder'><div class='vertical-center'><img style='vertical-align:center; align:center' src=img/fixation3.jpg></div><div class='cl'><div class='vertical-center'>$30<br>for<br>Holly P</div></div><div class='cr'><div class='vertical-center'>$28<br>for<br>yourself</div></div><div class='respDivL'><div class='vertical-center'>(E)</div></div><div class='respDivR'><div class='vertical-center'>(I)</div></div></div>","I","$28<br>for<br>yourself","$30<br>for<br>5","1","28","30","5","SELF"
"html-keyboard-response","31","644099","0.0-6.0-3.8","63356ce6be65e7962bfc424d","bdp_sd","Mon Apr 03 2023 21:24:36 GMT-0500 (Central Daylight Time)","734982","","null","","","","","offerFB","","<div class='trialBorder'><div class='vertical-center'><img style='vertical-align:center; align:center' src=img/fixation3.jpg></div><div class='cl'><div class='vertical-center'>$30<br>for<br>Holly P</div></div><div class='cr'><div class='vertical-center'><font style='color:orange'>$28<br>for<br>yourself</font></div></div><div class='respDivL'><div class='vertical-center'>(E)</div></div><div class='respDivR'><div class='vertical-center'><font style='color:orange'>(I)</font></div></div></div>","null","$28<br>for<br>yourself","$30<br>for<br>5","1","28","30","5",""
"html-keyboard-response","32","644600","0.0-6.0-1.9","63356ce6be65e7962bfc424d","bdp_sd","Mon Apr 03 2023 21:24:36 GMT-0500 (Central Daylight Time)","734982","","null","","","","","FIX","","<div class='trialBorder'><div class='vertical-center'><img style='vertical-align:center; align:center' src=img/fixation3.jpg></div></div>","null","","","","","","",""
"html-keyboard-response","33","646390","0.0-6.0-2.9","63356ce6be65e7962bfc424d","bdp_sd","Mon Apr 03 2023 21:24:36 GMT-0500 (Central Daylight Time)","734982","","1789","","","","","offer","","<div class='trialBorder'><div class='vertical-center'><img style='vertical-align:center; align:center' src=img/fixation3.jpg></div><div class='cl'><div class='vertical-center'>$75<br>for<br>Holly P</div></div><div class='cr'><div class='vertical-center'>$67<br>for<br>yourself</div></div><div class='respDivL'><div class='vertical-center'>(E)</div></div><div class='respDivR'><div class='vertical-center'>(I)</div></div></div>","I","$67<br>for<br>yourself","$75<br>for<br>5","1","67","75","5","SELF"
"html-keyboard-response","34","646641","0.0-6.0-3.9","63356ce6be65e7962bfc424d","bdp_sd","Mon Apr 03 2023 21:24:36 GMT-0500 (Central Daylight Time)","734982","","null","","","","","offerFB","","<div class='trialBorder'><div class='vertical-center'><img style='vertical-align:center; align:center' src=img/fixation3.jpg></div><div class='cl'><div class='vertical-center'>$75<br>for<br>Holly P</div></div><div class='cr'><div class='vertical-center'><font style='color:orange'>$67<br>for<br>yourself</font></div></div><div class='respDivL'><div class='vertical-center'>(E)</div></div><div class='respDivR'><div class='vertical-center'><font style='color:orange'>(I)</font></div></div></div>","null","$67<br>for<br>yourself","$75<br>for<br>5","1","67","75","5",""
"html-keyboard-response","35","647143","0.0-6.0-1.10","63356ce6be65e7962bfc424d","bdp_sd","Mon Apr 03 2023 21:24:36 GMT-0500 (Central Daylight Time)","734982","","null","","","","","FIX","","<div class='trialBorder'><div class='vertical-center'><img style='vertical-align:center; align:center' src=img/fixation3.jpg></div></div>","null","","","","","","",""
"html-keyboard-response","36","650049","0.0-6.0-2.10","63356ce6be65e7962bfc424d","bdp_sd","Mon Apr 03 2023 21:24:36 GMT-0500 (Central Daylight Time)","734982","","2906","","","","","offer","","<div class='trialBorder'><div class='vertical-center'><img style='vertical-align:center; align:center' src=img/fixation3.jpg></div><div class='cl'><div class='vertical-center'>$60<br>for<br>Annie H</div></div><div class='cr'><div class='vertical-center'>$49<br>for<br>yourself</div></div><div class='respDivL'><div class='vertical-center'>(E)</div></div><div class='respDivR'><div class='vertical-center'>(I)</div></div></div>","E","$49<br>for<br>yourself","$60<br>for<br>4","1","49","60","4","OTHER"
"html-keyboard-response","37","650301","0.0-6.0-3.10","63356ce6be65e7962bfc424d","bdp_sd","Mon Apr 03 2023 21:24:36 GMT-0500 (Central Daylight Time)","734982","","null","","","","","offerFB","","<div class='trialBorder'><div class='vertical-center'><img style='vertical-align:center; align:center' src=img/fixation3.jpg></div><div class='cl'><div class='vertical-center'><font style='color:orange'>$60<br>for<br>Annie H</font></div></div><div class='cr'><div class='vertical-center'>$49<br>for<br>yourself</div></div><div class='respDivL'><div class='vertical-center'><font style='color:orange'>(E)</font></div></div><div class='respDivR'><div class='vertical-center'>(I)</div></div></div>","null","$49<br>for<br>yourself","$60<br>for<br>4","1","49","60","4",""
"html-keyboard-response","38","650802","0.0-6.0-1.11","63356ce6be65e7962bfc424d","bdp_sd","Mon Apr 03 2023 21:24:36 GMT-0500 (Central Daylight Time)","734982","","null","","","","","FIX","","<div class='trialBorder'><div class='vertical-center'><img style='vertical-align:center; align:center' src=img/fixation3.jpg></div></div>","null","","","","","","",""
"html-keyboard-response","39","652829","0.0-6.0-2.11","63356ce6be65e7962bfc424d","bdp_sd","Mon Apr 03 2023 21:24:36 GMT-0500 (Central Daylight Time)","734982","","2025","","","","","offer","","<div class='trialBorder'><div class='vertical-center'><img style='vertical-align:center; align:center' src=img/fixation3.jpg></div><div class='cl'><div class='vertical-center'>$50<br>for<br>Holly P</div></div><div class='cr'><div class='vertical-center'>$47<br>for<br>yourself</div></div><div class='respDivL'><div class='vertical-center'>(E)</div></div><div class='respDivR'><div class='vertical-center'>(I)</div></div></div>","I","$47<br>for<br>yourself","$50<br>for<br>5","1","47","50","5","SELF"
"html-keyboard-response","40","653080","0.0-6.0-3.11","63356ce6be65e7962bfc424d","bdp_sd","Mon Apr 03 2023 21:24:36 GMT-0500 (Central Daylight Time)","734982","","null","","","","","offerFB","","<div class='trialBorder'><div class='vertical-center'><img style='vertical-align:center; align:center' src=img/fixation3.jpg></div><div class='cl'><div class='vertical-center'>$50<br>for<br>Holly P</div></div><div class='cr'><div class='vertical-center'><font style='color:orange'>$47<br>for<br>yourself</font></div></div><div class='respDivL'><div class='vertical-center'>(E)</div></div><div class='respDivR'><div class='vertical-center'><font style='color:orange'>(I)</font></div></div></div>","null","$47<br>for<br>yourself","$50<br>for<br>5","1","47","50","5",""
"html-keyboard-response","41","653581","0.0-6.0-1.12","63356ce6be65e7962bfc424d","bdp_sd","Mon Apr 03 2023 21:24:36 GMT-0500 (Central Daylight Time)","734982","","null","","","","","FIX","","<div class='trialBorder'><div class='vertical-center'><img style='vertical-align:center; align:center' src=img/fixation3.jpg></div></div>","null","","","","","","",""
"html-keyboard-response","42","663265","0.0-6.0-2.12","63356ce6be65e7962bfc424d","bdp_sd","Mon Apr 03 2023 21:24:36 GMT-0500 (Central Daylight Time)","734982","","9683","","","","","offer","","<div class='trialBorder'><div class='vertical-center'><img style='vertical-align:center; align:center' src=img/fixation3.jpg></div><div class='cl'><div class='vertical-center'>$30<br>for<br>Annie H</div></div><div class='cr'><div class='vertical-center'>$25<br>for<br>yourself</div></div><div class='respDivL'><div class='vertical-center'>(E)</div></div><div class='respDivR'><div class='vertical-center'>(I)</div></div></div>","I","$25<br>for<br>yourself","$30<br>for<br>4","1","25","30","4","SELF"
"html-keyboard-response","43","663518","0.0-6.0-3.12","63356ce6be65e7962bfc424d","bdp_sd","Mon Apr 03 2023 21:24:36 GMT-0500 (Central Daylight Time)","734982","","null","","","","","offerFB","","<div class='trialBorder'><div class='vertical-center'><img style='vertical-align:center; align:center' src=img/fixation3.jpg></div><div class='cl'><div class='vertical-center'>$30<br>for<br>Annie H</div></div><div class='cr'><div class='vertical-center'><font style='color:orange'>$25<br>for<br>yourself</font></div></div><div class='respDivL'><div class='vertical-center'>(E)</div></div><div class='respDivR'><div class='vertical-center'><font style='color:orange'>(I)</font></div></div></div>","null","$25<br>for<br>yourself","$30<br>for<br>4","1","25","30","4",""
"html-keyboard-response","44","664019","0.0-6.0-1.13","63356ce6be65e7962bfc424d","bdp_sd","Mon Apr 03 2023 21:24:36 GMT-0500 (Central Daylight Time)","734982","","null","","","","","FIX","","<div class='trialBorder'><div class='vertical-center'><img style='vertical-align:center; align:center' src=img/fixation3.jpg></div></div>","null","","","","","","",""
"html-keyboard-response","45","668030","0.0-6.0-2.13","63356ce6be65e7962bfc424d","bdp_sd","Mon Apr 03 2023 21:24:36 GMT-0500 (Central Daylight Time)","734982","","4010","","","","","offer","","<div class='trialBorder'><div class='vertical-center'><img style='vertical-align:center; align:center' src=img/fixation3.jpg></div><div class='cl'><div class='vertical-center'>$22<br>for<br>yourself</div></div><div class='cr'><div class='vertical-center'>$25<br>for<br>Holly P</div></div><div class='respDivL'><div class='vertical-center'>(E)</div></div><div class='respDivR'><div class='vertical-center'>(I)</div></div></div>","I","$22<br>for<br>yourself","$25<br>for<br>5","0","22","25","5","OTHER"
"html-keyboard-response","46","668282","0.0-6.0-3.13","63356ce6be65e7962bfc424d","bdp_sd","Mon Apr 03 2023 21:24:36 GMT-0500 (Central Daylight Time)","734982","","null","","","","","offerFB","","<div class='trialBorder'><div class='vertical-center'><img style='vertical-align:center; align:center' src=img/fixation3.jpg></div><div class='cl'><div class='vertical-center'>$22<br>for<br>yourself</div></div><div class='cr'><div class='vertical-center'><font style='color:orange'>$25<br>for<br>Holly P</font></div></div><div class='respDivL'><div class='vertical-center'>(E)</div></div><div class='respDivR'><div class='vertical-center'><font style='color:orange'>(I)</font></div></div></div>","null","$22<br>for<br>yourself","$25<br>for<br>5","0","22","25","5",""
"html-keyboard-response","47","668784","0.0-6.0-1.14","63356ce6be65e7962bfc424d","bdp_sd","Mon Apr 03 2023 21:24:36 GMT-0500 (Central Daylight Time)","734982","","null","","","","","FIX","","<div class='trialBorder'><div class='vertical-center'><img style='vertical-align:center; align:center' src=img/fixation3.jpg></div></div>","null","","","","","","",""
"html-keyboard-response","48","671814","0.0-6.0-2.14","63356ce6be65e7962bfc424d","bdp_sd","Mon Apr 03 2023 21:24:36 GMT-0500 (Central Daylight Time)","734982","","3030","","","","","offer","","<div class='trialBorder'><div class='vertical-center'><img style='vertical-align:center; align:center' src=img/fixation3.jpg></div><div class='cl'><div class='vertical-center'>$14<br>for<br>yourself</div></div><div class='cr'><div class='vertical-center'>$25<br>for<br>Paul R</div></div><div class='respDivL'><div class='vertical-center'>(E)</div></div><div class='respDivR'><div class='vertical-center'>(I)</div></div></div>","I","$14<br>for<br>yourself","$25<br>for<br>3","0","14","25","3","OTHER"
"html-keyboard-response","49","672066","0.0-6.0-3.14","63356ce6be65e7962bfc424d","bdp_sd","Mon Apr 03 2023 21:24:36 GMT-0500 (Central Daylight Time)","734982","","null","","","","","offerFB","","<div class='trialBorder'><div class='vertical-center'><img style='vertical-align:center; align:center' src=img/fixation3.jpg></div><div class='cl'><div class='vertical-center'>$14<br>for<br>yourself</div></div><div class='cr'><div class='vertical-center'><font style='color:orange'>$25<br>for<br>Paul R</font></div></div><div class='respDivL'><div class='vertical-center'>(E)</div></div><div class='respDivR'><div class='vertical-center'><font style='color:orange'>(I)</font></div></div></div>","null","$14<br>for<br>yourself","$25<br>for<br>3","0","14","25","3",""
"html-keyboard-response","50","672567","0.0-6.0-1.15","63356ce6be65e7962bfc424d","bdp_sd","Mon Apr 03 2023 21:24:36 GMT-0500 (Central Daylight Time)","734982","","null","","","","","FIX","","<div class='trialBorder'><div class='vertical-center'><img style='vertical-align:center; align:center' src=img/fixation3.jpg></div></div>","null","","","","","","",""
"html-keyboard-response","51","675183","0.0-6.0-2.15","63356ce6be65e7962bfc424d","bdp_sd","Mon Apr 03 2023 21:24:36 GMT-0500 (Central Daylight Time)","734982","","2615","","","","","offer","","<div class='trialBorder'><div class='vertical-center'><img style='vertical-align:center; align:center' src=img/fixation3.jpg></div><div class='cl'><div class='vertical-center'>$80<br>for<br>Paul R</div></div><div class='cr'><div class='vertical-center'>$54<br>for<br>yourself</div></div><div class='respDivL'><div class='vertical-center'>(E)</div></div><div class='respDivR'><div class='vertical-center'>(I)</div></div></div>","I","$54<br>for<br>yourself","$80<br>for<br>3","1","54","80","3","SELF"
"html-keyboard-response","52","675434","0.0-6.0-3.15","63356ce6be65e7962bfc424d","bdp_sd","Mon Apr 03 2023 21:24:36 GMT-0500 (Central Daylight Time)","734982","","null","","","","","offerFB","","<div class='trialBorder'><div class='vertical-center'><img style='vertical-align:center; align:center' src=img/fixation3.jpg></div><div class='cl'><div class='vertical-center'>$80<br>for<br>Paul R</div></div><div class='cr'><div class='vertical-center'><font style='color:orange'>$54<br>for<br>yourself</font></div></div><div class='respDivL'><div class='vertical-center'>(E)</div></div><div class='respDivR'><div class='vertical-center'><font style='color:orange'>(I)</font></div></div></div>","null","$54<br>for<br>yourself","$80<br>for<br>3","1","54","80","3",""
"html-keyboard-response","53","675936","0.0-6.0-1.16","63356ce6be65e7962bfc424d","bdp_sd","Mon Apr 03 2023 21:24:36 GMT-0500 (Central Daylight Time)","734982","","null","","","","","FIX","","<div class='trialBorder'><div class='vertical-center'><img style='vertical-align:center; align:center' src=img/fixation3.jpg></div></div>","null","","","","","","",""
"html-keyboard-response","54","682161","0.0-6.0-2.16","63356ce6be65e7962bfc424d","bdp_sd","Mon Apr 03 2023 21:24:36 GMT-0500 (Central Daylight Time)","734982","","6224","","","","","offer","","<div class='trialBorder'><div class='vertical-center'><img style='vertical-align:center; align:center' src=img/fixation3.jpg></div><div class='cl'><div class='vertical-center'>$40<br>for<br>yourself</div></div><div class='cr'><div class='vertical-center'>$55<br>for<br>Annie H</div></div><div class='respDivL'><div class='vertical-center'>(E)</div></div><div class='respDivR'><div class='vertical-center'>(I)</div></div></div>","E","$40<br>for<br>yourself","$55<br>for<br>4","0","40","55","4","SELF"
"html-keyboard-response","55","682412","0.0-6.0-3.16","63356ce6be65e7962bfc424d","bdp_sd","Mon Apr 03 2023 21:24:36 GMT-0500 (Central Daylight Time)","734982","","null","","","","","offerFB","","<div class='trialBorder'><div class='vertical-center'><img style='vertical-align:center; align:center' src=img/fixation3.jpg></div><div class='cl'><div class='vertical-center'><font style='color:orange'>$40<br>for<br>yourself</font></div></div><div class='cr'><div class='vertical-center'>$55<br>for<br>Annie H</div></div><div class='respDivL'><div class='vertical-center'><font style='color:orange'>(E)</font></div></div><div class='respDivR'><div class='vertical-center'>(I)</div></div></div>","null","$40<br>for<br>yourself","$55<br>for<br>4","0","40","55","4",""
"html-keyboard-response","56","682914","0.0-6.0-1.17","63356ce6be65e7962bfc424d","bdp_sd","Mon Apr 03 2023 21:24:36 GMT-0500 (Central Daylight Time)","734982","","null","","","","","FIX","","<div class='trialBorder'><div class='vertical-center'><img style='vertical-align:center; align:center' src=img/fixation3.jpg></div></div>","null","","","","","","",""
"html-keyboard-response","57","687109","0.0-6.0-2.17","63356ce6be65e7962bfc424d","bdp_sd","Mon Apr 03 2023 21:24:36 GMT-0500 (Central Daylight Time)","734982","","4193","","","","","offer","","<div class='trialBorder'><div class='vertical-center'><img style='vertical-align:center; align:center' src=img/fixation3.jpg></div><div class='cl'><div class='vertical-center'>$27<br>for<br>yourself</div></div><div class='cr'><div class='vertical-center'>$50<br>for<br>Paul R</div></div><div class='respDivL'><div class='vertical-center'>(E)</div></div><div class='respDivR'><div class='vertical-center'>(I)</div></div></div>","E","$27<br>for<br>yourself","$50<br>for<br>3","0","27","50","3","SELF"
"html-keyboard-response","58","687361","0.0-6.0-3.17","63356ce6be65e7962bfc424d","bdp_sd","Mon Apr 03 2023 21:24:36 GMT-0500 (Central Daylight Time)","734982","","null","","","","","offerFB","","<div class='trialBorder'><div class='vertical-center'><img style='vertical-align:center; align:center' src=img/fixation3.jpg></div><div class='cl'><div class='vertical-center'><font style='color:orange'>$27<br>for<br>yourself</font></div></div><div class='cr'><div class='vertical-center'>$50<br>for<br>Paul R</div></div><div class='respDivL'><div class='vertical-center'><font style='color:orange'>(E)</font></div></div><div class='respDivR'><div class='vertical-center'>(I)</div></div></div>","null","$27<br>for<br>yourself","$50<br>for<br>3","0","27","50","3",""
"html-keyboard-response","59","687862","0.0-6.0-1.18","63356ce6be65e7962bfc424d","bdp_sd","Mon Apr 03 2023 21:24:36 GMT-0500 (Central Daylight Time)","734982","","null","","","","","FIX","","<div class='trialBorder'><div class='vertical-center'><img style='vertical-align:center; align:center' src=img/fixation3.jpg></div></div>","null","","","","","","",""
"html-keyboard-response","60","691547","0.0-6.0-2.18","63356ce6be65e7962bfc424d","bdp_sd","Mon Apr 03 2023 21:24:36 GMT-0500 (Central Daylight Time)","734982","","3684","","","","","offer","","<div class='trialBorder'><div class='vertical-center'><img style='vertical-align:center; align:center' src=img/fixation3.jpg></div><div class='cl'><div class='vertical-center'>$31<br>for<br>yourself</div></div><div class='cr'><div class='vertical-center'>$85<br>for<br>Tyler R</div></div><div class='respDivL'><div class='vertical-center'>(E)</div></div><div class='respDivR'><div class='vertical-center'>(I)</div></div></div>","I","$31<br>for<br>yourself","$85<br>for<br>1","0","31","85","1","OTHER"
"html-keyboard-response","61","691800","0.0-6.0-3.18","63356ce6be65e7962bfc424d","bdp_sd","Mon Apr 03 2023 21:24:36 GMT-0500 (Central Daylight Time)","734982","","null","","","","","offerFB","","<div class='trialBorder'><div class='vertical-center'><img style='vertical-align:center; align:center' src=img/fixation3.jpg></div><div class='cl'><div class='vertical-center'>$31<br>for<br>yourself</div></div><div class='cr'><div class='vertical-center'><font style='color:orange'>$85<br>for<br>Tyler R</font></div></div><div class='respDivL'><div class='vertical-center'>(E)</div></div><div class='respDivR'><div class='vertical-center'><font style='color:orange'>(I)</font></div></div></div>","null","$31<br>for<br>yourself","$85<br>for<br>1","0","31","85","1",""
"html-keyboard-response","62","692300","0.0-6.0-1.19","63356ce6be65e7962bfc424d","bdp_sd","Mon Apr 03 2023 21:24:36 GMT-0500 (Central Daylight Time)","734982","","null","","","","","FIX","","<div class='trialBorder'><div class='vertical-center'><img style='vertical-align:center; align:center' src=img/fixation3.jpg></div></div>","null","","","","","","",""
"html-keyboard-response","63","697389","0.0-6.0-2.19","63356ce6be65e7962bfc424d","bdp_sd","Mon Apr 03 2023 21:24:36 GMT-0500 (Central Daylight Time)","734982","","5087","","","","","offer","","<div class='trialBorder'><div class='vertical-center'><img style='vertical-align:center; align:center' src=img/fixation3.jpg></div><div class='cl'><div class='vertical-center'>$60<br>for<br>Paul R</div></div><div class='cr'><div class='vertical-center'>$25<br>for<br>yourself</div></div><div class='respDivL'><div class='vertical-center'>(E)</div></div><div class='respDivR'><div class='vertical-center'>(I)</div></div></div>","I","$25<br>for<br>yourself","$60<br>for<br>3","1","25","60","3","SELF"
"html-keyboard-response","64","697640","0.0-6.0-3.19","63356ce6be65e7962bfc424d","bdp_sd","Mon Apr 03 2023 21:24:36 GMT-0500 (Central Daylight Time)","734982","","null","","","","","offerFB","","<div class='trialBorder'><div class='vertical-center'><img style='vertical-align:center; align:center' src=img/fixation3.jpg></div><div class='cl'><div class='vertical-center'>$60<br>for<br>Paul R</div></div><div class='cr'><div class='vertical-center'><font style='color:orange'>$25<br>for<br>yourself</font></div></div><div class='respDivL'><div class='vertical-center'>(E)</div></div><div class='respDivR'><div class='vertical-center'><font style='color:orange'>(I)</font></div></div></div>","null","$25<br>for<br>yourself","$60<br>for<br>3","1","25","60","3",""
"html-keyboard-response","65","698141","0.0-6.0-1.20","63356ce6be65e7962bfc424d","bdp_sd","Mon Apr 03 2023 21:24:36 GMT-0500 (Central Daylight Time)","734982","","null","","","","","FIX","","<div class='trialBorder'><div class='vertical-center'><img style='vertical-align:center; align:center' src=img/fixation3.jpg></div></div>","null","","","","","","",""
"html-keyboard-response","66","701165","0.0-6.0-2.20","63356ce6be65e7962bfc424d","bdp_sd","Mon Apr 03 2023 21:24:36 GMT-0500 (Central Daylight Time)","734982","","3024","","","","","offer","","<div class='trialBorder'><div class='vertical-center'><img style='vertical-align:center; align:center' src=img/fixation3.jpg></div><div class='cl'><div class='vertical-center'>$35<br>for<br>Holly P</div></div><div class='cr'><div class='vertical-center'>$34<br>for<br>yourself</div></div><div class='respDivL'><div class='vertical-center'>(E)</div></div><div class='respDivR'><div class='vertical-center'>(I)</div></div></div>","I","$34<br>for<br>yourself","$35<br>for<br>5","1","34","35","5","SELF"
"html-keyboard-response","67","701417","0.0-6.0-3.20","63356ce6be65e7962bfc424d","bdp_sd","Mon Apr 03 2023 21:24:36 GMT-0500 (Central Daylight Time)","734982","","null","","","","","offerFB","","<div class='trialBorder'><div class='vertical-center'><img style='vertical-align:center; align:center' src=img/fixation3.jpg></div><div class='cl'><div class='vertical-center'>$35<br>for<br>Holly P</div></div><div class='cr'><div class='vertical-center'><font style='color:orange'>$34<br>for<br>yourself</font></div></div><div class='respDivL'><div class='vertical-center'>(E)</div></div><div class='respDivR'><div class='vertical-center'><font style='color:orange'>(I)</font></div></div></div>","null","$34<br>for<br>yourself","$35<br>for<br>5","1","34","35","5",""
"html-keyboard-response","68","701918","0.0-6.0-1.21","63356ce6be65e7962bfc424d","bdp_sd","Mon Apr 03 2023 21:24:36 GMT-0500 (Central Daylight Time)","734982","","null","","","","","FIX","","<div class='trialBorder'><div class='vertical-center'><img style='vertical-align:center; align:center' src=img/fixation3.jpg></div></div>","null","","","","","","",""
"html-keyboard-response","69","706855","0.0-6.0-2.21","63356ce6be65e7962bfc424d","bdp_sd","Mon Apr 03 2023 21:24:36 GMT-0500 (Central Daylight Time)","734982","","4936","","","","","offer","","<div class='trialBorder'><div class='vertical-center'><img style='vertical-align:center; align:center' src=img/fixation3.jpg></div><div class='cl'><div class='vertical-center'>$85<br>for<br>Annie H</div></div><div class='cr'><div class='vertical-center'>$69<br>for<br>yourself</div></div><div class='respDivL'><div class='vertical-center'>(E)</div></div><div class='respDivR'><div class='vertical-center'>(I)</div></div></div>","I","$69<br>for<br>yourself","$85<br>for<br>4","1","69","85","4","SELF"
"html-keyboard-response","70","707107","0.0-6.0-3.21","63356ce6be65e7962bfc424d","bdp_sd","Mon Apr 03 2023 21:24:36 GMT-0500 (Central Daylight Time)","734982","","null","","","","","offerFB","","<div class='trialBorder'><div class='vertical-center'><img style='vertical-align:center; align:center' src=img/fixation3.jpg></div><div class='cl'><div class='vertical-center'>$85<br>for<br>Annie H</div></div><div class='cr'><div class='vertical-center'><font style='color:orange'>$69<br>for<br>yourself</font></div></div><div class='respDivL'><div class='vertical-center'>(E)</div></div><div class='respDivR'><div class='vertical-center'><font style='color:orange'>(I)</font></div></div></div>","null","$69<br>for<br>yourself","$85<br>for<br>4","1","69","85","4",""
"html-keyboard-response","71","707609","0.0-6.0-1.22","63356ce6be65e7962bfc424d","bdp_sd","Mon Apr 03 2023 21:24:36 GMT-0500 (Central Daylight Time)","734982","","null","","","","","FIX","","<div class='trialBorder'><div class='vertical-center'><img style='vertical-align:center; align:center' src=img/fixation3.jpg></div></div>","null","","","","","","",""
"html-keyboard-response","72","722518","0.0-6.0-2.22","63356ce6be65e7962bfc424d","bdp_sd","Mon Apr 03 2023 21:24:36 GMT-0500 (Central Daylight Time)","734982","","14908","","","","","offer","","<div class='trialBorder'><div class='vertical-center'><img style='vertical-align:center; align:center' src=img/fixation3.jpg></div><div class='cl'><div class='vertical-center'>$75<br>for<br>Annie H</div></div><div class='cr'><div class='vertical-center'>$55<br>for<br>yourself</div></div><div class='respDivL'><div class='vertical-center'>(E)</div></div><div class='respDivR'><div class='vertical-center'>(I)</div></div></div>","E","$55<br>for<br>yourself","$75<br>for<br>4","1","55","75","4","OTHER"
"html-keyboard-response","73","722771","0.0-6.0-3.22","63356ce6be65e7962bfc424d","bdp_sd","Mon Apr 03 2023 21:24:36 GMT-0500 (Central Daylight Time)","734982","","null","","","","","offerFB","","<div class='trialBorder'><div class='vertical-center'><img style='vertical-align:center; align:center' src=img/fixation3.jpg></div><div class='cl'><div class='vertical-center'><font style='color:orange'>$75<br>for<br>Annie H</font></div></div><div class='cr'><div class='vertical-center'>$55<br>for<br>yourself</div></div><div class='respDivL'><div class='vertical-center'><font style='color:orange'>(E)</font></div></div><div class='respDivR'><div class='vertical-center'>(I)</div></div></div>","null","$55<br>for<br>yourself","$75<br>for<br>4","1","55","75","4",""
"html-keyboard-response","74","723272","0.0-6.0-1.23","63356ce6be65e7962bfc424d","bdp_sd","Mon Apr 03 2023 21:24:36 GMT-0500 (Central Daylight Time)","734982","","null","","","","","FIX","","<div class='trialBorder'><div class='vertical-center'><img style='vertical-align:center; align:center' src=img/fixation3.jpg></div></div>","null","","","","","","",""
"html-keyboard-response","75","725536","0.0-6.0-2.23","63356ce6be65e7962bfc424d","bdp_sd","Mon Apr 03 2023 21:24:36 GMT-0500 (Central Daylight Time)","734982","","2264","","","","","offer","","<div class='trialBorder'><div class='vertical-center'><img style='vertical-align:center; align:center' src=img/fixation3.jpg></div><div class='cl'><div class='vertical-center'>$20<br>for<br>yourself</div></div><div class='cr'><div class='vertical-center'>$55<br>for<br>Tyler R</div></div><div class='respDivL'><div class='vertical-center'>(E)</div></div><div class='respDivR'><div class='vertical-center'>(I)</div></div></div>","E","$20<br>for<br>yourself","$55<br>for<br>1","0","20","55","1","SELF"
"html-keyboard-response","76","725787","0.0-6.0-3.23","63356ce6be65e7962bfc424d","bdp_sd","Mon Apr 03 2023 21:24:36 GMT-0500 (Central Daylight Time)","734982","","null","","","","","offerFB","","<div class='trialBorder'><div class='vertical-center'><img style='vertical-align:center; align:center' src=img/fixation3.jpg></div><div class='cl'><div class='vertical-center'><font style='color:orange'>$20<br>for<br>yourself</font></div></div><div class='cr'><div class='vertical-center'>$55<br>for<br>Tyler R</div></div><div class='respDivL'><div class='vertical-center'><font style='color:orange'>(E)</font></div></div><div class='respDivR'><div class='vertical-center'>(I)</div></div></div>","null","$20<br>for<br>yourself","$55<br>for<br>1","0","20","55","1",""
"html-keyboard-response","77","726288","0.0-6.0-1.24","63356ce6be65e7962bfc424d","bdp_sd","Mon Apr 03 2023 21:24:36 GMT-0500 (Central Daylight Time)","734982","","null","","","","","FIX","","<div class='trialBorder'><div class='vertical-center'><img style='vertical-align:center; align:center' src=img/fixation3.jpg></div></div>","null","","","","","","",""
"html-keyboard-response","78","728550","0.0-6.0-2.24","63356ce6be65e7962bfc424d","bdp_sd","Mon Apr 03 2023 21:24:36 GMT-0500 (Central Daylight Time)","734982","","2262","","","","","offer","","<div class='trialBorder'><div class='vertical-center'><img style='vertical-align:center; align:center' src=img/fixation3.jpg></div><div class='cl'><div class='vertical-center'>$54<br>for<br>yourself</div></div><div class='cr'><div class='vertical-center'>$55<br>for<br>Holly P</div></div><div class='respDivL'><div class='vertical-center'>(E)</div></div><div class='respDivR'><div class='vertical-center'>(I)</div></div></div>","E","$54<br>for<br>yourself","$55<br>for<br>5","0","54","55","5","SELF"
"html-keyboard-response","79","728802","0.0-6.0-3.24","63356ce6be65e7962bfc424d","bdp_sd","Mon Apr 03 2023 21:24:36 GMT-0500 (Central Daylight Time)","734982","","null","","","","","offerFB","","<div class='trialBorder'><div class='vertical-center'><img style='vertical-align:center; align:center' src=img/fixation3.jpg></div><div class='cl'><div class='vertical-center'><font style='color:orange'>$54<br>for<br>yourself</font></div></div><div class='cr'><div class='vertical-center'>$55<br>for<br>Holly P</div></div><div class='respDivL'><div class='vertical-center'><font style='color:orange'>(E)</font></div></div><div class='respDivR'><div class='vertical-center'>(I)</div></div></div>","null","$54<br>for<br>yourself","$55<br>for<br>5","0","54","55","5",""
"html-keyboard-response","80","729303","0.0-6.0-1.25","63356ce6be65e7962bfc424d","bdp_sd","Mon Apr 03 2023 21:24:36 GMT-0500 (Central Daylight Time)","734982","","null","","","","","FIX","","<div class='trialBorder'><div class='vertical-center'><img style='vertical-align:center; align:center' src=img/fixation3.jpg></div></div>","null","","","","","","",""
"html-keyboard-response","81","731300","0.0-6.0-2.25","63356ce6be65e7962bfc424d","bdp_sd","Mon Apr 03 2023 21:24:36 GMT-0500 (Central Daylight Time)","734982","","1996","","","","","offer","","<div class='trialBorder'><div class='vertical-center'><img style='vertical-align:center; align:center' src=img/fixation3.jpg></div><div class='cl'><div class='vertical-center'>$41<br>for<br>yourself</div></div><div class='cr'><div class='vertical-center'>$75<br>for<br>Paul R</div></div><div class='respDivL'><div class='vertical-center'>(E)</div></div><div class='respDivR'><div class='vertical-center'>(I)</div></div></div>","E","$41<br>for<br>yourself","$75<br>for<br>3","0","41","75","3","SELF"
"html-keyboard-response","82","731551","0.0-6.0-3.25","63356ce6be65e7962bfc424d","bdp_sd","Mon Apr 03 2023 21:24:36 GMT-0500 (Central Daylight Time)","734982","","null","","","","","offerFB","","<div class='trialBorder'><div class='vertical-center'><img style='vertical-align:center; align:center' src=img/fixation3.jpg></div><div class='cl'><div class='vertical-center'><font style='color:orange'>$41<br>for<br>yourself</font></div></div><div class='cr'><div class='vertical-center'>$75<br>for<br>Paul R</div></div><div class='respDivL'><div class='vertical-center'><font style='color:orange'>(E)</font></div></div><div class='respDivR'><div class='vertical-center'>(I)</div></div></div>","null","$41<br>for<br>yourself","$75<br>for<br>3","0","41","75","3",""
"html-keyboard-response","83","732052","0.0-6.0-1.26","63356ce6be65e7962bfc424d","bdp_sd","Mon Apr 03 2023 21:24:36 GMT-0500 (Central Daylight Time)","734982","","null","","","","","FIX","","<div class='trialBorder'><div class='vertical-center'><img style='vertical-align:center; align:center' src=img/fixation3.jpg></div></div>","null","","","","","","",""
"html-keyboard-response","84","733729","0.0-6.0-2.26","63356ce6be65e7962bfc424d","bdp_sd","Mon Apr 03 2023 21:24:36 GMT-0500 (Central Daylight Time)","734982","","1677","","","","","offer","","<div class='trialBorder'><div class='vertical-center'><img style='vertical-align:center; align:center' src=img/fixation3.jpg></div><div class='cl'><div class='vertical-center'>$34<br>for<br>yourself</div></div><div class='cr'><div class='vertical-center'>$50<br>for<br>Annie H</div></div><div class='respDivL'><div class='vertical-center'>(E)</div></div><div class='respDivR'><div class='vertical-center'>(I)</div></div></div>","E","$34<br>for<br>yourself","$50<br>for<br>4","0","34","50","4","SELF"
"html-keyboard-response","85","733981","0.0-6.0-3.26","63356ce6be65e7962bfc424d","bdp_sd","Mon Apr 03 2023 21:24:36 GMT-0500 (Central Daylight Time)","734982","","null","","","","","offerFB","","<div class='trialBorder'><div class='vertical-center'><img style='vertical-align:center; align:center' src=img/fixation3.jpg></div><div class='cl'><div class='vertical-center'><font style='color:orange'>$34<br>for<br>yourself</font></div></div><div class='cr'><div class='vertical-center'>$50<br>for<br>Annie H</div></div><div class='respDivL'><div class='vertical-center'><font style='color:orange'>(E)</font></div></div><div class='respDivR'><div class='vertical-center'>(I)</div></div></div>","null","$34<br>for<br>yourself","$50<br>for<br>4","0","34","50","4",""
"","","","","63356ce6be65e7962bfc424d","bdp_sd","Mon Apr 03 2023 21:24:36 GMT-0500 (Central Daylight Time)","734982","","","","fullscreenexit","86","734017","fullscreenexit","","","","","","","","","",""
"fullscreen","86","734982","0.0-7.0","63356ce6be65e7962bfc424d","bdp_sd","Mon Apr 03 2023 21:24:36 GMT-0500 (Central Daylight Time)","734982","","","","","","","","true","","","","","","","","",""
"html-keyboard-response","87","735483","0.0-8.0","","","","","","null","","","","","","","","null","","","","","","",""
