"trial_type","trial_index","time_elapsed","internal_node_id","subject_id","task","startTime","totalTime","view_history","rt","responses","event","trial","time","trialtype","success","stimulus","key_press","selfOffer","otherOffer","otherLeft","selfAmt","otherAmt","otherDist","chosen"
"pavlovia","0","1","0.0-0.0","60cfdcfdf8a3c6c42dad17d3","bdp_sd","Mon Mar 27 2023 10:40:21 GMT-0600 (Central Standard Time)","179332","","","","","","","","","","","","","","","","",""
"instructions","1","1818","0.0-1.0","60cfdcfdf8a3c6c42dad17d3","bdp_sd","Mon Mar 27 2023 10:40:21 GMT-0600 (Central Standard Time)","179332","[{""page_index"":0,""viewing_time"":1816}]","1816","","","","","","","","","","","","","","",""
"survey-text","2","88912","0.0-2.0","60cfdcfdf8a3c6c42dad17d3","bdp_sd","Mon Mar 27 2023 10:40:21 GMT-0600 (Central Standard Time)","179332","","87092","{""Q0"":""dylan s"",""Q1"":""sierra m"",""Q2"":""jaxon w"",""Q3"":""rusty w"",""Q4"":""april w""}","","","","","","","","","","","","","",""
"","","","","60cfdcfdf8a3c6c42dad17d3","bdp_sd","Mon Mar 27 2023 10:40:21 GMT-0600 (Central Standard Time)","179332","","","","fullscreenenter","3","90495","fullscreenenter","","","","","","","","","",""
"fullscreen","3","91487","0.0-3.0","60cfdcfdf8a3c6c42dad17d3","bdp_sd","Mon Mar 27 2023 10:40:21 GMT-0600 (Central Standard Time)","179332","","","","","","","","true","","","","","","","","",""
"instructions","4","112744","0.0-5.0","60cfdcfdf8a3c6c42dad17d3","bdp_sd","Mon Mar 27 2023 10:40:21 GMT-0600 (Central Standard Time)","179332","[{""page_index"":0,""viewing_time"":4582},{""page_index"":1,""viewing_time"":10195},{""page_index"":2,""viewing_time"":6479}]","21257","","","","","","","","","","","","","","",""
"html-keyboard-response","5","113245","0.0-6.0-1.0","60cfdcfdf8a3c6c42dad17d3","bdp_sd","Mon Mar 27 2023 10:40:21 GMT-0600 (Central Standard Time)","179332","","null","","","","","FIX","","<div class='trialBorder'><div class='vertical-center'><img style='vertical-align:center; align:center' src=img/fixation3.jpg></div></div>","null","","","","","","",""
"html-keyboard-response","6","116891","0.0-6.0-2.0","60cfdcfdf8a3c6c42dad17d3","bdp_sd","Mon Mar 27 2023 10:40:21 GMT-0600 (Central Standard Time)","179332","","3645","","","","","offer","","<div class='trialBorder'><div class='vertical-center'><img style='vertical-align:center; align:center' src=img/fixation3.jpg></div><div class='cl'><div class='vertical-center'>$20<br>for<br>yourself</div></div><div class='cr'><div class='vertical-center'>$55<br>for<br>dylan s</div></div><div class='respDivL'><div class='vertical-center'>(E)</div></div><div class='respDivR'><div class='vertical-center'>(I)</div></div></div>","I","$20<br>for<br>yourself","$55<br>for<br>1","0","20","55","1","OTHER"
"html-keyboard-response","7","117143","0.0-6.0-3.0","60cfdcfdf8a3c6c42dad17d3","bdp_sd","Mon Mar 27 2023 10:40:21 GMT-0600 (Central Standard Time)","179332","","null","","","","","offerFB","","<div class='trialBorder'><div class='vertical-center'><img style='vertical-align:center; align:center' src=img/fixation3.jpg></div><div class='cl'><div class='vertical-center'>$20<br>for<br>yourself</div></div><div class='cr'><div class='vertical-center'><font style='color:orange'>$55<br>for<br>dylan s</font></div></div><div class='respDivL'><div class='vertical-center'>(E)</div></div><div class='respDivR'><div class='vertical-center'><font style='color:orange'>(I)</font></div></div></div>","null","$20<br>for<br>yourself","$55<br>for<br>1","0","20","55","1",""
"html-keyboard-response","8","117645","0.0-6.0-1.1","60cfdcfdf8a3c6c42dad17d3","bdp_sd","Mon Mar 27 2023 10:40:21 GMT-0600 (Central Standard Time)","179332","","null","","","","","FIX","","<div class='trialBorder'><div class='vertical-center'><img style='vertical-align:center; align:center' src=img/fixation3.jpg></div></div>","null","","","","","","",""
"html-keyboard-response","9","119284","0.0-6.0-2.1","60cfdcfdf8a3c6c42dad17d3","bdp_sd","Mon Mar 27 2023 10:40:21 GMT-0600 (Central Standard Time)","179332","","1639","","","","","offer","","<div class='trialBorder'><div class='vertical-center'><img style='vertical-align:center; align:center' src=img/fixation3.jpg></div><div class='cl'><div class='vertical-center'>$54<br>for<br>yourself</div></div><div class='cr'><div class='vertical-center'>$55<br>for<br>april w</div></div><div class='respDivL'><div class='vertical-center'>(E)</div></div><div class='respDivR'><div class='vertical-center'>(I)</div></div></div>","E","$54<br>for<br>yourself","$55<br>for<br>5","0","54","55","5","SELF"
"html-keyboard-response","10","119536","0.0-6.0-3.1","60cfdcfdf8a3c6c42dad17d3","bdp_sd","Mon Mar 27 2023 10:40:21 GMT-0600 (Central Standard Time)","179332","","null","","","","","offerFB","","<div class='trialBorder'><div class='vertical-center'><img style='vertical-align:center; align:center' src=img/fixation3.jpg></div><div class='cl'><div class='vertical-center'><font style='color:orange'>$54<br>for<br>yourself</font></div></div><div class='cr'><div class='vertical-center'>$55<br>for<br>april w</div></div><div class='respDivL'><div class='vertical-center'><font style='color:orange'>(E)</font></div></div><div class='respDivR'><div class='vertical-center'>(I)</div></div></div>","null","$54<br>for<br>yourself","$55<br>for<br>5","0","54","55","5",""
"html-keyboard-response","11","120037","0.0-6.0-1.2","60cfdcfdf8a3c6c42dad17d3","bdp_sd","Mon Mar 27 2023 10:40:21 GMT-0600 (Central Standard Time)","179332","","null","","","","","FIX","","<div class='trialBorder'><div class='vertical-center'><img style='vertical-align:center; align:center' src=img/fixation3.jpg></div></div>","null","","","","","","",""
"html-keyboard-response","12","121340","0.0-6.0-2.2","60cfdcfdf8a3c6c42dad17d3","bdp_sd","Mon Mar 27 2023 10:40:21 GMT-0600 (Central Standard Time)","179332","","1302","","","","","offer","","<div class='trialBorder'><div class='vertical-center'><img style='vertical-align:center; align:center' src=img/fixation3.jpg></div><div class='cl'><div class='vertical-center'>$85<br>for<br>april w</div></div><div class='cr'><div class='vertical-center'>$80<br>for<br>yourself</div></div><div class='respDivL'><div class='vertical-center'>(E)</div></div><div class='respDivR'><div class='vertical-center'>(I)</div></div></div>","I","$80<br>for<br>yourself","$85<br>for<br>5","1","80","85","5","SELF"
"html-keyboard-response","13","121591","0.0-6.0-3.2","60cfdcfdf8a3c6c42dad17d3","bdp_sd","Mon Mar 27 2023 10:40:21 GMT-0600 (Central Standard Time)","179332","","null","","","","","offerFB","","<div class='trialBorder'><div class='vertical-center'><img style='vertical-align:center; align:center' src=img/fixation3.jpg></div><div class='cl'><div class='vertical-center'>$85<br>for<br>april w</div></div><div class='cr'><div class='vertical-center'><font style='color:orange'>$80<br>for<br>yourself</font></div></div><div class='respDivL'><div class='vertical-center'>(E)</div></div><div class='respDivR'><div class='vertical-center'><font style='color:orange'>(I)</font></div></div></div>","null","$80<br>for<br>yourself","$85<br>for<br>5","1","80","85","5",""
"html-keyboard-response","14","122092","0.0-6.0-1.3","60cfdcfdf8a3c6c42dad17d3","bdp_sd","Mon Mar 27 2023 10:40:21 GMT-0600 (Central Standard Time)","179332","","null","","","","","FIX","","<div class='trialBorder'><div class='vertical-center'><img style='vertical-align:center; align:center' src=img/fixation3.jpg></div></div>","null","","","","","","",""
"html-keyboard-response","15","123685","0.0-6.0-2.3","60cfdcfdf8a3c6c42dad17d3","bdp_sd","Mon Mar 27 2023 10:40:21 GMT-0600 (Central Standard Time)","179332","","1592","","","","","offer","","<div class='trialBorder'><div class='vertical-center'><img style='vertical-align:center; align:center' src=img/fixation3.jpg></div><div class='cl'><div class='vertical-center'>$33<br>for<br>yourself</div></div><div class='cr'><div class='vertical-center'>$80<br>for<br>sierra m</div></div><div class='respDivL'><div class='vertical-center'>(E)</div></div><div class='respDivR'><div class='vertical-center'>(I)</div></div></div>","I","$33<br>for<br>yourself","$80<br>for<br>2","0","33","80","2","OTHER"
"html-keyboard-response","16","123936","0.0-6.0-3.3","60cfdcfdf8a3c6c42dad17d3","bdp_sd","Mon Mar 27 2023 10:40:21 GMT-0600 (Central Standard Time)","179332","","null","","","","","offerFB","","<div class='trialBorder'><div class='vertical-center'><img style='vertical-align:center; align:center' src=img/fixation3.jpg></div><div class='cl'><div class='vertical-center'>$33<br>for<br>yourself</div></div><div class='cr'><div class='vertical-center'><font style='color:orange'>$80<br>for<br>sierra m</font></div></div><div class='respDivL'><div class='vertical-center'>(E)</div></div><div class='respDivR'><div class='vertical-center'><font style='color:orange'>(I)</font></div></div></div>","null","$33<br>for<br>yourself","$80<br>for<br>2","0","33","80","2",""
"html-keyboard-response","17","124437","0.0-6.0-1.4","60cfdcfdf8a3c6c42dad17d3","bdp_sd","Mon Mar 27 2023 10:40:21 GMT-0600 (Central Standard Time)","179332","","null","","","","","FIX","","<div class='trialBorder'><div class='vertical-center'><img style='vertical-align:center; align:center' src=img/fixation3.jpg></div></div>","null","","","","","","",""
"html-keyboard-response","18","126127","0.0-6.0-2.4","60cfdcfdf8a3c6c42dad17d3","bdp_sd","Mon Mar 27 2023 10:40:21 GMT-0600 (Central Standard Time)","179332","","1689","","","","","offer","","<div class='trialBorder'><div class='vertical-center'><img style='vertical-align:center; align:center' src=img/fixation3.jpg></div><div class='cl'><div class='vertical-center'>$31<br>for<br>yourself</div></div><div class='cr'><div class='vertical-center'>$85<br>for<br>dylan s</div></div><div class='respDivL'><div class='vertical-center'>(E)</div></div><div class='respDivR'><div class='vertical-center'>(I)</div></div></div>","I","$31<br>for<br>yourself","$85<br>for<br>1","0","31","85","1","OTHER"
"html-keyboard-response","19","126379","0.0-6.0-3.4","60cfdcfdf8a3c6c42dad17d3","bdp_sd","Mon Mar 27 2023 10:40:21 GMT-0600 (Central Standard Time)","179332","","null","","","","","offerFB","","<div class='trialBorder'><div class='vertical-center'><img style='vertical-align:center; align:center' src=img/fixation3.jpg></div><div class='cl'><div class='vertical-center'>$31<br>for<br>yourself</div></div><div class='cr'><div class='vertical-center'><font style='color:orange'>$85<br>for<br>dylan s</font></div></div><div class='respDivL'><div class='vertical-center'>(E)</div></div><div class='respDivR'><div class='vertical-center'><font style='color:orange'>(I)</font></div></div></div>","null","$31<br>for<br>yourself","$85<br>for<br>1","0","31","85","1",""
"html-keyboard-response","20","126882","0.0-6.0-1.5","60cfdcfdf8a3c6c42dad17d3","bdp_sd","Mon Mar 27 2023 10:40:21 GMT-0600 (Central Standard Time)","179332","","null","","","","","FIX","","<div class='trialBorder'><div class='vertical-center'><img style='vertical-align:center; align:center' src=img/fixation3.jpg></div></div>","null","","","","","","",""
"html-keyboard-response","21","128060","0.0-6.0-2.5","60cfdcfdf8a3c6c42dad17d3","bdp_sd","Mon Mar 27 2023 10:40:21 GMT-0600 (Central Standard Time)","179332","","1178","","","","","offer","","<div class='trialBorder'><div class='vertical-center'><img style='vertical-align:center; align:center' src=img/fixation3.jpg></div><div class='cl'><div class='vertical-center'>$78<br>for<br>yourself</div></div><div class='cr'><div class='vertical-center'>$80<br>for<br>april w</div></div><div class='respDivL'><div class='vertical-center'>(E)</div></div><div class='respDivR'><div class='vertical-center'>(I)</div></div></div>","E","$78<br>for<br>yourself","$80<br>for<br>5","0","78","80","5","SELF"
"html-keyboard-response","22","128312","0.0-6.0-3.5","60cfdcfdf8a3c6c42dad17d3","bdp_sd","Mon Mar 27 2023 10:40:21 GMT-0600 (Central Standard Time)","179332","","null","","","","","offerFB","","<div class='trialBorder'><div class='vertical-center'><img style='vertical-align:center; align:center' src=img/fixation3.jpg></div><div class='cl'><div class='vertical-center'><font style='color:orange'>$78<br>for<br>yourself</font></div></div><div class='cr'><div class='vertical-center'>$80<br>for<br>april w</div></div><div class='respDivL'><div class='vertical-center'><font style='color:orange'>(E)</font></div></div><div class='respDivR'><div class='vertical-center'>(I)</div></div></div>","null","$78<br>for<br>yourself","$80<br>for<br>5","0","78","80","5",""
"html-keyboard-response","23","128814","0.0-6.0-1.6","60cfdcfdf8a3c6c42dad17d3","bdp_sd","Mon Mar 27 2023 10:40:21 GMT-0600 (Central Standard Time)","179332","","null","","","","","FIX","","<div class='trialBorder'><div class='vertical-center'><img style='vertical-align:center; align:center' src=img/fixation3.jpg></div></div>","null","","","","","","",""
"html-keyboard-response","24","130838","0.0-6.0-2.6","60cfdcfdf8a3c6c42dad17d3","bdp_sd","Mon Mar 27 2023 10:40:21 GMT-0600 (Central Standard Time)","179332","","2024","","","","","offer","","<div class='trialBorder'><div class='vertical-center'><img style='vertical-align:center; align:center' src=img/fixation3.jpg></div><div class='cl'><div class='vertical-center'>$35<br>for<br>april w</div></div><div class='cr'><div class='vertical-center'>$34<br>for<br>yourself</div></div><div class='respDivL'><div class='vertical-center'>(E)</div></div><div class='respDivR'><div class='vertical-center'>(I)</div></div></div>","I","$34<br>for<br>yourself","$35<br>for<br>5","1","34","35","5","SELF"
"html-keyboard-response","25","131090","0.0-6.0-3.6","60cfdcfdf8a3c6c42dad17d3","bdp_sd","Mon Mar 27 2023 10:40:21 GMT-0600 (Central Standard Time)","179332","","null","","","","","offerFB","","<div class='trialBorder'><div class='vertical-center'><img style='vertical-align:center; align:center' src=img/fixation3.jpg></div><div class='cl'><div class='vertical-center'>$35<br>for<br>april w</div></div><div class='cr'><div class='vertical-center'><font style='color:orange'>$34<br>for<br>yourself</font></div></div><div class='respDivL'><div class='vertical-center'>(E)</div></div><div class='respDivR'><div class='vertical-center'><font style='color:orange'>(I)</font></div></div></div>","null","$34<br>for<br>yourself","$35<br>for<br>5","1","34","35","5",""
"html-keyboard-response","26","131593","0.0-6.0-1.7","60cfdcfdf8a3c6c42dad17d3","bdp_sd","Mon Mar 27 2023 10:40:21 GMT-0600 (Central Standard Time)","179332","","null","","","","","FIX","","<div class='trialBorder'><div class='vertical-center'><img style='vertical-align:center; align:center' src=img/fixation3.jpg></div></div>","null","","","","","","",""
"html-keyboard-response","27","134282","0.0-6.0-2.7","60cfdcfdf8a3c6c42dad17d3","bdp_sd","Mon Mar 27 2023 10:40:21 GMT-0600 (Central Standard Time)","179332","","2689","","","","","offer","","<div class='trialBorder'><div class='vertical-center'><img style='vertical-align:center; align:center' src=img/fixation3.jpg></div><div class='cl'><div class='vertical-center'>$19<br>for<br>yourself</div></div><div class='cr'><div class='vertical-center'>$25<br>for<br>rusty w</div></div><div class='respDivL'><div class='vertical-center'>(E)</div></div><div class='respDivR'><div class='vertical-center'>(I)</div></div></div>","E","$19<br>for<br>yourself","$25<br>for<br>4","0","19","25","4","SELF"
"html-keyboard-response","28","134534","0.0-6.0-3.7","60cfdcfdf8a3c6c42dad17d3","bdp_sd","Mon Mar 27 2023 10:40:21 GMT-0600 (Central Standard Time)","179332","","null","","","","","offerFB","","<div class='trialBorder'><div class='vertical-center'><img style='vertical-align:center; align:center' src=img/fixation3.jpg></div><div class='cl'><div class='vertical-center'><font style='color:orange'>$19<br>for<br>yourself</font></div></div><div class='cr'><div class='vertical-center'>$25<br>for<br>rusty w</div></div><div class='respDivL'><div class='vertical-center'><font style='color:orange'>(E)</font></div></div><div class='respDivR'><div class='vertical-center'>(I)</div></div></div>","null","$19<br>for<br>yourself","$25<br>for<br>4","0","19","25","4",""
"html-keyboard-response","29","135035","0.0-6.0-1.8","60cfdcfdf8a3c6c42dad17d3","bdp_sd","Mon Mar 27 2023 10:40:21 GMT-0600 (Central Standard Time)","179332","","null","","","","","FIX","","<div class='trialBorder'><div class='vertical-center'><img style='vertical-align:center; align:center' src=img/fixation3.jpg></div></div>","null","","","","","","",""
"html-keyboard-response","30","136598","0.0-6.0-2.8","60cfdcfdf8a3c6c42dad17d3","bdp_sd","Mon Mar 27 2023 10:40:21 GMT-0600 (Central Standard Time)","179332","","1563","","","","","offer","","<div class='trialBorder'><div class='vertical-center'><img style='vertical-align:center; align:center' src=img/fixation3.jpg></div><div class='cl'><div class='vertical-center'>$60<br>for<br>rusty w</div></div><div class='cr'><div class='vertical-center'>$49<br>for<br>yourself</div></div><div class='respDivL'><div class='vertical-center'>(E)</div></div><div class='respDivR'><div class='vertical-center'>(I)</div></div></div>","I","$49<br>for<br>yourself","$60<br>for<br>4","1","49","60","4","SELF"
"html-keyboard-response","31","136850","0.0-6.0-3.8","60cfdcfdf8a3c6c42dad17d3","bdp_sd","Mon Mar 27 2023 10:40:21 GMT-0600 (Central Standard Time)","179332","","null","","","","","offerFB","","<div class='trialBorder'><div class='vertical-center'><img style='vertical-align:center; align:center' src=img/fixation3.jpg></div><div class='cl'><div class='vertical-center'>$60<br>for<br>rusty w</div></div><div class='cr'><div class='vertical-center'><font style='color:orange'>$49<br>for<br>yourself</font></div></div><div class='respDivL'><div class='vertical-center'>(E)</div></div><div class='respDivR'><div class='vertical-center'><font style='color:orange'>(I)</font></div></div></div>","null","$49<br>for<br>yourself","$60<br>for<br>4","1","49","60","4",""
"html-keyboard-response","32","137363","0.0-6.0-1.9","60cfdcfdf8a3c6c42dad17d3","bdp_sd","Mon Mar 27 2023 10:40:21 GMT-0600 (Central Standard Time)","179332","","null","","","","","FIX","","<div class='trialBorder'><div class='vertical-center'><img style='vertical-align:center; align:center' src=img/fixation3.jpg></div></div>","null","","","","","","",""
"html-keyboard-response","33","138889","0.0-6.0-2.9","60cfdcfdf8a3c6c42dad17d3","bdp_sd","Mon Mar 27 2023 10:40:21 GMT-0600 (Central Standard Time)","179332","","1525","","","","","offer","","<div class='trialBorder'><div class='vertical-center'><img style='vertical-align:center; align:center' src=img/fixation3.jpg></div><div class='cl'><div class='vertical-center'>$54<br>for<br>yourself</div></div><div class='cr'><div class='vertical-center'>$80<br>for<br>jaxon w</div></div><div class='respDivL'><div class='vertical-center'>(E)</div></div><div class='respDivR'><div class='vertical-center'>(I)</div></div></div>","E","$54<br>for<br>yourself","$80<br>for<br>3","0","54","80","3","SELF"
"html-keyboard-response","34","139140","0.0-6.0-3.9","60cfdcfdf8a3c6c42dad17d3","bdp_sd","Mon Mar 27 2023 10:40:21 GMT-0600 (Central Standard Time)","179332","","null","","","","","offerFB","","<div class='trialBorder'><div class='vertical-center'><img style='vertical-align:center; align:center' src=img/fixation3.jpg></div><div class='cl'><div class='vertical-center'><font style='color:orange'>$54<br>for<br>yourself</font></div></div><div class='cr'><div class='vertical-center'>$80<br>for<br>jaxon w</div></div><div class='respDivL'><div class='vertical-center'><font style='color:orange'>(E)</font></div></div><div class='respDivR'><div class='vertical-center'>(I)</div></div></div>","null","$54<br>for<br>yourself","$80<br>for<br>3","0","54","80","3",""
"html-keyboard-response","35","139642","0.0-6.0-1.10","60cfdcfdf8a3c6c42dad17d3","bdp_sd","Mon Mar 27 2023 10:40:21 GMT-0600 (Central Standard Time)","179332","","null","","","","","FIX","","<div class='trialBorder'><div class='vertical-center'><img style='vertical-align:center; align:center' src=img/fixation3.jpg></div></div>","null","","","","","","",""
"html-keyboard-response","36","140643","0.0-6.0-2.10","60cfdcfdf8a3c6c42dad17d3","bdp_sd","Mon Mar 27 2023 10:40:21 GMT-0600 (Central Standard Time)","179332","","1001","","","","","offer","","<div class='trialBorder'><div class='vertical-center'><img style='vertical-align:center; align:center' src=img/fixation3.jpg></div><div class='cl'><div class='vertical-center'>$50<br>for<br>april w</div></div><div class='cr'><div class='vertical-center'>$47<br>for<br>yourself</div></div><div class='respDivL'><div class='vertical-center'>(E)</div></div><div class='respDivR'><div class='vertical-center'>(I)</div></div></div>","I","$47<br>for<br>yourself","$50<br>for<br>5","1","47","50","5","SELF"
"html-keyboard-response","37","140894","0.0-6.0-3.10","60cfdcfdf8a3c6c42dad17d3","bdp_sd","Mon Mar 27 2023 10:40:21 GMT-0600 (Central Standard Time)","179332","","null","","","","","offerFB","","<div class='trialBorder'><div class='vertical-center'><img style='vertical-align:center; align:center' src=img/fixation3.jpg></div><div class='cl'><div class='vertical-center'>$50<br>for<br>april w</div></div><div class='cr'><div class='vertical-center'><font style='color:orange'>$47<br>for<br>yourself</font></div></div><div class='respDivL'><div class='vertical-center'>(E)</div></div><div class='respDivR'><div class='vertical-center'><font style='color:orange'>(I)</font></div></div></div>","null","$47<br>for<br>yourself","$50<br>for<br>5","1","47","50","5",""
"html-keyboard-response","38","141395","0.0-6.0-1.11","60cfdcfdf8a3c6c42dad17d3","bdp_sd","Mon Mar 27 2023 10:40:21 GMT-0600 (Central Standard Time)","179332","","null","","","","","FIX","","<div class='trialBorder'><div class='vertical-center'><img style='vertical-align:center; align:center' src=img/fixation3.jpg></div></div>","null","","","","","","",""
"html-keyboard-response","39","143010","0.0-6.0-2.11","60cfdcfdf8a3c6c42dad17d3","bdp_sd","Mon Mar 27 2023 10:40:21 GMT-0600 (Central Standard Time)","179332","","1614","","","","","offer","","<div class='trialBorder'><div class='vertical-center'><img style='vertical-align:center; align:center' src=img/fixation3.jpg></div><div class='cl'><div class='vertical-center'>$55<br>for<br>rusty w</div></div><div class='cr'><div class='vertical-center'>$40<br>for<br>yourself</div></div><div class='respDivL'><div class='vertical-center'>(E)</div></div><div class='respDivR'><div class='vertical-center'>(I)</div></div></div>","E","$40<br>for<br>yourself","$55<br>for<br>4","1","40","55","4","OTHER"
"html-keyboard-response","40","143261","0.0-6.0-3.11","60cfdcfdf8a3c6c42dad17d3","bdp_sd","Mon Mar 27 2023 10:40:21 GMT-0600 (Central Standard Time)","179332","","null","","","","","offerFB","","<div class='trialBorder'><div class='vertical-center'><img style='vertical-align:center; align:center' src=img/fixation3.jpg></div><div class='cl'><div class='vertical-center'><font style='color:orange'>$55<br>for<br>rusty w</font></div></div><div class='cr'><div class='vertical-center'>$40<br>for<br>yourself</div></div><div class='respDivL'><div class='vertical-center'><font style='color:orange'>(E)</font></div></div><div class='respDivR'><div class='vertical-center'>(I)</div></div></div>","null","$40<br>for<br>yourself","$55<br>for<br>4","1","40","55","4",""
"html-keyboard-response","41","143762","0.0-6.0-1.12","60cfdcfdf8a3c6c42dad17d3","bdp_sd","Mon Mar 27 2023 10:40:21 GMT-0600 (Central Standard Time)","179332","","null","","","","","FIX","","<div class='trialBorder'><div class='vertical-center'><img style='vertical-align:center; align:center' src=img/fixation3.jpg></div></div>","null","","","","","","",""
"html-keyboard-response","42","145107","0.0-6.0-2.12","60cfdcfdf8a3c6c42dad17d3","bdp_sd","Mon Mar 27 2023 10:40:21 GMT-0600 (Central Standard Time)","179332","","1344","","","","","offer","","<div class='trialBorder'><div class='vertical-center'><img style='vertical-align:center; align:center' src=img/fixation3.jpg></div><div class='cl'><div class='vertical-center'>$60<br>for<br>april w</div></div><div class='cr'><div class='vertical-center'>$54<br>for<br>yourself</div></div><div class='respDivL'><div class='vertical-center'>(E)</div></div><div class='respDivR'><div class='vertical-center'>(I)</div></div></div>","I","$54<br>for<br>yourself","$60<br>for<br>5","1","54","60","5","SELF"
"html-keyboard-response","43","145359","0.0-6.0-3.12","60cfdcfdf8a3c6c42dad17d3","bdp_sd","Mon Mar 27 2023 10:40:21 GMT-0600 (Central Standard Time)","179332","","null","","","","","offerFB","","<div class='trialBorder'><div class='vertical-center'><img style='vertical-align:center; align:center' src=img/fixation3.jpg></div><div class='cl'><div class='vertical-center'>$60<br>for<br>april w</div></div><div class='cr'><div class='vertical-center'><font style='color:orange'>$54<br>for<br>yourself</font></div></div><div class='respDivL'><div class='vertical-center'>(E)</div></div><div class='respDivR'><div class='vertical-center'><font style='color:orange'>(I)</font></div></div></div>","null","$54<br>for<br>yourself","$60<br>for<br>5","1","54","60","5",""
"html-keyboard-response","44","145862","0.0-6.0-1.13","60cfdcfdf8a3c6c42dad17d3","bdp_sd","Mon Mar 27 2023 10:40:21 GMT-0600 (Central Standard Time)","179332","","null","","","","","FIX","","<div class='trialBorder'><div class='vertical-center'><img style='vertical-align:center; align:center' src=img/fixation3.jpg></div></div>","null","","","","","","",""
"html-keyboard-response","45","147353","0.0-6.0-2.13","60cfdcfdf8a3c6c42dad17d3","bdp_sd","Mon Mar 27 2023 10:40:21 GMT-0600 (Central Standard Time)","179332","","1491","","","","","offer","","<div class='trialBorder'><div class='vertical-center'><img style='vertical-align:center; align:center' src=img/fixation3.jpg></div><div class='cl'><div class='vertical-center'>$28<br>for<br>yourself</div></div><div class='cr'><div class='vertical-center'>$30<br>for<br>april w</div></div><div class='respDivL'><div class='vertical-center'>(E)</div></div><div class='respDivR'><div class='vertical-center'>(I)</div></div></div>","E","$28<br>for<br>yourself","$30<br>for<br>5","0","28","30","5","SELF"
"html-keyboard-response","46","147604","0.0-6.0-3.13","60cfdcfdf8a3c6c42dad17d3","bdp_sd","Mon Mar 27 2023 10:40:21 GMT-0600 (Central Standard Time)","179332","","null","","","","","offerFB","","<div class='trialBorder'><div class='vertical-center'><img style='vertical-align:center; align:center' src=img/fixation3.jpg></div><div class='cl'><div class='vertical-center'><font style='color:orange'>$28<br>for<br>yourself</font></div></div><div class='cr'><div class='vertical-center'>$30<br>for<br>april w</div></div><div class='respDivL'><div class='vertical-center'><font style='color:orange'>(E)</font></div></div><div class='respDivR'><div class='vertical-center'>(I)</div></div></div>","null","$28<br>for<br>yourself","$30<br>for<br>5","0","28","30","5",""
"html-keyboard-response","47","148105","0.0-6.0-1.14","60cfdcfdf8a3c6c42dad17d3","bdp_sd","Mon Mar 27 2023 10:40:21 GMT-0600 (Central Standard Time)","179332","","null","","","","","FIX","","<div class='trialBorder'><div class='vertical-center'><img style='vertical-align:center; align:center' src=img/fixation3.jpg></div></div>","null","","","","","","",""
"html-keyboard-response","48","149620","0.0-6.0-2.14","60cfdcfdf8a3c6c42dad17d3","bdp_sd","Mon Mar 27 2023 10:40:21 GMT-0600 (Central Standard Time)","179332","","1514","","","","","offer","","<div class='trialBorder'><div class='vertical-center'><img style='vertical-align:center; align:center' src=img/fixation3.jpg></div><div class='cl'><div class='vertical-center'>$34<br>for<br>yourself</div></div><div class='cr'><div class='vertical-center'>$50<br>for<br>rusty w</div></div><div class='respDivL'><div class='vertical-center'>(E)</div></div><div class='respDivR'><div class='vertical-center'>(I)</div></div></div>","I","$34<br>for<br>yourself","$50<br>for<br>4","0","34","50","4","OTHER"
"html-keyboard-response","49","149872","0.0-6.0-3.14","60cfdcfdf8a3c6c42dad17d3","bdp_sd","Mon Mar 27 2023 10:40:21 GMT-0600 (Central Standard Time)","179332","","null","","","","","offerFB","","<div class='trialBorder'><div class='vertical-center'><img style='vertical-align:center; align:center' src=img/fixation3.jpg></div><div class='cl'><div class='vertical-center'>$34<br>for<br>yourself</div></div><div class='cr'><div class='vertical-center'><font style='color:orange'>$50<br>for<br>rusty w</font></div></div><div class='respDivL'><div class='vertical-center'>(E)</div></div><div class='respDivR'><div class='vertical-center'><font style='color:orange'>(I)</font></div></div></div>","null","$34<br>for<br>yourself","$50<br>for<br>4","0","34","50","4",""
"html-keyboard-response","50","150374","0.0-6.0-1.15","60cfdcfdf8a3c6c42dad17d3","bdp_sd","Mon Mar 27 2023 10:40:21 GMT-0600 (Central Standard Time)","179332","","null","","","","","FIX","","<div class='trialBorder'><div class='vertical-center'><img style='vertical-align:center; align:center' src=img/fixation3.jpg></div></div>","null","","","","","","",""
"html-keyboard-response","51","152508","0.0-6.0-2.15","60cfdcfdf8a3c6c42dad17d3","bdp_sd","Mon Mar 27 2023 10:40:21 GMT-0600 (Central Standard Time)","179332","","2134","","","","","offer","","<div class='trialBorder'><div class='vertical-center'><img style='vertical-align:center; align:center' src=img/fixation3.jpg></div><div class='cl'><div class='vertical-center'>$35<br>for<br>jaxon w</div></div><div class='cr'><div class='vertical-center'>$24<br>for<br>yourself</div></div><div class='respDivL'><div class='vertical-center'>(E)</div></div><div class='respDivR'><div class='vertical-center'>(I)</div></div></div>","I","$24<br>for<br>yourself","$35<br>for<br>3","1","24","35","3","SELF"
"html-keyboard-response","52","152759","0.0-6.0-3.15","60cfdcfdf8a3c6c42dad17d3","bdp_sd","Mon Mar 27 2023 10:40:21 GMT-0600 (Central Standard Time)","179332","","null","","","","","offerFB","","<div class='trialBorder'><div class='vertical-center'><img style='vertical-align:center; align:center' src=img/fixation3.jpg></div><div class='cl'><div class='vertical-center'>$35<br>for<br>jaxon w</div></div><div class='cr'><div class='vertical-center'><font style='color:orange'>$24<br>for<br>yourself</font></div></div><div class='respDivL'><div class='vertical-center'>(E)</div></div><div class='respDivR'><div class='vertical-center'><font style='color:orange'>(I)</font></div></div></div>","null","$24<br>for<br>yourself","$35<br>for<br>3","1","24","35","3",""
"html-keyboard-response","53","153260","0.0-6.0-1.16","60cfdcfdf8a3c6c42dad17d3","bdp_sd","Mon Mar 27 2023 10:40:21 GMT-0600 (Central Standard Time)","179332","","null","","","","","FIX","","<div class='trialBorder'><div class='vertical-center'><img style='vertical-align:center; align:center' src=img/fixation3.jpg></div></div>","null","","","","","","",""
"html-keyboard-response","54","154868","0.0-6.0-2.16","60cfdcfdf8a3c6c42dad17d3","bdp_sd","Mon Mar 27 2023 10:40:21 GMT-0600 (Central Standard Time)","179332","","1607","","","","","offer","","<div class='trialBorder'><div class='vertical-center'><img style='vertical-align:center; align:center' src=img/fixation3.jpg></div><div class='cl'><div class='vertical-center'>$55<br>for<br>yourself</div></div><div class='cr'><div class='vertical-center'>$75<br>for<br>rusty w</div></div><div class='respDivL'><div class='vertical-center'>(E)</div></div><div class='respDivR'><div class='vertical-center'>(I)</div></div></div>","I","$55<br>for<br>yourself","$75<br>for<br>4","0","55","75","4","OTHER"
"html-keyboard-response","55","155119","0.0-6.0-3.16","60cfdcfdf8a3c6c42dad17d3","bdp_sd","Mon Mar 27 2023 10:40:21 GMT-0600 (Central Standard Time)","179332","","null","","","","","offerFB","","<div class='trialBorder'><div class='vertical-center'><img style='vertical-align:center; align:center' src=img/fixation3.jpg></div><div class='cl'><div class='vertical-center'>$55<br>for<br>yourself</div></div><div class='cr'><div class='vertical-center'><font style='color:orange'>$75<br>for<br>rusty w</font></div></div><div class='respDivL'><div class='vertical-center'>(E)</div></div><div class='respDivR'><div class='vertical-center'><font style='color:orange'>(I)</font></div></div></div>","null","$55<br>for<br>yourself","$75<br>for<br>4","0","55","75","4",""
"html-keyboard-response","56","155620","0.0-6.0-1.17","60cfdcfdf8a3c6c42dad17d3","bdp_sd","Mon Mar 27 2023 10:40:21 GMT-0600 (Central Standard Time)","179332","","null","","","","","FIX","","<div class='trialBorder'><div class='vertical-center'><img style='vertical-align:center; align:center' src=img/fixation3.jpg></div></div>","null","","","","","","",""
"html-keyboard-response","57","158150","0.0-6.0-2.17","60cfdcfdf8a3c6c42dad17d3","bdp_sd","Mon Mar 27 2023 10:40:21 GMT-0600 (Central Standard Time)","179332","","2529","","","","","offer","","<div class='trialBorder'><div class='vertical-center'><img style='vertical-align:center; align:center' src=img/fixation3.jpg></div><div class='cl'><div class='vertical-center'>$60<br>for<br>jaxon w</div></div><div class='cr'><div class='vertical-center'>$25<br>for<br>yourself</div></div><div class='respDivL'><div class='vertical-center'>(E)</div></div><div class='respDivR'><div class='vertical-center'>(I)</div></div></div>","I","$25<br>for<br>yourself","$60<br>for<br>3","1","25","60","3","SELF"
"html-keyboard-response","58","158402","0.0-6.0-3.17","60cfdcfdf8a3c6c42dad17d3","bdp_sd","Mon Mar 27 2023 10:40:21 GMT-0600 (Central Standard Time)","179332","","null","","","","","offerFB","","<div class='trialBorder'><div class='vertical-center'><img style='vertical-align:center; align:center' src=img/fixation3.jpg></div><div class='cl'><div class='vertical-center'>$60<br>for<br>jaxon w</div></div><div class='cr'><div class='vertical-center'><font style='color:orange'>$25<br>for<br>yourself</font></div></div><div class='respDivL'><div class='vertical-center'>(E)</div></div><div class='respDivR'><div class='vertical-center'><font style='color:orange'>(I)</font></div></div></div>","null","$25<br>for<br>yourself","$60<br>for<br>3","1","25","60","3",""
"html-keyboard-response","59","158904","0.0-6.0-1.18","60cfdcfdf8a3c6c42dad17d3","bdp_sd","Mon Mar 27 2023 10:40:21 GMT-0600 (Central Standard Time)","179332","","null","","","","","FIX","","<div class='trialBorder'><div class='vertical-center'><img style='vertical-align:center; align:center' src=img/fixation3.jpg></div></div>","null","","","","","","",""
"html-keyboard-response","60","160992","0.0-6.0-2.18","60cfdcfdf8a3c6c42dad17d3","bdp_sd","Mon Mar 27 2023 10:40:21 GMT-0600 (Central Standard Time)","179332","","2088","","","","","offer","","<div class='trialBorder'><div class='vertical-center'><img style='vertical-align:center; align:center' src=img/fixation3.jpg></div><div class='cl'><div class='vertical-center'>$85<br>for<br>rusty w</div></div><div class='cr'><div class='vertical-center'>$69<br>for<br>yourself</div></div><div class='respDivL'><div class='vertical-center'>(E)</div></div><div class='respDivR'><div class='vertical-center'>(I)</div></div></div>","E","$69<br>for<br>yourself","$85<br>for<br>4","1","69","85","4","OTHER"
"html-keyboard-response","61","161243","0.0-6.0-3.18","60cfdcfdf8a3c6c42dad17d3","bdp_sd","Mon Mar 27 2023 10:40:21 GMT-0600 (Central Standard Time)","179332","","null","","","","","offerFB","","<div class='trialBorder'><div class='vertical-center'><img style='vertical-align:center; align:center' src=img/fixation3.jpg></div><div class='cl'><div class='vertical-center'><font style='color:orange'>$85<br>for<br>rusty w</font></div></div><div class='cr'><div class='vertical-center'>$69<br>for<br>yourself</div></div><div class='respDivL'><div class='vertical-center'><font style='color:orange'>(E)</font></div></div><div class='respDivR'><div class='vertical-center'>(I)</div></div></div>","null","$69<br>for<br>yourself","$85<br>for<br>4","1","69","85","4",""
"html-keyboard-response","62","161745","0.0-6.0-1.19","60cfdcfdf8a3c6c42dad17d3","bdp_sd","Mon Mar 27 2023 10:40:21 GMT-0600 (Central Standard Time)","179332","","null","","","","","FIX","","<div class='trialBorder'><div class='vertical-center'><img style='vertical-align:center; align:center' src=img/fixation3.jpg></div></div>","null","","","","","","",""
"html-keyboard-response","63","162931","0.0-6.0-2.19","60cfdcfdf8a3c6c42dad17d3","bdp_sd","Mon Mar 27 2023 10:40:21 GMT-0600 (Central Standard Time)","179332","","1185","","","","","offer","","<div class='trialBorder'><div class='vertical-center'><img style='vertical-align:center; align:center' src=img/fixation3.jpg></div><div class='cl'><div class='vertical-center'>$27<br>for<br>yourself</div></div><div class='cr'><div class='vertical-center'>$50<br>for<br>jaxon w</div></div><div class='respDivL'><div class='vertical-center'>(E)</div></div><div class='respDivR'><div class='vertical-center'>(I)</div></div></div>","E","$27<br>for<br>yourself","$50<br>for<br>3","0","27","50","3","SELF"
"html-keyboard-response","64","163182","0.0-6.0-3.19","60cfdcfdf8a3c6c42dad17d3","bdp_sd","Mon Mar 27 2023 10:40:21 GMT-0600 (Central Standard Time)","179332","","null","","","","","offerFB","","<div class='trialBorder'><div class='vertical-center'><img style='vertical-align:center; align:center' src=img/fixation3.jpg></div><div class='cl'><div class='vertical-center'><font style='color:orange'>$27<br>for<br>yourself</font></div></div><div class='cr'><div class='vertical-center'>$50<br>for<br>jaxon w</div></div><div class='respDivL'><div class='vertical-center'><font style='color:orange'>(E)</font></div></div><div class='respDivR'><div class='vertical-center'>(I)</div></div></div>","null","$27<br>for<br>yourself","$50<br>for<br>3","0","27","50","3",""
"html-keyboard-response","65","163684","0.0-6.0-1.20","60cfdcfdf8a3c6c42dad17d3","bdp_sd","Mon Mar 27 2023 10:40:21 GMT-0600 (Central Standard Time)","179332","","null","","","","","FIX","","<div class='trialBorder'><div class='vertical-center'><img style='vertical-align:center; align:center' src=img/fixation3.jpg></div></div>","null","","","","","","",""
"html-keyboard-response","66","165094","0.0-6.0-2.20","60cfdcfdf8a3c6c42dad17d3","bdp_sd","Mon Mar 27 2023 10:40:21 GMT-0600 (Central Standard Time)","179332","","1410","","","","","offer","","<div class='trialBorder'><div class='vertical-center'><img style='vertical-align:center; align:center' src=img/fixation3.jpg></div><div class='cl'><div class='vertical-center'>$30<br>for<br>sierra m</div></div><div class='cr'><div class='vertical-center'>$11<br>for<br>yourself</div></div><div class='respDivL'><div class='vertical-center'>(E)</div></div><div class='respDivR'><div class='vertical-center'>(I)</div></div></div>","E","$11<br>for<br>yourself","$30<br>for<br>2","1","11","30","2","OTHER"
"html-keyboard-response","67","165345","0.0-6.0-3.20","60cfdcfdf8a3c6c42dad17d3","bdp_sd","Mon Mar 27 2023 10:40:21 GMT-0600 (Central Standard Time)","179332","","null","","","","","offerFB","","<div class='trialBorder'><div class='vertical-center'><img style='vertical-align:center; align:center' src=img/fixation3.jpg></div><div class='cl'><div class='vertical-center'><font style='color:orange'>$30<br>for<br>sierra m</font></div></div><div class='cr'><div class='vertical-center'>$11<br>for<br>yourself</div></div><div class='respDivL'><div class='vertical-center'><font style='color:orange'>(E)</font></div></div><div class='respDivR'><div class='vertical-center'>(I)</div></div></div>","null","$11<br>for<br>yourself","$30<br>for<br>2","1","11","30","2",""
"html-keyboard-response","68","165846","0.0-6.0-1.21","60cfdcfdf8a3c6c42dad17d3","bdp_sd","Mon Mar 27 2023 10:40:21 GMT-0600 (Central Standard Time)","179332","","null","","","","","FIX","","<div class='trialBorder'><div class='vertical-center'><img style='vertical-align:center; align:center' src=img/fixation3.jpg></div></div>","null","","","","","","",""
"html-keyboard-response","69","167327","0.0-6.0-2.21","60cfdcfdf8a3c6c42dad17d3","bdp_sd","Mon Mar 27 2023 10:40:21 GMT-0600 (Central Standard Time)","179332","","1481","","","","","offer","","<div class='trialBorder'><div class='vertical-center'><img style='vertical-align:center; align:center' src=img/fixation3.jpg></div><div class='cl'><div class='vertical-center'>$30<br>for<br>rusty w</div></div><div class='cr'><div class='vertical-center'>$25<br>for<br>yourself</div></div><div class='respDivL'><div class='vertical-center'>(E)</div></div><div class='respDivR'><div class='vertical-center'>(I)</div></div></div>","I","$25<br>for<br>yourself","$30<br>for<br>4","1","25","30","4","SELF"
"html-keyboard-response","70","167579","0.0-6.0-3.21","60cfdcfdf8a3c6c42dad17d3","bdp_sd","Mon Mar 27 2023 10:40:21 GMT-0600 (Central Standard Time)","179332","","null","","","","","offerFB","","<div class='trialBorder'><div class='vertical-center'><img style='vertical-align:center; align:center' src=img/fixation3.jpg></div><div class='cl'><div class='vertical-center'>$30<br>for<br>rusty w</div></div><div class='cr'><div class='vertical-center'><font style='color:orange'>$25<br>for<br>yourself</font></div></div><div class='respDivL'><div class='vertical-center'>(E)</div></div><div class='respDivR'><div class='vertical-center'><font style='color:orange'>(I)</font></div></div></div>","null","$25<br>for<br>yourself","$30<br>for<br>4","1","25","30","4",""
"html-keyboard-response","71","168081","0.0-6.0-1.22","60cfdcfdf8a3c6c42dad17d3","bdp_sd","Mon Mar 27 2023 10:40:21 GMT-0600 (Central Standard Time)","179332","","null","","","","","FIX","","<div class='trialBorder'><div class='vertical-center'><img style='vertical-align:center; align:center' src=img/fixation3.jpg></div></div>","null","","","","","","",""
"html-keyboard-response","72","168919","0.0-6.0-2.22","60cfdcfdf8a3c6c42dad17d3","bdp_sd","Mon Mar 27 2023 10:40:21 GMT-0600 (Central Standard Time)","179332","","838","","","","","offer","","<div class='trialBorder'><div class='vertical-center'><img style='vertical-align:center; align:center' src=img/fixation3.jpg></div><div class='cl'><div class='vertical-center'>$14<br>for<br>yourself</div></div><div class='cr'><div class='vertical-center'>$25<br>for<br>jaxon w</div></div><div class='respDivL'><div class='vertical-center'>(E)</div></div><div class='respDivR'><div class='vertical-center'>(I)</div></div></div>","E","$14<br>for<br>yourself","$25<br>for<br>3","0","14","25","3","SELF"
"html-keyboard-response","73","169171","0.0-6.0-3.22","60cfdcfdf8a3c6c42dad17d3","bdp_sd","Mon Mar 27 2023 10:40:21 GMT-0600 (Central Standard Time)","179332","","null","","","","","offerFB","","<div class='trialBorder'><div class='vertical-center'><img style='vertical-align:center; align:center' src=img/fixation3.jpg></div><div class='cl'><div class='vertical-center'><font style='color:orange'>$14<br>for<br>yourself</font></div></div><div class='cr'><div class='vertical-center'>$25<br>for<br>jaxon w</div></div><div class='respDivL'><div class='vertical-center'><font style='color:orange'>(E)</font></div></div><div class='respDivR'><div class='vertical-center'>(I)</div></div></div>","null","$14<br>for<br>yourself","$25<br>for<br>3","0","14","25","3",""
"html-keyboard-response","74","169672","0.0-6.0-1.23","60cfdcfdf8a3c6c42dad17d3","bdp_sd","Mon Mar 27 2023 10:40:21 GMT-0600 (Central Standard Time)","179332","","null","","","","","FIX","","<div class='trialBorder'><div class='vertical-center'><img style='vertical-align:center; align:center' src=img/fixation3.jpg></div></div>","null","","","","","","",""
"html-keyboard-response","75","171075","0.0-6.0-2.23","60cfdcfdf8a3c6c42dad17d3","bdp_sd","Mon Mar 27 2023 10:40:21 GMT-0600 (Central Standard Time)","179332","","1402","","","","","offer","","<div class='trialBorder'><div class='vertical-center'><img style='vertical-align:center; align:center' src=img/fixation3.jpg></div><div class='cl'><div class='vertical-center'>$25<br>for<br>april w</div></div><div class='cr'><div class='vertical-center'>$22<br>for<br>yourself</div></div><div class='respDivL'><div class='vertical-center'>(E)</div></div><div class='respDivR'><div class='vertical-center'>(I)</div></div></div>","E","$22<br>for<br>yourself","$25<br>for<br>5","1","22","25","5","OTHER"
"html-keyboard-response","76","171326","0.0-6.0-3.23","60cfdcfdf8a3c6c42dad17d3","bdp_sd","Mon Mar 27 2023 10:40:21 GMT-0600 (Central Standard Time)","179332","","null","","","","","offerFB","","<div class='trialBorder'><div class='vertical-center'><img style='vertical-align:center; align:center' src=img/fixation3.jpg></div><div class='cl'><div class='vertical-center'><font style='color:orange'>$25<br>for<br>april w</font></div></div><div class='cr'><div class='vertical-center'>$22<br>for<br>yourself</div></div><div class='respDivL'><div class='vertical-center'><font style='color:orange'>(E)</font></div></div><div class='respDivR'><div class='vertical-center'>(I)</div></div></div>","null","$22<br>for<br>yourself","$25<br>for<br>5","1","22","25","5",""
"html-keyboard-response","77","171827","0.0-6.0-1.24","60cfdcfdf8a3c6c42dad17d3","bdp_sd","Mon Mar 27 2023 10:40:21 GMT-0600 (Central Standard Time)","179332","","null","","","","","FIX","","<div class='trialBorder'><div class='vertical-center'><img style='vertical-align:center; align:center' src=img/fixation3.jpg></div></div>","null","","","","","","",""
"html-keyboard-response","78","172991","0.0-6.0-2.24","60cfdcfdf8a3c6c42dad17d3","bdp_sd","Mon Mar 27 2023 10:40:21 GMT-0600 (Central Standard Time)","179332","","1163","","","","","offer","","<div class='trialBorder'><div class='vertical-center'><img style='vertical-align:center; align:center' src=img/fixation3.jpg></div><div class='cl'><div class='vertical-center'>$67<br>for<br>yourself</div></div><div class='cr'><div class='vertical-center'>$75<br>for<br>april w</div></div><div class='respDivL'><div class='vertical-center'>(E)</div></div><div class='respDivR'><div class='vertical-center'>(I)</div></div></div>","E","$67<br>for<br>yourself","$75<br>for<br>5","0","67","75","5","SELF"
"html-keyboard-response","79","173243","0.0-6.0-3.24","60cfdcfdf8a3c6c42dad17d3","bdp_sd","Mon Mar 27 2023 10:40:21 GMT-0600 (Central Standard Time)","179332","","null","","","","","offerFB","","<div class='trialBorder'><div class='vertical-center'><img style='vertical-align:center; align:center' src=img/fixation3.jpg></div><div class='cl'><div class='vertical-center'><font style='color:orange'>$67<br>for<br>yourself</font></div></div><div class='cr'><div class='vertical-center'>$75<br>for<br>april w</div></div><div class='respDivL'><div class='vertical-center'><font style='color:orange'>(E)</font></div></div><div class='respDivR'><div class='vertical-center'>(I)</div></div></div>","null","$67<br>for<br>yourself","$75<br>for<br>5","0","67","75","5",""
"html-keyboard-response","80","173744","0.0-6.0-1.25","60cfdcfdf8a3c6c42dad17d3","bdp_sd","Mon Mar 27 2023 10:40:21 GMT-0600 (Central Standard Time)","179332","","null","","","","","FIX","","<div class='trialBorder'><div class='vertical-center'><img style='vertical-align:center; align:center' src=img/fixation3.jpg></div></div>","null","","","","","","",""
"html-keyboard-response","81","176193","0.0-6.0-2.25","60cfdcfdf8a3c6c42dad17d3","bdp_sd","Mon Mar 27 2023 10:40:21 GMT-0600 (Central Standard Time)","179332","","2449","","","","","offer","","<div class='trialBorder'><div class='vertical-center'><img style='vertical-align:center; align:center' src=img/fixation3.jpg></div><div class='cl'><div class='vertical-center'>$15<br>for<br>yourself</div></div><div class='cr'><div class='vertical-center'>$35<br>for<br>sierra m</div></div><div class='respDivL'><div class='vertical-center'>(E)</div></div><div class='respDivR'><div class='vertical-center'>(I)</div></div></div>","E","$15<br>for<br>yourself","$35<br>for<br>2","0","15","35","2","SELF"
"html-keyboard-response","82","176445","0.0-6.0-3.25","60cfdcfdf8a3c6c42dad17d3","bdp_sd","Mon Mar 27 2023 10:40:21 GMT-0600 (Central Standard Time)","179332","","null","","","","","offerFB","","<div class='trialBorder'><div class='vertical-center'><img style='vertical-align:center; align:center' src=img/fixation3.jpg></div><div class='cl'><div class='vertical-center'><font style='color:orange'>$15<br>for<br>yourself</font></div></div><div class='cr'><div class='vertical-center'>$35<br>for<br>sierra m</div></div><div class='respDivL'><div class='vertical-center'><font style='color:orange'>(E)</font></div></div><div class='respDivR'><div class='vertical-center'>(I)</div></div></div>","null","$15<br>for<br>yourself","$35<br>for<br>2","0","15","35","2",""
"html-keyboard-response","83","176947","0.0-6.0-1.26","60cfdcfdf8a3c6c42dad17d3","bdp_sd","Mon Mar 27 2023 10:40:21 GMT-0600 (Central Standard Time)","179332","","null","","","","","FIX","","<div class='trialBorder'><div class='vertical-center'><img style='vertical-align:center; align:center' src=img/fixation3.jpg></div></div>","null","","","","","","",""
"html-keyboard-response","84","178079","0.0-6.0-2.26","60cfdcfdf8a3c6c42dad17d3","bdp_sd","Mon Mar 27 2023 10:40:21 GMT-0600 (Central Standard Time)","179332","","1132","","","","","offer","","<div class='trialBorder'><div class='vertical-center'><img style='vertical-align:center; align:center' src=img/fixation3.jpg></div><div class='cl'><div class='vertical-center'>$75<br>for<br>jaxon w</div></div><div class='cr'><div class='vertical-center'>$41<br>for<br>yourself</div></div><div class='respDivL'><div class='vertical-center'>(E)</div></div><div class='respDivR'><div class='vertical-center'>(I)</div></div></div>","I","$41<br>for<br>yourself","$75<br>for<br>3","1","41","75","3","SELF"
"html-keyboard-response","85","178330","0.0-6.0-3.26","60cfdcfdf8a3c6c42dad17d3","bdp_sd","Mon Mar 27 2023 10:40:21 GMT-0600 (Central Standard Time)","179332","","null","","","","","offerFB","","<div class='trialBorder'><div class='vertical-center'><img style='vertical-align:center; align:center' src=img/fixation3.jpg></div><div class='cl'><div class='vertical-center'>$75<br>for<br>jaxon w</div></div><div class='cr'><div class='vertical-center'><font style='color:orange'>$41<br>for<br>yourself</font></div></div><div class='respDivL'><div class='vertical-center'>(E)</div></div><div class='respDivR'><div class='vertical-center'><font style='color:orange'>(I)</font></div></div></div>","null","$41<br>for<br>yourself","$75<br>for<br>3","1","41","75","3",""
"","","","","60cfdcfdf8a3c6c42dad17d3","bdp_sd","Mon Mar 27 2023 10:40:21 GMT-0600 (Central Standard Time)","179332","","","","fullscreenexit","86","178342","fullscreenexit","","","","","","","","","",""
"fullscreen","86","179332","0.0-7.0","60cfdcfdf8a3c6c42dad17d3","bdp_sd","Mon Mar 27 2023 10:40:21 GMT-0600 (Central Standard Time)","179332","","","","","","","","true","","","","","","","","",""
"html-keyboard-response","87","179833","0.0-8.0","","","","","","null","","","","","","","","null","","","","","","",""
