"trial_type","trial_index","time_elapsed","internal_node_id","subject_id","task","startTime","totalTime","view_history","rt","responses","event","trial","time","trialtype","success","stimulus","key_press","selfOffer","otherOffer","otherLeft","selfAmt","otherAmt","otherDist","chosen"
"pavlovia","0","2","0.0-0.0","63ea79021f0c43def6174042","bdp_sd","Sat Mar 25 2023 19:08:33 GMT-0500 (Central Daylight Time)","149072","","","","","","","","","","","","","","","","",""
"instructions","1","718","0.0-1.0","63ea79021f0c43def6174042","bdp_sd","Sat Mar 25 2023 19:08:33 GMT-0500 (Central Daylight Time)","149072","[{""page_index"":0,""viewing_time"":714}]","714","","","","","","","","","","","","","","",""
"survey-text","2","67161","0.0-2.0","63ea79021f0c43def6174042","bdp_sd","Sat Mar 25 2023 19:08:33 GMT-0500 (Central Daylight Time)","149072","","66442","{""Q0"":""Joe L"",""Q1"":""Richard L"",""Q2"":""Alex B"",""Q3"":""Tom M"",""Q4"":""Oliver M""}","","","","","","","","","","","","","",""
"","","","","63ea79021f0c43def6174042","bdp_sd","Sat Mar 25 2023 19:08:33 GMT-0500 (Central Daylight Time)","149072","","","","fullscreenenter","3","68727","fullscreenenter","","","","","","","","","",""
"fullscreen","3","69715","0.0-3.0","63ea79021f0c43def6174042","bdp_sd","Sat Mar 25 2023 19:08:33 GMT-0500 (Central Daylight Time)","149072","","","","","","","","true","","","","","","","","",""
"instructions","4","81945","0.0-5.0","63ea79021f0c43def6174042","bdp_sd","Sat Mar 25 2023 19:08:33 GMT-0500 (Central Daylight Time)","149072","[{""page_index"":0,""viewing_time"":5033},{""page_index"":1,""viewing_time"":4486},{""page_index"":2,""viewing_time"":2707}]","12227","","","","","","","","","","","","","","",""
"html-keyboard-response","5","82450","0.0-6.0-1.0","63ea79021f0c43def6174042","bdp_sd","Sat Mar 25 2023 19:08:33 GMT-0500 (Central Daylight Time)","149072","","null","","","","","FIX","","<div class='trialBorder'><div class='vertical-center'><img style='vertical-align:center; align:center' src=img/fixation3.jpg></div></div>","null","","","","","","",""
"html-keyboard-response","6","85573","0.0-6.0-2.0","63ea79021f0c43def6174042","bdp_sd","Sat Mar 25 2023 19:08:33 GMT-0500 (Central Daylight Time)","149072","","3120","","","","","offer","","<div class='trialBorder'><div class='vertical-center'><img style='vertical-align:center; align:center' src=img/fixation3.jpg></div><div class='cl'><div class='vertical-center'>$60<br>for<br>Tom M</div></div><div class='cr'><div class='vertical-center'>$49<br>for<br>yourself</div></div><div class='respDivL'><div class='vertical-center'>(E)</div></div><div class='respDivR'><div class='vertical-center'>(I)</div></div></div>","I","$49<br>for<br>yourself","$60<br>for<br>4","1","49","60","4","SELF"
"html-keyboard-response","7","85826","0.0-6.0-3.0","63ea79021f0c43def6174042","bdp_sd","Sat Mar 25 2023 19:08:33 GMT-0500 (Central Daylight Time)","149072","","null","","","","","offerFB","","<div class='trialBorder'><div class='vertical-center'><img style='vertical-align:center; align:center' src=img/fixation3.jpg></div><div class='cl'><div class='vertical-center'>$60<br>for<br>Tom M</div></div><div class='cr'><div class='vertical-center'><font style='color:orange'>$49<br>for<br>yourself</font></div></div><div class='respDivL'><div class='vertical-center'>(E)</div></div><div class='respDivR'><div class='vertical-center'><font style='color:orange'>(I)</font></div></div></div>","null","$49<br>for<br>yourself","$60<br>for<br>4","1","49","60","4",""
"html-keyboard-response","8","86331","0.0-6.0-1.1","63ea79021f0c43def6174042","bdp_sd","Sat Mar 25 2023 19:08:33 GMT-0500 (Central Daylight Time)","149072","","null","","","","","FIX","","<div class='trialBorder'><div class='vertical-center'><img style='vertical-align:center; align:center' src=img/fixation3.jpg></div></div>","null","","","","","","",""
"html-keyboard-response","9","89621","0.0-6.0-2.1","63ea79021f0c43def6174042","bdp_sd","Sat Mar 25 2023 19:08:33 GMT-0500 (Central Daylight Time)","149072","","3286","","","","","offer","","<div class='trialBorder'><div class='vertical-center'><img style='vertical-align:center; align:center' src=img/fixation3.jpg></div><div class='cl'><div class='vertical-center'>$25<br>for<br>Alex B</div></div><div class='cr'><div class='vertical-center'>$14<br>for<br>yourself</div></div><div class='respDivL'><div class='vertical-center'>(E)</div></div><div class='respDivR'><div class='vertical-center'>(I)</div></div></div>","I","$14<br>for<br>yourself","$25<br>for<br>3","1","14","25","3","SELF"
"html-keyboard-response","10","89873","0.0-6.0-3.1","63ea79021f0c43def6174042","bdp_sd","Sat Mar 25 2023 19:08:33 GMT-0500 (Central Daylight Time)","149072","","null","","","","","offerFB","","<div class='trialBorder'><div class='vertical-center'><img style='vertical-align:center; align:center' src=img/fixation3.jpg></div><div class='cl'><div class='vertical-center'>$25<br>for<br>Alex B</div></div><div class='cr'><div class='vertical-center'><font style='color:orange'>$14<br>for<br>yourself</font></div></div><div class='respDivL'><div class='vertical-center'>(E)</div></div><div class='respDivR'><div class='vertical-center'><font style='color:orange'>(I)</font></div></div></div>","null","$14<br>for<br>yourself","$25<br>for<br>3","1","14","25","3",""
"html-keyboard-response","11","90376","0.0-6.0-1.2","63ea79021f0c43def6174042","bdp_sd","Sat Mar 25 2023 19:08:33 GMT-0500 (Central Daylight Time)","149072","","null","","","","","FIX","","<div class='trialBorder'><div class='vertical-center'><img style='vertical-align:center; align:center' src=img/fixation3.jpg></div></div>","null","","","","","","",""
"html-keyboard-response","12","92070","0.0-6.0-2.2","63ea79021f0c43def6174042","bdp_sd","Sat Mar 25 2023 19:08:33 GMT-0500 (Central Daylight Time)","149072","","1691","","","","","offer","","<div class='trialBorder'><div class='vertical-center'><img style='vertical-align:center; align:center' src=img/fixation3.jpg></div><div class='cl'><div class='vertical-center'>$60<br>for<br>Oliver M</div></div><div class='cr'><div class='vertical-center'>$54<br>for<br>yourself</div></div><div class='respDivL'><div class='vertical-center'>(E)</div></div><div class='respDivR'><div class='vertical-center'>(I)</div></div></div>","I","$54<br>for<br>yourself","$60<br>for<br>5","1","54","60","5","SELF"
"html-keyboard-response","13","92323","0.0-6.0-3.2","63ea79021f0c43def6174042","bdp_sd","Sat Mar 25 2023 19:08:33 GMT-0500 (Central Daylight Time)","149072","","null","","","","","offerFB","","<div class='trialBorder'><div class='vertical-center'><img style='vertical-align:center; align:center' src=img/fixation3.jpg></div><div class='cl'><div class='vertical-center'>$60<br>for<br>Oliver M</div></div><div class='cr'><div class='vertical-center'><font style='color:orange'>$54<br>for<br>yourself</font></div></div><div class='respDivL'><div class='vertical-center'>(E)</div></div><div class='respDivR'><div class='vertical-center'><font style='color:orange'>(I)</font></div></div></div>","null","$54<br>for<br>yourself","$60<br>for<br>5","1","54","60","5",""
"html-keyboard-response","14","92826","0.0-6.0-1.3","63ea79021f0c43def6174042","bdp_sd","Sat Mar 25 2023 19:08:33 GMT-0500 (Central Daylight Time)","149072","","null","","","","","FIX","","<div class='trialBorder'><div class='vertical-center'><img style='vertical-align:center; align:center' src=img/fixation3.jpg></div></div>","null","","","","","","",""
"html-keyboard-response","15","95142","0.0-6.0-2.3","63ea79021f0c43def6174042","bdp_sd","Sat Mar 25 2023 19:08:33 GMT-0500 (Central Daylight Time)","149072","","2313","","","","","offer","","<div class='trialBorder'><div class='vertical-center'><img style='vertical-align:center; align:center' src=img/fixation3.jpg></div><div class='cl'><div class='vertical-center'>$11<br>for<br>yourself</div></div><div class='cr'><div class='vertical-center'>$30<br>for<br>Richard L</div></div><div class='respDivL'><div class='vertical-center'>(E)</div></div><div class='respDivR'><div class='vertical-center'>(I)</div></div></div>","I","$11<br>for<br>yourself","$30<br>for<br>2","0","11","30","2","OTHER"
"html-keyboard-response","16","95395","0.0-6.0-3.3","63ea79021f0c43def6174042","bdp_sd","Sat Mar 25 2023 19:08:33 GMT-0500 (Central Daylight Time)","149072","","null","","","","","offerFB","","<div class='trialBorder'><div class='vertical-center'><img style='vertical-align:center; align:center' src=img/fixation3.jpg></div><div class='cl'><div class='vertical-center'>$11<br>for<br>yourself</div></div><div class='cr'><div class='vertical-center'><font style='color:orange'>$30<br>for<br>Richard L</font></div></div><div class='respDivL'><div class='vertical-center'>(E)</div></div><div class='respDivR'><div class='vertical-center'><font style='color:orange'>(I)</font></div></div></div>","null","$11<br>for<br>yourself","$30<br>for<br>2","0","11","30","2",""
"html-keyboard-response","17","95899","0.0-6.0-1.4","63ea79021f0c43def6174042","bdp_sd","Sat Mar 25 2023 19:08:33 GMT-0500 (Central Daylight Time)","149072","","null","","","","","FIX","","<div class='trialBorder'><div class='vertical-center'><img style='vertical-align:center; align:center' src=img/fixation3.jpg></div></div>","null","","","","","","",""
"html-keyboard-response","18","98206","0.0-6.0-2.4","63ea79021f0c43def6174042","bdp_sd","Sat Mar 25 2023 19:08:33 GMT-0500 (Central Daylight Time)","149072","","2304","","","","","offer","","<div class='trialBorder'><div class='vertical-center'><img style='vertical-align:center; align:center' src=img/fixation3.jpg></div><div class='cl'><div class='vertical-center'>$15<br>for<br>yourself</div></div><div class='cr'><div class='vertical-center'>$35<br>for<br>Richard L</div></div><div class='respDivL'><div class='vertical-center'>(E)</div></div><div class='respDivR'><div class='vertical-center'>(I)</div></div></div>","I","$15<br>for<br>yourself","$35<br>for<br>2","0","15","35","2","OTHER"
"html-keyboard-response","19","98460","0.0-6.0-3.4","63ea79021f0c43def6174042","bdp_sd","Sat Mar 25 2023 19:08:33 GMT-0500 (Central Daylight Time)","149072","","null","","","","","offerFB","","<div class='trialBorder'><div class='vertical-center'><img style='vertical-align:center; align:center' src=img/fixation3.jpg></div><div class='cl'><div class='vertical-center'>$15<br>for<br>yourself</div></div><div class='cr'><div class='vertical-center'><font style='color:orange'>$35<br>for<br>Richard L</font></div></div><div class='respDivL'><div class='vertical-center'>(E)</div></div><div class='respDivR'><div class='vertical-center'><font style='color:orange'>(I)</font></div></div></div>","null","$15<br>for<br>yourself","$35<br>for<br>2","0","15","35","2",""
"html-keyboard-response","20","98962","0.0-6.0-1.5","63ea79021f0c43def6174042","bdp_sd","Sat Mar 25 2023 19:08:33 GMT-0500 (Central Daylight Time)","149072","","null","","","","","FIX","","<div class='trialBorder'><div class='vertical-center'><img style='vertical-align:center; align:center' src=img/fixation3.jpg></div></div>","null","","","","","","",""
"html-keyboard-response","21","100915","0.0-6.0-2.5","63ea79021f0c43def6174042","bdp_sd","Sat Mar 25 2023 19:08:33 GMT-0500 (Central Daylight Time)","149072","","1950","","","","","offer","","<div class='trialBorder'><div class='vertical-center'><img style='vertical-align:center; align:center' src=img/fixation3.jpg></div><div class='cl'><div class='vertical-center'>$35<br>for<br>Alex B</div></div><div class='cr'><div class='vertical-center'>$24<br>for<br>yourself</div></div><div class='respDivL'><div class='vertical-center'>(E)</div></div><div class='respDivR'><div class='vertical-center'>(I)</div></div></div>","I","$24<br>for<br>yourself","$35<br>for<br>3","1","24","35","3","SELF"
"html-keyboard-response","22","101169","0.0-6.0-3.5","63ea79021f0c43def6174042","bdp_sd","Sat Mar 25 2023 19:08:33 GMT-0500 (Central Daylight Time)","149072","","null","","","","","offerFB","","<div class='trialBorder'><div class='vertical-center'><img style='vertical-align:center; align:center' src=img/fixation3.jpg></div><div class='cl'><div class='vertical-center'>$35<br>for<br>Alex B</div></div><div class='cr'><div class='vertical-center'><font style='color:orange'>$24<br>for<br>yourself</font></div></div><div class='respDivL'><div class='vertical-center'>(E)</div></div><div class='respDivR'><div class='vertical-center'><font style='color:orange'>(I)</font></div></div></div>","null","$24<br>for<br>yourself","$35<br>for<br>3","1","24","35","3",""
"html-keyboard-response","23","101672","0.0-6.0-1.6","63ea79021f0c43def6174042","bdp_sd","Sat Mar 25 2023 19:08:33 GMT-0500 (Central Daylight Time)","149072","","null","","","","","FIX","","<div class='trialBorder'><div class='vertical-center'><img style='vertical-align:center; align:center' src=img/fixation3.jpg></div></div>","null","","","","","","",""
"html-keyboard-response","24","102787","0.0-6.0-2.6","63ea79021f0c43def6174042","bdp_sd","Sat Mar 25 2023 19:08:33 GMT-0500 (Central Daylight Time)","149072","","1111","","","","","offer","","<div class='trialBorder'><div class='vertical-center'><img style='vertical-align:center; align:center' src=img/fixation3.jpg></div><div class='cl'><div class='vertical-center'>$25<br>for<br>Tom M</div></div><div class='cr'><div class='vertical-center'>$19<br>for<br>yourself</div></div><div class='respDivL'><div class='vertical-center'>(E)</div></div><div class='respDivR'><div class='vertical-center'>(I)</div></div></div>","I","$19<br>for<br>yourself","$25<br>for<br>4","1","19","25","4","SELF"
"html-keyboard-response","25","103041","0.0-6.0-3.6","63ea79021f0c43def6174042","bdp_sd","Sat Mar 25 2023 19:08:33 GMT-0500 (Central Daylight Time)","149072","","null","","","","","offerFB","","<div class='trialBorder'><div class='vertical-center'><img style='vertical-align:center; align:center' src=img/fixation3.jpg></div><div class='cl'><div class='vertical-center'>$25<br>for<br>Tom M</div></div><div class='cr'><div class='vertical-center'><font style='color:orange'>$19<br>for<br>yourself</font></div></div><div class='respDivL'><div class='vertical-center'>(E)</div></div><div class='respDivR'><div class='vertical-center'><font style='color:orange'>(I)</font></div></div></div>","null","$19<br>for<br>yourself","$25<br>for<br>4","1","19","25","4",""
"html-keyboard-response","26","103543","0.0-6.0-1.7","63ea79021f0c43def6174042","bdp_sd","Sat Mar 25 2023 19:08:33 GMT-0500 (Central Daylight Time)","149072","","null","","","","","FIX","","<div class='trialBorder'><div class='vertical-center'><img style='vertical-align:center; align:center' src=img/fixation3.jpg></div></div>","null","","","","","","",""
"html-keyboard-response","27","104867","0.0-6.0-2.7","63ea79021f0c43def6174042","bdp_sd","Sat Mar 25 2023 19:08:33 GMT-0500 (Central Daylight Time)","149072","","1322","","","","","offer","","<div class='trialBorder'><div class='vertical-center'><img style='vertical-align:center; align:center' src=img/fixation3.jpg></div><div class='cl'><div class='vertical-center'>$28<br>for<br>yourself</div></div><div class='cr'><div class='vertical-center'>$30<br>for<br>Oliver M</div></div><div class='respDivL'><div class='vertical-center'>(E)</div></div><div class='respDivR'><div class='vertical-center'>(I)</div></div></div>","E","$28<br>for<br>yourself","$30<br>for<br>5","0","28","30","5","SELF"
"html-keyboard-response","28","105121","0.0-6.0-3.7","63ea79021f0c43def6174042","bdp_sd","Sat Mar 25 2023 19:08:33 GMT-0500 (Central Daylight Time)","149072","","null","","","","","offerFB","","<div class='trialBorder'><div class='vertical-center'><img style='vertical-align:center; align:center' src=img/fixation3.jpg></div><div class='cl'><div class='vertical-center'><font style='color:orange'>$28<br>for<br>yourself</font></div></div><div class='cr'><div class='vertical-center'>$30<br>for<br>Oliver M</div></div><div class='respDivL'><div class='vertical-center'><font style='color:orange'>(E)</font></div></div><div class='respDivR'><div class='vertical-center'>(I)</div></div></div>","null","$28<br>for<br>yourself","$30<br>for<br>5","0","28","30","5",""
"html-keyboard-response","29","105623","0.0-6.0-1.8","63ea79021f0c43def6174042","bdp_sd","Sat Mar 25 2023 19:08:33 GMT-0500 (Central Daylight Time)","149072","","null","","","","","FIX","","<div class='trialBorder'><div class='vertical-center'><img style='vertical-align:center; align:center' src=img/fixation3.jpg></div></div>","null","","","","","","",""
"html-keyboard-response","30","106730","0.0-6.0-2.8","63ea79021f0c43def6174042","bdp_sd","Sat Mar 25 2023 19:08:33 GMT-0500 (Central Daylight Time)","149072","","1104","","","","","offer","","<div class='trialBorder'><div class='vertical-center'><img style='vertical-align:center; align:center' src=img/fixation3.jpg></div><div class='cl'><div class='vertical-center'>$34<br>for<br>yourself</div></div><div class='cr'><div class='vertical-center'>$35<br>for<br>Oliver M</div></div><div class='respDivL'><div class='vertical-center'>(E)</div></div><div class='respDivR'><div class='vertical-center'>(I)</div></div></div>","E","$34<br>for<br>yourself","$35<br>for<br>5","0","34","35","5","SELF"
"html-keyboard-response","31","106983","0.0-6.0-3.8","63ea79021f0c43def6174042","bdp_sd","Sat Mar 25 2023 19:08:33 GMT-0500 (Central Daylight Time)","149072","","null","","","","","offerFB","","<div class='trialBorder'><div class='vertical-center'><img style='vertical-align:center; align:center' src=img/fixation3.jpg></div><div class='cl'><div class='vertical-center'><font style='color:orange'>$34<br>for<br>yourself</font></div></div><div class='cr'><div class='vertical-center'>$35<br>for<br>Oliver M</div></div><div class='respDivL'><div class='vertical-center'><font style='color:orange'>(E)</font></div></div><div class='respDivR'><div class='vertical-center'>(I)</div></div></div>","null","$34<br>for<br>yourself","$35<br>for<br>5","0","34","35","5",""
"html-keyboard-response","32","107486","0.0-6.0-1.9","63ea79021f0c43def6174042","bdp_sd","Sat Mar 25 2023 19:08:33 GMT-0500 (Central Daylight Time)","149072","","null","","","","","FIX","","<div class='trialBorder'><div class='vertical-center'><img style='vertical-align:center; align:center' src=img/fixation3.jpg></div></div>","null","","","","","","",""
"html-keyboard-response","33","108512","0.0-6.0-2.9","63ea79021f0c43def6174042","bdp_sd","Sat Mar 25 2023 19:08:33 GMT-0500 (Central Daylight Time)","149072","","1024","","","","","offer","","<div class='trialBorder'><div class='vertical-center'><img style='vertical-align:center; align:center' src=img/fixation3.jpg></div><div class='cl'><div class='vertical-center'>$33<br>for<br>yourself</div></div><div class='cr'><div class='vertical-center'>$80<br>for<br>Richard L</div></div><div class='respDivL'><div class='vertical-center'>(E)</div></div><div class='respDivR'><div class='vertical-center'>(I)</div></div></div>","E","$33<br>for<br>yourself","$80<br>for<br>2","0","33","80","2","SELF"
"html-keyboard-response","34","108765","0.0-6.0-3.9","63ea79021f0c43def6174042","bdp_sd","Sat Mar 25 2023 19:08:33 GMT-0500 (Central Daylight Time)","149072","","null","","","","","offerFB","","<div class='trialBorder'><div class='vertical-center'><img style='vertical-align:center; align:center' src=img/fixation3.jpg></div><div class='cl'><div class='vertical-center'><font style='color:orange'>$33<br>for<br>yourself</font></div></div><div class='cr'><div class='vertical-center'>$80<br>for<br>Richard L</div></div><div class='respDivL'><div class='vertical-center'><font style='color:orange'>(E)</font></div></div><div class='respDivR'><div class='vertical-center'>(I)</div></div></div>","null","$33<br>for<br>yourself","$80<br>for<br>2","0","33","80","2",""
"html-keyboard-response","35","109269","0.0-6.0-1.10","63ea79021f0c43def6174042","bdp_sd","Sat Mar 25 2023 19:08:33 GMT-0500 (Central Daylight Time)","149072","","null","","","","","FIX","","<div class='trialBorder'><div class='vertical-center'><img style='vertical-align:center; align:center' src=img/fixation3.jpg></div></div>","null","","","","","","",""
"html-keyboard-response","36","110963","0.0-6.0-2.10","63ea79021f0c43def6174042","bdp_sd","Sat Mar 25 2023 19:08:33 GMT-0500 (Central Daylight Time)","149072","","1691","","","","","offer","","<div class='trialBorder'><div class='vertical-center'><img style='vertical-align:center; align:center' src=img/fixation3.jpg></div><div class='cl'><div class='vertical-center'>$55<br>for<br>Tom M</div></div><div class='cr'><div class='vertical-center'>$40<br>for<br>yourself</div></div><div class='respDivL'><div class='vertical-center'>(E)</div></div><div class='respDivR'><div class='vertical-center'>(I)</div></div></div>","I","$40<br>for<br>yourself","$55<br>for<br>4","1","40","55","4","SELF"
"html-keyboard-response","37","111216","0.0-6.0-3.10","63ea79021f0c43def6174042","bdp_sd","Sat Mar 25 2023 19:08:33 GMT-0500 (Central Daylight Time)","149072","","null","","","","","offerFB","","<div class='trialBorder'><div class='vertical-center'><img style='vertical-align:center; align:center' src=img/fixation3.jpg></div><div class='cl'><div class='vertical-center'>$55<br>for<br>Tom M</div></div><div class='cr'><div class='vertical-center'><font style='color:orange'>$40<br>for<br>yourself</font></div></div><div class='respDivL'><div class='vertical-center'>(E)</div></div><div class='respDivR'><div class='vertical-center'><font style='color:orange'>(I)</font></div></div></div>","null","$40<br>for<br>yourself","$55<br>for<br>4","1","40","55","4",""
"html-keyboard-response","38","111719","0.0-6.0-1.11","63ea79021f0c43def6174042","bdp_sd","Sat Mar 25 2023 19:08:33 GMT-0500 (Central Daylight Time)","149072","","null","","","","","FIX","","<div class='trialBorder'><div class='vertical-center'><img style='vertical-align:center; align:center' src=img/fixation3.jpg></div></div>","null","","","","","","",""
"html-keyboard-response","39","113383","0.0-6.0-2.11","63ea79021f0c43def6174042","bdp_sd","Sat Mar 25 2023 19:08:33 GMT-0500 (Central Daylight Time)","149072","","1660","","","","","offer","","<div class='trialBorder'><div class='vertical-center'><img style='vertical-align:center; align:center' src=img/fixation3.jpg></div><div class='cl'><div class='vertical-center'>$78<br>for<br>yourself</div></div><div class='cr'><div class='vertical-center'>$80<br>for<br>Oliver M</div></div><div class='respDivL'><div class='vertical-center'>(E)</div></div><div class='respDivR'><div class='vertical-center'>(I)</div></div></div>","E","$78<br>for<br>yourself","$80<br>for<br>5","0","78","80","5","SELF"
"html-keyboard-response","40","113636","0.0-6.0-3.11","63ea79021f0c43def6174042","bdp_sd","Sat Mar 25 2023 19:08:33 GMT-0500 (Central Daylight Time)","149072","","null","","","","","offerFB","","<div class='trialBorder'><div class='vertical-center'><img style='vertical-align:center; align:center' src=img/fixation3.jpg></div><div class='cl'><div class='vertical-center'><font style='color:orange'>$78<br>for<br>yourself</font></div></div><div class='cr'><div class='vertical-center'>$80<br>for<br>Oliver M</div></div><div class='respDivL'><div class='vertical-center'><font style='color:orange'>(E)</font></div></div><div class='respDivR'><div class='vertical-center'>(I)</div></div></div>","null","$78<br>for<br>yourself","$80<br>for<br>5","0","78","80","5",""
"html-keyboard-response","41","114139","0.0-6.0-1.12","63ea79021f0c43def6174042","bdp_sd","Sat Mar 25 2023 19:08:33 GMT-0500 (Central Daylight Time)","149072","","null","","","","","FIX","","<div class='trialBorder'><div class='vertical-center'><img style='vertical-align:center; align:center' src=img/fixation3.jpg></div></div>","null","","","","","","",""
"html-keyboard-response","42","115600","0.0-6.0-2.12","63ea79021f0c43def6174042","bdp_sd","Sat Mar 25 2023 19:08:33 GMT-0500 (Central Daylight Time)","149072","","1459","","","","","offer","","<div class='trialBorder'><div class='vertical-center'><img style='vertical-align:center; align:center' src=img/fixation3.jpg></div><div class='cl'><div class='vertical-center'>$85<br>for<br>Oliver M</div></div><div class='cr'><div class='vertical-center'>$80<br>for<br>yourself</div></div><div class='respDivL'><div class='vertical-center'>(E)</div></div><div class='respDivR'><div class='vertical-center'>(I)</div></div></div>","I","$80<br>for<br>yourself","$85<br>for<br>5","1","80","85","5","SELF"
"html-keyboard-response","43","115851","0.0-6.0-3.12","63ea79021f0c43def6174042","bdp_sd","Sat Mar 25 2023 19:08:33 GMT-0500 (Central Daylight Time)","149072","","null","","","","","offerFB","","<div class='trialBorder'><div class='vertical-center'><img style='vertical-align:center; align:center' src=img/fixation3.jpg></div><div class='cl'><div class='vertical-center'>$85<br>for<br>Oliver M</div></div><div class='cr'><div class='vertical-center'><font style='color:orange'>$80<br>for<br>yourself</font></div></div><div class='respDivL'><div class='vertical-center'>(E)</div></div><div class='respDivR'><div class='vertical-center'><font style='color:orange'>(I)</font></div></div></div>","null","$80<br>for<br>yourself","$85<br>for<br>5","1","80","85","5",""
"html-keyboard-response","44","116353","0.0-6.0-1.13","63ea79021f0c43def6174042","bdp_sd","Sat Mar 25 2023 19:08:33 GMT-0500 (Central Daylight Time)","149072","","null","","","","","FIX","","<div class='trialBorder'><div class='vertical-center'><img style='vertical-align:center; align:center' src=img/fixation3.jpg></div></div>","null","","","","","","",""
"html-keyboard-response","45","117526","0.0-6.0-2.13","63ea79021f0c43def6174042","bdp_sd","Sat Mar 25 2023 19:08:33 GMT-0500 (Central Daylight Time)","149072","","1171","","","","","offer","","<div class='trialBorder'><div class='vertical-center'><img style='vertical-align:center; align:center' src=img/fixation3.jpg></div><div class='cl'><div class='vertical-center'>$47<br>for<br>yourself</div></div><div class='cr'><div class='vertical-center'>$50<br>for<br>Oliver M</div></div><div class='respDivL'><div class='vertical-center'>(E)</div></div><div class='respDivR'><div class='vertical-center'>(I)</div></div></div>","E","$47<br>for<br>yourself","$50<br>for<br>5","0","47","50","5","SELF"
"html-keyboard-response","46","117779","0.0-6.0-3.13","63ea79021f0c43def6174042","bdp_sd","Sat Mar 25 2023 19:08:33 GMT-0500 (Central Daylight Time)","149072","","null","","","","","offerFB","","<div class='trialBorder'><div class='vertical-center'><img style='vertical-align:center; align:center' src=img/fixation3.jpg></div><div class='cl'><div class='vertical-center'><font style='color:orange'>$47<br>for<br>yourself</font></div></div><div class='cr'><div class='vertical-center'>$50<br>for<br>Oliver M</div></div><div class='respDivL'><div class='vertical-center'><font style='color:orange'>(E)</font></div></div><div class='respDivR'><div class='vertical-center'>(I)</div></div></div>","null","$47<br>for<br>yourself","$50<br>for<br>5","0","47","50","5",""
"html-keyboard-response","47","118280","0.0-6.0-1.14","63ea79021f0c43def6174042","bdp_sd","Sat Mar 25 2023 19:08:33 GMT-0500 (Central Daylight Time)","149072","","null","","","","","FIX","","<div class='trialBorder'><div class='vertical-center'><img style='vertical-align:center; align:center' src=img/fixation3.jpg></div></div>","null","","","","","","",""
"html-keyboard-response","48","120393","0.0-6.0-2.14","63ea79021f0c43def6174042","bdp_sd","Sat Mar 25 2023 19:08:33 GMT-0500 (Central Daylight Time)","149072","","2112","","","","","offer","","<div class='trialBorder'><div class='vertical-center'><img style='vertical-align:center; align:center' src=img/fixation3.jpg></div><div class='cl'><div class='vertical-center'>$41<br>for<br>yourself</div></div><div class='cr'><div class='vertical-center'>$75<br>for<br>Alex B</div></div><div class='respDivL'><div class='vertical-center'>(E)</div></div><div class='respDivR'><div class='vertical-center'>(I)</div></div></div>","E","$41<br>for<br>yourself","$75<br>for<br>3","0","41","75","3","SELF"
"html-keyboard-response","49","120646","0.0-6.0-3.14","63ea79021f0c43def6174042","bdp_sd","Sat Mar 25 2023 19:08:33 GMT-0500 (Central Daylight Time)","149072","","null","","","","","offerFB","","<div class='trialBorder'><div class='vertical-center'><img style='vertical-align:center; align:center' src=img/fixation3.jpg></div><div class='cl'><div class='vertical-center'><font style='color:orange'>$41<br>for<br>yourself</font></div></div><div class='cr'><div class='vertical-center'>$75<br>for<br>Alex B</div></div><div class='respDivL'><div class='vertical-center'><font style='color:orange'>(E)</font></div></div><div class='respDivR'><div class='vertical-center'>(I)</div></div></div>","null","$41<br>for<br>yourself","$75<br>for<br>3","0","41","75","3",""
"html-keyboard-response","50","121148","0.0-6.0-1.15","63ea79021f0c43def6174042","bdp_sd","Sat Mar 25 2023 19:08:33 GMT-0500 (Central Daylight Time)","149072","","null","","","","","FIX","","<div class='trialBorder'><div class='vertical-center'><img style='vertical-align:center; align:center' src=img/fixation3.jpg></div></div>","null","","","","","","",""
"html-keyboard-response","51","122527","0.0-6.0-2.15","63ea79021f0c43def6174042","bdp_sd","Sat Mar 25 2023 19:08:33 GMT-0500 (Central Daylight Time)","149072","","1378","","","","","offer","","<div class='trialBorder'><div class='vertical-center'><img style='vertical-align:center; align:center' src=img/fixation3.jpg></div><div class='cl'><div class='vertical-center'>$67<br>for<br>yourself</div></div><div class='cr'><div class='vertical-center'>$75<br>for<br>Oliver M</div></div><div class='respDivL'><div class='vertical-center'>(E)</div></div><div class='respDivR'><div class='vertical-center'>(I)</div></div></div>","E","$67<br>for<br>yourself","$75<br>for<br>5","0","67","75","5","SELF"
"html-keyboard-response","52","122779","0.0-6.0-3.15","63ea79021f0c43def6174042","bdp_sd","Sat Mar 25 2023 19:08:33 GMT-0500 (Central Daylight Time)","149072","","null","","","","","offerFB","","<div class='trialBorder'><div class='vertical-center'><img style='vertical-align:center; align:center' src=img/fixation3.jpg></div><div class='cl'><div class='vertical-center'><font style='color:orange'>$67<br>for<br>yourself</font></div></div><div class='cr'><div class='vertical-center'>$75<br>for<br>Oliver M</div></div><div class='respDivL'><div class='vertical-center'><font style='color:orange'>(E)</font></div></div><div class='respDivR'><div class='vertical-center'>(I)</div></div></div>","null","$67<br>for<br>yourself","$75<br>for<br>5","0","67","75","5",""
"html-keyboard-response","53","123281","0.0-6.0-1.16","63ea79021f0c43def6174042","bdp_sd","Sat Mar 25 2023 19:08:33 GMT-0500 (Central Daylight Time)","149072","","null","","","","","FIX","","<div class='trialBorder'><div class='vertical-center'><img style='vertical-align:center; align:center' src=img/fixation3.jpg></div></div>","null","","","","","","",""
"html-keyboard-response","54","124644","0.0-6.0-2.16","63ea79021f0c43def6174042","bdp_sd","Sat Mar 25 2023 19:08:33 GMT-0500 (Central Daylight Time)","149072","","1362","","","","","offer","","<div class='trialBorder'><div class='vertical-center'><img style='vertical-align:center; align:center' src=img/fixation3.jpg></div><div class='cl'><div class='vertical-center'>$34<br>for<br>yourself</div></div><div class='cr'><div class='vertical-center'>$50<br>for<br>Tom M</div></div><div class='respDivL'><div class='vertical-center'>(E)</div></div><div class='respDivR'><div class='vertical-center'>(I)</div></div></div>","E","$34<br>for<br>yourself","$50<br>for<br>4","0","34","50","4","SELF"
"html-keyboard-response","55","124897","0.0-6.0-3.16","63ea79021f0c43def6174042","bdp_sd","Sat Mar 25 2023 19:08:33 GMT-0500 (Central Daylight Time)","149072","","null","","","","","offerFB","","<div class='trialBorder'><div class='vertical-center'><img style='vertical-align:center; align:center' src=img/fixation3.jpg></div><div class='cl'><div class='vertical-center'><font style='color:orange'>$34<br>for<br>yourself</font></div></div><div class='cr'><div class='vertical-center'>$50<br>for<br>Tom M</div></div><div class='respDivL'><div class='vertical-center'><font style='color:orange'>(E)</font></div></div><div class='respDivR'><div class='vertical-center'>(I)</div></div></div>","null","$34<br>for<br>yourself","$50<br>for<br>4","0","34","50","4",""
"html-keyboard-response","56","125401","0.0-6.0-1.17","63ea79021f0c43def6174042","bdp_sd","Sat Mar 25 2023 19:08:33 GMT-0500 (Central Daylight Time)","149072","","null","","","","","FIX","","<div class='trialBorder'><div class='vertical-center'><img style='vertical-align:center; align:center' src=img/fixation3.jpg></div></div>","null","","","","","","",""
"html-keyboard-response","57","126577","0.0-6.0-2.17","63ea79021f0c43def6174042","bdp_sd","Sat Mar 25 2023 19:08:33 GMT-0500 (Central Daylight Time)","149072","","1174","","","","","offer","","<div class='trialBorder'><div class='vertical-center'><img style='vertical-align:center; align:center' src=img/fixation3.jpg></div><div class='cl'><div class='vertical-center'>$22<br>for<br>yourself</div></div><div class='cr'><div class='vertical-center'>$25<br>for<br>Oliver M</div></div><div class='respDivL'><div class='vertical-center'>(E)</div></div><div class='respDivR'><div class='vertical-center'>(I)</div></div></div>","E","$22<br>for<br>yourself","$25<br>for<br>5","0","22","25","5","SELF"
"html-keyboard-response","58","126831","0.0-6.0-3.17","63ea79021f0c43def6174042","bdp_sd","Sat Mar 25 2023 19:08:33 GMT-0500 (Central Daylight Time)","149072","","null","","","","","offerFB","","<div class='trialBorder'><div class='vertical-center'><img style='vertical-align:center; align:center' src=img/fixation3.jpg></div><div class='cl'><div class='vertical-center'><font style='color:orange'>$22<br>for<br>yourself</font></div></div><div class='cr'><div class='vertical-center'>$25<br>for<br>Oliver M</div></div><div class='respDivL'><div class='vertical-center'><font style='color:orange'>(E)</font></div></div><div class='respDivR'><div class='vertical-center'>(I)</div></div></div>","null","$22<br>for<br>yourself","$25<br>for<br>5","0","22","25","5",""
"html-keyboard-response","59","127334","0.0-6.0-1.18","63ea79021f0c43def6174042","bdp_sd","Sat Mar 25 2023 19:08:33 GMT-0500 (Central Daylight Time)","149072","","null","","","","","FIX","","<div class='trialBorder'><div class='vertical-center'><img style='vertical-align:center; align:center' src=img/fixation3.jpg></div></div>","null","","","","","","",""
"html-keyboard-response","60","129209","0.0-6.0-2.18","63ea79021f0c43def6174042","bdp_sd","Sat Mar 25 2023 19:08:33 GMT-0500 (Central Daylight Time)","149072","","1872","","","","","offer","","<div class='trialBorder'><div class='vertical-center'><img style='vertical-align:center; align:center' src=img/fixation3.jpg></div><div class='cl'><div class='vertical-center'>$80<br>for<br>Alex B</div></div><div class='cr'><div class='vertical-center'>$54<br>for<br>yourself</div></div><div class='respDivL'><div class='vertical-center'>(E)</div></div><div class='respDivR'><div class='vertical-center'>(I)</div></div></div>","I","$54<br>for<br>yourself","$80<br>for<br>3","1","54","80","3","SELF"
"html-keyboard-response","61","129462","0.0-6.0-3.18","63ea79021f0c43def6174042","bdp_sd","Sat Mar 25 2023 19:08:33 GMT-0500 (Central Daylight Time)","149072","","null","","","","","offerFB","","<div class='trialBorder'><div class='vertical-center'><img style='vertical-align:center; align:center' src=img/fixation3.jpg></div><div class='cl'><div class='vertical-center'>$80<br>for<br>Alex B</div></div><div class='cr'><div class='vertical-center'><font style='color:orange'>$54<br>for<br>yourself</font></div></div><div class='respDivL'><div class='vertical-center'>(E)</div></div><div class='respDivR'><div class='vertical-center'><font style='color:orange'>(I)</font></div></div></div>","null","$54<br>for<br>yourself","$80<br>for<br>3","1","54","80","3",""
"html-keyboard-response","62","129965","0.0-6.0-1.19","63ea79021f0c43def6174042","bdp_sd","Sat Mar 25 2023 19:08:33 GMT-0500 (Central Daylight Time)","149072","","null","","","","","FIX","","<div class='trialBorder'><div class='vertical-center'><img style='vertical-align:center; align:center' src=img/fixation3.jpg></div></div>","null","","","","","","",""
"html-keyboard-response","63","131196","0.0-6.0-2.19","63ea79021f0c43def6174042","bdp_sd","Sat Mar 25 2023 19:08:33 GMT-0500 (Central Daylight Time)","149072","","1229","","","","","offer","","<div class='trialBorder'><div class='vertical-center'><img style='vertical-align:center; align:center' src=img/fixation3.jpg></div><div class='cl'><div class='vertical-center'>$75<br>for<br>Tom M</div></div><div class='cr'><div class='vertical-center'>$55<br>for<br>yourself</div></div><div class='respDivL'><div class='vertical-center'>(E)</div></div><div class='respDivR'><div class='vertical-center'>(I)</div></div></div>","I","$55<br>for<br>yourself","$75<br>for<br>4","1","55","75","4","SELF"
"html-keyboard-response","64","131450","0.0-6.0-3.19","63ea79021f0c43def6174042","bdp_sd","Sat Mar 25 2023 19:08:33 GMT-0500 (Central Daylight Time)","149072","","null","","","","","offerFB","","<div class='trialBorder'><div class='vertical-center'><img style='vertical-align:center; align:center' src=img/fixation3.jpg></div><div class='cl'><div class='vertical-center'>$75<br>for<br>Tom M</div></div><div class='cr'><div class='vertical-center'><font style='color:orange'>$55<br>for<br>yourself</font></div></div><div class='respDivL'><div class='vertical-center'>(E)</div></div><div class='respDivR'><div class='vertical-center'><font style='color:orange'>(I)</font></div></div></div>","null","$55<br>for<br>yourself","$75<br>for<br>4","1","55","75","4",""
"html-keyboard-response","65","131953","0.0-6.0-1.20","63ea79021f0c43def6174042","bdp_sd","Sat Mar 25 2023 19:08:33 GMT-0500 (Central Daylight Time)","149072","","null","","","","","FIX","","<div class='trialBorder'><div class='vertical-center'><img style='vertical-align:center; align:center' src=img/fixation3.jpg></div></div>","null","","","","","","",""
"html-keyboard-response","66","134088","0.0-6.0-2.20","63ea79021f0c43def6174042","bdp_sd","Sat Mar 25 2023 19:08:33 GMT-0500 (Central Daylight Time)","149072","","2133","","","","","offer","","<div class='trialBorder'><div class='vertical-center'><img style='vertical-align:center; align:center' src=img/fixation3.jpg></div><div class='cl'><div class='vertical-center'>$20<br>for<br>yourself</div></div><div class='cr'><div class='vertical-center'>$55<br>for<br>Joe L</div></div><div class='respDivL'><div class='vertical-center'>(E)</div></div><div class='respDivR'><div class='vertical-center'>(I)</div></div></div>","I","$20<br>for<br>yourself","$55<br>for<br>1","0","20","55","1","OTHER"
"html-keyboard-response","67","134341","0.0-6.0-3.20","63ea79021f0c43def6174042","bdp_sd","Sat Mar 25 2023 19:08:33 GMT-0500 (Central Daylight Time)","149072","","null","","","","","offerFB","","<div class='trialBorder'><div class='vertical-center'><img style='vertical-align:center; align:center' src=img/fixation3.jpg></div><div class='cl'><div class='vertical-center'>$20<br>for<br>yourself</div></div><div class='cr'><div class='vertical-center'><font style='color:orange'>$55<br>for<br>Joe L</font></div></div><div class='respDivL'><div class='vertical-center'>(E)</div></div><div class='respDivR'><div class='vertical-center'><font style='color:orange'>(I)</font></div></div></div>","null","$20<br>for<br>yourself","$55<br>for<br>1","0","20","55","1",""
"html-keyboard-response","68","134844","0.0-6.0-1.21","63ea79021f0c43def6174042","bdp_sd","Sat Mar 25 2023 19:08:33 GMT-0500 (Central Daylight Time)","149072","","null","","","","","FIX","","<div class='trialBorder'><div class='vertical-center'><img style='vertical-align:center; align:center' src=img/fixation3.jpg></div></div>","null","","","","","","",""
"html-keyboard-response","69","136963","0.0-6.0-2.21","63ea79021f0c43def6174042","bdp_sd","Sat Mar 25 2023 19:08:33 GMT-0500 (Central Daylight Time)","149072","","2116","","","","","offer","","<div class='trialBorder'><div class='vertical-center'><img style='vertical-align:center; align:center' src=img/fixation3.jpg></div><div class='cl'><div class='vertical-center'>$55<br>for<br>Oliver M</div></div><div class='cr'><div class='vertical-center'>$54<br>for<br>yourself</div></div><div class='respDivL'><div class='vertical-center'>(E)</div></div><div class='respDivR'><div class='vertical-center'>(I)</div></div></div>","I","$54<br>for<br>yourself","$55<br>for<br>5","1","54","55","5","SELF"
"html-keyboard-response","70","137217","0.0-6.0-3.21","63ea79021f0c43def6174042","bdp_sd","Sat Mar 25 2023 19:08:33 GMT-0500 (Central Daylight Time)","149072","","null","","","","","offerFB","","<div class='trialBorder'><div class='vertical-center'><img style='vertical-align:center; align:center' src=img/fixation3.jpg></div><div class='cl'><div class='vertical-center'>$55<br>for<br>Oliver M</div></div><div class='cr'><div class='vertical-center'><font style='color:orange'>$54<br>for<br>yourself</font></div></div><div class='respDivL'><div class='vertical-center'>(E)</div></div><div class='respDivR'><div class='vertical-center'><font style='color:orange'>(I)</font></div></div></div>","null","$54<br>for<br>yourself","$55<br>for<br>5","1","54","55","5",""
"html-keyboard-response","71","137720","0.0-6.0-1.22","63ea79021f0c43def6174042","bdp_sd","Sat Mar 25 2023 19:08:33 GMT-0500 (Central Daylight Time)","149072","","null","","","","","FIX","","<div class='trialBorder'><div class='vertical-center'><img style='vertical-align:center; align:center' src=img/fixation3.jpg></div></div>","null","","","","","","",""
"html-keyboard-response","72","139134","0.0-6.0-2.22","63ea79021f0c43def6174042","bdp_sd","Sat Mar 25 2023 19:08:33 GMT-0500 (Central Daylight Time)","149072","","1411","","","","","offer","","<div class='trialBorder'><div class='vertical-center'><img style='vertical-align:center; align:center' src=img/fixation3.jpg></div><div class='cl'><div class='vertical-center'>$85<br>for<br>Tom M</div></div><div class='cr'><div class='vertical-center'>$69<br>for<br>yourself</div></div><div class='respDivL'><div class='vertical-center'>(E)</div></div><div class='respDivR'><div class='vertical-center'>(I)</div></div></div>","I","$69<br>for<br>yourself","$85<br>for<br>4","1","69","85","4","SELF"
"html-keyboard-response","73","139387","0.0-6.0-3.22","63ea79021f0c43def6174042","bdp_sd","Sat Mar 25 2023 19:08:33 GMT-0500 (Central Daylight Time)","149072","","null","","","","","offerFB","","<div class='trialBorder'><div class='vertical-center'><img style='vertical-align:center; align:center' src=img/fixation3.jpg></div><div class='cl'><div class='vertical-center'>$85<br>for<br>Tom M</div></div><div class='cr'><div class='vertical-center'><font style='color:orange'>$69<br>for<br>yourself</font></div></div><div class='respDivL'><div class='vertical-center'>(E)</div></div><div class='respDivR'><div class='vertical-center'><font style='color:orange'>(I)</font></div></div></div>","null","$69<br>for<br>yourself","$85<br>for<br>4","1","69","85","4",""
"html-keyboard-response","74","139891","0.0-6.0-1.23","63ea79021f0c43def6174042","bdp_sd","Sat Mar 25 2023 19:08:33 GMT-0500 (Central Daylight Time)","149072","","null","","","","","FIX","","<div class='trialBorder'><div class='vertical-center'><img style='vertical-align:center; align:center' src=img/fixation3.jpg></div></div>","null","","","","","","",""
"html-keyboard-response","75","141488","0.0-6.0-2.23","63ea79021f0c43def6174042","bdp_sd","Sat Mar 25 2023 19:08:33 GMT-0500 (Central Daylight Time)","149072","","1594","","","","","offer","","<div class='trialBorder'><div class='vertical-center'><img style='vertical-align:center; align:center' src=img/fixation3.jpg></div><div class='cl'><div class='vertical-center'>$85<br>for<br>Joe L</div></div><div class='cr'><div class='vertical-center'>$31<br>for<br>yourself</div></div><div class='respDivL'><div class='vertical-center'>(E)</div></div><div class='respDivR'><div class='vertical-center'>(I)</div></div></div>","E","$31<br>for<br>yourself","$85<br>for<br>1","1","31","85","1","OTHER"
"html-keyboard-response","76","141741","0.0-6.0-3.23","63ea79021f0c43def6174042","bdp_sd","Sat Mar 25 2023 19:08:33 GMT-0500 (Central Daylight Time)","149072","","null","","","","","offerFB","","<div class='trialBorder'><div class='vertical-center'><img style='vertical-align:center; align:center' src=img/fixation3.jpg></div><div class='cl'><div class='vertical-center'><font style='color:orange'>$85<br>for<br>Joe L</font></div></div><div class='cr'><div class='vertical-center'>$31<br>for<br>yourself</div></div><div class='respDivL'><div class='vertical-center'><font style='color:orange'>(E)</font></div></div><div class='respDivR'><div class='vertical-center'>(I)</div></div></div>","null","$31<br>for<br>yourself","$85<br>for<br>1","1","31","85","1",""
"html-keyboard-response","77","142244","0.0-6.0-1.24","63ea79021f0c43def6174042","bdp_sd","Sat Mar 25 2023 19:08:33 GMT-0500 (Central Daylight Time)","149072","","null","","","","","FIX","","<div class='trialBorder'><div class='vertical-center'><img style='vertical-align:center; align:center' src=img/fixation3.jpg></div></div>","null","","","","","","",""
"html-keyboard-response","78","143356","0.0-6.0-2.24","63ea79021f0c43def6174042","bdp_sd","Sat Mar 25 2023 19:08:33 GMT-0500 (Central Daylight Time)","149072","","1110","","","","","offer","","<div class='trialBorder'><div class='vertical-center'><img style='vertical-align:center; align:center' src=img/fixation3.jpg></div><div class='cl'><div class='vertical-center'>$60<br>for<br>Alex B</div></div><div class='cr'><div class='vertical-center'>$25<br>for<br>yourself</div></div><div class='respDivL'><div class='vertical-center'>(E)</div></div><div class='respDivR'><div class='vertical-center'>(I)</div></div></div>","I","$25<br>for<br>yourself","$60<br>for<br>3","1","25","60","3","SELF"
"html-keyboard-response","79","143610","0.0-6.0-3.24","63ea79021f0c43def6174042","bdp_sd","Sat Mar 25 2023 19:08:33 GMT-0500 (Central Daylight Time)","149072","","null","","","","","offerFB","","<div class='trialBorder'><div class='vertical-center'><img style='vertical-align:center; align:center' src=img/fixation3.jpg></div><div class='cl'><div class='vertical-center'>$60<br>for<br>Alex B</div></div><div class='cr'><div class='vertical-center'><font style='color:orange'>$25<br>for<br>yourself</font></div></div><div class='respDivL'><div class='vertical-center'>(E)</div></div><div class='respDivR'><div class='vertical-center'><font style='color:orange'>(I)</font></div></div></div>","null","$25<br>for<br>yourself","$60<br>for<br>3","1","25","60","3",""
"html-keyboard-response","80","144112","0.0-6.0-1.25","63ea79021f0c43def6174042","bdp_sd","Sat Mar 25 2023 19:08:33 GMT-0500 (Central Daylight Time)","149072","","null","","","","","FIX","","<div class='trialBorder'><div class='vertical-center'><img style='vertical-align:center; align:center' src=img/fixation3.jpg></div></div>","null","","","","","","",""
"html-keyboard-response","81","146107","0.0-6.0-2.25","63ea79021f0c43def6174042","bdp_sd","Sat Mar 25 2023 19:08:33 GMT-0500 (Central Daylight Time)","149072","","1992","","","","","offer","","<div class='trialBorder'><div class='vertical-center'><img style='vertical-align:center; align:center' src=img/fixation3.jpg></div><div class='cl'><div class='vertical-center'>$27<br>for<br>yourself</div></div><div class='cr'><div class='vertical-center'>$50<br>for<br>Alex B</div></div><div class='respDivL'><div class='vertical-center'>(E)</div></div><div class='respDivR'><div class='vertical-center'>(I)</div></div></div>","E","$27<br>for<br>yourself","$50<br>for<br>3","0","27","50","3","SELF"
"html-keyboard-response","82","146361","0.0-6.0-3.25","63ea79021f0c43def6174042","bdp_sd","Sat Mar 25 2023 19:08:33 GMT-0500 (Central Daylight Time)","149072","","null","","","","","offerFB","","<div class='trialBorder'><div class='vertical-center'><img style='vertical-align:center; align:center' src=img/fixation3.jpg></div><div class='cl'><div class='vertical-center'><font style='color:orange'>$27<br>for<br>yourself</font></div></div><div class='cr'><div class='vertical-center'>$50<br>for<br>Alex B</div></div><div class='respDivL'><div class='vertical-center'><font style='color:orange'>(E)</font></div></div><div class='respDivR'><div class='vertical-center'>(I)</div></div></div>","null","$27<br>for<br>yourself","$50<br>for<br>3","0","27","50","3",""
"html-keyboard-response","83","146864","0.0-6.0-1.26","63ea79021f0c43def6174042","bdp_sd","Sat Mar 25 2023 19:08:33 GMT-0500 (Central Daylight Time)","149072","","null","","","","","FIX","","<div class='trialBorder'><div class='vertical-center'><img style='vertical-align:center; align:center' src=img/fixation3.jpg></div></div>","null","","","","","","",""
"html-keyboard-response","84","147817","0.0-6.0-2.26","63ea79021f0c43def6174042","bdp_sd","Sat Mar 25 2023 19:08:33 GMT-0500 (Central Daylight Time)","149072","","950","","","","","offer","","<div class='trialBorder'><div class='vertical-center'><img style='vertical-align:center; align:center' src=img/fixation3.jpg></div><div class='cl'><div class='vertical-center'>$30<br>for<br>Tom M</div></div><div class='cr'><div class='vertical-center'>$25<br>for<br>yourself</div></div><div class='respDivL'><div class='vertical-center'>(E)</div></div><div class='respDivR'><div class='vertical-center'>(I)</div></div></div>","I","$25<br>for<br>yourself","$30<br>for<br>4","1","25","30","4","SELF"
"html-keyboard-response","85","148069","0.0-6.0-3.26","63ea79021f0c43def6174042","bdp_sd","Sat Mar 25 2023 19:08:33 GMT-0500 (Central Daylight Time)","149072","","null","","","","","offerFB","","<div class='trialBorder'><div class='vertical-center'><img style='vertical-align:center; align:center' src=img/fixation3.jpg></div><div class='cl'><div class='vertical-center'>$30<br>for<br>Tom M</div></div><div class='cr'><div class='vertical-center'><font style='color:orange'>$25<br>for<br>yourself</font></div></div><div class='respDivL'><div class='vertical-center'>(E)</div></div><div class='respDivR'><div class='vertical-center'><font style='color:orange'>(I)</font></div></div></div>","null","$25<br>for<br>yourself","$30<br>for<br>4","1","25","30","4",""
"","","","","63ea79021f0c43def6174042","bdp_sd","Sat Mar 25 2023 19:08:33 GMT-0500 (Central Daylight Time)","149072","","","","fullscreenexit","86","148090","fullscreenexit","","","","","","","","","",""
"fullscreen","86","149072","0.0-7.0","63ea79021f0c43def6174042","bdp_sd","Sat Mar 25 2023 19:08:33 GMT-0500 (Central Daylight Time)","149072","","","","","","","","true","","","","","","","","",""
"html-keyboard-response","87","149574","0.0-8.0","","","","","","null","","","","","","","","null","","","","","","",""
