"trial_type","trial_index","time_elapsed","internal_node_id","subject_id","task","startTime","totalTime","view_history","rt","responses","event","trial","time","trialtype","success","stimulus","key_press","selfOffer","otherOffer","otherLeft","selfAmt","otherAmt","otherDist","chosen"
"pavlovia","0","7","0.0-0.0","63d12f8c48b235842187c959","bdp_sd","Mon Mar 27 2023 20:02:30 GMT-0500 (Central Daylight Time)","77223","","","","","","","","","","","","","","","","",""
"instructions","1","1135","0.0-1.0","63d12f8c48b235842187c959","bdp_sd","Mon Mar 27 2023 20:02:30 GMT-0500 (Central Daylight Time)","77223","[{""page_index"":0,""viewing_time"":1106}]","1107","","","","","","","","","","","","","","",""
"survey-text","2","30262","0.0-2.0","63d12f8c48b235842187c959","bdp_sd","Mon Mar 27 2023 20:02:30 GMT-0500 (Central Daylight Time)","77223","","29125","{""Q0"":""Candy"",""Q1"":""Donnie"",""Q2"":""Megan"",""Q3"":""Julie"",""Q4"":""Kim""}","","","","","","","","","","","","","",""
"","","","","63d12f8c48b235842187c959","bdp_sd","Mon Mar 27 2023 20:02:30 GMT-0500 (Central Daylight Time)","77223","","","","fullscreenenter","3","31737","fullscreenenter","","","","","","","","","",""
"fullscreen","3","32660","0.0-3.0","63d12f8c48b235842187c959","bdp_sd","Mon Mar 27 2023 20:02:30 GMT-0500 (Central Daylight Time)","77223","","","","","","","","true","","","","","","","","",""
"instructions","4","38615","0.0-5.0","63d12f8c48b235842187c959","bdp_sd","Mon Mar 27 2023 20:02:30 GMT-0500 (Central Daylight Time)","77223","[{""page_index"":0,""viewing_time"":2106},{""page_index"":1,""viewing_time"":2275},{""page_index"":2,""viewing_time"":1568}]","5951","","","","","","","","","","","","","","",""
"html-keyboard-response","5","39125","0.0-6.0-1.0","63d12f8c48b235842187c959","bdp_sd","Mon Mar 27 2023 20:02:30 GMT-0500 (Central Daylight Time)","77223","","null","","","","","FIX","","<div class='trialBorder'><div class='vertical-center'><img style='vertical-align:center; align:center' src=img/fixation3.jpg></div></div>","null","","","","","","",""
"html-keyboard-response","6","41974","0.0-6.0-2.0","63d12f8c48b235842187c959","bdp_sd","Mon Mar 27 2023 20:02:30 GMT-0500 (Central Daylight Time)","77223","","2847","","","","","offer","","<div class='trialBorder'><div class='vertical-center'><img style='vertical-align:center; align:center' src=img/fixation3.jpg></div><div class='cl'><div class='vertical-center'>$60<br>for<br>Megan</div></div><div class='cr'><div class='vertical-center'>$25<br>for<br>yourself</div></div><div class='respDivL'><div class='vertical-center'>(E)</div></div><div class='respDivR'><div class='vertical-center'>(I)</div></div></div>","E","$25<br>for<br>yourself","$60<br>for<br>3","1","25","60","3","OTHER"
"html-keyboard-response","7","42233","0.0-6.0-3.0","63d12f8c48b235842187c959","bdp_sd","Mon Mar 27 2023 20:02:30 GMT-0500 (Central Daylight Time)","77223","","null","","","","","offerFB","","<div class='trialBorder'><div class='vertical-center'><img style='vertical-align:center; align:center' src=img/fixation3.jpg></div><div class='cl'><div class='vertical-center'><font style='color:orange'>$60<br>for<br>Megan</font></div></div><div class='cr'><div class='vertical-center'>$25<br>for<br>yourself</div></div><div class='respDivL'><div class='vertical-center'><font style='color:orange'>(E)</font></div></div><div class='respDivR'><div class='vertical-center'>(I)</div></div></div>","null","$25<br>for<br>yourself","$60<br>for<br>3","1","25","60","3",""
"html-keyboard-response","8","42737","0.0-6.0-1.1","63d12f8c48b235842187c959","bdp_sd","Mon Mar 27 2023 20:02:30 GMT-0500 (Central Daylight Time)","77223","","null","","","","","FIX","","<div class='trialBorder'><div class='vertical-center'><img style='vertical-align:center; align:center' src=img/fixation3.jpg></div></div>","null","","","","","","",""
"html-keyboard-response","9","45457","0.0-6.0-2.1","63d12f8c48b235842187c959","bdp_sd","Mon Mar 27 2023 20:02:30 GMT-0500 (Central Daylight Time)","77223","","2717","","","","","offer","","<div class='trialBorder'><div class='vertical-center'><img style='vertical-align:center; align:center' src=img/fixation3.jpg></div><div class='cl'><div class='vertical-center'>$11<br>for<br>yourself</div></div><div class='cr'><div class='vertical-center'>$30<br>for<br>Donnie</div></div><div class='respDivL'><div class='vertical-center'>(E)</div></div><div class='respDivR'><div class='vertical-center'>(I)</div></div></div>","E","$11<br>for<br>yourself","$30<br>for<br>2","0","11","30","2","SELF"
"html-keyboard-response","10","45714","0.0-6.0-3.1","63d12f8c48b235842187c959","bdp_sd","Mon Mar 27 2023 20:02:30 GMT-0500 (Central Daylight Time)","77223","","null","","","","","offerFB","","<div class='trialBorder'><div class='vertical-center'><img style='vertical-align:center; align:center' src=img/fixation3.jpg></div><div class='cl'><div class='vertical-center'><font style='color:orange'>$11<br>for<br>yourself</font></div></div><div class='cr'><div class='vertical-center'>$30<br>for<br>Donnie</div></div><div class='respDivL'><div class='vertical-center'><font style='color:orange'>(E)</font></div></div><div class='respDivR'><div class='vertical-center'>(I)</div></div></div>","null","$11<br>for<br>yourself","$30<br>for<br>2","0","11","30","2",""
"html-keyboard-response","11","46217","0.0-6.0-1.2","63d12f8c48b235842187c959","bdp_sd","Mon Mar 27 2023 20:02:30 GMT-0500 (Central Daylight Time)","77223","","null","","","","","FIX","","<div class='trialBorder'><div class='vertical-center'><img style='vertical-align:center; align:center' src=img/fixation3.jpg></div></div>","null","","","","","","",""
"html-keyboard-response","12","47340","0.0-6.0-2.2","63d12f8c48b235842187c959","bdp_sd","Mon Mar 27 2023 20:02:30 GMT-0500 (Central Daylight Time)","77223","","1121","","","","","offer","","<div class='trialBorder'><div class='vertical-center'><img style='vertical-align:center; align:center' src=img/fixation3.jpg></div><div class='cl'><div class='vertical-center'>$34<br>for<br>yourself</div></div><div class='cr'><div class='vertical-center'>$35<br>for<br>Kim</div></div><div class='respDivL'><div class='vertical-center'>(E)</div></div><div class='respDivR'><div class='vertical-center'>(I)</div></div></div>","I","$34<br>for<br>yourself","$35<br>for<br>5","0","34","35","5","OTHER"
"html-keyboard-response","13","47594","0.0-6.0-3.2","63d12f8c48b235842187c959","bdp_sd","Mon Mar 27 2023 20:02:30 GMT-0500 (Central Daylight Time)","77223","","null","","","","","offerFB","","<div class='trialBorder'><div class='vertical-center'><img style='vertical-align:center; align:center' src=img/fixation3.jpg></div><div class='cl'><div class='vertical-center'>$34<br>for<br>yourself</div></div><div class='cr'><div class='vertical-center'><font style='color:orange'>$35<br>for<br>Kim</font></div></div><div class='respDivL'><div class='vertical-center'>(E)</div></div><div class='respDivR'><div class='vertical-center'><font style='color:orange'>(I)</font></div></div></div>","null","$34<br>for<br>yourself","$35<br>for<br>5","0","34","35","5",""
"html-keyboard-response","14","48099","0.0-6.0-1.3","63d12f8c48b235842187c959","bdp_sd","Mon Mar 27 2023 20:02:30 GMT-0500 (Central Daylight Time)","77223","","null","","","","","FIX","","<div class='trialBorder'><div class='vertical-center'><img style='vertical-align:center; align:center' src=img/fixation3.jpg></div></div>","null","","","","","","",""
"html-keyboard-response","15","49493","0.0-6.0-2.3","63d12f8c48b235842187c959","bdp_sd","Mon Mar 27 2023 20:02:30 GMT-0500 (Central Daylight Time)","77223","","1393","","","","","offer","","<div class='trialBorder'><div class='vertical-center'><img style='vertical-align:center; align:center' src=img/fixation3.jpg></div><div class='cl'><div class='vertical-center'>$41<br>for<br>yourself</div></div><div class='cr'><div class='vertical-center'>$75<br>for<br>Megan</div></div><div class='respDivL'><div class='vertical-center'>(E)</div></div><div class='respDivR'><div class='vertical-center'>(I)</div></div></div>","I","$41<br>for<br>yourself","$75<br>for<br>3","0","41","75","3","OTHER"
"html-keyboard-response","16","49751","0.0-6.0-3.3","63d12f8c48b235842187c959","bdp_sd","Mon Mar 27 2023 20:02:30 GMT-0500 (Central Daylight Time)","77223","","null","","","","","offerFB","","<div class='trialBorder'><div class='vertical-center'><img style='vertical-align:center; align:center' src=img/fixation3.jpg></div><div class='cl'><div class='vertical-center'>$41<br>for<br>yourself</div></div><div class='cr'><div class='vertical-center'><font style='color:orange'>$75<br>for<br>Megan</font></div></div><div class='respDivL'><div class='vertical-center'>(E)</div></div><div class='respDivR'><div class='vertical-center'><font style='color:orange'>(I)</font></div></div></div>","null","$41<br>for<br>yourself","$75<br>for<br>3","0","41","75","3",""
"html-keyboard-response","17","50254","0.0-6.0-1.4","63d12f8c48b235842187c959","bdp_sd","Mon Mar 27 2023 20:02:30 GMT-0500 (Central Daylight Time)","77223","","null","","","","","FIX","","<div class='trialBorder'><div class='vertical-center'><img style='vertical-align:center; align:center' src=img/fixation3.jpg></div></div>","null","","","","","","",""
"html-keyboard-response","18","51995","0.0-6.0-2.4","63d12f8c48b235842187c959","bdp_sd","Mon Mar 27 2023 20:02:30 GMT-0500 (Central Daylight Time)","77223","","1738","","","","","offer","","<div class='trialBorder'><div class='vertical-center'><img style='vertical-align:center; align:center' src=img/fixation3.jpg></div><div class='cl'><div class='vertical-center'>$25<br>for<br>Julie</div></div><div class='cr'><div class='vertical-center'>$19<br>for<br>yourself</div></div><div class='respDivL'><div class='vertical-center'>(E)</div></div><div class='respDivR'><div class='vertical-center'>(I)</div></div></div>","I","$19<br>for<br>yourself","$25<br>for<br>4","1","19","25","4","SELF"
"html-keyboard-response","19","52255","0.0-6.0-3.4","63d12f8c48b235842187c959","bdp_sd","Mon Mar 27 2023 20:02:30 GMT-0500 (Central Daylight Time)","77223","","null","","","","","offerFB","","<div class='trialBorder'><div class='vertical-center'><img style='vertical-align:center; align:center' src=img/fixation3.jpg></div><div class='cl'><div class='vertical-center'>$25<br>for<br>Julie</div></div><div class='cr'><div class='vertical-center'><font style='color:orange'>$19<br>for<br>yourself</font></div></div><div class='respDivL'><div class='vertical-center'>(E)</div></div><div class='respDivR'><div class='vertical-center'><font style='color:orange'>(I)</font></div></div></div>","null","$19<br>for<br>yourself","$25<br>for<br>4","1","19","25","4",""
"html-keyboard-response","20","52758","0.0-6.0-1.5","63d12f8c48b235842187c959","bdp_sd","Mon Mar 27 2023 20:02:30 GMT-0500 (Central Daylight Time)","77223","","null","","","","","FIX","","<div class='trialBorder'><div class='vertical-center'><img style='vertical-align:center; align:center' src=img/fixation3.jpg></div></div>","null","","","","","","",""
"html-keyboard-response","21","53539","0.0-6.0-2.5","63d12f8c48b235842187c959","bdp_sd","Mon Mar 27 2023 20:02:30 GMT-0500 (Central Daylight Time)","77223","","778","","","","","offer","","<div class='trialBorder'><div class='vertical-center'><img style='vertical-align:center; align:center' src=img/fixation3.jpg></div><div class='cl'><div class='vertical-center'>$80<br>for<br>yourself</div></div><div class='cr'><div class='vertical-center'>$85<br>for<br>Kim</div></div><div class='respDivL'><div class='vertical-center'>(E)</div></div><div class='respDivR'><div class='vertical-center'>(I)</div></div></div>","E","$80<br>for<br>yourself","$85<br>for<br>5","0","80","85","5","SELF"
"html-keyboard-response","22","53791","0.0-6.0-3.5","63d12f8c48b235842187c959","bdp_sd","Mon Mar 27 2023 20:02:30 GMT-0500 (Central Daylight Time)","77223","","null","","","","","offerFB","","<div class='trialBorder'><div class='vertical-center'><img style='vertical-align:center; align:center' src=img/fixation3.jpg></div><div class='cl'><div class='vertical-center'><font style='color:orange'>$80<br>for<br>yourself</font></div></div><div class='cr'><div class='vertical-center'>$85<br>for<br>Kim</div></div><div class='respDivL'><div class='vertical-center'><font style='color:orange'>(E)</font></div></div><div class='respDivR'><div class='vertical-center'>(I)</div></div></div>","null","$80<br>for<br>yourself","$85<br>for<br>5","0","80","85","5",""
"html-keyboard-response","23","54296","0.0-6.0-1.6","63d12f8c48b235842187c959","bdp_sd","Mon Mar 27 2023 20:02:30 GMT-0500 (Central Daylight Time)","77223","","null","","","","","FIX","","<div class='trialBorder'><div class='vertical-center'><img style='vertical-align:center; align:center' src=img/fixation3.jpg></div></div>","null","","","","","","",""
"html-keyboard-response","24","55543","0.0-6.0-2.6","63d12f8c48b235842187c959","bdp_sd","Mon Mar 27 2023 20:02:30 GMT-0500 (Central Daylight Time)","77223","","1244","","","","","offer","","<div class='trialBorder'><div class='vertical-center'><img style='vertical-align:center; align:center' src=img/fixation3.jpg></div><div class='cl'><div class='vertical-center'>$54<br>for<br>yourself</div></div><div class='cr'><div class='vertical-center'>$80<br>for<br>Megan</div></div><div class='respDivL'><div class='vertical-center'>(E)</div></div><div class='respDivR'><div class='vertical-center'>(I)</div></div></div>","I","$54<br>for<br>yourself","$80<br>for<br>3","0","54","80","3","OTHER"
"html-keyboard-response","25","55804","0.0-6.0-3.6","63d12f8c48b235842187c959","bdp_sd","Mon Mar 27 2023 20:02:30 GMT-0500 (Central Daylight Time)","77223","","null","","","","","offerFB","","<div class='trialBorder'><div class='vertical-center'><img style='vertical-align:center; align:center' src=img/fixation3.jpg></div><div class='cl'><div class='vertical-center'>$54<br>for<br>yourself</div></div><div class='cr'><div class='vertical-center'><font style='color:orange'>$80<br>for<br>Megan</font></div></div><div class='respDivL'><div class='vertical-center'>(E)</div></div><div class='respDivR'><div class='vertical-center'><font style='color:orange'>(I)</font></div></div></div>","null","$54<br>for<br>yourself","$80<br>for<br>3","0","54","80","3",""
"html-keyboard-response","26","56308","0.0-6.0-1.7","63d12f8c48b235842187c959","bdp_sd","Mon Mar 27 2023 20:02:30 GMT-0500 (Central Daylight Time)","77223","","null","","","","","FIX","","<div class='trialBorder'><div class='vertical-center'><img style='vertical-align:center; align:center' src=img/fixation3.jpg></div></div>","null","","","","","","",""
"html-keyboard-response","27","56727","0.0-6.0-2.7","63d12f8c48b235842187c959","bdp_sd","Mon Mar 27 2023 20:02:30 GMT-0500 (Central Daylight Time)","77223","","418","","","","","offer","","<div class='trialBorder'><div class='vertical-center'><img style='vertical-align:center; align:center' src=img/fixation3.jpg></div><div class='cl'><div class='vertical-center'>$60<br>for<br>Julie</div></div><div class='cr'><div class='vertical-center'>$49<br>for<br>yourself</div></div><div class='respDivL'><div class='vertical-center'>(E)</div></div><div class='respDivR'><div class='vertical-center'>(I)</div></div></div>","E","$49<br>for<br>yourself","$60<br>for<br>4","1","49","60","4","OTHER"
"html-keyboard-response","28","56986","0.0-6.0-3.7","63d12f8c48b235842187c959","bdp_sd","Mon Mar 27 2023 20:02:30 GMT-0500 (Central Daylight Time)","77223","","null","","","","","offerFB","","<div class='trialBorder'><div class='vertical-center'><img style='vertical-align:center; align:center' src=img/fixation3.jpg></div><div class='cl'><div class='vertical-center'><font style='color:orange'>$60<br>for<br>Julie</font></div></div><div class='cr'><div class='vertical-center'>$49<br>for<br>yourself</div></div><div class='respDivL'><div class='vertical-center'><font style='color:orange'>(E)</font></div></div><div class='respDivR'><div class='vertical-center'>(I)</div></div></div>","null","$49<br>for<br>yourself","$60<br>for<br>4","1","49","60","4",""
"html-keyboard-response","29","57491","0.0-6.0-1.8","63d12f8c48b235842187c959","bdp_sd","Mon Mar 27 2023 20:02:30 GMT-0500 (Central Daylight Time)","77223","","null","","","","","FIX","","<div class='trialBorder'><div class='vertical-center'><img style='vertical-align:center; align:center' src=img/fixation3.jpg></div></div>","null","","","","","","",""
"html-keyboard-response","30","58159","0.0-6.0-2.8","63d12f8c48b235842187c959","bdp_sd","Mon Mar 27 2023 20:02:30 GMT-0500 (Central Daylight Time)","77223","","667","","","","","offer","","<div class='trialBorder'><div class='vertical-center'><img style='vertical-align:center; align:center' src=img/fixation3.jpg></div><div class='cl'><div class='vertical-center'>$27<br>for<br>yourself</div></div><div class='cr'><div class='vertical-center'>$50<br>for<br>Megan</div></div><div class='respDivL'><div class='vertical-center'>(E)</div></div><div class='respDivR'><div class='vertical-center'>(I)</div></div></div>","I","$27<br>for<br>yourself","$50<br>for<br>3","0","27","50","3","OTHER"
"html-keyboard-response","31","58418","0.0-6.0-3.8","63d12f8c48b235842187c959","bdp_sd","Mon Mar 27 2023 20:02:30 GMT-0500 (Central Daylight Time)","77223","","null","","","","","offerFB","","<div class='trialBorder'><div class='vertical-center'><img style='vertical-align:center; align:center' src=img/fixation3.jpg></div><div class='cl'><div class='vertical-center'>$27<br>for<br>yourself</div></div><div class='cr'><div class='vertical-center'><font style='color:orange'>$50<br>for<br>Megan</font></div></div><div class='respDivL'><div class='vertical-center'>(E)</div></div><div class='respDivR'><div class='vertical-center'><font style='color:orange'>(I)</font></div></div></div>","null","$27<br>for<br>yourself","$50<br>for<br>3","0","27","50","3",""
"html-keyboard-response","32","58922","0.0-6.0-1.9","63d12f8c48b235842187c959","bdp_sd","Mon Mar 27 2023 20:02:30 GMT-0500 (Central Daylight Time)","77223","","null","","","","","FIX","","<div class='trialBorder'><div class='vertical-center'><img style='vertical-align:center; align:center' src=img/fixation3.jpg></div></div>","null","","","","","","",""
"html-keyboard-response","33","59165","0.0-6.0-2.9","63d12f8c48b235842187c959","bdp_sd","Mon Mar 27 2023 20:02:30 GMT-0500 (Central Daylight Time)","77223","","240","","","","","offer","","<div class='trialBorder'><div class='vertical-center'><img style='vertical-align:center; align:center' src=img/fixation3.jpg></div><div class='cl'><div class='vertical-center'>$55<br>for<br>Kim</div></div><div class='cr'><div class='vertical-center'>$54<br>for<br>yourself</div></div><div class='respDivL'><div class='vertical-center'>(E)</div></div><div class='respDivR'><div class='vertical-center'>(I)</div></div></div>","E","$54<br>for<br>yourself","$55<br>for<br>5","1","54","55","5","OTHER"
"html-keyboard-response","34","59425","0.0-6.0-3.9","63d12f8c48b235842187c959","bdp_sd","Mon Mar 27 2023 20:02:30 GMT-0500 (Central Daylight Time)","77223","","null","","","","","offerFB","","<div class='trialBorder'><div class='vertical-center'><img style='vertical-align:center; align:center' src=img/fixation3.jpg></div><div class='cl'><div class='vertical-center'><font style='color:orange'>$55<br>for<br>Kim</font></div></div><div class='cr'><div class='vertical-center'>$54<br>for<br>yourself</div></div><div class='respDivL'><div class='vertical-center'><font style='color:orange'>(E)</font></div></div><div class='respDivR'><div class='vertical-center'>(I)</div></div></div>","null","$54<br>for<br>yourself","$55<br>for<br>5","1","54","55","5",""
"html-keyboard-response","35","59935","0.0-6.0-1.10","63d12f8c48b235842187c959","bdp_sd","Mon Mar 27 2023 20:02:30 GMT-0500 (Central Daylight Time)","77223","","null","","","","","FIX","","<div class='trialBorder'><div class='vertical-center'><img style='vertical-align:center; align:center' src=img/fixation3.jpg></div></div>","null","","","","","","",""
"html-keyboard-response","36","60619","0.0-6.0-2.10","63d12f8c48b235842187c959","bdp_sd","Mon Mar 27 2023 20:02:30 GMT-0500 (Central Daylight Time)","77223","","681","","","","","offer","","<div class='trialBorder'><div class='vertical-center'><img style='vertical-align:center; align:center' src=img/fixation3.jpg></div><div class='cl'><div class='vertical-center'>$25<br>for<br>Megan</div></div><div class='cr'><div class='vertical-center'>$14<br>for<br>yourself</div></div><div class='respDivL'><div class='vertical-center'>(E)</div></div><div class='respDivR'><div class='vertical-center'>(I)</div></div></div>","I","$14<br>for<br>yourself","$25<br>for<br>3","1","14","25","3","SELF"
"html-keyboard-response","37","60878","0.0-6.0-3.10","63d12f8c48b235842187c959","bdp_sd","Mon Mar 27 2023 20:02:30 GMT-0500 (Central Daylight Time)","77223","","null","","","","","offerFB","","<div class='trialBorder'><div class='vertical-center'><img style='vertical-align:center; align:center' src=img/fixation3.jpg></div><div class='cl'><div class='vertical-center'>$25<br>for<br>Megan</div></div><div class='cr'><div class='vertical-center'><font style='color:orange'>$14<br>for<br>yourself</font></div></div><div class='respDivL'><div class='vertical-center'>(E)</div></div><div class='respDivR'><div class='vertical-center'><font style='color:orange'>(I)</font></div></div></div>","null","$14<br>for<br>yourself","$25<br>for<br>3","1","14","25","3",""
"html-keyboard-response","38","61384","0.0-6.0-1.11","63d12f8c48b235842187c959","bdp_sd","Mon Mar 27 2023 20:02:30 GMT-0500 (Central Daylight Time)","77223","","null","","","","","FIX","","<div class='trialBorder'><div class='vertical-center'><img style='vertical-align:center; align:center' src=img/fixation3.jpg></div></div>","null","","","","","","",""
"html-keyboard-response","39","61498","0.0-6.0-2.11","63d12f8c48b235842187c959","bdp_sd","Mon Mar 27 2023 20:02:30 GMT-0500 (Central Daylight Time)","77223","","112","","","","","offer","","<div class='trialBorder'><div class='vertical-center'><img style='vertical-align:center; align:center' src=img/fixation3.jpg></div><div class='cl'><div class='vertical-center'>$78<br>for<br>yourself</div></div><div class='cr'><div class='vertical-center'>$80<br>for<br>Kim</div></div><div class='respDivL'><div class='vertical-center'>(E)</div></div><div class='respDivR'><div class='vertical-center'>(I)</div></div></div>","E","$78<br>for<br>yourself","$80<br>for<br>5","0","78","80","5","SELF"
"html-keyboard-response","40","61754","0.0-6.0-3.11","63d12f8c48b235842187c959","bdp_sd","Mon Mar 27 2023 20:02:30 GMT-0500 (Central Daylight Time)","77223","","null","","","","","offerFB","","<div class='trialBorder'><div class='vertical-center'><img style='vertical-align:center; align:center' src=img/fixation3.jpg></div><div class='cl'><div class='vertical-center'><font style='color:orange'>$78<br>for<br>yourself</font></div></div><div class='cr'><div class='vertical-center'>$80<br>for<br>Kim</div></div><div class='respDivL'><div class='vertical-center'><font style='color:orange'>(E)</font></div></div><div class='respDivR'><div class='vertical-center'>(I)</div></div></div>","null","$78<br>for<br>yourself","$80<br>for<br>5","0","78","80","5",""
"html-keyboard-response","41","62257","0.0-6.0-1.12","63d12f8c48b235842187c959","bdp_sd","Mon Mar 27 2023 20:02:30 GMT-0500 (Central Daylight Time)","77223","","null","","","","","FIX","","<div class='trialBorder'><div class='vertical-center'><img style='vertical-align:center; align:center' src=img/fixation3.jpg></div></div>","null","","","","","","",""
"html-keyboard-response","42","62558","0.0-6.0-2.12","63d12f8c48b235842187c959","bdp_sd","Mon Mar 27 2023 20:02:30 GMT-0500 (Central Daylight Time)","77223","","298","","","","","offer","","<div class='trialBorder'><div class='vertical-center'><img style='vertical-align:center; align:center' src=img/fixation3.jpg></div><div class='cl'><div class='vertical-center'>$30<br>for<br>Julie</div></div><div class='cr'><div class='vertical-center'>$25<br>for<br>yourself</div></div><div class='respDivL'><div class='vertical-center'>(E)</div></div><div class='respDivR'><div class='vertical-center'>(I)</div></div></div>","E","$25<br>for<br>yourself","$30<br>for<br>4","1","25","30","4","OTHER"
"html-keyboard-response","43","62820","0.0-6.0-3.12","63d12f8c48b235842187c959","bdp_sd","Mon Mar 27 2023 20:02:30 GMT-0500 (Central Daylight Time)","77223","","null","","","","","offerFB","","<div class='trialBorder'><div class='vertical-center'><img style='vertical-align:center; align:center' src=img/fixation3.jpg></div><div class='cl'><div class='vertical-center'><font style='color:orange'>$30<br>for<br>Julie</font></div></div><div class='cr'><div class='vertical-center'>$25<br>for<br>yourself</div></div><div class='respDivL'><div class='vertical-center'><font style='color:orange'>(E)</font></div></div><div class='respDivR'><div class='vertical-center'>(I)</div></div></div>","null","$25<br>for<br>yourself","$30<br>for<br>4","1","25","30","4",""
"html-keyboard-response","44","63324","0.0-6.0-1.13","63d12f8c48b235842187c959","bdp_sd","Mon Mar 27 2023 20:02:30 GMT-0500 (Central Daylight Time)","77223","","null","","","","","FIX","","<div class='trialBorder'><div class='vertical-center'><img style='vertical-align:center; align:center' src=img/fixation3.jpg></div></div>","null","","","","","","",""
"html-keyboard-response","45","63331","0.0-6.0-2.13","63d12f8c48b235842187c959","bdp_sd","Mon Mar 27 2023 20:02:30 GMT-0500 (Central Daylight Time)","77223","","6","","","","","offer","","<div class='trialBorder'><div class='vertical-center'><img style='vertical-align:center; align:center' src=img/fixation3.jpg></div><div class='cl'><div class='vertical-center'>$55<br>for<br>Candy</div></div><div class='cr'><div class='vertical-center'>$20<br>for<br>yourself</div></div><div class='respDivL'><div class='vertical-center'>(E)</div></div><div class='respDivR'><div class='vertical-center'>(I)</div></div></div>","I","$20<br>for<br>yourself","$55<br>for<br>1","1","20","55","1","SELF"
"html-keyboard-response","46","63587","0.0-6.0-3.13","63d12f8c48b235842187c959","bdp_sd","Mon Mar 27 2023 20:02:30 GMT-0500 (Central Daylight Time)","77223","","null","","","","","offerFB","","<div class='trialBorder'><div class='vertical-center'><img style='vertical-align:center; align:center' src=img/fixation3.jpg></div><div class='cl'><div class='vertical-center'>$55<br>for<br>Candy</div></div><div class='cr'><div class='vertical-center'><font style='color:orange'>$20<br>for<br>yourself</font></div></div><div class='respDivL'><div class='vertical-center'>(E)</div></div><div class='respDivR'><div class='vertical-center'><font style='color:orange'>(I)</font></div></div></div>","null","$20<br>for<br>yourself","$55<br>for<br>1","1","20","55","1",""
"html-keyboard-response","47","64092","0.0-6.0-1.14","63d12f8c48b235842187c959","bdp_sd","Mon Mar 27 2023 20:02:30 GMT-0500 (Central Daylight Time)","77223","","null","","","","","FIX","","<div class='trialBorder'><div class='vertical-center'><img style='vertical-align:center; align:center' src=img/fixation3.jpg></div></div>","null","","","","","","",""
"html-keyboard-response","48","64252","0.0-6.0-2.14","63d12f8c48b235842187c959","bdp_sd","Mon Mar 27 2023 20:02:30 GMT-0500 (Central Daylight Time)","77223","","156","","","","","offer","","<div class='trialBorder'><div class='vertical-center'><img style='vertical-align:center; align:center' src=img/fixation3.jpg></div><div class='cl'><div class='vertical-center'>$30<br>for<br>Kim</div></div><div class='cr'><div class='vertical-center'>$28<br>for<br>yourself</div></div><div class='respDivL'><div class='vertical-center'>(E)</div></div><div class='respDivR'><div class='vertical-center'>(I)</div></div></div>","I","$28<br>for<br>yourself","$30<br>for<br>5","1","28","30","5","SELF"
"html-keyboard-response","49","64518","0.0-6.0-3.14","63d12f8c48b235842187c959","bdp_sd","Mon Mar 27 2023 20:02:30 GMT-0500 (Central Daylight Time)","77223","","null","","","","","offerFB","","<div class='trialBorder'><div class='vertical-center'><img style='vertical-align:center; align:center' src=img/fixation3.jpg></div><div class='cl'><div class='vertical-center'>$30<br>for<br>Kim</div></div><div class='cr'><div class='vertical-center'><font style='color:orange'>$28<br>for<br>yourself</font></div></div><div class='respDivL'><div class='vertical-center'>(E)</div></div><div class='respDivR'><div class='vertical-center'><font style='color:orange'>(I)</font></div></div></div>","null","$28<br>for<br>yourself","$30<br>for<br>5","1","28","30","5",""
"html-keyboard-response","50","65025","0.0-6.0-1.15","63d12f8c48b235842187c959","bdp_sd","Mon Mar 27 2023 20:02:30 GMT-0500 (Central Daylight Time)","77223","","null","","","","","FIX","","<div class='trialBorder'><div class='vertical-center'><img style='vertical-align:center; align:center' src=img/fixation3.jpg></div></div>","null","","","","","","",""
"html-keyboard-response","51","65140","0.0-6.0-2.15","63d12f8c48b235842187c959","bdp_sd","Mon Mar 27 2023 20:02:30 GMT-0500 (Central Daylight Time)","77223","","111","","","","","offer","","<div class='trialBorder'><div class='vertical-center'><img style='vertical-align:center; align:center' src=img/fixation3.jpg></div><div class='cl'><div class='vertical-center'>$22<br>for<br>yourself</div></div><div class='cr'><div class='vertical-center'>$25<br>for<br>Kim</div></div><div class='respDivL'><div class='vertical-center'>(E)</div></div><div class='respDivR'><div class='vertical-center'>(I)</div></div></div>","E","$22<br>for<br>yourself","$25<br>for<br>5","0","22","25","5","SELF"
"html-keyboard-response","52","65393","0.0-6.0-3.15","63d12f8c48b235842187c959","bdp_sd","Mon Mar 27 2023 20:02:30 GMT-0500 (Central Daylight Time)","77223","","null","","","","","offerFB","","<div class='trialBorder'><div class='vertical-center'><img style='vertical-align:center; align:center' src=img/fixation3.jpg></div><div class='cl'><div class='vertical-center'><font style='color:orange'>$22<br>for<br>yourself</font></div></div><div class='cr'><div class='vertical-center'>$25<br>for<br>Kim</div></div><div class='respDivL'><div class='vertical-center'><font style='color:orange'>(E)</font></div></div><div class='respDivR'><div class='vertical-center'>(I)</div></div></div>","null","$22<br>for<br>yourself","$25<br>for<br>5","0","22","25","5",""
"html-keyboard-response","53","65904","0.0-6.0-1.16","63d12f8c48b235842187c959","bdp_sd","Mon Mar 27 2023 20:02:30 GMT-0500 (Central Daylight Time)","77223","","null","","","","","FIX","","<div class='trialBorder'><div class='vertical-center'><img style='vertical-align:center; align:center' src=img/fixation3.jpg></div></div>","null","","","","","","",""
"html-keyboard-response","54","66153","0.0-6.0-2.16","63d12f8c48b235842187c959","bdp_sd","Mon Mar 27 2023 20:02:30 GMT-0500 (Central Daylight Time)","77223","","246","","","","","offer","","<div class='trialBorder'><div class='vertical-center'><img style='vertical-align:center; align:center' src=img/fixation3.jpg></div><div class='cl'><div class='vertical-center'>$33<br>for<br>yourself</div></div><div class='cr'><div class='vertical-center'>$80<br>for<br>Donnie</div></div><div class='respDivL'><div class='vertical-center'>(E)</div></div><div class='respDivR'><div class='vertical-center'>(I)</div></div></div>","E","$33<br>for<br>yourself","$80<br>for<br>2","0","33","80","2","SELF"
"html-keyboard-response","55","66413","0.0-6.0-3.16","63d12f8c48b235842187c959","bdp_sd","Mon Mar 27 2023 20:02:30 GMT-0500 (Central Daylight Time)","77223","","null","","","","","offerFB","","<div class='trialBorder'><div class='vertical-center'><img style='vertical-align:center; align:center' src=img/fixation3.jpg></div><div class='cl'><div class='vertical-center'><font style='color:orange'>$33<br>for<br>yourself</font></div></div><div class='cr'><div class='vertical-center'>$80<br>for<br>Donnie</div></div><div class='respDivL'><div class='vertical-center'><font style='color:orange'>(E)</font></div></div><div class='respDivR'><div class='vertical-center'>(I)</div></div></div>","null","$33<br>for<br>yourself","$80<br>for<br>2","0","33","80","2",""
"html-keyboard-response","56","66919","0.0-6.0-1.17","63d12f8c48b235842187c959","bdp_sd","Mon Mar 27 2023 20:02:30 GMT-0500 (Central Daylight Time)","77223","","null","","","","","FIX","","<div class='trialBorder'><div class='vertical-center'><img style='vertical-align:center; align:center' src=img/fixation3.jpg></div></div>","null","","","","","","",""
"html-keyboard-response","57","67213","0.0-6.0-2.17","63d12f8c48b235842187c959","bdp_sd","Mon Mar 27 2023 20:02:30 GMT-0500 (Central Daylight Time)","77223","","291","","","","","offer","","<div class='trialBorder'><div class='vertical-center'><img style='vertical-align:center; align:center' src=img/fixation3.jpg></div><div class='cl'><div class='vertical-center'>$24<br>for<br>yourself</div></div><div class='cr'><div class='vertical-center'>$35<br>for<br>Megan</div></div><div class='respDivL'><div class='vertical-center'>(E)</div></div><div class='respDivR'><div class='vertical-center'>(I)</div></div></div>","I","$24<br>for<br>yourself","$35<br>for<br>3","0","24","35","3","OTHER"
"html-keyboard-response","58","67469","0.0-6.0-3.17","63d12f8c48b235842187c959","bdp_sd","Mon Mar 27 2023 20:02:30 GMT-0500 (Central Daylight Time)","77223","","null","","","","","offerFB","","<div class='trialBorder'><div class='vertical-center'><img style='vertical-align:center; align:center' src=img/fixation3.jpg></div><div class='cl'><div class='vertical-center'>$24<br>for<br>yourself</div></div><div class='cr'><div class='vertical-center'><font style='color:orange'>$35<br>for<br>Megan</font></div></div><div class='respDivL'><div class='vertical-center'>(E)</div></div><div class='respDivR'><div class='vertical-center'><font style='color:orange'>(I)</font></div></div></div>","null","$24<br>for<br>yourself","$35<br>for<br>3","0","24","35","3",""
"html-keyboard-response","59","67974","0.0-6.0-1.18","63d12f8c48b235842187c959","bdp_sd","Mon Mar 27 2023 20:02:30 GMT-0500 (Central Daylight Time)","77223","","null","","","","","FIX","","<div class='trialBorder'><div class='vertical-center'><img style='vertical-align:center; align:center' src=img/fixation3.jpg></div></div>","null","","","","","","",""
"html-keyboard-response","60","68346","0.0-6.0-2.18","63d12f8c48b235842187c959","bdp_sd","Mon Mar 27 2023 20:02:30 GMT-0500 (Central Daylight Time)","77223","","370","","","","","offer","","<div class='trialBorder'><div class='vertical-center'><img style='vertical-align:center; align:center' src=img/fixation3.jpg></div><div class='cl'><div class='vertical-center'>$50<br>for<br>Julie</div></div><div class='cr'><div class='vertical-center'>$34<br>for<br>yourself</div></div><div class='respDivL'><div class='vertical-center'>(E)</div></div><div class='respDivR'><div class='vertical-center'>(I)</div></div></div>","I","$34<br>for<br>yourself","$50<br>for<br>4","1","34","50","4","SELF"
"html-keyboard-response","61","68601","0.0-6.0-3.18","63d12f8c48b235842187c959","bdp_sd","Mon Mar 27 2023 20:02:30 GMT-0500 (Central Daylight Time)","77223","","null","","","","","offerFB","","<div class='trialBorder'><div class='vertical-center'><img style='vertical-align:center; align:center' src=img/fixation3.jpg></div><div class='cl'><div class='vertical-center'>$50<br>for<br>Julie</div></div><div class='cr'><div class='vertical-center'><font style='color:orange'>$34<br>for<br>yourself</font></div></div><div class='respDivL'><div class='vertical-center'>(E)</div></div><div class='respDivR'><div class='vertical-center'><font style='color:orange'>(I)</font></div></div></div>","null","$34<br>for<br>yourself","$50<br>for<br>4","1","34","50","4",""
"html-keyboard-response","62","69105","0.0-6.0-1.19","63d12f8c48b235842187c959","bdp_sd","Mon Mar 27 2023 20:02:30 GMT-0500 (Central Daylight Time)","77223","","null","","","","","FIX","","<div class='trialBorder'><div class='vertical-center'><img style='vertical-align:center; align:center' src=img/fixation3.jpg></div></div>","null","","","","","","",""
"html-keyboard-response","63","69269","0.0-6.0-2.19","63d12f8c48b235842187c959","bdp_sd","Mon Mar 27 2023 20:02:30 GMT-0500 (Central Daylight Time)","77223","","161","","","","","offer","","<div class='trialBorder'><div class='vertical-center'><img style='vertical-align:center; align:center' src=img/fixation3.jpg></div><div class='cl'><div class='vertical-center'>$31<br>for<br>yourself</div></div><div class='cr'><div class='vertical-center'>$85<br>for<br>Candy</div></div><div class='respDivL'><div class='vertical-center'>(E)</div></div><div class='respDivR'><div class='vertical-center'>(I)</div></div></div>","E","$31<br>for<br>yourself","$85<br>for<br>1","0","31","85","1","SELF"
"html-keyboard-response","64","69524","0.0-6.0-3.19","63d12f8c48b235842187c959","bdp_sd","Mon Mar 27 2023 20:02:30 GMT-0500 (Central Daylight Time)","77223","","null","","","","","offerFB","","<div class='trialBorder'><div class='vertical-center'><img style='vertical-align:center; align:center' src=img/fixation3.jpg></div><div class='cl'><div class='vertical-center'><font style='color:orange'>$31<br>for<br>yourself</font></div></div><div class='cr'><div class='vertical-center'>$85<br>for<br>Candy</div></div><div class='respDivL'><div class='vertical-center'><font style='color:orange'>(E)</font></div></div><div class='respDivR'><div class='vertical-center'>(I)</div></div></div>","null","$31<br>for<br>yourself","$85<br>for<br>1","0","31","85","1",""
"html-keyboard-response","65","70030","0.0-6.0-1.20","63d12f8c48b235842187c959","bdp_sd","Mon Mar 27 2023 20:02:30 GMT-0500 (Central Daylight Time)","77223","","null","","","","","FIX","","<div class='trialBorder'><div class='vertical-center'><img style='vertical-align:center; align:center' src=img/fixation3.jpg></div></div>","null","","","","","","",""
"html-keyboard-response","66","70224","0.0-6.0-2.20","63d12f8c48b235842187c959","bdp_sd","Mon Mar 27 2023 20:02:30 GMT-0500 (Central Daylight Time)","77223","","191","","","","","offer","","<div class='trialBorder'><div class='vertical-center'><img style='vertical-align:center; align:center' src=img/fixation3.jpg></div><div class='cl'><div class='vertical-center'>$60<br>for<br>Kim</div></div><div class='cr'><div class='vertical-center'>$54<br>for<br>yourself</div></div><div class='respDivL'><div class='vertical-center'>(E)</div></div><div class='respDivR'><div class='vertical-center'>(I)</div></div></div>","E","$54<br>for<br>yourself","$60<br>for<br>5","1","54","60","5","OTHER"
"html-keyboard-response","67","70485","0.0-6.0-3.20","63d12f8c48b235842187c959","bdp_sd","Mon Mar 27 2023 20:02:30 GMT-0500 (Central Daylight Time)","77223","","null","","","","","offerFB","","<div class='trialBorder'><div class='vertical-center'><img style='vertical-align:center; align:center' src=img/fixation3.jpg></div><div class='cl'><div class='vertical-center'><font style='color:orange'>$60<br>for<br>Kim</font></div></div><div class='cr'><div class='vertical-center'>$54<br>for<br>yourself</div></div><div class='respDivL'><div class='vertical-center'><font style='color:orange'>(E)</font></div></div><div class='respDivR'><div class='vertical-center'>(I)</div></div></div>","null","$54<br>for<br>yourself","$60<br>for<br>5","1","54","60","5",""
"html-keyboard-response","68","70991","0.0-6.0-1.21","63d12f8c48b235842187c959","bdp_sd","Mon Mar 27 2023 20:02:30 GMT-0500 (Central Daylight Time)","77223","","null","","","","","FIX","","<div class='trialBorder'><div class='vertical-center'><img style='vertical-align:center; align:center' src=img/fixation3.jpg></div></div>","null","","","","","","",""
"html-keyboard-response","69","71181","0.0-6.0-2.21","63d12f8c48b235842187c959","bdp_sd","Mon Mar 27 2023 20:02:30 GMT-0500 (Central Daylight Time)","77223","","187","","","","","offer","","<div class='trialBorder'><div class='vertical-center'><img style='vertical-align:center; align:center' src=img/fixation3.jpg></div><div class='cl'><div class='vertical-center'>$50<br>for<br>Kim</div></div><div class='cr'><div class='vertical-center'>$47<br>for<br>yourself</div></div><div class='respDivL'><div class='vertical-center'>(E)</div></div><div class='respDivR'><div class='vertical-center'>(I)</div></div></div>","I","$47<br>for<br>yourself","$50<br>for<br>5","1","47","50","5","SELF"
"html-keyboard-response","70","71435","0.0-6.0-3.21","63d12f8c48b235842187c959","bdp_sd","Mon Mar 27 2023 20:02:30 GMT-0500 (Central Daylight Time)","77223","","null","","","","","offerFB","","<div class='trialBorder'><div class='vertical-center'><img style='vertical-align:center; align:center' src=img/fixation3.jpg></div><div class='cl'><div class='vertical-center'>$50<br>for<br>Kim</div></div><div class='cr'><div class='vertical-center'><font style='color:orange'>$47<br>for<br>yourself</font></div></div><div class='respDivL'><div class='vertical-center'>(E)</div></div><div class='respDivR'><div class='vertical-center'><font style='color:orange'>(I)</font></div></div></div>","null","$47<br>for<br>yourself","$50<br>for<br>5","1","47","50","5",""
"html-keyboard-response","71","71937","0.0-6.0-1.22","63d12f8c48b235842187c959","bdp_sd","Mon Mar 27 2023 20:02:30 GMT-0500 (Central Daylight Time)","77223","","null","","","","","FIX","","<div class='trialBorder'><div class='vertical-center'><img style='vertical-align:center; align:center' src=img/fixation3.jpg></div></div>","null","","","","","","",""
"html-keyboard-response","72","72147","0.0-6.0-2.22","63d12f8c48b235842187c959","bdp_sd","Mon Mar 27 2023 20:02:30 GMT-0500 (Central Daylight Time)","77223","","206","","","","","offer","","<div class='trialBorder'><div class='vertical-center'><img style='vertical-align:center; align:center' src=img/fixation3.jpg></div><div class='cl'><div class='vertical-center'>$40<br>for<br>yourself</div></div><div class='cr'><div class='vertical-center'>$55<br>for<br>Julie</div></div><div class='respDivL'><div class='vertical-center'>(E)</div></div><div class='respDivR'><div class='vertical-center'>(I)</div></div></div>","I","$40<br>for<br>yourself","$55<br>for<br>4","0","40","55","4","OTHER"
"html-keyboard-response","73","72402","0.0-6.0-3.22","63d12f8c48b235842187c959","bdp_sd","Mon Mar 27 2023 20:02:30 GMT-0500 (Central Daylight Time)","77223","","null","","","","","offerFB","","<div class='trialBorder'><div class='vertical-center'><img style='vertical-align:center; align:center' src=img/fixation3.jpg></div><div class='cl'><div class='vertical-center'>$40<br>for<br>yourself</div></div><div class='cr'><div class='vertical-center'><font style='color:orange'>$55<br>for<br>Julie</font></div></div><div class='respDivL'><div class='vertical-center'>(E)</div></div><div class='respDivR'><div class='vertical-center'><font style='color:orange'>(I)</font></div></div></div>","null","$40<br>for<br>yourself","$55<br>for<br>4","0","40","55","4",""
"html-keyboard-response","74","72907","0.0-6.0-1.23","63d12f8c48b235842187c959","bdp_sd","Mon Mar 27 2023 20:02:30 GMT-0500 (Central Daylight Time)","77223","","null","","","","","FIX","","<div class='trialBorder'><div class='vertical-center'><img style='vertical-align:center; align:center' src=img/fixation3.jpg></div></div>","null","","","","","","",""
"html-keyboard-response","75","73071","0.0-6.0-2.23","63d12f8c48b235842187c959","bdp_sd","Mon Mar 27 2023 20:02:30 GMT-0500 (Central Daylight Time)","77223","","160","","","","","offer","","<div class='trialBorder'><div class='vertical-center'><img style='vertical-align:center; align:center' src=img/fixation3.jpg></div><div class='cl'><div class='vertical-center'>$85<br>for<br>Julie</div></div><div class='cr'><div class='vertical-center'>$69<br>for<br>yourself</div></div><div class='respDivL'><div class='vertical-center'>(E)</div></div><div class='respDivR'><div class='vertical-center'>(I)</div></div></div>","E","$69<br>for<br>yourself","$85<br>for<br>4","1","69","85","4","OTHER"
"html-keyboard-response","76","73330","0.0-6.0-3.23","63d12f8c48b235842187c959","bdp_sd","Mon Mar 27 2023 20:02:30 GMT-0500 (Central Daylight Time)","77223","","null","","","","","offerFB","","<div class='trialBorder'><div class='vertical-center'><img style='vertical-align:center; align:center' src=img/fixation3.jpg></div><div class='cl'><div class='vertical-center'><font style='color:orange'>$85<br>for<br>Julie</font></div></div><div class='cr'><div class='vertical-center'>$69<br>for<br>yourself</div></div><div class='respDivL'><div class='vertical-center'><font style='color:orange'>(E)</font></div></div><div class='respDivR'><div class='vertical-center'>(I)</div></div></div>","null","$69<br>for<br>yourself","$85<br>for<br>4","1","69","85","4",""
"html-keyboard-response","77","73835","0.0-6.0-1.24","63d12f8c48b235842187c959","bdp_sd","Mon Mar 27 2023 20:02:30 GMT-0500 (Central Daylight Time)","77223","","null","","","","","FIX","","<div class='trialBorder'><div class='vertical-center'><img style='vertical-align:center; align:center' src=img/fixation3.jpg></div></div>","null","","","","","","",""
"html-keyboard-response","78","74038","0.0-6.0-2.24","63d12f8c48b235842187c959","bdp_sd","Mon Mar 27 2023 20:02:30 GMT-0500 (Central Daylight Time)","77223","","201","","","","","offer","","<div class='trialBorder'><div class='vertical-center'><img style='vertical-align:center; align:center' src=img/fixation3.jpg></div><div class='cl'><div class='vertical-center'>$75<br>for<br>Kim</div></div><div class='cr'><div class='vertical-center'>$67<br>for<br>yourself</div></div><div class='respDivL'><div class='vertical-center'>(E)</div></div><div class='respDivR'><div class='vertical-center'>(I)</div></div></div>","E","$67<br>for<br>yourself","$75<br>for<br>5","1","67","75","5","OTHER"
"html-keyboard-response","79","74299","0.0-6.0-3.24","63d12f8c48b235842187c959","bdp_sd","Mon Mar 27 2023 20:02:30 GMT-0500 (Central Daylight Time)","77223","","null","","","","","offerFB","","<div class='trialBorder'><div class='vertical-center'><img style='vertical-align:center; align:center' src=img/fixation3.jpg></div><div class='cl'><div class='vertical-center'><font style='color:orange'>$75<br>for<br>Kim</font></div></div><div class='cr'><div class='vertical-center'>$67<br>for<br>yourself</div></div><div class='respDivL'><div class='vertical-center'><font style='color:orange'>(E)</font></div></div><div class='respDivR'><div class='vertical-center'>(I)</div></div></div>","null","$67<br>for<br>yourself","$75<br>for<br>5","1","67","75","5",""
"html-keyboard-response","80","74803","0.0-6.0-1.25","63d12f8c48b235842187c959","bdp_sd","Mon Mar 27 2023 20:02:30 GMT-0500 (Central Daylight Time)","77223","","null","","","","","FIX","","<div class='trialBorder'><div class='vertical-center'><img style='vertical-align:center; align:center' src=img/fixation3.jpg></div></div>","null","","","","","","",""
"html-keyboard-response","81","75020","0.0-6.0-2.25","63d12f8c48b235842187c959","bdp_sd","Mon Mar 27 2023 20:02:30 GMT-0500 (Central Daylight Time)","77223","","213","","","","","offer","","<div class='trialBorder'><div class='vertical-center'><img style='vertical-align:center; align:center' src=img/fixation3.jpg></div><div class='cl'><div class='vertical-center'>$35<br>for<br>Donnie</div></div><div class='cr'><div class='vertical-center'>$15<br>for<br>yourself</div></div><div class='respDivL'><div class='vertical-center'>(E)</div></div><div class='respDivR'><div class='vertical-center'>(I)</div></div></div>","I","$15<br>for<br>yourself","$35<br>for<br>2","1","15","35","2","SELF"
"html-keyboard-response","82","75281","0.0-6.0-3.25","63d12f8c48b235842187c959","bdp_sd","Mon Mar 27 2023 20:02:30 GMT-0500 (Central Daylight Time)","77223","","null","","","","","offerFB","","<div class='trialBorder'><div class='vertical-center'><img style='vertical-align:center; align:center' src=img/fixation3.jpg></div><div class='cl'><div class='vertical-center'>$35<br>for<br>Donnie</div></div><div class='cr'><div class='vertical-center'><font style='color:orange'>$15<br>for<br>yourself</font></div></div><div class='respDivL'><div class='vertical-center'>(E)</div></div><div class='respDivR'><div class='vertical-center'><font style='color:orange'>(I)</font></div></div></div>","null","$15<br>for<br>yourself","$35<br>for<br>2","1","15","35","2",""
"html-keyboard-response","83","75791","0.0-6.0-1.26","63d12f8c48b235842187c959","bdp_sd","Mon Mar 27 2023 20:02:30 GMT-0500 (Central Daylight Time)","77223","","null","","","","","FIX","","<div class='trialBorder'><div class='vertical-center'><img style='vertical-align:center; align:center' src=img/fixation3.jpg></div></div>","null","","","","","","",""
"html-keyboard-response","84","75955","0.0-6.0-2.26","63d12f8c48b235842187c959","bdp_sd","Mon Mar 27 2023 20:02:30 GMT-0500 (Central Daylight Time)","77223","","161","","","","","offer","","<div class='trialBorder'><div class='vertical-center'><img style='vertical-align:center; align:center' src=img/fixation3.jpg></div><div class='cl'><div class='vertical-center'>$55<br>for<br>yourself</div></div><div class='cr'><div class='vertical-center'>$75<br>for<br>Julie</div></div><div class='respDivL'><div class='vertical-center'>(E)</div></div><div class='respDivR'><div class='vertical-center'>(I)</div></div></div>","E","$55<br>for<br>yourself","$75<br>for<br>4","0","55","75","4","SELF"
"html-keyboard-response","85","76214","0.0-6.0-3.26","63d12f8c48b235842187c959","bdp_sd","Mon Mar 27 2023 20:02:30 GMT-0500 (Central Daylight Time)","77223","","null","","","","","offerFB","","<div class='trialBorder'><div class='vertical-center'><img style='vertical-align:center; align:center' src=img/fixation3.jpg></div><div class='cl'><div class='vertical-center'><font style='color:orange'>$55<br>for<br>yourself</font></div></div><div class='cr'><div class='vertical-center'>$75<br>for<br>Julie</div></div><div class='respDivL'><div class='vertical-center'><font style='color:orange'>(E)</font></div></div><div class='respDivR'><div class='vertical-center'>(I)</div></div></div>","null","$55<br>for<br>yourself","$75<br>for<br>4","0","55","75","4",""
"","","","","63d12f8c48b235842187c959","bdp_sd","Mon Mar 27 2023 20:02:30 GMT-0500 (Central Daylight Time)","77223","","","","fullscreenexit","86","76236","fullscreenexit","","","","","","","","","",""
"fullscreen","86","77222","0.0-7.0","63d12f8c48b235842187c959","bdp_sd","Mon Mar 27 2023 20:02:30 GMT-0500 (Central Daylight Time)","77223","","","","","","","","true","","","","","","","","",""
"html-keyboard-response","87","77724","0.0-8.0","","","","","","null","","","","","","","","null","","","","","","",""
