"event","trial","time","trialtype","subject_id","task","startTime","totalTime","trial_type","trial_index","time_elapsed","internal_node_id","view_history","rt","responses","success","stimulus","key_press","selfOffer","otherOffer","otherLeft","selfAmt","otherAmt","otherDist","chosen"
"focus","0","0","focusevent","63d9f31dba727de153019798","bdp_sd","Sun Apr 09 2023 18:52:41 GMT-0400 (Eastern Daylight Time)","407195","","","","","","","","","","","","","","","","",""
"","","","","63d9f31dba727de153019798","bdp_sd","Sun Apr 09 2023 18:52:41 GMT-0400 (Eastern Daylight Time)","407195","pavlovia","0","5","0.0-0.0","","","","","","","","","","","","",""
"","","","","63d9f31dba727de153019798","bdp_sd","Sun Apr 09 2023 18:52:41 GMT-0400 (Eastern Daylight Time)","407195","instructions","1","3594","0.0-1.0","[{""page_index"":0,""viewing_time"":3589}]","3589","","","","","","","","","","",""
"","","","","63d9f31dba727de153019798","bdp_sd","Sun Apr 09 2023 18:52:41 GMT-0400 (Eastern Daylight Time)","407195","survey-text","2","194862","0.0-2.0","","191266","{""Q0"":""Frank E"",""Q1"":""David W"",""Q2"":""Anderson W"",""Q3"":""Jasun A"",""Q4"":""Gabrial J""}","","","","","","","","","",""
"fullscreenexit","3","203203","fullscreenexit","63d9f31dba727de153019798","bdp_sd","Sun Apr 09 2023 18:52:41 GMT-0400 (Eastern Daylight Time)","407195","","","","","","","","","","","","","","","","",""
"","","","","63d9f31dba727de153019798","bdp_sd","Sun Apr 09 2023 18:52:41 GMT-0400 (Eastern Daylight Time)","407195","fullscreen","3","203991","0.0-3.0","","","","true","","","","","","","","",""
"","","","fullscreenfail","63d9f31dba727de153019798","bdp_sd","Sun Apr 09 2023 18:52:41 GMT-0400 (Eastern Daylight Time)","407195","image-keyboard-response","4","206449","0.0-4.0-0.0","","2454","","","","32","","","","","","",""
"","","","","63d9f31dba727de153019798","bdp_sd","Sun Apr 09 2023 18:52:41 GMT-0400 (Eastern Daylight Time)","407195","instructions","5","327152","0.0-5.0","[{""page_index"":0,""viewing_time"":46650},{""page_index"":1,""viewing_time"":51351},{""page_index"":2,""viewing_time"":22448}]","120449","","","","","","","","","","",""
"","","","FIX","63d9f31dba727de153019798","bdp_sd","Sun Apr 09 2023 18:52:41 GMT-0400 (Eastern Daylight Time)","407195","html-keyboard-response","6","327657","0.0-6.0-1.0","","null","","","<div class='trialBorder'><div class='vertical-center'><img style='vertical-align:center; align:center' src=img/fixation3.jpg></div></div>","null","","","","","","",""
"","","","offer","63d9f31dba727de153019798","bdp_sd","Sun Apr 09 2023 18:52:41 GMT-0400 (Eastern Daylight Time)","407195","html-keyboard-response","7","330279","0.0-6.0-2.0","","2621","","","<div class='trialBorder'><div class='vertical-center'><img style='vertical-align:center; align:center' src=img/fixation3.jpg></div><div class='cl'><div class='vertical-center'>$55<br>for<br>Jasun A</div></div><div class='cr'><div class='vertical-center'>$40<br>for<br>yourself</div></div><div class='respDivL'><div class='vertical-center'>(E)</div></div><div class='respDivR'><div class='vertical-center'>(I)</div></div></div>","I","$40<br>for<br>yourself","$55<br>for<br>4","1","40","55","4","SELF"
"","","","offerFB","63d9f31dba727de153019798","bdp_sd","Sun Apr 09 2023 18:52:41 GMT-0400 (Eastern Daylight Time)","407195","html-keyboard-response","8","330546","0.0-6.0-3.0","","null","","","<div class='trialBorder'><div class='vertical-center'><img style='vertical-align:center; align:center' src=img/fixation3.jpg></div><div class='cl'><div class='vertical-center'>$55<br>for<br>Jasun A</div></div><div class='cr'><div class='vertical-center'><font style='color:orange'>$40<br>for<br>yourself</font></div></div><div class='respDivL'><div class='vertical-center'>(E)</div></div><div class='respDivR'><div class='vertical-center'><font style='color:orange'>(I)</font></div></div></div>","null","$40<br>for<br>yourself","$55<br>for<br>4","1","40","55","4",""
"","","","FIX","63d9f31dba727de153019798","bdp_sd","Sun Apr 09 2023 18:52:41 GMT-0400 (Eastern Daylight Time)","407195","html-keyboard-response","9","331046","0.0-6.0-1.1","","null","","","<div class='trialBorder'><div class='vertical-center'><img style='vertical-align:center; align:center' src=img/fixation3.jpg></div></div>","null","","","","","","",""
"","","","offer","63d9f31dba727de153019798","bdp_sd","Sun Apr 09 2023 18:52:41 GMT-0400 (Eastern Daylight Time)","407195","html-keyboard-response","10","333536","0.0-6.0-2.1","","2489","","","<div class='trialBorder'><div class='vertical-center'><img style='vertical-align:center; align:center' src=img/fixation3.jpg></div><div class='cl'><div class='vertical-center'>$14<br>for<br>yourself</div></div><div class='cr'><div class='vertical-center'>$25<br>for<br>Anderson W</div></div><div class='respDivL'><div class='vertical-center'>(E)</div></div><div class='respDivR'><div class='vertical-center'>(I)</div></div></div>","I","$14<br>for<br>yourself","$25<br>for<br>3","0","14","25","3","OTHER"
"","","","offerFB","63d9f31dba727de153019798","bdp_sd","Sun Apr 09 2023 18:52:41 GMT-0400 (Eastern Daylight Time)","407195","html-keyboard-response","11","333794","0.0-6.0-3.1","","null","","","<div class='trialBorder'><div class='vertical-center'><img style='vertical-align:center; align:center' src=img/fixation3.jpg></div><div class='cl'><div class='vertical-center'>$14<br>for<br>yourself</div></div><div class='cr'><div class='vertical-center'><font style='color:orange'>$25<br>for<br>Anderson W</font></div></div><div class='respDivL'><div class='vertical-center'>(E)</div></div><div class='respDivR'><div class='vertical-center'><font style='color:orange'>(I)</font></div></div></div>","null","$14<br>for<br>yourself","$25<br>for<br>3","0","14","25","3",""
"","","","FIX","63d9f31dba727de153019798","bdp_sd","Sun Apr 09 2023 18:52:41 GMT-0400 (Eastern Daylight Time)","407195","html-keyboard-response","12","334295","0.0-6.0-1.2","","null","","","<div class='trialBorder'><div class='vertical-center'><img style='vertical-align:center; align:center' src=img/fixation3.jpg></div></div>","null","","","","","","",""
"","","","offer","63d9f31dba727de153019798","bdp_sd","Sun Apr 09 2023 18:52:41 GMT-0400 (Eastern Daylight Time)","407195","html-keyboard-response","13","336528","0.0-6.0-2.2","","2231","","","<div class='trialBorder'><div class='vertical-center'><img style='vertical-align:center; align:center' src=img/fixation3.jpg></div><div class='cl'><div class='vertical-center'>$67<br>for<br>yourself</div></div><div class='cr'><div class='vertical-center'>$75<br>for<br>Gabrial J</div></div><div class='respDivL'><div class='vertical-center'>(E)</div></div><div class='respDivR'><div class='vertical-center'>(I)</div></div></div>","E","$67<br>for<br>yourself","$75<br>for<br>5","0","67","75","5","SELF"
"","","","offerFB","63d9f31dba727de153019798","bdp_sd","Sun Apr 09 2023 18:52:41 GMT-0400 (Eastern Daylight Time)","407195","html-keyboard-response","14","336780","0.0-6.0-3.2","","null","","","<div class='trialBorder'><div class='vertical-center'><img style='vertical-align:center; align:center' src=img/fixation3.jpg></div><div class='cl'><div class='vertical-center'><font style='color:orange'>$67<br>for<br>yourself</font></div></div><div class='cr'><div class='vertical-center'>$75<br>for<br>Gabrial J</div></div><div class='respDivL'><div class='vertical-center'><font style='color:orange'>(E)</font></div></div><div class='respDivR'><div class='vertical-center'>(I)</div></div></div>","null","$67<br>for<br>yourself","$75<br>for<br>5","0","67","75","5",""
"","","","FIX","63d9f31dba727de153019798","bdp_sd","Sun Apr 09 2023 18:52:41 GMT-0400 (Eastern Daylight Time)","407195","html-keyboard-response","15","337282","0.0-6.0-1.3","","null","","","<div class='trialBorder'><div class='vertical-center'><img style='vertical-align:center; align:center' src=img/fixation3.jpg></div></div>","null","","","","","","",""
"","","","offer","63d9f31dba727de153019798","bdp_sd","Sun Apr 09 2023 18:52:41 GMT-0400 (Eastern Daylight Time)","407195","html-keyboard-response","16","340088","0.0-6.0-2.3","","2804","","","<div class='trialBorder'><div class='vertical-center'><img style='vertical-align:center; align:center' src=img/fixation3.jpg></div><div class='cl'><div class='vertical-center'>$28<br>for<br>yourself</div></div><div class='cr'><div class='vertical-center'>$30<br>for<br>Gabrial J</div></div><div class='respDivL'><div class='vertical-center'>(E)</div></div><div class='respDivR'><div class='vertical-center'>(I)</div></div></div>","E","$28<br>for<br>yourself","$30<br>for<br>5","0","28","30","5","SELF"
"","","","offerFB","63d9f31dba727de153019798","bdp_sd","Sun Apr 09 2023 18:52:41 GMT-0400 (Eastern Daylight Time)","407195","html-keyboard-response","17","340350","0.0-6.0-3.3","","null","","","<div class='trialBorder'><div class='vertical-center'><img style='vertical-align:center; align:center' src=img/fixation3.jpg></div><div class='cl'><div class='vertical-center'><font style='color:orange'>$28<br>for<br>yourself</font></div></div><div class='cr'><div class='vertical-center'>$30<br>for<br>Gabrial J</div></div><div class='respDivL'><div class='vertical-center'><font style='color:orange'>(E)</font></div></div><div class='respDivR'><div class='vertical-center'>(I)</div></div></div>","null","$28<br>for<br>yourself","$30<br>for<br>5","0","28","30","5",""
"","","","FIX","63d9f31dba727de153019798","bdp_sd","Sun Apr 09 2023 18:52:41 GMT-0400 (Eastern Daylight Time)","407195","html-keyboard-response","18","340851","0.0-6.0-1.4","","null","","","<div class='trialBorder'><div class='vertical-center'><img style='vertical-align:center; align:center' src=img/fixation3.jpg></div></div>","null","","","","","","",""
"","","","offer","63d9f31dba727de153019798","bdp_sd","Sun Apr 09 2023 18:52:41 GMT-0400 (Eastern Daylight Time)","407195","html-keyboard-response","19","344047","0.0-6.0-2.4","","3195","","","<div class='trialBorder'><div class='vertical-center'><img style='vertical-align:center; align:center' src=img/fixation3.jpg></div><div class='cl'><div class='vertical-center'>$50<br>for<br>Anderson W</div></div><div class='cr'><div class='vertical-center'>$27<br>for<br>yourself</div></div><div class='respDivL'><div class='vertical-center'>(E)</div></div><div class='respDivR'><div class='vertical-center'>(I)</div></div></div>","E","$27<br>for<br>yourself","$50<br>for<br>3","1","27","50","3","OTHER"
"","","","offerFB","63d9f31dba727de153019798","bdp_sd","Sun Apr 09 2023 18:52:41 GMT-0400 (Eastern Daylight Time)","407195","html-keyboard-response","20","344300","0.0-6.0-3.4","","null","","","<div class='trialBorder'><div class='vertical-center'><img style='vertical-align:center; align:center' src=img/fixation3.jpg></div><div class='cl'><div class='vertical-center'><font style='color:orange'>$50<br>for<br>Anderson W</font></div></div><div class='cr'><div class='vertical-center'>$27<br>for<br>yourself</div></div><div class='respDivL'><div class='vertical-center'><font style='color:orange'>(E)</font></div></div><div class='respDivR'><div class='vertical-center'>(I)</div></div></div>","null","$27<br>for<br>yourself","$50<br>for<br>3","1","27","50","3",""
"","","","FIX","63d9f31dba727de153019798","bdp_sd","Sun Apr 09 2023 18:52:41 GMT-0400 (Eastern Daylight Time)","407195","html-keyboard-response","21","344802","0.0-6.0-1.5","","null","","","<div class='trialBorder'><div class='vertical-center'><img style='vertical-align:center; align:center' src=img/fixation3.jpg></div></div>","null","","","","","","",""
"","","","offer","63d9f31dba727de153019798","bdp_sd","Sun Apr 09 2023 18:52:41 GMT-0400 (Eastern Daylight Time)","407195","html-keyboard-response","22","346695","0.0-6.0-2.5","","1893","","","<div class='trialBorder'><div class='vertical-center'><img style='vertical-align:center; align:center' src=img/fixation3.jpg></div><div class='cl'><div class='vertical-center'>$75<br>for<br>Anderson W</div></div><div class='cr'><div class='vertical-center'>$41<br>for<br>yourself</div></div><div class='respDivL'><div class='vertical-center'>(E)</div></div><div class='respDivR'><div class='vertical-center'>(I)</div></div></div>","E","$41<br>for<br>yourself","$75<br>for<br>3","1","41","75","3","OTHER"
"","","","offerFB","63d9f31dba727de153019798","bdp_sd","Sun Apr 09 2023 18:52:41 GMT-0400 (Eastern Daylight Time)","407195","html-keyboard-response","23","346954","0.0-6.0-3.5","","null","","","<div class='trialBorder'><div class='vertical-center'><img style='vertical-align:center; align:center' src=img/fixation3.jpg></div><div class='cl'><div class='vertical-center'><font style='color:orange'>$75<br>for<br>Anderson W</font></div></div><div class='cr'><div class='vertical-center'>$41<br>for<br>yourself</div></div><div class='respDivL'><div class='vertical-center'><font style='color:orange'>(E)</font></div></div><div class='respDivR'><div class='vertical-center'>(I)</div></div></div>","null","$41<br>for<br>yourself","$75<br>for<br>3","1","41","75","3",""
"","","","FIX","63d9f31dba727de153019798","bdp_sd","Sun Apr 09 2023 18:52:41 GMT-0400 (Eastern Daylight Time)","407195","html-keyboard-response","24","347456","0.0-6.0-1.6","","null","","","<div class='trialBorder'><div class='vertical-center'><img style='vertical-align:center; align:center' src=img/fixation3.jpg></div></div>","null","","","","","","",""
"","","","offer","63d9f31dba727de153019798","bdp_sd","Sun Apr 09 2023 18:52:41 GMT-0400 (Eastern Daylight Time)","407195","html-keyboard-response","25","349832","0.0-6.0-2.6","","2376","","","<div class='trialBorder'><div class='vertical-center'><img style='vertical-align:center; align:center' src=img/fixation3.jpg></div><div class='cl'><div class='vertical-center'>$78<br>for<br>yourself</div></div><div class='cr'><div class='vertical-center'>$80<br>for<br>Gabrial J</div></div><div class='respDivL'><div class='vertical-center'>(E)</div></div><div class='respDivR'><div class='vertical-center'>(I)</div></div></div>","E","$78<br>for<br>yourself","$80<br>for<br>5","0","78","80","5","SELF"
"","","","offerFB","63d9f31dba727de153019798","bdp_sd","Sun Apr 09 2023 18:52:41 GMT-0400 (Eastern Daylight Time)","407195","html-keyboard-response","26","350093","0.0-6.0-3.6","","null","","","<div class='trialBorder'><div class='vertical-center'><img style='vertical-align:center; align:center' src=img/fixation3.jpg></div><div class='cl'><div class='vertical-center'><font style='color:orange'>$78<br>for<br>yourself</font></div></div><div class='cr'><div class='vertical-center'>$80<br>for<br>Gabrial J</div></div><div class='respDivL'><div class='vertical-center'><font style='color:orange'>(E)</font></div></div><div class='respDivR'><div class='vertical-center'>(I)</div></div></div>","null","$78<br>for<br>yourself","$80<br>for<br>5","0","78","80","5",""
"","","","FIX","63d9f31dba727de153019798","bdp_sd","Sun Apr 09 2023 18:52:41 GMT-0400 (Eastern Daylight Time)","407195","html-keyboard-response","27","350594","0.0-6.0-1.7","","null","","","<div class='trialBorder'><div class='vertical-center'><img style='vertical-align:center; align:center' src=img/fixation3.jpg></div></div>","null","","","","","","",""
"","","","offer","63d9f31dba727de153019798","bdp_sd","Sun Apr 09 2023 18:52:41 GMT-0400 (Eastern Daylight Time)","407195","html-keyboard-response","28","353408","0.0-6.0-2.7","","2813","","","<div class='trialBorder'><div class='vertical-center'><img style='vertical-align:center; align:center' src=img/fixation3.jpg></div><div class='cl'><div class='vertical-center'>$85<br>for<br>Gabrial J</div></div><div class='cr'><div class='vertical-center'>$80<br>for<br>yourself</div></div><div class='respDivL'><div class='vertical-center'>(E)</div></div><div class='respDivR'><div class='vertical-center'>(I)</div></div></div>","I","$80<br>for<br>yourself","$85<br>for<br>5","1","80","85","5","SELF"
"","","","offerFB","63d9f31dba727de153019798","bdp_sd","Sun Apr 09 2023 18:52:41 GMT-0400 (Eastern Daylight Time)","407195","html-keyboard-response","29","353671","0.0-6.0-3.7","","null","","","<div class='trialBorder'><div class='vertical-center'><img style='vertical-align:center; align:center' src=img/fixation3.jpg></div><div class='cl'><div class='vertical-center'>$85<br>for<br>Gabrial J</div></div><div class='cr'><div class='vertical-center'><font style='color:orange'>$80<br>for<br>yourself</font></div></div><div class='respDivL'><div class='vertical-center'>(E)</div></div><div class='respDivR'><div class='vertical-center'><font style='color:orange'>(I)</font></div></div></div>","null","$80<br>for<br>yourself","$85<br>for<br>5","1","80","85","5",""
"","","","FIX","63d9f31dba727de153019798","bdp_sd","Sun Apr 09 2023 18:52:41 GMT-0400 (Eastern Daylight Time)","407195","html-keyboard-response","30","354173","0.0-6.0-1.8","","null","","","<div class='trialBorder'><div class='vertical-center'><img style='vertical-align:center; align:center' src=img/fixation3.jpg></div></div>","null","","","","","","",""
"","","","offer","63d9f31dba727de153019798","bdp_sd","Sun Apr 09 2023 18:52:41 GMT-0400 (Eastern Daylight Time)","407195","html-keyboard-response","31","355647","0.0-6.0-2.8","","1474","","","<div class='trialBorder'><div class='vertical-center'><img style='vertical-align:center; align:center' src=img/fixation3.jpg></div><div class='cl'><div class='vertical-center'>$55<br>for<br>Frank E</div></div><div class='cr'><div class='vertical-center'>$20<br>for<br>yourself</div></div><div class='respDivL'><div class='vertical-center'>(E)</div></div><div class='respDivR'><div class='vertical-center'>(I)</div></div></div>","E","$20<br>for<br>yourself","$55<br>for<br>1","1","20","55","1","OTHER"
"","","","offerFB","63d9f31dba727de153019798","bdp_sd","Sun Apr 09 2023 18:52:41 GMT-0400 (Eastern Daylight Time)","407195","html-keyboard-response","32","355909","0.0-6.0-3.8","","null","","","<div class='trialBorder'><div class='vertical-center'><img style='vertical-align:center; align:center' src=img/fixation3.jpg></div><div class='cl'><div class='vertical-center'><font style='color:orange'>$55<br>for<br>Frank E</font></div></div><div class='cr'><div class='vertical-center'>$20<br>for<br>yourself</div></div><div class='respDivL'><div class='vertical-center'><font style='color:orange'>(E)</font></div></div><div class='respDivR'><div class='vertical-center'>(I)</div></div></div>","null","$20<br>for<br>yourself","$55<br>for<br>1","1","20","55","1",""
"","","","FIX","63d9f31dba727de153019798","bdp_sd","Sun Apr 09 2023 18:52:41 GMT-0400 (Eastern Daylight Time)","407195","html-keyboard-response","33","356409","0.0-6.0-1.9","","null","","","<div class='trialBorder'><div class='vertical-center'><img style='vertical-align:center; align:center' src=img/fixation3.jpg></div></div>","null","","","","","","",""
"","","","offer","63d9f31dba727de153019798","bdp_sd","Sun Apr 09 2023 18:52:41 GMT-0400 (Eastern Daylight Time)","407195","html-keyboard-response","34","359303","0.0-6.0-2.9","","2893","","","<div class='trialBorder'><div class='vertical-center'><img style='vertical-align:center; align:center' src=img/fixation3.jpg></div><div class='cl'><div class='vertical-center'>$24<br>for<br>yourself</div></div><div class='cr'><div class='vertical-center'>$35<br>for<br>Anderson W</div></div><div class='respDivL'><div class='vertical-center'>(E)</div></div><div class='respDivR'><div class='vertical-center'>(I)</div></div></div>","I","$24<br>for<br>yourself","$35<br>for<br>3","0","24","35","3","OTHER"
"","","","offerFB","63d9f31dba727de153019798","bdp_sd","Sun Apr 09 2023 18:52:41 GMT-0400 (Eastern Daylight Time)","407195","html-keyboard-response","35","359556","0.0-6.0-3.9","","null","","","<div class='trialBorder'><div class='vertical-center'><img style='vertical-align:center; align:center' src=img/fixation3.jpg></div><div class='cl'><div class='vertical-center'>$24<br>for<br>yourself</div></div><div class='cr'><div class='vertical-center'><font style='color:orange'>$35<br>for<br>Anderson W</font></div></div><div class='respDivL'><div class='vertical-center'>(E)</div></div><div class='respDivR'><div class='vertical-center'><font style='color:orange'>(I)</font></div></div></div>","null","$24<br>for<br>yourself","$35<br>for<br>3","0","24","35","3",""
"","","","FIX","63d9f31dba727de153019798","bdp_sd","Sun Apr 09 2023 18:52:41 GMT-0400 (Eastern Daylight Time)","407195","html-keyboard-response","36","360057","0.0-6.0-1.10","","null","","","<div class='trialBorder'><div class='vertical-center'><img style='vertical-align:center; align:center' src=img/fixation3.jpg></div></div>","null","","","","","","",""
"","","","offer","63d9f31dba727de153019798","bdp_sd","Sun Apr 09 2023 18:52:41 GMT-0400 (Eastern Daylight Time)","407195","html-keyboard-response","37","362040","0.0-6.0-2.10","","1981","","","<div class='trialBorder'><div class='vertical-center'><img style='vertical-align:center; align:center' src=img/fixation3.jpg></div><div class='cl'><div class='vertical-center'>$60<br>for<br>Jasun A</div></div><div class='cr'><div class='vertical-center'>$49<br>for<br>yourself</div></div><div class='respDivL'><div class='vertical-center'>(E)</div></div><div class='respDivR'><div class='vertical-center'>(I)</div></div></div>","E","$49<br>for<br>yourself","$60<br>for<br>4","1","49","60","4","OTHER"
"","","","offerFB","63d9f31dba727de153019798","bdp_sd","Sun Apr 09 2023 18:52:41 GMT-0400 (Eastern Daylight Time)","407195","html-keyboard-response","38","362294","0.0-6.0-3.10","","null","","","<div class='trialBorder'><div class='vertical-center'><img style='vertical-align:center; align:center' src=img/fixation3.jpg></div><div class='cl'><div class='vertical-center'><font style='color:orange'>$60<br>for<br>Jasun A</font></div></div><div class='cr'><div class='vertical-center'>$49<br>for<br>yourself</div></div><div class='respDivL'><div class='vertical-center'><font style='color:orange'>(E)</font></div></div><div class='respDivR'><div class='vertical-center'>(I)</div></div></div>","null","$49<br>for<br>yourself","$60<br>for<br>4","1","49","60","4",""
"","","","FIX","63d9f31dba727de153019798","bdp_sd","Sun Apr 09 2023 18:52:41 GMT-0400 (Eastern Daylight Time)","407195","html-keyboard-response","39","362796","0.0-6.0-1.11","","null","","","<div class='trialBorder'><div class='vertical-center'><img style='vertical-align:center; align:center' src=img/fixation3.jpg></div></div>","null","","","","","","",""
"","","","offer","63d9f31dba727de153019798","bdp_sd","Sun Apr 09 2023 18:52:41 GMT-0400 (Eastern Daylight Time)","407195","html-keyboard-response","40","365008","0.0-6.0-2.11","","2211","","","<div class='trialBorder'><div class='vertical-center'><img style='vertical-align:center; align:center' src=img/fixation3.jpg></div><div class='cl'><div class='vertical-center'>$25<br>for<br>yourself</div></div><div class='cr'><div class='vertical-center'>$30<br>for<br>Jasun A</div></div><div class='respDivL'><div class='vertical-center'>(E)</div></div><div class='respDivR'><div class='vertical-center'>(I)</div></div></div>","E","$25<br>for<br>yourself","$30<br>for<br>4","0","25","30","4","SELF"
"","","","offerFB","63d9f31dba727de153019798","bdp_sd","Sun Apr 09 2023 18:52:41 GMT-0400 (Eastern Daylight Time)","407195","html-keyboard-response","41","365270","0.0-6.0-3.11","","null","","","<div class='trialBorder'><div class='vertical-center'><img style='vertical-align:center; align:center' src=img/fixation3.jpg></div><div class='cl'><div class='vertical-center'><font style='color:orange'>$25<br>for<br>yourself</font></div></div><div class='cr'><div class='vertical-center'>$30<br>for<br>Jasun A</div></div><div class='respDivL'><div class='vertical-center'><font style='color:orange'>(E)</font></div></div><div class='respDivR'><div class='vertical-center'>(I)</div></div></div>","null","$25<br>for<br>yourself","$30<br>for<br>4","0","25","30","4",""
"","","","FIX","63d9f31dba727de153019798","bdp_sd","Sun Apr 09 2023 18:52:41 GMT-0400 (Eastern Daylight Time)","407195","html-keyboard-response","42","365771","0.0-6.0-1.12","","null","","","<div class='trialBorder'><div class='vertical-center'><img style='vertical-align:center; align:center' src=img/fixation3.jpg></div></div>","null","","","","","","",""
"","","","offer","63d9f31dba727de153019798","bdp_sd","Sun Apr 09 2023 18:52:41 GMT-0400 (Eastern Daylight Time)","407195","html-keyboard-response","43","367871","0.0-6.0-2.12","","2099","","","<div class='trialBorder'><div class='vertical-center'><img style='vertical-align:center; align:center' src=img/fixation3.jpg></div><div class='cl'><div class='vertical-center'>$50<br>for<br>Gabrial J</div></div><div class='cr'><div class='vertical-center'>$47<br>for<br>yourself</div></div><div class='respDivL'><div class='vertical-center'>(E)</div></div><div class='respDivR'><div class='vertical-center'>(I)</div></div></div>","I","$47<br>for<br>yourself","$50<br>for<br>5","1","47","50","5","SELF"
"","","","offerFB","63d9f31dba727de153019798","bdp_sd","Sun Apr 09 2023 18:52:41 GMT-0400 (Eastern Daylight Time)","407195","html-keyboard-response","44","368125","0.0-6.0-3.12","","null","","","<div class='trialBorder'><div class='vertical-center'><img style='vertical-align:center; align:center' src=img/fixation3.jpg></div><div class='cl'><div class='vertical-center'>$50<br>for<br>Gabrial J</div></div><div class='cr'><div class='vertical-center'><font style='color:orange'>$47<br>for<br>yourself</font></div></div><div class='respDivL'><div class='vertical-center'>(E)</div></div><div class='respDivR'><div class='vertical-center'><font style='color:orange'>(I)</font></div></div></div>","null","$47<br>for<br>yourself","$50<br>for<br>5","1","47","50","5",""
"","","","FIX","63d9f31dba727de153019798","bdp_sd","Sun Apr 09 2023 18:52:41 GMT-0400 (Eastern Daylight Time)","407195","html-keyboard-response","45","368626","0.0-6.0-1.13","","null","","","<div class='trialBorder'><div class='vertical-center'><img style='vertical-align:center; align:center' src=img/fixation3.jpg></div></div>","null","","","","","","",""
"","","","offer","63d9f31dba727de153019798","bdp_sd","Sun Apr 09 2023 18:52:41 GMT-0400 (Eastern Daylight Time)","407195","html-keyboard-response","46","371840","0.0-6.0-2.13","","3212","","","<div class='trialBorder'><div class='vertical-center'><img style='vertical-align:center; align:center' src=img/fixation3.jpg></div><div class='cl'><div class='vertical-center'>$19<br>for<br>yourself</div></div><div class='cr'><div class='vertical-center'>$25<br>for<br>Jasun A</div></div><div class='respDivL'><div class='vertical-center'>(E)</div></div><div class='respDivR'><div class='vertical-center'>(I)</div></div></div>","I","$19<br>for<br>yourself","$25<br>for<br>4","0","19","25","4","OTHER"
"","","","offerFB","63d9f31dba727de153019798","bdp_sd","Sun Apr 09 2023 18:52:41 GMT-0400 (Eastern Daylight Time)","407195","html-keyboard-response","47","372104","0.0-6.0-3.13","","null","","","<div class='trialBorder'><div class='vertical-center'><img style='vertical-align:center; align:center' src=img/fixation3.jpg></div><div class='cl'><div class='vertical-center'>$19<br>for<br>yourself</div></div><div class='cr'><div class='vertical-center'><font style='color:orange'>$25<br>for<br>Jasun A</font></div></div><div class='respDivL'><div class='vertical-center'>(E)</div></div><div class='respDivR'><div class='vertical-center'><font style='color:orange'>(I)</font></div></div></div>","null","$19<br>for<br>yourself","$25<br>for<br>4","0","19","25","4",""
"","","","FIX","63d9f31dba727de153019798","bdp_sd","Sun Apr 09 2023 18:52:41 GMT-0400 (Eastern Daylight Time)","407195","html-keyboard-response","48","372605","0.0-6.0-1.14","","null","","","<div class='trialBorder'><div class='vertical-center'><img style='vertical-align:center; align:center' src=img/fixation3.jpg></div></div>","null","","","","","","",""
"","","","offer","63d9f31dba727de153019798","bdp_sd","Sun Apr 09 2023 18:52:41 GMT-0400 (Eastern Daylight Time)","407195","html-keyboard-response","49","374935","0.0-6.0-2.14","","2329","","","<div class='trialBorder'><div class='vertical-center'><img style='vertical-align:center; align:center' src=img/fixation3.jpg></div><div class='cl'><div class='vertical-center'>$55<br>for<br>Gabrial J</div></div><div class='cr'><div class='vertical-center'>$54<br>for<br>yourself</div></div><div class='respDivL'><div class='vertical-center'>(E)</div></div><div class='respDivR'><div class='vertical-center'>(I)</div></div></div>","I","$54<br>for<br>yourself","$55<br>for<br>5","1","54","55","5","SELF"
"","","","offerFB","63d9f31dba727de153019798","bdp_sd","Sun Apr 09 2023 18:52:41 GMT-0400 (Eastern Daylight Time)","407195","html-keyboard-response","50","375197","0.0-6.0-3.14","","null","","","<div class='trialBorder'><div class='vertical-center'><img style='vertical-align:center; align:center' src=img/fixation3.jpg></div><div class='cl'><div class='vertical-center'>$55<br>for<br>Gabrial J</div></div><div class='cr'><div class='vertical-center'><font style='color:orange'>$54<br>for<br>yourself</font></div></div><div class='respDivL'><div class='vertical-center'>(E)</div></div><div class='respDivR'><div class='vertical-center'><font style='color:orange'>(I)</font></div></div></div>","null","$54<br>for<br>yourself","$55<br>for<br>5","1","54","55","5",""
"","","","FIX","63d9f31dba727de153019798","bdp_sd","Sun Apr 09 2023 18:52:41 GMT-0400 (Eastern Daylight Time)","407195","html-keyboard-response","51","375697","0.0-6.0-1.15","","null","","","<div class='trialBorder'><div class='vertical-center'><img style='vertical-align:center; align:center' src=img/fixation3.jpg></div></div>","null","","","","","","",""
"","","","offer","63d9f31dba727de153019798","bdp_sd","Sun Apr 09 2023 18:52:41 GMT-0400 (Eastern Daylight Time)","407195","html-keyboard-response","52","378008","0.0-6.0-2.15","","2309","","","<div class='trialBorder'><div class='vertical-center'><img style='vertical-align:center; align:center' src=img/fixation3.jpg></div><div class='cl'><div class='vertical-center'>$54<br>for<br>yourself</div></div><div class='cr'><div class='vertical-center'>$80<br>for<br>Anderson W</div></div><div class='respDivL'><div class='vertical-center'>(E)</div></div><div class='respDivR'><div class='vertical-center'>(I)</div></div></div>","I","$54<br>for<br>yourself","$80<br>for<br>3","0","54","80","3","OTHER"
"","","","offerFB","63d9f31dba727de153019798","bdp_sd","Sun Apr 09 2023 18:52:41 GMT-0400 (Eastern Daylight Time)","407195","html-keyboard-response","53","378267","0.0-6.0-3.15","","null","","","<div class='trialBorder'><div class='vertical-center'><img style='vertical-align:center; align:center' src=img/fixation3.jpg></div><div class='cl'><div class='vertical-center'>$54<br>for<br>yourself</div></div><div class='cr'><div class='vertical-center'><font style='color:orange'>$80<br>for<br>Anderson W</font></div></div><div class='respDivL'><div class='vertical-center'>(E)</div></div><div class='respDivR'><div class='vertical-center'><font style='color:orange'>(I)</font></div></div></div>","null","$54<br>for<br>yourself","$80<br>for<br>3","0","54","80","3",""
"","","","FIX","63d9f31dba727de153019798","bdp_sd","Sun Apr 09 2023 18:52:41 GMT-0400 (Eastern Daylight Time)","407195","html-keyboard-response","54","378768","0.0-6.0-1.16","","null","","","<div class='trialBorder'><div class='vertical-center'><img style='vertical-align:center; align:center' src=img/fixation3.jpg></div></div>","null","","","","","","",""
"","","","offer","63d9f31dba727de153019798","bdp_sd","Sun Apr 09 2023 18:52:41 GMT-0400 (Eastern Daylight Time)","407195","html-keyboard-response","55","380471","0.0-6.0-2.16","","1703","","","<div class='trialBorder'><div class='vertical-center'><img style='vertical-align:center; align:center' src=img/fixation3.jpg></div><div class='cl'><div class='vertical-center'>$85<br>for<br>Frank E</div></div><div class='cr'><div class='vertical-center'>$31<br>for<br>yourself</div></div><div class='respDivL'><div class='vertical-center'>(E)</div></div><div class='respDivR'><div class='vertical-center'>(I)</div></div></div>","E","$31<br>for<br>yourself","$85<br>for<br>1","1","31","85","1","OTHER"
"","","","offerFB","63d9f31dba727de153019798","bdp_sd","Sun Apr 09 2023 18:52:41 GMT-0400 (Eastern Daylight Time)","407195","html-keyboard-response","56","380725","0.0-6.0-3.16","","null","","","<div class='trialBorder'><div class='vertical-center'><img style='vertical-align:center; align:center' src=img/fixation3.jpg></div><div class='cl'><div class='vertical-center'><font style='color:orange'>$85<br>for<br>Frank E</font></div></div><div class='cr'><div class='vertical-center'>$31<br>for<br>yourself</div></div><div class='respDivL'><div class='vertical-center'><font style='color:orange'>(E)</font></div></div><div class='respDivR'><div class='vertical-center'>(I)</div></div></div>","null","$31<br>for<br>yourself","$85<br>for<br>1","1","31","85","1",""
"","","","FIX","63d9f31dba727de153019798","bdp_sd","Sun Apr 09 2023 18:52:41 GMT-0400 (Eastern Daylight Time)","407195","html-keyboard-response","57","381227","0.0-6.0-1.17","","null","","","<div class='trialBorder'><div class='vertical-center'><img style='vertical-align:center; align:center' src=img/fixation3.jpg></div></div>","null","","","","","","",""
"","","","offer","63d9f31dba727de153019798","bdp_sd","Sun Apr 09 2023 18:52:41 GMT-0400 (Eastern Daylight Time)","407195","html-keyboard-response","58","384048","0.0-6.0-2.17","","2821","","","<div class='trialBorder'><div class='vertical-center'><img style='vertical-align:center; align:center' src=img/fixation3.jpg></div><div class='cl'><div class='vertical-center'>$54<br>for<br>yourself</div></div><div class='cr'><div class='vertical-center'>$60<br>for<br>Gabrial J</div></div><div class='respDivL'><div class='vertical-center'>(E)</div></div><div class='respDivR'><div class='vertical-center'>(I)</div></div></div>","E","$54<br>for<br>yourself","$60<br>for<br>5","0","54","60","5","SELF"
"","","","offerFB","63d9f31dba727de153019798","bdp_sd","Sun Apr 09 2023 18:52:41 GMT-0400 (Eastern Daylight Time)","407195","html-keyboard-response","59","384312","0.0-6.0-3.17","","null","","","<div class='trialBorder'><div class='vertical-center'><img style='vertical-align:center; align:center' src=img/fixation3.jpg></div><div class='cl'><div class='vertical-center'><font style='color:orange'>$54<br>for<br>yourself</font></div></div><div class='cr'><div class='vertical-center'>$60<br>for<br>Gabrial J</div></div><div class='respDivL'><div class='vertical-center'><font style='color:orange'>(E)</font></div></div><div class='respDivR'><div class='vertical-center'>(I)</div></div></div>","null","$54<br>for<br>yourself","$60<br>for<br>5","0","54","60","5",""
"","","","FIX","63d9f31dba727de153019798","bdp_sd","Sun Apr 09 2023 18:52:41 GMT-0400 (Eastern Daylight Time)","407195","html-keyboard-response","60","384814","0.0-6.0-1.18","","null","","","<div class='trialBorder'><div class='vertical-center'><img style='vertical-align:center; align:center' src=img/fixation3.jpg></div></div>","null","","","","","","",""
"","","","offer","63d9f31dba727de153019798","bdp_sd","Sun Apr 09 2023 18:52:41 GMT-0400 (Eastern Daylight Time)","407195","html-keyboard-response","61","386471","0.0-6.0-2.18","","1656","","","<div class='trialBorder'><div class='vertical-center'><img style='vertical-align:center; align:center' src=img/fixation3.jpg></div><div class='cl'><div class='vertical-center'>$35<br>for<br>Gabrial J</div></div><div class='cr'><div class='vertical-center'>$34<br>for<br>yourself</div></div><div class='respDivL'><div class='vertical-center'>(E)</div></div><div class='respDivR'><div class='vertical-center'>(I)</div></div></div>","I","$34<br>for<br>yourself","$35<br>for<br>5","1","34","35","5","SELF"
"","","","offerFB","63d9f31dba727de153019798","bdp_sd","Sun Apr 09 2023 18:52:41 GMT-0400 (Eastern Daylight Time)","407195","html-keyboard-response","62","386740","0.0-6.0-3.18","","null","","","<div class='trialBorder'><div class='vertical-center'><img style='vertical-align:center; align:center' src=img/fixation3.jpg></div><div class='cl'><div class='vertical-center'>$35<br>for<br>Gabrial J</div></div><div class='cr'><div class='vertical-center'><font style='color:orange'>$34<br>for<br>yourself</font></div></div><div class='respDivL'><div class='vertical-center'>(E)</div></div><div class='respDivR'><div class='vertical-center'><font style='color:orange'>(I)</font></div></div></div>","null","$34<br>for<br>yourself","$35<br>for<br>5","1","34","35","5",""
"","","","FIX","63d9f31dba727de153019798","bdp_sd","Sun Apr 09 2023 18:52:41 GMT-0400 (Eastern Daylight Time)","407195","html-keyboard-response","63","387242","0.0-6.0-1.19","","null","","","<div class='trialBorder'><div class='vertical-center'><img style='vertical-align:center; align:center' src=img/fixation3.jpg></div></div>","null","","","","","","",""
"","","","offer","63d9f31dba727de153019798","bdp_sd","Sun Apr 09 2023 18:52:41 GMT-0400 (Eastern Daylight Time)","407195","html-keyboard-response","64","388735","0.0-6.0-2.19","","1492","","","<div class='trialBorder'><div class='vertical-center'><img style='vertical-align:center; align:center' src=img/fixation3.jpg></div><div class='cl'><div class='vertical-center'>$25<br>for<br>yourself</div></div><div class='cr'><div class='vertical-center'>$60<br>for<br>Anderson W</div></div><div class='respDivL'><div class='vertical-center'>(E)</div></div><div class='respDivR'><div class='vertical-center'>(I)</div></div></div>","I","$25<br>for<br>yourself","$60<br>for<br>3","0","25","60","3","OTHER"
"","","","offerFB","63d9f31dba727de153019798","bdp_sd","Sun Apr 09 2023 18:52:41 GMT-0400 (Eastern Daylight Time)","407195","html-keyboard-response","65","388994","0.0-6.0-3.19","","null","","","<div class='trialBorder'><div class='vertical-center'><img style='vertical-align:center; align:center' src=img/fixation3.jpg></div><div class='cl'><div class='vertical-center'>$25<br>for<br>yourself</div></div><div class='cr'><div class='vertical-center'><font style='color:orange'>$60<br>for<br>Anderson W</font></div></div><div class='respDivL'><div class='vertical-center'>(E)</div></div><div class='respDivR'><div class='vertical-center'><font style='color:orange'>(I)</font></div></div></div>","null","$25<br>for<br>yourself","$60<br>for<br>3","0","25","60","3",""
"","","","FIX","63d9f31dba727de153019798","bdp_sd","Sun Apr 09 2023 18:52:41 GMT-0400 (Eastern Daylight Time)","407195","html-keyboard-response","66","389495","0.0-6.0-1.20","","null","","","<div class='trialBorder'><div class='vertical-center'><img style='vertical-align:center; align:center' src=img/fixation3.jpg></div></div>","null","","","","","","",""
"","","","offer","63d9f31dba727de153019798","bdp_sd","Sun Apr 09 2023 18:52:41 GMT-0400 (Eastern Daylight Time)","407195","html-keyboard-response","67","391536","0.0-6.0-2.20","","2041","","","<div class='trialBorder'><div class='vertical-center'><img style='vertical-align:center; align:center' src=img/fixation3.jpg></div><div class='cl'><div class='vertical-center'>$55<br>for<br>yourself</div></div><div class='cr'><div class='vertical-center'>$75<br>for<br>Jasun A</div></div><div class='respDivL'><div class='vertical-center'>(E)</div></div><div class='respDivR'><div class='vertical-center'>(I)</div></div></div>","I","$55<br>for<br>yourself","$75<br>for<br>4","0","55","75","4","OTHER"
"","","","offerFB","63d9f31dba727de153019798","bdp_sd","Sun Apr 09 2023 18:52:41 GMT-0400 (Eastern Daylight Time)","407195","html-keyboard-response","68","391801","0.0-6.0-3.20","","null","","","<div class='trialBorder'><div class='vertical-center'><img style='vertical-align:center; align:center' src=img/fixation3.jpg></div><div class='cl'><div class='vertical-center'>$55<br>for<br>yourself</div></div><div class='cr'><div class='vertical-center'><font style='color:orange'>$75<br>for<br>Jasun A</font></div></div><div class='respDivL'><div class='vertical-center'>(E)</div></div><div class='respDivR'><div class='vertical-center'><font style='color:orange'>(I)</font></div></div></div>","null","$55<br>for<br>yourself","$75<br>for<br>4","0","55","75","4",""
"","","","FIX","63d9f31dba727de153019798","bdp_sd","Sun Apr 09 2023 18:52:41 GMT-0400 (Eastern Daylight Time)","407195","html-keyboard-response","69","392303","0.0-6.0-1.21","","null","","","<div class='trialBorder'><div class='vertical-center'><img style='vertical-align:center; align:center' src=img/fixation3.jpg></div></div>","null","","","","","","",""
"","","","offer","63d9f31dba727de153019798","bdp_sd","Sun Apr 09 2023 18:52:41 GMT-0400 (Eastern Daylight Time)","407195","html-keyboard-response","70","393655","0.0-6.0-2.21","","1352","","","<div class='trialBorder'><div class='vertical-center'><img style='vertical-align:center; align:center' src=img/fixation3.jpg></div><div class='cl'><div class='vertical-center'>$11<br>for<br>yourself</div></div><div class='cr'><div class='vertical-center'>$30<br>for<br>David W</div></div><div class='respDivL'><div class='vertical-center'>(E)</div></div><div class='respDivR'><div class='vertical-center'>(I)</div></div></div>","I","$11<br>for<br>yourself","$30<br>for<br>2","0","11","30","2","OTHER"
"","","","offerFB","63d9f31dba727de153019798","bdp_sd","Sun Apr 09 2023 18:52:41 GMT-0400 (Eastern Daylight Time)","407195","html-keyboard-response","71","393906","0.0-6.0-3.21","","null","","","<div class='trialBorder'><div class='vertical-center'><img style='vertical-align:center; align:center' src=img/fixation3.jpg></div><div class='cl'><div class='vertical-center'>$11<br>for<br>yourself</div></div><div class='cr'><div class='vertical-center'><font style='color:orange'>$30<br>for<br>David W</font></div></div><div class='respDivL'><div class='vertical-center'>(E)</div></div><div class='respDivR'><div class='vertical-center'><font style='color:orange'>(I)</font></div></div></div>","null","$11<br>for<br>yourself","$30<br>for<br>2","0","11","30","2",""
"","","","FIX","63d9f31dba727de153019798","bdp_sd","Sun Apr 09 2023 18:52:41 GMT-0400 (Eastern Daylight Time)","407195","html-keyboard-response","72","394408","0.0-6.0-1.22","","null","","","<div class='trialBorder'><div class='vertical-center'><img style='vertical-align:center; align:center' src=img/fixation3.jpg></div></div>","null","","","","","","",""
"","","","offer","63d9f31dba727de153019798","bdp_sd","Sun Apr 09 2023 18:52:41 GMT-0400 (Eastern Daylight Time)","407195","html-keyboard-response","73","396087","0.0-6.0-2.22","","1678","","","<div class='trialBorder'><div class='vertical-center'><img style='vertical-align:center; align:center' src=img/fixation3.jpg></div><div class='cl'><div class='vertical-center'>$50<br>for<br>Jasun A</div></div><div class='cr'><div class='vertical-center'>$34<br>for<br>yourself</div></div><div class='respDivL'><div class='vertical-center'>(E)</div></div><div class='respDivR'><div class='vertical-center'>(I)</div></div></div>","E","$34<br>for<br>yourself","$50<br>for<br>4","1","34","50","4","OTHER"
"","","","offerFB","63d9f31dba727de153019798","bdp_sd","Sun Apr 09 2023 18:52:41 GMT-0400 (Eastern Daylight Time)","407195","html-keyboard-response","74","396343","0.0-6.0-3.22","","null","","","<div class='trialBorder'><div class='vertical-center'><img style='vertical-align:center; align:center' src=img/fixation3.jpg></div><div class='cl'><div class='vertical-center'><font style='color:orange'>$50<br>for<br>Jasun A</font></div></div><div class='cr'><div class='vertical-center'>$34<br>for<br>yourself</div></div><div class='respDivL'><div class='vertical-center'><font style='color:orange'>(E)</font></div></div><div class='respDivR'><div class='vertical-center'>(I)</div></div></div>","null","$34<br>for<br>yourself","$50<br>for<br>4","1","34","50","4",""
"","","","FIX","63d9f31dba727de153019798","bdp_sd","Sun Apr 09 2023 18:52:41 GMT-0400 (Eastern Daylight Time)","407195","html-keyboard-response","75","396845","0.0-6.0-1.23","","null","","","<div class='trialBorder'><div class='vertical-center'><img style='vertical-align:center; align:center' src=img/fixation3.jpg></div></div>","null","","","","","","",""
"","","","offer","63d9f31dba727de153019798","bdp_sd","Sun Apr 09 2023 18:52:41 GMT-0400 (Eastern Daylight Time)","407195","html-keyboard-response","76","398631","0.0-6.0-2.23","","1785","","","<div class='trialBorder'><div class='vertical-center'><img style='vertical-align:center; align:center' src=img/fixation3.jpg></div><div class='cl'><div class='vertical-center'>$85<br>for<br>Jasun A</div></div><div class='cr'><div class='vertical-center'>$69<br>for<br>yourself</div></div><div class='respDivL'><div class='vertical-center'>(E)</div></div><div class='respDivR'><div class='vertical-center'>(I)</div></div></div>","I","$69<br>for<br>yourself","$85<br>for<br>4","1","69","85","4","SELF"
"","","","offerFB","63d9f31dba727de153019798","bdp_sd","Sun Apr 09 2023 18:52:41 GMT-0400 (Eastern Daylight Time)","407195","html-keyboard-response","77","398888","0.0-6.0-3.23","","null","","","<div class='trialBorder'><div class='vertical-center'><img style='vertical-align:center; align:center' src=img/fixation3.jpg></div><div class='cl'><div class='vertical-center'>$85<br>for<br>Jasun A</div></div><div class='cr'><div class='vertical-center'><font style='color:orange'>$69<br>for<br>yourself</font></div></div><div class='respDivL'><div class='vertical-center'>(E)</div></div><div class='respDivR'><div class='vertical-center'><font style='color:orange'>(I)</font></div></div></div>","null","$69<br>for<br>yourself","$85<br>for<br>4","1","69","85","4",""
"","","","FIX","63d9f31dba727de153019798","bdp_sd","Sun Apr 09 2023 18:52:41 GMT-0400 (Eastern Daylight Time)","407195","html-keyboard-response","78","399389","0.0-6.0-1.24","","null","","","<div class='trialBorder'><div class='vertical-center'><img style='vertical-align:center; align:center' src=img/fixation3.jpg></div></div>","null","","","","","","",""
"","","","offer","63d9f31dba727de153019798","bdp_sd","Sun Apr 09 2023 18:52:41 GMT-0400 (Eastern Daylight Time)","407195","html-keyboard-response","79","401087","0.0-6.0-2.24","","1697","","","<div class='trialBorder'><div class='vertical-center'><img style='vertical-align:center; align:center' src=img/fixation3.jpg></div><div class='cl'><div class='vertical-center'>$15<br>for<br>yourself</div></div><div class='cr'><div class='vertical-center'>$35<br>for<br>David W</div></div><div class='respDivL'><div class='vertical-center'>(E)</div></div><div class='respDivR'><div class='vertical-center'>(I)</div></div></div>","I","$15<br>for<br>yourself","$35<br>for<br>2","0","15","35","2","OTHER"
"","","","offerFB","63d9f31dba727de153019798","bdp_sd","Sun Apr 09 2023 18:52:41 GMT-0400 (Eastern Daylight Time)","407195","html-keyboard-response","80","401341","0.0-6.0-3.24","","null","","","<div class='trialBorder'><div class='vertical-center'><img style='vertical-align:center; align:center' src=img/fixation3.jpg></div><div class='cl'><div class='vertical-center'>$15<br>for<br>yourself</div></div><div class='cr'><div class='vertical-center'><font style='color:orange'>$35<br>for<br>David W</font></div></div><div class='respDivL'><div class='vertical-center'>(E)</div></div><div class='respDivR'><div class='vertical-center'><font style='color:orange'>(I)</font></div></div></div>","null","$15<br>for<br>yourself","$35<br>for<br>2","0","15","35","2",""
"","","","FIX","63d9f31dba727de153019798","bdp_sd","Sun Apr 09 2023 18:52:41 GMT-0400 (Eastern Daylight Time)","407195","html-keyboard-response","81","401843","0.0-6.0-1.25","","null","","","<div class='trialBorder'><div class='vertical-center'><img style='vertical-align:center; align:center' src=img/fixation3.jpg></div></div>","null","","","","","","",""
"","","","offer","63d9f31dba727de153019798","bdp_sd","Sun Apr 09 2023 18:52:41 GMT-0400 (Eastern Daylight Time)","407195","html-keyboard-response","82","403119","0.0-6.0-2.25","","1276","","","<div class='trialBorder'><div class='vertical-center'><img style='vertical-align:center; align:center' src=img/fixation3.jpg></div><div class='cl'><div class='vertical-center'>$80<br>for<br>David W</div></div><div class='cr'><div class='vertical-center'>$33<br>for<br>yourself</div></div><div class='respDivL'><div class='vertical-center'>(E)</div></div><div class='respDivR'><div class='vertical-center'>(I)</div></div></div>","E","$33<br>for<br>yourself","$80<br>for<br>2","1","33","80","2","OTHER"
"","","","offerFB","63d9f31dba727de153019798","bdp_sd","Sun Apr 09 2023 18:52:41 GMT-0400 (Eastern Daylight Time)","407195","html-keyboard-response","83","403384","0.0-6.0-3.25","","null","","","<div class='trialBorder'><div class='vertical-center'><img style='vertical-align:center; align:center' src=img/fixation3.jpg></div><div class='cl'><div class='vertical-center'><font style='color:orange'>$80<br>for<br>David W</font></div></div><div class='cr'><div class='vertical-center'>$33<br>for<br>yourself</div></div><div class='respDivL'><div class='vertical-center'><font style='color:orange'>(E)</font></div></div><div class='respDivR'><div class='vertical-center'>(I)</div></div></div>","null","$33<br>for<br>yourself","$80<br>for<br>2","1","33","80","2",""
"","","","FIX","63d9f31dba727de153019798","bdp_sd","Sun Apr 09 2023 18:52:41 GMT-0400 (Eastern Daylight Time)","407195","html-keyboard-response","84","403885","0.0-6.0-1.26","","null","","","<div class='trialBorder'><div class='vertical-center'><img style='vertical-align:center; align:center' src=img/fixation3.jpg></div></div>","null","","","","","","",""
"","","","offer","63d9f31dba727de153019798","bdp_sd","Sun Apr 09 2023 18:52:41 GMT-0400 (Eastern Daylight Time)","407195","html-keyboard-response","85","405919","0.0-6.0-2.26","","2033","","","<div class='trialBorder'><div class='vertical-center'><img style='vertical-align:center; align:center' src=img/fixation3.jpg></div><div class='cl'><div class='vertical-center'>$22<br>for<br>yourself</div></div><div class='cr'><div class='vertical-center'>$25<br>for<br>Gabrial J</div></div><div class='respDivL'><div class='vertical-center'>(E)</div></div><div class='respDivR'><div class='vertical-center'>(I)</div></div></div>","E","$22<br>for<br>yourself","$25<br>for<br>5","0","22","25","5","SELF"
"","","","offerFB","63d9f31dba727de153019798","bdp_sd","Sun Apr 09 2023 18:52:41 GMT-0400 (Eastern Daylight Time)","407195","html-keyboard-response","86","406192","0.0-6.0-3.26","","null","","","<div class='trialBorder'><div class='vertical-center'><img style='vertical-align:center; align:center' src=img/fixation3.jpg></div><div class='cl'><div class='vertical-center'><font style='color:orange'>$22<br>for<br>yourself</font></div></div><div class='cr'><div class='vertical-center'>$25<br>for<br>Gabrial J</div></div><div class='respDivL'><div class='vertical-center'><font style='color:orange'>(E)</font></div></div><div class='respDivR'><div class='vertical-center'>(I)</div></div></div>","null","$22<br>for<br>yourself","$25<br>for<br>5","0","22","25","5",""
"fullscreenexit","87","406447","fullscreenexit","63d9f31dba727de153019798","bdp_sd","Sun Apr 09 2023 18:52:41 GMT-0400 (Eastern Daylight Time)","407195","","","","","","","","","","","","","","","","",""
"","","","","63d9f31dba727de153019798","bdp_sd","Sun Apr 09 2023 18:52:41 GMT-0400 (Eastern Daylight Time)","407195","fullscreen","87","407194","0.0-7.0","","","","true","","","","","","","","",""
"","","","","","","","","html-keyboard-response","88","407695","0.0-8.0","","null","","","","null","","","","","","",""
