"trial_type","trial_index","time_elapsed","internal_node_id","subject_id","task","startTime","totalTime","view_history","rt","responses","event","trial","time","trialtype","success","stimulus","key_press","selfOffer","otherOffer","otherLeft","selfAmt","otherAmt","otherDist","chosen"
"pavlovia","0","12","0.0-0.0","63ead665638c8546d8c3a962","bdp_sd","Sat Mar 25 2023 20:46:06 GMT-0400 (Eastern Daylight Time)","213242","","","","","","","","","","","","","","","","",""
"instructions","1","2062","0.0-1.0","63ead665638c8546d8c3a962","bdp_sd","Sat Mar 25 2023 20:46:06 GMT-0400 (Eastern Daylight Time)","213242","[{""page_index"":0,""viewing_time"":2049}]","2049","","","","","","","","","","","","","","",""
"survey-text","2","87597","0.0-2.0","63ead665638c8546d8c3a962","bdp_sd","Sat Mar 25 2023 20:46:06 GMT-0400 (Eastern Daylight Time)","213242","","85532","{""Q0"":""Charlie B"",""Q1"":""Haley H"",""Q2"":""Kristin H"",""Q3"":""Jamie S"",""Q4"":""Christy M""}","","","","","","","","","","","","","",""
"","","","","63ead665638c8546d8c3a962","bdp_sd","Sat Mar 25 2023 20:46:06 GMT-0400 (Eastern Daylight Time)","213242","","","","fullscreenenter","3","89038","fullscreenenter","","","","","","","","","",""
"fullscreen","3","90018","0.0-3.0","63ead665638c8546d8c3a962","bdp_sd","Sat Mar 25 2023 20:46:06 GMT-0400 (Eastern Daylight Time)","213242","","","","","","","","true","","","","","","","","",""
"instructions","4","127936","0.0-5.0","63ead665638c8546d8c3a962","bdp_sd","Sat Mar 25 2023 20:46:06 GMT-0400 (Eastern Daylight Time)","213242","[{""page_index"":0,""viewing_time"":13659},{""page_index"":1,""viewing_time"":14770},{""page_index"":2,""viewing_time"":9486}]","37916","","","","","","","","","","","","","","",""
"html-keyboard-response","5","128444","0.0-6.0-1.0","63ead665638c8546d8c3a962","bdp_sd","Sat Mar 25 2023 20:46:06 GMT-0400 (Eastern Daylight Time)","213242","","null","","","","","FIX","","<div class='trialBorder'><div class='vertical-center'><img style='vertical-align:center; align:center' src=img/fixation3.jpg></div></div>","null","","","","","","",""
"html-keyboard-response","6","138446","0.0-6.0-2.0","63ead665638c8546d8c3a962","bdp_sd","Sat Mar 25 2023 20:46:06 GMT-0400 (Eastern Daylight Time)","213242","","9999","","","","","offer","","<div class='trialBorder'><div class='vertical-center'><img style='vertical-align:center; align:center' src=img/fixation3.jpg></div><div class='cl'><div class='vertical-center'>$41<br>for<br>yourself</div></div><div class='cr'><div class='vertical-center'>$75<br>for<br>Kristin H</div></div><div class='respDivL'><div class='vertical-center'>(E)</div></div><div class='respDivR'><div class='vertical-center'>(I)</div></div></div>","I","$41<br>for<br>yourself","$75<br>for<br>3","0","41","75","3","OTHER"
"html-keyboard-response","7","138709","0.0-6.0-3.0","63ead665638c8546d8c3a962","bdp_sd","Sat Mar 25 2023 20:46:06 GMT-0400 (Eastern Daylight Time)","213242","","null","","","","","offerFB","","<div class='trialBorder'><div class='vertical-center'><img style='vertical-align:center; align:center' src=img/fixation3.jpg></div><div class='cl'><div class='vertical-center'>$41<br>for<br>yourself</div></div><div class='cr'><div class='vertical-center'><font style='color:orange'>$75<br>for<br>Kristin H</font></div></div><div class='respDivL'><div class='vertical-center'>(E)</div></div><div class='respDivR'><div class='vertical-center'><font style='color:orange'>(I)</font></div></div></div>","null","$41<br>for<br>yourself","$75<br>for<br>3","0","41","75","3",""
"html-keyboard-response","8","139219","0.0-6.0-1.1","63ead665638c8546d8c3a962","bdp_sd","Sat Mar 25 2023 20:46:06 GMT-0400 (Eastern Daylight Time)","213242","","null","","","","","FIX","","<div class='trialBorder'><div class='vertical-center'><img style='vertical-align:center; align:center' src=img/fixation3.jpg></div></div>","null","","","","","","",""
"html-keyboard-response","9","141414","0.0-6.0-2.1","63ead665638c8546d8c3a962","bdp_sd","Sat Mar 25 2023 20:46:06 GMT-0400 (Eastern Daylight Time)","213242","","2193","","","","","offer","","<div class='trialBorder'><div class='vertical-center'><img style='vertical-align:center; align:center' src=img/fixation3.jpg></div><div class='cl'><div class='vertical-center'>$67<br>for<br>yourself</div></div><div class='cr'><div class='vertical-center'>$75<br>for<br>Christy M</div></div><div class='respDivL'><div class='vertical-center'>(E)</div></div><div class='respDivR'><div class='vertical-center'>(I)</div></div></div>","I","$67<br>for<br>yourself","$75<br>for<br>5","0","67","75","5","OTHER"
"html-keyboard-response","10","141672","0.0-6.0-3.1","63ead665638c8546d8c3a962","bdp_sd","Sat Mar 25 2023 20:46:06 GMT-0400 (Eastern Daylight Time)","213242","","null","","","","","offerFB","","<div class='trialBorder'><div class='vertical-center'><img style='vertical-align:center; align:center' src=img/fixation3.jpg></div><div class='cl'><div class='vertical-center'>$67<br>for<br>yourself</div></div><div class='cr'><div class='vertical-center'><font style='color:orange'>$75<br>for<br>Christy M</font></div></div><div class='respDivL'><div class='vertical-center'>(E)</div></div><div class='respDivR'><div class='vertical-center'><font style='color:orange'>(I)</font></div></div></div>","null","$67<br>for<br>yourself","$75<br>for<br>5","0","67","75","5",""
"html-keyboard-response","11","142181","0.0-6.0-1.2","63ead665638c8546d8c3a962","bdp_sd","Sat Mar 25 2023 20:46:06 GMT-0400 (Eastern Daylight Time)","213242","","null","","","","","FIX","","<div class='trialBorder'><div class='vertical-center'><img style='vertical-align:center; align:center' src=img/fixation3.jpg></div></div>","null","","","","","","",""
"html-keyboard-response","12","144192","0.0-6.0-2.2","63ead665638c8546d8c3a962","bdp_sd","Sat Mar 25 2023 20:46:06 GMT-0400 (Eastern Daylight Time)","213242","","2008","","","","","offer","","<div class='trialBorder'><div class='vertical-center'><img style='vertical-align:center; align:center' src=img/fixation3.jpg></div><div class='cl'><div class='vertical-center'>$40<br>for<br>yourself</div></div><div class='cr'><div class='vertical-center'>$55<br>for<br>Jamie S</div></div><div class='respDivL'><div class='vertical-center'>(E)</div></div><div class='respDivR'><div class='vertical-center'>(I)</div></div></div>","E","$40<br>for<br>yourself","$55<br>for<br>4","0","40","55","4","SELF"
"html-keyboard-response","13","144445","0.0-6.0-3.2","63ead665638c8546d8c3a962","bdp_sd","Sat Mar 25 2023 20:46:06 GMT-0400 (Eastern Daylight Time)","213242","","null","","","","","offerFB","","<div class='trialBorder'><div class='vertical-center'><img style='vertical-align:center; align:center' src=img/fixation3.jpg></div><div class='cl'><div class='vertical-center'><font style='color:orange'>$40<br>for<br>yourself</font></div></div><div class='cr'><div class='vertical-center'>$55<br>for<br>Jamie S</div></div><div class='respDivL'><div class='vertical-center'><font style='color:orange'>(E)</font></div></div><div class='respDivR'><div class='vertical-center'>(I)</div></div></div>","null","$40<br>for<br>yourself","$55<br>for<br>4","0","40","55","4",""
"html-keyboard-response","14","144955","0.0-6.0-1.3","63ead665638c8546d8c3a962","bdp_sd","Sat Mar 25 2023 20:46:06 GMT-0400 (Eastern Daylight Time)","213242","","null","","","","","FIX","","<div class='trialBorder'><div class='vertical-center'><img style='vertical-align:center; align:center' src=img/fixation3.jpg></div></div>","null","","","","","","",""
"html-keyboard-response","15","148711","0.0-6.0-2.3","63ead665638c8546d8c3a962","bdp_sd","Sat Mar 25 2023 20:46:06 GMT-0400 (Eastern Daylight Time)","213242","","3753","","","","","offer","","<div class='trialBorder'><div class='vertical-center'><img style='vertical-align:center; align:center' src=img/fixation3.jpg></div><div class='cl'><div class='vertical-center'>$34<br>for<br>yourself</div></div><div class='cr'><div class='vertical-center'>$35<br>for<br>Christy M</div></div><div class='respDivL'><div class='vertical-center'>(E)</div></div><div class='respDivR'><div class='vertical-center'>(I)</div></div></div>","I","$34<br>for<br>yourself","$35<br>for<br>5","0","34","35","5","OTHER"
"html-keyboard-response","16","148964","0.0-6.0-3.3","63ead665638c8546d8c3a962","bdp_sd","Sat Mar 25 2023 20:46:06 GMT-0400 (Eastern Daylight Time)","213242","","null","","","","","offerFB","","<div class='trialBorder'><div class='vertical-center'><img style='vertical-align:center; align:center' src=img/fixation3.jpg></div><div class='cl'><div class='vertical-center'>$34<br>for<br>yourself</div></div><div class='cr'><div class='vertical-center'><font style='color:orange'>$35<br>for<br>Christy M</font></div></div><div class='respDivL'><div class='vertical-center'>(E)</div></div><div class='respDivR'><div class='vertical-center'><font style='color:orange'>(I)</font></div></div></div>","null","$34<br>for<br>yourself","$35<br>for<br>5","0","34","35","5",""
"html-keyboard-response","17","149473","0.0-6.0-1.4","63ead665638c8546d8c3a962","bdp_sd","Sat Mar 25 2023 20:46:06 GMT-0400 (Eastern Daylight Time)","213242","","null","","","","","FIX","","<div class='trialBorder'><div class='vertical-center'><img style='vertical-align:center; align:center' src=img/fixation3.jpg></div></div>","null","","","","","","",""
"html-keyboard-response","18","156368","0.0-6.0-2.4","63ead665638c8546d8c3a962","bdp_sd","Sat Mar 25 2023 20:46:06 GMT-0400 (Eastern Daylight Time)","213242","","6893","","","","","offer","","<div class='trialBorder'><div class='vertical-center'><img style='vertical-align:center; align:center' src=img/fixation3.jpg></div><div class='cl'><div class='vertical-center'>$80<br>for<br>Haley H</div></div><div class='cr'><div class='vertical-center'>$33<br>for<br>yourself</div></div><div class='respDivL'><div class='vertical-center'>(E)</div></div><div class='respDivR'><div class='vertical-center'>(I)</div></div></div>","I","$33<br>for<br>yourself","$80<br>for<br>2","1","33","80","2","SELF"
"html-keyboard-response","19","156624","0.0-6.0-3.4","63ead665638c8546d8c3a962","bdp_sd","Sat Mar 25 2023 20:46:06 GMT-0400 (Eastern Daylight Time)","213242","","null","","","","","offerFB","","<div class='trialBorder'><div class='vertical-center'><img style='vertical-align:center; align:center' src=img/fixation3.jpg></div><div class='cl'><div class='vertical-center'>$80<br>for<br>Haley H</div></div><div class='cr'><div class='vertical-center'><font style='color:orange'>$33<br>for<br>yourself</font></div></div><div class='respDivL'><div class='vertical-center'>(E)</div></div><div class='respDivR'><div class='vertical-center'><font style='color:orange'>(I)</font></div></div></div>","null","$33<br>for<br>yourself","$80<br>for<br>2","1","33","80","2",""
"html-keyboard-response","20","157141","0.0-6.0-1.5","63ead665638c8546d8c3a962","bdp_sd","Sat Mar 25 2023 20:46:06 GMT-0400 (Eastern Daylight Time)","213242","","null","","","","","FIX","","<div class='trialBorder'><div class='vertical-center'><img style='vertical-align:center; align:center' src=img/fixation3.jpg></div></div>","null","","","","","","",""
"html-keyboard-response","21","158979","0.0-6.0-2.5","63ead665638c8546d8c3a962","bdp_sd","Sat Mar 25 2023 20:46:06 GMT-0400 (Eastern Daylight Time)","213242","","1835","","","","","offer","","<div class='trialBorder'><div class='vertical-center'><img style='vertical-align:center; align:center' src=img/fixation3.jpg></div><div class='cl'><div class='vertical-center'>$27<br>for<br>yourself</div></div><div class='cr'><div class='vertical-center'>$50<br>for<br>Kristin H</div></div><div class='respDivL'><div class='vertical-center'>(E)</div></div><div class='respDivR'><div class='vertical-center'>(I)</div></div></div>","I","$27<br>for<br>yourself","$50<br>for<br>3","0","27","50","3","OTHER"
"html-keyboard-response","22","159234","0.0-6.0-3.5","63ead665638c8546d8c3a962","bdp_sd","Sat Mar 25 2023 20:46:06 GMT-0400 (Eastern Daylight Time)","213242","","null","","","","","offerFB","","<div class='trialBorder'><div class='vertical-center'><img style='vertical-align:center; align:center' src=img/fixation3.jpg></div><div class='cl'><div class='vertical-center'>$27<br>for<br>yourself</div></div><div class='cr'><div class='vertical-center'><font style='color:orange'>$50<br>for<br>Kristin H</font></div></div><div class='respDivL'><div class='vertical-center'>(E)</div></div><div class='respDivR'><div class='vertical-center'><font style='color:orange'>(I)</font></div></div></div>","null","$27<br>for<br>yourself","$50<br>for<br>3","0","27","50","3",""
"html-keyboard-response","23","159743","0.0-6.0-1.6","63ead665638c8546d8c3a962","bdp_sd","Sat Mar 25 2023 20:46:06 GMT-0400 (Eastern Daylight Time)","213242","","null","","","","","FIX","","<div class='trialBorder'><div class='vertical-center'><img style='vertical-align:center; align:center' src=img/fixation3.jpg></div></div>","null","","","","","","",""
"html-keyboard-response","24","160983","0.0-6.0-2.6","63ead665638c8546d8c3a962","bdp_sd","Sat Mar 25 2023 20:46:06 GMT-0400 (Eastern Daylight Time)","213242","","1237","","","","","offer","","<div class='trialBorder'><div class='vertical-center'><img style='vertical-align:center; align:center' src=img/fixation3.jpg></div><div class='cl'><div class='vertical-center'>$60<br>for<br>Kristin H</div></div><div class='cr'><div class='vertical-center'>$25<br>for<br>yourself</div></div><div class='respDivL'><div class='vertical-center'>(E)</div></div><div class='respDivR'><div class='vertical-center'>(I)</div></div></div>","E","$25<br>for<br>yourself","$60<br>for<br>3","1","25","60","3","OTHER"
"html-keyboard-response","25","161243","0.0-6.0-3.6","63ead665638c8546d8c3a962","bdp_sd","Sat Mar 25 2023 20:46:06 GMT-0400 (Eastern Daylight Time)","213242","","null","","","","","offerFB","","<div class='trialBorder'><div class='vertical-center'><img style='vertical-align:center; align:center' src=img/fixation3.jpg></div><div class='cl'><div class='vertical-center'><font style='color:orange'>$60<br>for<br>Kristin H</font></div></div><div class='cr'><div class='vertical-center'>$25<br>for<br>yourself</div></div><div class='respDivL'><div class='vertical-center'><font style='color:orange'>(E)</font></div></div><div class='respDivR'><div class='vertical-center'>(I)</div></div></div>","null","$25<br>for<br>yourself","$60<br>for<br>3","1","25","60","3",""
"html-keyboard-response","26","161753","0.0-6.0-1.7","63ead665638c8546d8c3a962","bdp_sd","Sat Mar 25 2023 20:46:06 GMT-0400 (Eastern Daylight Time)","213242","","null","","","","","FIX","","<div class='trialBorder'><div class='vertical-center'><img style='vertical-align:center; align:center' src=img/fixation3.jpg></div></div>","null","","","","","","",""
"html-keyboard-response","27","163563","0.0-6.0-2.7","63ead665638c8546d8c3a962","bdp_sd","Sat Mar 25 2023 20:46:06 GMT-0400 (Eastern Daylight Time)","213242","","1809","","","","","offer","","<div class='trialBorder'><div class='vertical-center'><img style='vertical-align:center; align:center' src=img/fixation3.jpg></div><div class='cl'><div class='vertical-center'>$50<br>for<br>Christy M</div></div><div class='cr'><div class='vertical-center'>$47<br>for<br>yourself</div></div><div class='respDivL'><div class='vertical-center'>(E)</div></div><div class='respDivR'><div class='vertical-center'>(I)</div></div></div>","E","$47<br>for<br>yourself","$50<br>for<br>5","1","47","50","5","OTHER"
"html-keyboard-response","28","163819","0.0-6.0-3.7","63ead665638c8546d8c3a962","bdp_sd","Sat Mar 25 2023 20:46:06 GMT-0400 (Eastern Daylight Time)","213242","","null","","","","","offerFB","","<div class='trialBorder'><div class='vertical-center'><img style='vertical-align:center; align:center' src=img/fixation3.jpg></div><div class='cl'><div class='vertical-center'><font style='color:orange'>$50<br>for<br>Christy M</font></div></div><div class='cr'><div class='vertical-center'>$47<br>for<br>yourself</div></div><div class='respDivL'><div class='vertical-center'><font style='color:orange'>(E)</font></div></div><div class='respDivR'><div class='vertical-center'>(I)</div></div></div>","null","$47<br>for<br>yourself","$50<br>for<br>5","1","47","50","5",""
"html-keyboard-response","29","164329","0.0-6.0-1.8","63ead665638c8546d8c3a962","bdp_sd","Sat Mar 25 2023 20:46:06 GMT-0400 (Eastern Daylight Time)","213242","","null","","","","","FIX","","<div class='trialBorder'><div class='vertical-center'><img style='vertical-align:center; align:center' src=img/fixation3.jpg></div></div>","null","","","","","","",""
"html-keyboard-response","30","169718","0.0-6.0-2.8","63ead665638c8546d8c3a962","bdp_sd","Sat Mar 25 2023 20:46:06 GMT-0400 (Eastern Daylight Time)","213242","","5388","","","","","offer","","<div class='trialBorder'><div class='vertical-center'><img style='vertical-align:center; align:center' src=img/fixation3.jpg></div><div class='cl'><div class='vertical-center'>$35<br>for<br>Haley H</div></div><div class='cr'><div class='vertical-center'>$15<br>for<br>yourself</div></div><div class='respDivL'><div class='vertical-center'>(E)</div></div><div class='respDivR'><div class='vertical-center'>(I)</div></div></div>","I","$15<br>for<br>yourself","$35<br>for<br>2","1","15","35","2","SELF"
"html-keyboard-response","31","169972","0.0-6.0-3.8","63ead665638c8546d8c3a962","bdp_sd","Sat Mar 25 2023 20:46:06 GMT-0400 (Eastern Daylight Time)","213242","","null","","","","","offerFB","","<div class='trialBorder'><div class='vertical-center'><img style='vertical-align:center; align:center' src=img/fixation3.jpg></div><div class='cl'><div class='vertical-center'>$35<br>for<br>Haley H</div></div><div class='cr'><div class='vertical-center'><font style='color:orange'>$15<br>for<br>yourself</font></div></div><div class='respDivL'><div class='vertical-center'>(E)</div></div><div class='respDivR'><div class='vertical-center'><font style='color:orange'>(I)</font></div></div></div>","null","$15<br>for<br>yourself","$35<br>for<br>2","1","15","35","2",""
"html-keyboard-response","32","170481","0.0-6.0-1.9","63ead665638c8546d8c3a962","bdp_sd","Sat Mar 25 2023 20:46:06 GMT-0400 (Eastern Daylight Time)","213242","","null","","","","","FIX","","<div class='trialBorder'><div class='vertical-center'><img style='vertical-align:center; align:center' src=img/fixation3.jpg></div></div>","null","","","","","","",""
"html-keyboard-response","33","172783","0.0-6.0-2.9","63ead665638c8546d8c3a962","bdp_sd","Sat Mar 25 2023 20:46:06 GMT-0400 (Eastern Daylight Time)","213242","","2300","","","","","offer","","<div class='trialBorder'><div class='vertical-center'><img style='vertical-align:center; align:center' src=img/fixation3.jpg></div><div class='cl'><div class='vertical-center'>$19<br>for<br>yourself</div></div><div class='cr'><div class='vertical-center'>$25<br>for<br>Jamie S</div></div><div class='respDivL'><div class='vertical-center'>(E)</div></div><div class='respDivR'><div class='vertical-center'>(I)</div></div></div>","E","$19<br>for<br>yourself","$25<br>for<br>4","0","19","25","4","SELF"
"html-keyboard-response","34","173043","0.0-6.0-3.9","63ead665638c8546d8c3a962","bdp_sd","Sat Mar 25 2023 20:46:06 GMT-0400 (Eastern Daylight Time)","213242","","null","","","","","offerFB","","<div class='trialBorder'><div class='vertical-center'><img style='vertical-align:center; align:center' src=img/fixation3.jpg></div><div class='cl'><div class='vertical-center'><font style='color:orange'>$19<br>for<br>yourself</font></div></div><div class='cr'><div class='vertical-center'>$25<br>for<br>Jamie S</div></div><div class='respDivL'><div class='vertical-center'><font style='color:orange'>(E)</font></div></div><div class='respDivR'><div class='vertical-center'>(I)</div></div></div>","null","$19<br>for<br>yourself","$25<br>for<br>4","0","19","25","4",""
"html-keyboard-response","35","173552","0.0-6.0-1.10","63ead665638c8546d8c3a962","bdp_sd","Sat Mar 25 2023 20:46:06 GMT-0400 (Eastern Daylight Time)","213242","","null","","","","","FIX","","<div class='trialBorder'><div class='vertical-center'><img style='vertical-align:center; align:center' src=img/fixation3.jpg></div></div>","null","","","","","","",""
"html-keyboard-response","36","175079","0.0-6.0-2.10","63ead665638c8546d8c3a962","bdp_sd","Sat Mar 25 2023 20:46:06 GMT-0400 (Eastern Daylight Time)","213242","","1526","","","","","offer","","<div class='trialBorder'><div class='vertical-center'><img style='vertical-align:center; align:center' src=img/fixation3.jpg></div><div class='cl'><div class='vertical-center'>$28<br>for<br>yourself</div></div><div class='cr'><div class='vertical-center'>$30<br>for<br>Christy M</div></div><div class='respDivL'><div class='vertical-center'>(E)</div></div><div class='respDivR'><div class='vertical-center'>(I)</div></div></div>","I","$28<br>for<br>yourself","$30<br>for<br>5","0","28","30","5","OTHER"
"html-keyboard-response","37","175336","0.0-6.0-3.10","63ead665638c8546d8c3a962","bdp_sd","Sat Mar 25 2023 20:46:06 GMT-0400 (Eastern Daylight Time)","213242","","null","","","","","offerFB","","<div class='trialBorder'><div class='vertical-center'><img style='vertical-align:center; align:center' src=img/fixation3.jpg></div><div class='cl'><div class='vertical-center'>$28<br>for<br>yourself</div></div><div class='cr'><div class='vertical-center'><font style='color:orange'>$30<br>for<br>Christy M</font></div></div><div class='respDivL'><div class='vertical-center'>(E)</div></div><div class='respDivR'><div class='vertical-center'><font style='color:orange'>(I)</font></div></div></div>","null","$28<br>for<br>yourself","$30<br>for<br>5","0","28","30","5",""
"html-keyboard-response","38","175842","0.0-6.0-1.11","63ead665638c8546d8c3a962","bdp_sd","Sat Mar 25 2023 20:46:06 GMT-0400 (Eastern Daylight Time)","213242","","null","","","","","FIX","","<div class='trialBorder'><div class='vertical-center'><img style='vertical-align:center; align:center' src=img/fixation3.jpg></div></div>","null","","","","","","",""
"html-keyboard-response","39","178965","0.0-6.0-2.11","63ead665638c8546d8c3a962","bdp_sd","Sat Mar 25 2023 20:46:06 GMT-0400 (Eastern Daylight Time)","213242","","3120","","","","","offer","","<div class='trialBorder'><div class='vertical-center'><img style='vertical-align:center; align:center' src=img/fixation3.jpg></div><div class='cl'><div class='vertical-center'>$54<br>for<br>yourself</div></div><div class='cr'><div class='vertical-center'>$80<br>for<br>Kristin H</div></div><div class='respDivL'><div class='vertical-center'>(E)</div></div><div class='respDivR'><div class='vertical-center'>(I)</div></div></div>","I","$54<br>for<br>yourself","$80<br>for<br>3","0","54","80","3","OTHER"
"html-keyboard-response","40","179219","0.0-6.0-3.11","63ead665638c8546d8c3a962","bdp_sd","Sat Mar 25 2023 20:46:06 GMT-0400 (Eastern Daylight Time)","213242","","null","","","","","offerFB","","<div class='trialBorder'><div class='vertical-center'><img style='vertical-align:center; align:center' src=img/fixation3.jpg></div><div class='cl'><div class='vertical-center'>$54<br>for<br>yourself</div></div><div class='cr'><div class='vertical-center'><font style='color:orange'>$80<br>for<br>Kristin H</font></div></div><div class='respDivL'><div class='vertical-center'>(E)</div></div><div class='respDivR'><div class='vertical-center'><font style='color:orange'>(I)</font></div></div></div>","null","$54<br>for<br>yourself","$80<br>for<br>3","0","54","80","3",""
"html-keyboard-response","41","179724","0.0-6.0-1.12","63ead665638c8546d8c3a962","bdp_sd","Sat Mar 25 2023 20:46:06 GMT-0400 (Eastern Daylight Time)","213242","","null","","","","","FIX","","<div class='trialBorder'><div class='vertical-center'><img style='vertical-align:center; align:center' src=img/fixation3.jpg></div></div>","null","","","","","","",""
"html-keyboard-response","42","181610","0.0-6.0-2.12","63ead665638c8546d8c3a962","bdp_sd","Sat Mar 25 2023 20:46:06 GMT-0400 (Eastern Daylight Time)","213242","","1883","","","","","offer","","<div class='trialBorder'><div class='vertical-center'><img style='vertical-align:center; align:center' src=img/fixation3.jpg></div><div class='cl'><div class='vertical-center'>$85<br>for<br>Charlie B</div></div><div class='cr'><div class='vertical-center'>$31<br>for<br>yourself</div></div><div class='respDivL'><div class='vertical-center'>(E)</div></div><div class='respDivR'><div class='vertical-center'>(I)</div></div></div>","E","$31<br>for<br>yourself","$85<br>for<br>1","1","31","85","1","OTHER"
"html-keyboard-response","43","181865","0.0-6.0-3.12","63ead665638c8546d8c3a962","bdp_sd","Sat Mar 25 2023 20:46:06 GMT-0400 (Eastern Daylight Time)","213242","","null","","","","","offerFB","","<div class='trialBorder'><div class='vertical-center'><img style='vertical-align:center; align:center' src=img/fixation3.jpg></div><div class='cl'><div class='vertical-center'><font style='color:orange'>$85<br>for<br>Charlie B</font></div></div><div class='cr'><div class='vertical-center'>$31<br>for<br>yourself</div></div><div class='respDivL'><div class='vertical-center'><font style='color:orange'>(E)</font></div></div><div class='respDivR'><div class='vertical-center'>(I)</div></div></div>","null","$31<br>for<br>yourself","$85<br>for<br>1","1","31","85","1",""
"html-keyboard-response","44","182375","0.0-6.0-1.13","63ead665638c8546d8c3a962","bdp_sd","Sat Mar 25 2023 20:46:06 GMT-0400 (Eastern Daylight Time)","213242","","null","","","","","FIX","","<div class='trialBorder'><div class='vertical-center'><img style='vertical-align:center; align:center' src=img/fixation3.jpg></div></div>","null","","","","","","",""
"html-keyboard-response","45","185697","0.0-6.0-2.13","63ead665638c8546d8c3a962","bdp_sd","Sat Mar 25 2023 20:46:06 GMT-0400 (Eastern Daylight Time)","213242","","3320","","","","","offer","","<div class='trialBorder'><div class='vertical-center'><img style='vertical-align:center; align:center' src=img/fixation3.jpg></div><div class='cl'><div class='vertical-center'>$30<br>for<br>Haley H</div></div><div class='cr'><div class='vertical-center'>$11<br>for<br>yourself</div></div><div class='respDivL'><div class='vertical-center'>(E)</div></div><div class='respDivR'><div class='vertical-center'>(I)</div></div></div>","I","$11<br>for<br>yourself","$30<br>for<br>2","1","11","30","2","SELF"
"html-keyboard-response","46","185958","0.0-6.0-3.13","63ead665638c8546d8c3a962","bdp_sd","Sat Mar 25 2023 20:46:06 GMT-0400 (Eastern Daylight Time)","213242","","null","","","","","offerFB","","<div class='trialBorder'><div class='vertical-center'><img style='vertical-align:center; align:center' src=img/fixation3.jpg></div><div class='cl'><div class='vertical-center'>$30<br>for<br>Haley H</div></div><div class='cr'><div class='vertical-center'><font style='color:orange'>$11<br>for<br>yourself</font></div></div><div class='respDivL'><div class='vertical-center'>(E)</div></div><div class='respDivR'><div class='vertical-center'><font style='color:orange'>(I)</font></div></div></div>","null","$11<br>for<br>yourself","$30<br>for<br>2","1","11","30","2",""
"html-keyboard-response","47","186467","0.0-6.0-1.14","63ead665638c8546d8c3a962","bdp_sd","Sat Mar 25 2023 20:46:06 GMT-0400 (Eastern Daylight Time)","213242","","null","","","","","FIX","","<div class='trialBorder'><div class='vertical-center'><img style='vertical-align:center; align:center' src=img/fixation3.jpg></div></div>","null","","","","","","",""
"html-keyboard-response","48","187830","0.0-6.0-2.14","63ead665638c8546d8c3a962","bdp_sd","Sat Mar 25 2023 20:46:06 GMT-0400 (Eastern Daylight Time)","213242","","1360","","","","","offer","","<div class='trialBorder'><div class='vertical-center'><img style='vertical-align:center; align:center' src=img/fixation3.jpg></div><div class='cl'><div class='vertical-center'>$50<br>for<br>Jamie S</div></div><div class='cr'><div class='vertical-center'>$34<br>for<br>yourself</div></div><div class='respDivL'><div class='vertical-center'>(E)</div></div><div class='respDivR'><div class='vertical-center'>(I)</div></div></div>","I","$34<br>for<br>yourself","$50<br>for<br>4","1","34","50","4","SELF"
"html-keyboard-response","49","188082","0.0-6.0-3.14","63ead665638c8546d8c3a962","bdp_sd","Sat Mar 25 2023 20:46:06 GMT-0400 (Eastern Daylight Time)","213242","","null","","","","","offerFB","","<div class='trialBorder'><div class='vertical-center'><img style='vertical-align:center; align:center' src=img/fixation3.jpg></div><div class='cl'><div class='vertical-center'>$50<br>for<br>Jamie S</div></div><div class='cr'><div class='vertical-center'><font style='color:orange'>$34<br>for<br>yourself</font></div></div><div class='respDivL'><div class='vertical-center'>(E)</div></div><div class='respDivR'><div class='vertical-center'><font style='color:orange'>(I)</font></div></div></div>","null","$34<br>for<br>yourself","$50<br>for<br>4","1","34","50","4",""
"html-keyboard-response","50","188590","0.0-6.0-1.15","63ead665638c8546d8c3a962","bdp_sd","Sat Mar 25 2023 20:46:06 GMT-0400 (Eastern Daylight Time)","213242","","null","","","","","FIX","","<div class='trialBorder'><div class='vertical-center'><img style='vertical-align:center; align:center' src=img/fixation3.jpg></div></div>","null","","","","","","",""
"html-keyboard-response","51","189636","0.0-6.0-2.15","63ead665638c8546d8c3a962","bdp_sd","Sat Mar 25 2023 20:46:06 GMT-0400 (Eastern Daylight Time)","213242","","1043","","","","","offer","","<div class='trialBorder'><div class='vertical-center'><img style='vertical-align:center; align:center' src=img/fixation3.jpg></div><div class='cl'><div class='vertical-center'>$25<br>for<br>Christy M</div></div><div class='cr'><div class='vertical-center'>$22<br>for<br>yourself</div></div><div class='respDivL'><div class='vertical-center'>(E)</div></div><div class='respDivR'><div class='vertical-center'>(I)</div></div></div>","E","$22<br>for<br>yourself","$25<br>for<br>5","1","22","25","5","OTHER"
"html-keyboard-response","52","189890","0.0-6.0-3.15","63ead665638c8546d8c3a962","bdp_sd","Sat Mar 25 2023 20:46:06 GMT-0400 (Eastern Daylight Time)","213242","","null","","","","","offerFB","","<div class='trialBorder'><div class='vertical-center'><img style='vertical-align:center; align:center' src=img/fixation3.jpg></div><div class='cl'><div class='vertical-center'><font style='color:orange'>$25<br>for<br>Christy M</font></div></div><div class='cr'><div class='vertical-center'>$22<br>for<br>yourself</div></div><div class='respDivL'><div class='vertical-center'><font style='color:orange'>(E)</font></div></div><div class='respDivR'><div class='vertical-center'>(I)</div></div></div>","null","$22<br>for<br>yourself","$25<br>for<br>5","1","22","25","5",""
"html-keyboard-response","53","190395","0.0-6.0-1.16","63ead665638c8546d8c3a962","bdp_sd","Sat Mar 25 2023 20:46:06 GMT-0400 (Eastern Daylight Time)","213242","","null","","","","","FIX","","<div class='trialBorder'><div class='vertical-center'><img style='vertical-align:center; align:center' src=img/fixation3.jpg></div></div>","null","","","","","","",""
"html-keyboard-response","54","191399","0.0-6.0-2.16","63ead665638c8546d8c3a962","bdp_sd","Sat Mar 25 2023 20:46:06 GMT-0400 (Eastern Daylight Time)","213242","","1002","","","","","offer","","<div class='trialBorder'><div class='vertical-center'><img style='vertical-align:center; align:center' src=img/fixation3.jpg></div><div class='cl'><div class='vertical-center'>$75<br>for<br>Jamie S</div></div><div class='cr'><div class='vertical-center'>$55<br>for<br>yourself</div></div><div class='respDivL'><div class='vertical-center'>(E)</div></div><div class='respDivR'><div class='vertical-center'>(I)</div></div></div>","I","$55<br>for<br>yourself","$75<br>for<br>4","1","55","75","4","SELF"
"html-keyboard-response","55","191661","0.0-6.0-3.16","63ead665638c8546d8c3a962","bdp_sd","Sat Mar 25 2023 20:46:06 GMT-0400 (Eastern Daylight Time)","213242","","null","","","","","offerFB","","<div class='trialBorder'><div class='vertical-center'><img style='vertical-align:center; align:center' src=img/fixation3.jpg></div><div class='cl'><div class='vertical-center'>$75<br>for<br>Jamie S</div></div><div class='cr'><div class='vertical-center'><font style='color:orange'>$55<br>for<br>yourself</font></div></div><div class='respDivL'><div class='vertical-center'>(E)</div></div><div class='respDivR'><div class='vertical-center'><font style='color:orange'>(I)</font></div></div></div>","null","$55<br>for<br>yourself","$75<br>for<br>4","1","55","75","4",""
"html-keyboard-response","56","192165","0.0-6.0-1.17","63ead665638c8546d8c3a962","bdp_sd","Sat Mar 25 2023 20:46:06 GMT-0400 (Eastern Daylight Time)","213242","","null","","","","","FIX","","<div class='trialBorder'><div class='vertical-center'><img style='vertical-align:center; align:center' src=img/fixation3.jpg></div></div>","null","","","","","","",""
"html-keyboard-response","57","193108","0.0-6.0-2.17","63ead665638c8546d8c3a962","bdp_sd","Sat Mar 25 2023 20:46:06 GMT-0400 (Eastern Daylight Time)","213242","","941","","","","","offer","","<div class='trialBorder'><div class='vertical-center'><img style='vertical-align:center; align:center' src=img/fixation3.jpg></div><div class='cl'><div class='vertical-center'>$54<br>for<br>yourself</div></div><div class='cr'><div class='vertical-center'>$60<br>for<br>Christy M</div></div><div class='respDivL'><div class='vertical-center'>(E)</div></div><div class='respDivR'><div class='vertical-center'>(I)</div></div></div>","I","$54<br>for<br>yourself","$60<br>for<br>5","0","54","60","5","OTHER"
"html-keyboard-response","58","193368","0.0-6.0-3.17","63ead665638c8546d8c3a962","bdp_sd","Sat Mar 25 2023 20:46:06 GMT-0400 (Eastern Daylight Time)","213242","","null","","","","","offerFB","","<div class='trialBorder'><div class='vertical-center'><img style='vertical-align:center; align:center' src=img/fixation3.jpg></div><div class='cl'><div class='vertical-center'>$54<br>for<br>yourself</div></div><div class='cr'><div class='vertical-center'><font style='color:orange'>$60<br>for<br>Christy M</font></div></div><div class='respDivL'><div class='vertical-center'>(E)</div></div><div class='respDivR'><div class='vertical-center'><font style='color:orange'>(I)</font></div></div></div>","null","$54<br>for<br>yourself","$60<br>for<br>5","0","54","60","5",""
"html-keyboard-response","59","193876","0.0-6.0-1.18","63ead665638c8546d8c3a962","bdp_sd","Sat Mar 25 2023 20:46:06 GMT-0400 (Eastern Daylight Time)","213242","","null","","","","","FIX","","<div class='trialBorder'><div class='vertical-center'><img style='vertical-align:center; align:center' src=img/fixation3.jpg></div></div>","null","","","","","","",""
"html-keyboard-response","60","195067","0.0-6.0-2.18","63ead665638c8546d8c3a962","bdp_sd","Sat Mar 25 2023 20:46:06 GMT-0400 (Eastern Daylight Time)","213242","","1188","","","","","offer","","<div class='trialBorder'><div class='vertical-center'><img style='vertical-align:center; align:center' src=img/fixation3.jpg></div><div class='cl'><div class='vertical-center'>$54<br>for<br>yourself</div></div><div class='cr'><div class='vertical-center'>$55<br>for<br>Christy M</div></div><div class='respDivL'><div class='vertical-center'>(E)</div></div><div class='respDivR'><div class='vertical-center'>(I)</div></div></div>","I","$54<br>for<br>yourself","$55<br>for<br>5","0","54","55","5","OTHER"
"html-keyboard-response","61","195327","0.0-6.0-3.18","63ead665638c8546d8c3a962","bdp_sd","Sat Mar 25 2023 20:46:06 GMT-0400 (Eastern Daylight Time)","213242","","null","","","","","offerFB","","<div class='trialBorder'><div class='vertical-center'><img style='vertical-align:center; align:center' src=img/fixation3.jpg></div><div class='cl'><div class='vertical-center'>$54<br>for<br>yourself</div></div><div class='cr'><div class='vertical-center'><font style='color:orange'>$55<br>for<br>Christy M</font></div></div><div class='respDivL'><div class='vertical-center'>(E)</div></div><div class='respDivR'><div class='vertical-center'><font style='color:orange'>(I)</font></div></div></div>","null","$54<br>for<br>yourself","$55<br>for<br>5","0","54","55","5",""
"html-keyboard-response","62","195836","0.0-6.0-1.19","63ead665638c8546d8c3a962","bdp_sd","Sat Mar 25 2023 20:46:06 GMT-0400 (Eastern Daylight Time)","213242","","null","","","","","FIX","","<div class='trialBorder'><div class='vertical-center'><img style='vertical-align:center; align:center' src=img/fixation3.jpg></div></div>","null","","","","","","",""
"html-keyboard-response","63","196974","0.0-6.0-2.19","63ead665638c8546d8c3a962","bdp_sd","Sat Mar 25 2023 20:46:06 GMT-0400 (Eastern Daylight Time)","213242","","1136","","","","","offer","","<div class='trialBorder'><div class='vertical-center'><img style='vertical-align:center; align:center' src=img/fixation3.jpg></div><div class='cl'><div class='vertical-center'>$35<br>for<br>Kristin H</div></div><div class='cr'><div class='vertical-center'>$24<br>for<br>yourself</div></div><div class='respDivL'><div class='vertical-center'>(E)</div></div><div class='respDivR'><div class='vertical-center'>(I)</div></div></div>","E","$24<br>for<br>yourself","$35<br>for<br>3","1","24","35","3","OTHER"
"html-keyboard-response","64","197226","0.0-6.0-3.19","63ead665638c8546d8c3a962","bdp_sd","Sat Mar 25 2023 20:46:06 GMT-0400 (Eastern Daylight Time)","213242","","null","","","","","offerFB","","<div class='trialBorder'><div class='vertical-center'><img style='vertical-align:center; align:center' src=img/fixation3.jpg></div><div class='cl'><div class='vertical-center'><font style='color:orange'>$35<br>for<br>Kristin H</font></div></div><div class='cr'><div class='vertical-center'>$24<br>for<br>yourself</div></div><div class='respDivL'><div class='vertical-center'><font style='color:orange'>(E)</font></div></div><div class='respDivR'><div class='vertical-center'>(I)</div></div></div>","null","$24<br>for<br>yourself","$35<br>for<br>3","1","24","35","3",""
"html-keyboard-response","65","197730","0.0-6.0-1.20","63ead665638c8546d8c3a962","bdp_sd","Sat Mar 25 2023 20:46:06 GMT-0400 (Eastern Daylight Time)","213242","","null","","","","","FIX","","<div class='trialBorder'><div class='vertical-center'><img style='vertical-align:center; align:center' src=img/fixation3.jpg></div></div>","null","","","","","","",""
"html-keyboard-response","66","198837","0.0-6.0-2.20","63ead665638c8546d8c3a962","bdp_sd","Sat Mar 25 2023 20:46:06 GMT-0400 (Eastern Daylight Time)","213242","","1105","","","","","offer","","<div class='trialBorder'><div class='vertical-center'><img style='vertical-align:center; align:center' src=img/fixation3.jpg></div><div class='cl'><div class='vertical-center'>$20<br>for<br>yourself</div></div><div class='cr'><div class='vertical-center'>$55<br>for<br>Charlie B</div></div><div class='respDivL'><div class='vertical-center'>(E)</div></div><div class='respDivR'><div class='vertical-center'>(I)</div></div></div>","I","$20<br>for<br>yourself","$55<br>for<br>1","0","20","55","1","OTHER"
"html-keyboard-response","67","199098","0.0-6.0-3.20","63ead665638c8546d8c3a962","bdp_sd","Sat Mar 25 2023 20:46:06 GMT-0400 (Eastern Daylight Time)","213242","","null","","","","","offerFB","","<div class='trialBorder'><div class='vertical-center'><img style='vertical-align:center; align:center' src=img/fixation3.jpg></div><div class='cl'><div class='vertical-center'>$20<br>for<br>yourself</div></div><div class='cr'><div class='vertical-center'><font style='color:orange'>$55<br>for<br>Charlie B</font></div></div><div class='respDivL'><div class='vertical-center'>(E)</div></div><div class='respDivR'><div class='vertical-center'><font style='color:orange'>(I)</font></div></div></div>","null","$20<br>for<br>yourself","$55<br>for<br>1","0","20","55","1",""
"html-keyboard-response","68","199608","0.0-6.0-1.21","63ead665638c8546d8c3a962","bdp_sd","Sat Mar 25 2023 20:46:06 GMT-0400 (Eastern Daylight Time)","213242","","null","","","","","FIX","","<div class='trialBorder'><div class='vertical-center'><img style='vertical-align:center; align:center' src=img/fixation3.jpg></div></div>","null","","","","","","",""
"html-keyboard-response","69","201931","0.0-6.0-2.21","63ead665638c8546d8c3a962","bdp_sd","Sat Mar 25 2023 20:46:06 GMT-0400 (Eastern Daylight Time)","213242","","2321","","","","","offer","","<div class='trialBorder'><div class='vertical-center'><img style='vertical-align:center; align:center' src=img/fixation3.jpg></div><div class='cl'><div class='vertical-center'>$14<br>for<br>yourself</div></div><div class='cr'><div class='vertical-center'>$25<br>for<br>Kristin H</div></div><div class='respDivL'><div class='vertical-center'>(E)</div></div><div class='respDivR'><div class='vertical-center'>(I)</div></div></div>","I","$14<br>for<br>yourself","$25<br>for<br>3","0","14","25","3","OTHER"
"html-keyboard-response","70","202186","0.0-6.0-3.21","63ead665638c8546d8c3a962","bdp_sd","Sat Mar 25 2023 20:46:06 GMT-0400 (Eastern Daylight Time)","213242","","null","","","","","offerFB","","<div class='trialBorder'><div class='vertical-center'><img style='vertical-align:center; align:center' src=img/fixation3.jpg></div><div class='cl'><div class='vertical-center'>$14<br>for<br>yourself</div></div><div class='cr'><div class='vertical-center'><font style='color:orange'>$25<br>for<br>Kristin H</font></div></div><div class='respDivL'><div class='vertical-center'>(E)</div></div><div class='respDivR'><div class='vertical-center'><font style='color:orange'>(I)</font></div></div></div>","null","$14<br>for<br>yourself","$25<br>for<br>3","0","14","25","3",""
"html-keyboard-response","71","202689","0.0-6.0-1.22","63ead665638c8546d8c3a962","bdp_sd","Sat Mar 25 2023 20:46:06 GMT-0400 (Eastern Daylight Time)","213242","","null","","","","","FIX","","<div class='trialBorder'><div class='vertical-center'><img style='vertical-align:center; align:center' src=img/fixation3.jpg></div></div>","null","","","","","","",""
"html-keyboard-response","72","203523","0.0-6.0-2.22","63ead665638c8546d8c3a962","bdp_sd","Sat Mar 25 2023 20:46:06 GMT-0400 (Eastern Daylight Time)","213242","","833","","","","","offer","","<div class='trialBorder'><div class='vertical-center'><img style='vertical-align:center; align:center' src=img/fixation3.jpg></div><div class='cl'><div class='vertical-center'>$30<br>for<br>Jamie S</div></div><div class='cr'><div class='vertical-center'>$25<br>for<br>yourself</div></div><div class='respDivL'><div class='vertical-center'>(E)</div></div><div class='respDivR'><div class='vertical-center'>(I)</div></div></div>","I","$25<br>for<br>yourself","$30<br>for<br>4","1","25","30","4","SELF"
"html-keyboard-response","73","203783","0.0-6.0-3.22","63ead665638c8546d8c3a962","bdp_sd","Sat Mar 25 2023 20:46:06 GMT-0400 (Eastern Daylight Time)","213242","","null","","","","","offerFB","","<div class='trialBorder'><div class='vertical-center'><img style='vertical-align:center; align:center' src=img/fixation3.jpg></div><div class='cl'><div class='vertical-center'>$30<br>for<br>Jamie S</div></div><div class='cr'><div class='vertical-center'><font style='color:orange'>$25<br>for<br>yourself</font></div></div><div class='respDivL'><div class='vertical-center'>(E)</div></div><div class='respDivR'><div class='vertical-center'><font style='color:orange'>(I)</font></div></div></div>","null","$25<br>for<br>yourself","$30<br>for<br>4","1","25","30","4",""
"html-keyboard-response","74","204294","0.0-6.0-1.23","63ead665638c8546d8c3a962","bdp_sd","Sat Mar 25 2023 20:46:06 GMT-0400 (Eastern Daylight Time)","213242","","null","","","","","FIX","","<div class='trialBorder'><div class='vertical-center'><img style='vertical-align:center; align:center' src=img/fixation3.jpg></div></div>","null","","","","","","",""
"html-keyboard-response","75","205342","0.0-6.0-2.23","63ead665638c8546d8c3a962","bdp_sd","Sat Mar 25 2023 20:46:06 GMT-0400 (Eastern Daylight Time)","213242","","1046","","","","","offer","","<div class='trialBorder'><div class='vertical-center'><img style='vertical-align:center; align:center' src=img/fixation3.jpg></div><div class='cl'><div class='vertical-center'>$49<br>for<br>yourself</div></div><div class='cr'><div class='vertical-center'>$60<br>for<br>Jamie S</div></div><div class='respDivL'><div class='vertical-center'>(E)</div></div><div class='respDivR'><div class='vertical-center'>(I)</div></div></div>","E","$49<br>for<br>yourself","$60<br>for<br>4","0","49","60","4","SELF"
"html-keyboard-response","76","205599","0.0-6.0-3.23","63ead665638c8546d8c3a962","bdp_sd","Sat Mar 25 2023 20:46:06 GMT-0400 (Eastern Daylight Time)","213242","","null","","","","","offerFB","","<div class='trialBorder'><div class='vertical-center'><img style='vertical-align:center; align:center' src=img/fixation3.jpg></div><div class='cl'><div class='vertical-center'><font style='color:orange'>$49<br>for<br>yourself</font></div></div><div class='cr'><div class='vertical-center'>$60<br>for<br>Jamie S</div></div><div class='respDivL'><div class='vertical-center'><font style='color:orange'>(E)</font></div></div><div class='respDivR'><div class='vertical-center'>(I)</div></div></div>","null","$49<br>for<br>yourself","$60<br>for<br>4","0","49","60","4",""
"html-keyboard-response","77","206102","0.0-6.0-1.24","63ead665638c8546d8c3a962","bdp_sd","Sat Mar 25 2023 20:46:06 GMT-0400 (Eastern Daylight Time)","213242","","null","","","","","FIX","","<div class='trialBorder'><div class='vertical-center'><img style='vertical-align:center; align:center' src=img/fixation3.jpg></div></div>","null","","","","","","",""
"html-keyboard-response","78","208012","0.0-6.0-2.24","63ead665638c8546d8c3a962","bdp_sd","Sat Mar 25 2023 20:46:06 GMT-0400 (Eastern Daylight Time)","213242","","1908","","","","","offer","","<div class='trialBorder'><div class='vertical-center'><img style='vertical-align:center; align:center' src=img/fixation3.jpg></div><div class='cl'><div class='vertical-center'>$80<br>for<br>Christy M</div></div><div class='cr'><div class='vertical-center'>$78<br>for<br>yourself</div></div><div class='respDivL'><div class='vertical-center'>(E)</div></div><div class='respDivR'><div class='vertical-center'>(I)</div></div></div>","E","$78<br>for<br>yourself","$80<br>for<br>5","1","78","80","5","OTHER"
"html-keyboard-response","79","208270","0.0-6.0-3.24","63ead665638c8546d8c3a962","bdp_sd","Sat Mar 25 2023 20:46:06 GMT-0400 (Eastern Daylight Time)","213242","","null","","","","","offerFB","","<div class='trialBorder'><div class='vertical-center'><img style='vertical-align:center; align:center' src=img/fixation3.jpg></div><div class='cl'><div class='vertical-center'><font style='color:orange'>$80<br>for<br>Christy M</font></div></div><div class='cr'><div class='vertical-center'>$78<br>for<br>yourself</div></div><div class='respDivL'><div class='vertical-center'><font style='color:orange'>(E)</font></div></div><div class='respDivR'><div class='vertical-center'>(I)</div></div></div>","null","$78<br>for<br>yourself","$80<br>for<br>5","1","78","80","5",""
"html-keyboard-response","80","208787","0.0-6.0-1.25","63ead665638c8546d8c3a962","bdp_sd","Sat Mar 25 2023 20:46:06 GMT-0400 (Eastern Daylight Time)","213242","","null","","","","","FIX","","<div class='trialBorder'><div class='vertical-center'><img style='vertical-align:center; align:center' src=img/fixation3.jpg></div></div>","null","","","","","","",""
"html-keyboard-response","81","210022","0.0-6.0-2.25","63ead665638c8546d8c3a962","bdp_sd","Sat Mar 25 2023 20:46:06 GMT-0400 (Eastern Daylight Time)","213242","","1233","","","","","offer","","<div class='trialBorder'><div class='vertical-center'><img style='vertical-align:center; align:center' src=img/fixation3.jpg></div><div class='cl'><div class='vertical-center'>$69<br>for<br>yourself</div></div><div class='cr'><div class='vertical-center'>$85<br>for<br>Jamie S</div></div><div class='respDivL'><div class='vertical-center'>(E)</div></div><div class='respDivR'><div class='vertical-center'>(I)</div></div></div>","E","$69<br>for<br>yourself","$85<br>for<br>4","0","69","85","4","SELF"
"html-keyboard-response","82","210280","0.0-6.0-3.25","63ead665638c8546d8c3a962","bdp_sd","Sat Mar 25 2023 20:46:06 GMT-0400 (Eastern Daylight Time)","213242","","null","","","","","offerFB","","<div class='trialBorder'><div class='vertical-center'><img style='vertical-align:center; align:center' src=img/fixation3.jpg></div><div class='cl'><div class='vertical-center'><font style='color:orange'>$69<br>for<br>yourself</font></div></div><div class='cr'><div class='vertical-center'>$85<br>for<br>Jamie S</div></div><div class='respDivL'><div class='vertical-center'><font style='color:orange'>(E)</font></div></div><div class='respDivR'><div class='vertical-center'>(I)</div></div></div>","null","$69<br>for<br>yourself","$85<br>for<br>4","0","69","85","4",""
"html-keyboard-response","83","210788","0.0-6.0-1.26","63ead665638c8546d8c3a962","bdp_sd","Sat Mar 25 2023 20:46:06 GMT-0400 (Eastern Daylight Time)","213242","","null","","","","","FIX","","<div class='trialBorder'><div class='vertical-center'><img style='vertical-align:center; align:center' src=img/fixation3.jpg></div></div>","null","","","","","","",""
"html-keyboard-response","84","211982","0.0-6.0-2.26","63ead665638c8546d8c3a962","bdp_sd","Sat Mar 25 2023 20:46:06 GMT-0400 (Eastern Daylight Time)","213242","","1192","","","","","offer","","<div class='trialBorder'><div class='vertical-center'><img style='vertical-align:center; align:center' src=img/fixation3.jpg></div><div class='cl'><div class='vertical-center'>$85<br>for<br>Christy M</div></div><div class='cr'><div class='vertical-center'>$80<br>for<br>yourself</div></div><div class='respDivL'><div class='vertical-center'>(E)</div></div><div class='respDivR'><div class='vertical-center'>(I)</div></div></div>","E","$80<br>for<br>yourself","$85<br>for<br>5","1","80","85","5","OTHER"
"html-keyboard-response","85","212239","0.0-6.0-3.26","63ead665638c8546d8c3a962","bdp_sd","Sat Mar 25 2023 20:46:06 GMT-0400 (Eastern Daylight Time)","213242","","null","","","","","offerFB","","<div class='trialBorder'><div class='vertical-center'><img style='vertical-align:center; align:center' src=img/fixation3.jpg></div><div class='cl'><div class='vertical-center'><font style='color:orange'>$85<br>for<br>Christy M</font></div></div><div class='cr'><div class='vertical-center'>$80<br>for<br>yourself</div></div><div class='respDivL'><div class='vertical-center'><font style='color:orange'>(E)</font></div></div><div class='respDivR'><div class='vertical-center'>(I)</div></div></div>","null","$80<br>for<br>yourself","$85<br>for<br>5","1","80","85","5",""
"","","","","63ead665638c8546d8c3a962","bdp_sd","Sat Mar 25 2023 20:46:06 GMT-0400 (Eastern Daylight Time)","213242","","","","fullscreenexit","86","212286","fullscreenexit","","","","","","","","","",""
"fullscreen","86","213241","0.0-7.0","63ead665638c8546d8c3a962","bdp_sd","Sat Mar 25 2023 20:46:06 GMT-0400 (Eastern Daylight Time)","213242","","","","","","","","true","","","","","","","","",""
"html-keyboard-response","87","213745","0.0-8.0","","","","","","null","","","","","","","","null","","","","","","",""
