"trial_type","trial_index","time_elapsed","internal_node_id","subject_id","task","startTime","totalTime","view_history","rt","responses","event","trial","time","trialtype","success","stimulus","key_press","selfOffer","otherOffer","otherLeft","selfAmt","otherAmt","otherDist","chosen"
"pavlovia","0","2","0.0-0.0","628dec55823f672331c68577","bdp_sd","Sat Mar 25 2023 23:48:13 GMT-0400 (Eastern Daylight Time)","207097","","","","","","","","","","","","","","","","",""
"instructions","1","1391","0.0-1.0","628dec55823f672331c68577","bdp_sd","Sat Mar 25 2023 23:48:13 GMT-0400 (Eastern Daylight Time)","207097","[{""page_index"":0,""viewing_time"":1388}]","1388","","","","","","","","","","","","","","",""
"survey-text","2","118300","0.0-2.0","628dec55823f672331c68577","bdp_sd","Sat Mar 25 2023 23:48:13 GMT-0400 (Eastern Daylight Time)","207097","","116908","{""Q0"":""Chris B"",""Q1"":""Joseph B"",""Q2"":""Steven B"",""Q3"":""Paige W"",""Q4"":""Josh M""}","","","","","","","","","","","","","",""
"","","","","628dec55823f672331c68577","bdp_sd","Sat Mar 25 2023 23:48:13 GMT-0400 (Eastern Daylight Time)","207097","","","","fullscreenenter","3","120215","fullscreenenter","","","","","","","","","",""
"fullscreen","3","121193","0.0-3.0","628dec55823f672331c68577","bdp_sd","Sat Mar 25 2023 23:48:13 GMT-0400 (Eastern Daylight Time)","207097","","","","","","","","true","","","","","","","","",""
"instructions","4","141540","0.0-5.0","628dec55823f672331c68577","bdp_sd","Sat Mar 25 2023 23:48:13 GMT-0400 (Eastern Daylight Time)","207097","[{""page_index"":0,""viewing_time"":4113},{""page_index"":1,""viewing_time"":10465},{""page_index"":2,""viewing_time"":5768}]","20346","","","","","","","","","","","","","","",""
"html-keyboard-response","5","142045","0.0-6.0-1.0","628dec55823f672331c68577","bdp_sd","Sat Mar 25 2023 23:48:13 GMT-0400 (Eastern Daylight Time)","207097","","null","","","","","FIX","","<div class='trialBorder'><div class='vertical-center'><img style='vertical-align:center; align:center' src=img/fixation3.jpg></div></div>","null","","","","","","",""
"html-keyboard-response","6","145325","0.0-6.0-2.0","628dec55823f672331c68577","bdp_sd","Sat Mar 25 2023 23:48:13 GMT-0400 (Eastern Daylight Time)","207097","","3278","","","","","offer","","<div class='trialBorder'><div class='vertical-center'><img style='vertical-align:center; align:center' src=img/fixation3.jpg></div><div class='cl'><div class='vertical-center'>$55<br>for<br>Paige W</div></div><div class='cr'><div class='vertical-center'>$40<br>for<br>yourself</div></div><div class='respDivL'><div class='vertical-center'>(E)</div></div><div class='respDivR'><div class='vertical-center'>(I)</div></div></div>","E","$40<br>for<br>yourself","$55<br>for<br>4","1","40","55","4","OTHER"
"html-keyboard-response","7","145577","0.0-6.0-3.0","628dec55823f672331c68577","bdp_sd","Sat Mar 25 2023 23:48:13 GMT-0400 (Eastern Daylight Time)","207097","","null","","","","","offerFB","","<div class='trialBorder'><div class='vertical-center'><img style='vertical-align:center; align:center' src=img/fixation3.jpg></div><div class='cl'><div class='vertical-center'><font style='color:orange'>$55<br>for<br>Paige W</font></div></div><div class='cr'><div class='vertical-center'>$40<br>for<br>yourself</div></div><div class='respDivL'><div class='vertical-center'><font style='color:orange'>(E)</font></div></div><div class='respDivR'><div class='vertical-center'>(I)</div></div></div>","null","$40<br>for<br>yourself","$55<br>for<br>4","1","40","55","4",""
"html-keyboard-response","8","146081","0.0-6.0-1.1","628dec55823f672331c68577","bdp_sd","Sat Mar 25 2023 23:48:13 GMT-0400 (Eastern Daylight Time)","207097","","null","","","","","FIX","","<div class='trialBorder'><div class='vertical-center'><img style='vertical-align:center; align:center' src=img/fixation3.jpg></div></div>","null","","","","","","",""
"html-keyboard-response","9","150480","0.0-6.0-2.1","628dec55823f672331c68577","bdp_sd","Sat Mar 25 2023 23:48:13 GMT-0400 (Eastern Daylight Time)","207097","","4399","","","","","offer","","<div class='trialBorder'><div class='vertical-center'><img style='vertical-align:center; align:center' src=img/fixation3.jpg></div><div class='cl'><div class='vertical-center'>$19<br>for<br>yourself</div></div><div class='cr'><div class='vertical-center'>$25<br>for<br>Paige W</div></div><div class='respDivL'><div class='vertical-center'>(E)</div></div><div class='respDivR'><div class='vertical-center'>(I)</div></div></div>","I","$19<br>for<br>yourself","$25<br>for<br>4","0","19","25","4","OTHER"
"html-keyboard-response","10","150733","0.0-6.0-3.1","628dec55823f672331c68577","bdp_sd","Sat Mar 25 2023 23:48:13 GMT-0400 (Eastern Daylight Time)","207097","","null","","","","","offerFB","","<div class='trialBorder'><div class='vertical-center'><img style='vertical-align:center; align:center' src=img/fixation3.jpg></div><div class='cl'><div class='vertical-center'>$19<br>for<br>yourself</div></div><div class='cr'><div class='vertical-center'><font style='color:orange'>$25<br>for<br>Paige W</font></div></div><div class='respDivL'><div class='vertical-center'>(E)</div></div><div class='respDivR'><div class='vertical-center'><font style='color:orange'>(I)</font></div></div></div>","null","$19<br>for<br>yourself","$25<br>for<br>4","0","19","25","4",""
"html-keyboard-response","11","151237","0.0-6.0-1.2","628dec55823f672331c68577","bdp_sd","Sat Mar 25 2023 23:48:13 GMT-0400 (Eastern Daylight Time)","207097","","null","","","","","FIX","","<div class='trialBorder'><div class='vertical-center'><img style='vertical-align:center; align:center' src=img/fixation3.jpg></div></div>","null","","","","","","",""
"html-keyboard-response","12","155015","0.0-6.0-2.2","628dec55823f672331c68577","bdp_sd","Sat Mar 25 2023 23:48:13 GMT-0400 (Eastern Daylight Time)","207097","","3776","","","","","offer","","<div class='trialBorder'><div class='vertical-center'><img style='vertical-align:center; align:center' src=img/fixation3.jpg></div><div class='cl'><div class='vertical-center'>$35<br>for<br>Joseph B</div></div><div class='cr'><div class='vertical-center'>$15<br>for<br>yourself</div></div><div class='respDivL'><div class='vertical-center'>(E)</div></div><div class='respDivR'><div class='vertical-center'>(I)</div></div></div>","E","$15<br>for<br>yourself","$35<br>for<br>2","1","15","35","2","OTHER"
"html-keyboard-response","13","155269","0.0-6.0-3.2","628dec55823f672331c68577","bdp_sd","Sat Mar 25 2023 23:48:13 GMT-0400 (Eastern Daylight Time)","207097","","null","","","","","offerFB","","<div class='trialBorder'><div class='vertical-center'><img style='vertical-align:center; align:center' src=img/fixation3.jpg></div><div class='cl'><div class='vertical-center'><font style='color:orange'>$35<br>for<br>Joseph B</font></div></div><div class='cr'><div class='vertical-center'>$15<br>for<br>yourself</div></div><div class='respDivL'><div class='vertical-center'><font style='color:orange'>(E)</font></div></div><div class='respDivR'><div class='vertical-center'>(I)</div></div></div>","null","$15<br>for<br>yourself","$35<br>for<br>2","1","15","35","2",""
"html-keyboard-response","14","155772","0.0-6.0-1.3","628dec55823f672331c68577","bdp_sd","Sat Mar 25 2023 23:48:13 GMT-0400 (Eastern Daylight Time)","207097","","null","","","","","FIX","","<div class='trialBorder'><div class='vertical-center'><img style='vertical-align:center; align:center' src=img/fixation3.jpg></div></div>","null","","","","","","",""
"html-keyboard-response","15","157140","0.0-6.0-2.3","628dec55823f672331c68577","bdp_sd","Sat Mar 25 2023 23:48:13 GMT-0400 (Eastern Daylight Time)","207097","","1367","","","","","offer","","<div class='trialBorder'><div class='vertical-center'><img style='vertical-align:center; align:center' src=img/fixation3.jpg></div><div class='cl'><div class='vertical-center'>$55<br>for<br>Chris B</div></div><div class='cr'><div class='vertical-center'>$20<br>for<br>yourself</div></div><div class='respDivL'><div class='vertical-center'>(E)</div></div><div class='respDivR'><div class='vertical-center'>(I)</div></div></div>","E","$20<br>for<br>yourself","$55<br>for<br>1","1","20","55","1","OTHER"
"html-keyboard-response","16","157393","0.0-6.0-3.3","628dec55823f672331c68577","bdp_sd","Sat Mar 25 2023 23:48:13 GMT-0400 (Eastern Daylight Time)","207097","","null","","","","","offerFB","","<div class='trialBorder'><div class='vertical-center'><img style='vertical-align:center; align:center' src=img/fixation3.jpg></div><div class='cl'><div class='vertical-center'><font style='color:orange'>$55<br>for<br>Chris B</font></div></div><div class='cr'><div class='vertical-center'>$20<br>for<br>yourself</div></div><div class='respDivL'><div class='vertical-center'><font style='color:orange'>(E)</font></div></div><div class='respDivR'><div class='vertical-center'>(I)</div></div></div>","null","$20<br>for<br>yourself","$55<br>for<br>1","1","20","55","1",""
"html-keyboard-response","17","157897","0.0-6.0-1.4","628dec55823f672331c68577","bdp_sd","Sat Mar 25 2023 23:48:13 GMT-0400 (Eastern Daylight Time)","207097","","null","","","","","FIX","","<div class='trialBorder'><div class='vertical-center'><img style='vertical-align:center; align:center' src=img/fixation3.jpg></div></div>","null","","","","","","",""
"html-keyboard-response","18","160161","0.0-6.0-2.4","628dec55823f672331c68577","bdp_sd","Sat Mar 25 2023 23:48:13 GMT-0400 (Eastern Daylight Time)","207097","","2263","","","","","offer","","<div class='trialBorder'><div class='vertical-center'><img style='vertical-align:center; align:center' src=img/fixation3.jpg></div><div class='cl'><div class='vertical-center'>$34<br>for<br>yourself</div></div><div class='cr'><div class='vertical-center'>$35<br>for<br>Josh M</div></div><div class='respDivL'><div class='vertical-center'>(E)</div></div><div class='respDivR'><div class='vertical-center'>(I)</div></div></div>","I","$34<br>for<br>yourself","$35<br>for<br>5","0","34","35","5","OTHER"
"html-keyboard-response","19","160413","0.0-6.0-3.4","628dec55823f672331c68577","bdp_sd","Sat Mar 25 2023 23:48:13 GMT-0400 (Eastern Daylight Time)","207097","","null","","","","","offerFB","","<div class='trialBorder'><div class='vertical-center'><img style='vertical-align:center; align:center' src=img/fixation3.jpg></div><div class='cl'><div class='vertical-center'>$34<br>for<br>yourself</div></div><div class='cr'><div class='vertical-center'><font style='color:orange'>$35<br>for<br>Josh M</font></div></div><div class='respDivL'><div class='vertical-center'>(E)</div></div><div class='respDivR'><div class='vertical-center'><font style='color:orange'>(I)</font></div></div></div>","null","$34<br>for<br>yourself","$35<br>for<br>5","0","34","35","5",""
"html-keyboard-response","20","160916","0.0-6.0-1.5","628dec55823f672331c68577","bdp_sd","Sat Mar 25 2023 23:48:13 GMT-0400 (Eastern Daylight Time)","207097","","null","","","","","FIX","","<div class='trialBorder'><div class='vertical-center'><img style='vertical-align:center; align:center' src=img/fixation3.jpg></div></div>","null","","","","","","",""
"html-keyboard-response","21","163462","0.0-6.0-2.5","628dec55823f672331c68577","bdp_sd","Sat Mar 25 2023 23:48:13 GMT-0400 (Eastern Daylight Time)","207097","","2545","","","","","offer","","<div class='trialBorder'><div class='vertical-center'><img style='vertical-align:center; align:center' src=img/fixation3.jpg></div><div class='cl'><div class='vertical-center'>$54<br>for<br>yourself</div></div><div class='cr'><div class='vertical-center'>$55<br>for<br>Josh M</div></div><div class='respDivL'><div class='vertical-center'>(E)</div></div><div class='respDivR'><div class='vertical-center'>(I)</div></div></div>","I","$54<br>for<br>yourself","$55<br>for<br>5","0","54","55","5","OTHER"
"html-keyboard-response","22","163717","0.0-6.0-3.5","628dec55823f672331c68577","bdp_sd","Sat Mar 25 2023 23:48:13 GMT-0400 (Eastern Daylight Time)","207097","","null","","","","","offerFB","","<div class='trialBorder'><div class='vertical-center'><img style='vertical-align:center; align:center' src=img/fixation3.jpg></div><div class='cl'><div class='vertical-center'>$54<br>for<br>yourself</div></div><div class='cr'><div class='vertical-center'><font style='color:orange'>$55<br>for<br>Josh M</font></div></div><div class='respDivL'><div class='vertical-center'>(E)</div></div><div class='respDivR'><div class='vertical-center'><font style='color:orange'>(I)</font></div></div></div>","null","$54<br>for<br>yourself","$55<br>for<br>5","0","54","55","5",""
"html-keyboard-response","23","164221","0.0-6.0-1.6","628dec55823f672331c68577","bdp_sd","Sat Mar 25 2023 23:48:13 GMT-0400 (Eastern Daylight Time)","207097","","null","","","","","FIX","","<div class='trialBorder'><div class='vertical-center'><img style='vertical-align:center; align:center' src=img/fixation3.jpg></div></div>","null","","","","","","",""
"html-keyboard-response","24","166432","0.0-6.0-2.6","628dec55823f672331c68577","bdp_sd","Sat Mar 25 2023 23:48:13 GMT-0400 (Eastern Daylight Time)","207097","","2211","","","","","offer","","<div class='trialBorder'><div class='vertical-center'><img style='vertical-align:center; align:center' src=img/fixation3.jpg></div><div class='cl'><div class='vertical-center'>$80<br>for<br>Steven B</div></div><div class='cr'><div class='vertical-center'>$54<br>for<br>yourself</div></div><div class='respDivL'><div class='vertical-center'>(E)</div></div><div class='respDivR'><div class='vertical-center'>(I)</div></div></div>","E","$54<br>for<br>yourself","$80<br>for<br>3","1","54","80","3","OTHER"
"html-keyboard-response","25","166684","0.0-6.0-3.6","628dec55823f672331c68577","bdp_sd","Sat Mar 25 2023 23:48:13 GMT-0400 (Eastern Daylight Time)","207097","","null","","","","","offerFB","","<div class='trialBorder'><div class='vertical-center'><img style='vertical-align:center; align:center' src=img/fixation3.jpg></div><div class='cl'><div class='vertical-center'><font style='color:orange'>$80<br>for<br>Steven B</font></div></div><div class='cr'><div class='vertical-center'>$54<br>for<br>yourself</div></div><div class='respDivL'><div class='vertical-center'><font style='color:orange'>(E)</font></div></div><div class='respDivR'><div class='vertical-center'>(I)</div></div></div>","null","$54<br>for<br>yourself","$80<br>for<br>3","1","54","80","3",""
"html-keyboard-response","26","167185","0.0-6.0-1.7","628dec55823f672331c68577","bdp_sd","Sat Mar 25 2023 23:48:13 GMT-0400 (Eastern Daylight Time)","207097","","null","","","","","FIX","","<div class='trialBorder'><div class='vertical-center'><img style='vertical-align:center; align:center' src=img/fixation3.jpg></div></div>","null","","","","","","",""
"html-keyboard-response","27","168730","0.0-6.0-2.7","628dec55823f672331c68577","bdp_sd","Sat Mar 25 2023 23:48:13 GMT-0400 (Eastern Daylight Time)","207097","","1545","","","","","offer","","<div class='trialBorder'><div class='vertical-center'><img style='vertical-align:center; align:center' src=img/fixation3.jpg></div><div class='cl'><div class='vertical-center'>$28<br>for<br>yourself</div></div><div class='cr'><div class='vertical-center'>$30<br>for<br>Josh M</div></div><div class='respDivL'><div class='vertical-center'>(E)</div></div><div class='respDivR'><div class='vertical-center'>(I)</div></div></div>","I","$28<br>for<br>yourself","$30<br>for<br>5","0","28","30","5","OTHER"
"html-keyboard-response","28","168985","0.0-6.0-3.7","628dec55823f672331c68577","bdp_sd","Sat Mar 25 2023 23:48:13 GMT-0400 (Eastern Daylight Time)","207097","","null","","","","","offerFB","","<div class='trialBorder'><div class='vertical-center'><img style='vertical-align:center; align:center' src=img/fixation3.jpg></div><div class='cl'><div class='vertical-center'>$28<br>for<br>yourself</div></div><div class='cr'><div class='vertical-center'><font style='color:orange'>$30<br>for<br>Josh M</font></div></div><div class='respDivL'><div class='vertical-center'>(E)</div></div><div class='respDivR'><div class='vertical-center'><font style='color:orange'>(I)</font></div></div></div>","null","$28<br>for<br>yourself","$30<br>for<br>5","0","28","30","5",""
"html-keyboard-response","29","169489","0.0-6.0-1.8","628dec55823f672331c68577","bdp_sd","Sat Mar 25 2023 23:48:13 GMT-0400 (Eastern Daylight Time)","207097","","null","","","","","FIX","","<div class='trialBorder'><div class='vertical-center'><img style='vertical-align:center; align:center' src=img/fixation3.jpg></div></div>","null","","","","","","",""
"html-keyboard-response","30","171062","0.0-6.0-2.8","628dec55823f672331c68577","bdp_sd","Sat Mar 25 2023 23:48:13 GMT-0400 (Eastern Daylight Time)","207097","","1572","","","","","offer","","<div class='trialBorder'><div class='vertical-center'><img style='vertical-align:center; align:center' src=img/fixation3.jpg></div><div class='cl'><div class='vertical-center'>$85<br>for<br>Josh M</div></div><div class='cr'><div class='vertical-center'>$80<br>for<br>yourself</div></div><div class='respDivL'><div class='vertical-center'>(E)</div></div><div class='respDivR'><div class='vertical-center'>(I)</div></div></div>","E","$80<br>for<br>yourself","$85<br>for<br>5","1","80","85","5","OTHER"
"html-keyboard-response","31","171313","0.0-6.0-3.8","628dec55823f672331c68577","bdp_sd","Sat Mar 25 2023 23:48:13 GMT-0400 (Eastern Daylight Time)","207097","","null","","","","","offerFB","","<div class='trialBorder'><div class='vertical-center'><img style='vertical-align:center; align:center' src=img/fixation3.jpg></div><div class='cl'><div class='vertical-center'><font style='color:orange'>$85<br>for<br>Josh M</font></div></div><div class='cr'><div class='vertical-center'>$80<br>for<br>yourself</div></div><div class='respDivL'><div class='vertical-center'><font style='color:orange'>(E)</font></div></div><div class='respDivR'><div class='vertical-center'>(I)</div></div></div>","null","$80<br>for<br>yourself","$85<br>for<br>5","1","80","85","5",""
"html-keyboard-response","32","171817","0.0-6.0-1.9","628dec55823f672331c68577","bdp_sd","Sat Mar 25 2023 23:48:13 GMT-0400 (Eastern Daylight Time)","207097","","null","","","","","FIX","","<div class='trialBorder'><div class='vertical-center'><img style='vertical-align:center; align:center' src=img/fixation3.jpg></div></div>","null","","","","","","",""
"html-keyboard-response","33","173356","0.0-6.0-2.9","628dec55823f672331c68577","bdp_sd","Sat Mar 25 2023 23:48:13 GMT-0400 (Eastern Daylight Time)","207097","","1539","","","","","offer","","<div class='trialBorder'><div class='vertical-center'><img style='vertical-align:center; align:center' src=img/fixation3.jpg></div><div class='cl'><div class='vertical-center'>$47<br>for<br>yourself</div></div><div class='cr'><div class='vertical-center'>$50<br>for<br>Josh M</div></div><div class='respDivL'><div class='vertical-center'>(E)</div></div><div class='respDivR'><div class='vertical-center'>(I)</div></div></div>","I","$47<br>for<br>yourself","$50<br>for<br>5","0","47","50","5","OTHER"
"html-keyboard-response","34","173609","0.0-6.0-3.9","628dec55823f672331c68577","bdp_sd","Sat Mar 25 2023 23:48:13 GMT-0400 (Eastern Daylight Time)","207097","","null","","","","","offerFB","","<div class='trialBorder'><div class='vertical-center'><img style='vertical-align:center; align:center' src=img/fixation3.jpg></div><div class='cl'><div class='vertical-center'>$47<br>for<br>yourself</div></div><div class='cr'><div class='vertical-center'><font style='color:orange'>$50<br>for<br>Josh M</font></div></div><div class='respDivL'><div class='vertical-center'>(E)</div></div><div class='respDivR'><div class='vertical-center'><font style='color:orange'>(I)</font></div></div></div>","null","$47<br>for<br>yourself","$50<br>for<br>5","0","47","50","5",""
"html-keyboard-response","35","174113","0.0-6.0-1.10","628dec55823f672331c68577","bdp_sd","Sat Mar 25 2023 23:48:13 GMT-0400 (Eastern Daylight Time)","207097","","null","","","","","FIX","","<div class='trialBorder'><div class='vertical-center'><img style='vertical-align:center; align:center' src=img/fixation3.jpg></div></div>","null","","","","","","",""
"html-keyboard-response","36","175617","0.0-6.0-2.10","628dec55823f672331c68577","bdp_sd","Sat Mar 25 2023 23:48:13 GMT-0400 (Eastern Daylight Time)","207097","","1504","","","","","offer","","<div class='trialBorder'><div class='vertical-center'><img style='vertical-align:center; align:center' src=img/fixation3.jpg></div><div class='cl'><div class='vertical-center'>$30<br>for<br>Paige W</div></div><div class='cr'><div class='vertical-center'>$25<br>for<br>yourself</div></div><div class='respDivL'><div class='vertical-center'>(E)</div></div><div class='respDivR'><div class='vertical-center'>(I)</div></div></div>","E","$25<br>for<br>yourself","$30<br>for<br>4","1","25","30","4","OTHER"
"html-keyboard-response","37","175868","0.0-6.0-3.10","628dec55823f672331c68577","bdp_sd","Sat Mar 25 2023 23:48:13 GMT-0400 (Eastern Daylight Time)","207097","","null","","","","","offerFB","","<div class='trialBorder'><div class='vertical-center'><img style='vertical-align:center; align:center' src=img/fixation3.jpg></div><div class='cl'><div class='vertical-center'><font style='color:orange'>$30<br>for<br>Paige W</font></div></div><div class='cr'><div class='vertical-center'>$25<br>for<br>yourself</div></div><div class='respDivL'><div class='vertical-center'><font style='color:orange'>(E)</font></div></div><div class='respDivR'><div class='vertical-center'>(I)</div></div></div>","null","$25<br>for<br>yourself","$30<br>for<br>4","1","25","30","4",""
"html-keyboard-response","38","176369","0.0-6.0-1.11","628dec55823f672331c68577","bdp_sd","Sat Mar 25 2023 23:48:13 GMT-0400 (Eastern Daylight Time)","207097","","null","","","","","FIX","","<div class='trialBorder'><div class='vertical-center'><img style='vertical-align:center; align:center' src=img/fixation3.jpg></div></div>","null","","","","","","",""
"html-keyboard-response","39","177688","0.0-6.0-2.11","628dec55823f672331c68577","bdp_sd","Sat Mar 25 2023 23:48:13 GMT-0400 (Eastern Daylight Time)","207097","","1319","","","","","offer","","<div class='trialBorder'><div class='vertical-center'><img style='vertical-align:center; align:center' src=img/fixation3.jpg></div><div class='cl'><div class='vertical-center'>$14<br>for<br>yourself</div></div><div class='cr'><div class='vertical-center'>$25<br>for<br>Steven B</div></div><div class='respDivL'><div class='vertical-center'>(E)</div></div><div class='respDivR'><div class='vertical-center'>(I)</div></div></div>","I","$14<br>for<br>yourself","$25<br>for<br>3","0","14","25","3","OTHER"
"html-keyboard-response","40","177941","0.0-6.0-3.11","628dec55823f672331c68577","bdp_sd","Sat Mar 25 2023 23:48:13 GMT-0400 (Eastern Daylight Time)","207097","","null","","","","","offerFB","","<div class='trialBorder'><div class='vertical-center'><img style='vertical-align:center; align:center' src=img/fixation3.jpg></div><div class='cl'><div class='vertical-center'>$14<br>for<br>yourself</div></div><div class='cr'><div class='vertical-center'><font style='color:orange'>$25<br>for<br>Steven B</font></div></div><div class='respDivL'><div class='vertical-center'>(E)</div></div><div class='respDivR'><div class='vertical-center'><font style='color:orange'>(I)</font></div></div></div>","null","$14<br>for<br>yourself","$25<br>for<br>3","0","14","25","3",""
"html-keyboard-response","41","178441","0.0-6.0-1.12","628dec55823f672331c68577","bdp_sd","Sat Mar 25 2023 23:48:13 GMT-0400 (Eastern Daylight Time)","207097","","null","","","","","FIX","","<div class='trialBorder'><div class='vertical-center'><img style='vertical-align:center; align:center' src=img/fixation3.jpg></div></div>","null","","","","","","",""
"html-keyboard-response","42","179563","0.0-6.0-2.12","628dec55823f672331c68577","bdp_sd","Sat Mar 25 2023 23:48:13 GMT-0400 (Eastern Daylight Time)","207097","","1121","","","","","offer","","<div class='trialBorder'><div class='vertical-center'><img style='vertical-align:center; align:center' src=img/fixation3.jpg></div><div class='cl'><div class='vertical-center'>$25<br>for<br>Josh M</div></div><div class='cr'><div class='vertical-center'>$22<br>for<br>yourself</div></div><div class='respDivL'><div class='vertical-center'>(E)</div></div><div class='respDivR'><div class='vertical-center'>(I)</div></div></div>","E","$22<br>for<br>yourself","$25<br>for<br>5","1","22","25","5","OTHER"
"html-keyboard-response","43","179816","0.0-6.0-3.12","628dec55823f672331c68577","bdp_sd","Sat Mar 25 2023 23:48:13 GMT-0400 (Eastern Daylight Time)","207097","","null","","","","","offerFB","","<div class='trialBorder'><div class='vertical-center'><img style='vertical-align:center; align:center' src=img/fixation3.jpg></div><div class='cl'><div class='vertical-center'><font style='color:orange'>$25<br>for<br>Josh M</font></div></div><div class='cr'><div class='vertical-center'>$22<br>for<br>yourself</div></div><div class='respDivL'><div class='vertical-center'><font style='color:orange'>(E)</font></div></div><div class='respDivR'><div class='vertical-center'>(I)</div></div></div>","null","$22<br>for<br>yourself","$25<br>for<br>5","1","22","25","5",""
"html-keyboard-response","44","180321","0.0-6.0-1.13","628dec55823f672331c68577","bdp_sd","Sat Mar 25 2023 23:48:13 GMT-0400 (Eastern Daylight Time)","207097","","null","","","","","FIX","","<div class='trialBorder'><div class='vertical-center'><img style='vertical-align:center; align:center' src=img/fixation3.jpg></div></div>","null","","","","","","",""
"html-keyboard-response","45","181589","0.0-6.0-2.13","628dec55823f672331c68577","bdp_sd","Sat Mar 25 2023 23:48:13 GMT-0400 (Eastern Daylight Time)","207097","","1268","","","","","offer","","<div class='trialBorder'><div class='vertical-center'><img style='vertical-align:center; align:center' src=img/fixation3.jpg></div><div class='cl'><div class='vertical-center'>$30<br>for<br>Joseph B</div></div><div class='cr'><div class='vertical-center'>$11<br>for<br>yourself</div></div><div class='respDivL'><div class='vertical-center'>(E)</div></div><div class='respDivR'><div class='vertical-center'>(I)</div></div></div>","E","$11<br>for<br>yourself","$30<br>for<br>2","1","11","30","2","OTHER"
"html-keyboard-response","46","181841","0.0-6.0-3.13","628dec55823f672331c68577","bdp_sd","Sat Mar 25 2023 23:48:13 GMT-0400 (Eastern Daylight Time)","207097","","null","","","","","offerFB","","<div class='trialBorder'><div class='vertical-center'><img style='vertical-align:center; align:center' src=img/fixation3.jpg></div><div class='cl'><div class='vertical-center'><font style='color:orange'>$30<br>for<br>Joseph B</font></div></div><div class='cr'><div class='vertical-center'>$11<br>for<br>yourself</div></div><div class='respDivL'><div class='vertical-center'><font style='color:orange'>(E)</font></div></div><div class='respDivR'><div class='vertical-center'>(I)</div></div></div>","null","$11<br>for<br>yourself","$30<br>for<br>2","1","11","30","2",""
"html-keyboard-response","47","182345","0.0-6.0-1.14","628dec55823f672331c68577","bdp_sd","Sat Mar 25 2023 23:48:13 GMT-0400 (Eastern Daylight Time)","207097","","null","","","","","FIX","","<div class='trialBorder'><div class='vertical-center'><img style='vertical-align:center; align:center' src=img/fixation3.jpg></div></div>","null","","","","","","",""
"html-keyboard-response","48","183422","0.0-6.0-2.14","628dec55823f672331c68577","bdp_sd","Sat Mar 25 2023 23:48:13 GMT-0400 (Eastern Daylight Time)","207097","","1076","","","","","offer","","<div class='trialBorder'><div class='vertical-center'><img style='vertical-align:center; align:center' src=img/fixation3.jpg></div><div class='cl'><div class='vertical-center'>$55<br>for<br>yourself</div></div><div class='cr'><div class='vertical-center'>$75<br>for<br>Paige W</div></div><div class='respDivL'><div class='vertical-center'>(E)</div></div><div class='respDivR'><div class='vertical-center'>(I)</div></div></div>","I","$55<br>for<br>yourself","$75<br>for<br>4","0","55","75","4","OTHER"
"html-keyboard-response","49","183673","0.0-6.0-3.14","628dec55823f672331c68577","bdp_sd","Sat Mar 25 2023 23:48:13 GMT-0400 (Eastern Daylight Time)","207097","","null","","","","","offerFB","","<div class='trialBorder'><div class='vertical-center'><img style='vertical-align:center; align:center' src=img/fixation3.jpg></div><div class='cl'><div class='vertical-center'>$55<br>for<br>yourself</div></div><div class='cr'><div class='vertical-center'><font style='color:orange'>$75<br>for<br>Paige W</font></div></div><div class='respDivL'><div class='vertical-center'>(E)</div></div><div class='respDivR'><div class='vertical-center'><font style='color:orange'>(I)</font></div></div></div>","null","$55<br>for<br>yourself","$75<br>for<br>4","0","55","75","4",""
"html-keyboard-response","50","184176","0.0-6.0-1.15","628dec55823f672331c68577","bdp_sd","Sat Mar 25 2023 23:48:13 GMT-0400 (Eastern Daylight Time)","207097","","null","","","","","FIX","","<div class='trialBorder'><div class='vertical-center'><img style='vertical-align:center; align:center' src=img/fixation3.jpg></div></div>","null","","","","","","",""
"html-keyboard-response","51","185303","0.0-6.0-2.15","628dec55823f672331c68577","bdp_sd","Sat Mar 25 2023 23:48:13 GMT-0400 (Eastern Daylight Time)","207097","","1126","","","","","offer","","<div class='trialBorder'><div class='vertical-center'><img style='vertical-align:center; align:center' src=img/fixation3.jpg></div><div class='cl'><div class='vertical-center'>$54<br>for<br>yourself</div></div><div class='cr'><div class='vertical-center'>$60<br>for<br>Josh M</div></div><div class='respDivL'><div class='vertical-center'>(E)</div></div><div class='respDivR'><div class='vertical-center'>(I)</div></div></div>","I","$54<br>for<br>yourself","$60<br>for<br>5","0","54","60","5","OTHER"
"html-keyboard-response","52","185557","0.0-6.0-3.15","628dec55823f672331c68577","bdp_sd","Sat Mar 25 2023 23:48:13 GMT-0400 (Eastern Daylight Time)","207097","","null","","","","","offerFB","","<div class='trialBorder'><div class='vertical-center'><img style='vertical-align:center; align:center' src=img/fixation3.jpg></div><div class='cl'><div class='vertical-center'>$54<br>for<br>yourself</div></div><div class='cr'><div class='vertical-center'><font style='color:orange'>$60<br>for<br>Josh M</font></div></div><div class='respDivL'><div class='vertical-center'>(E)</div></div><div class='respDivR'><div class='vertical-center'><font style='color:orange'>(I)</font></div></div></div>","null","$54<br>for<br>yourself","$60<br>for<br>5","0","54","60","5",""
"html-keyboard-response","53","186061","0.0-6.0-1.16","628dec55823f672331c68577","bdp_sd","Sat Mar 25 2023 23:48:13 GMT-0400 (Eastern Daylight Time)","207097","","null","","","","","FIX","","<div class='trialBorder'><div class='vertical-center'><img style='vertical-align:center; align:center' src=img/fixation3.jpg></div></div>","null","","","","","","",""
"html-keyboard-response","54","187088","0.0-6.0-2.16","628dec55823f672331c68577","bdp_sd","Sat Mar 25 2023 23:48:13 GMT-0400 (Eastern Daylight Time)","207097","","1027","","","","","offer","","<div class='trialBorder'><div class='vertical-center'><img style='vertical-align:center; align:center' src=img/fixation3.jpg></div><div class='cl'><div class='vertical-center'>$85<br>for<br>Paige W</div></div><div class='cr'><div class='vertical-center'>$69<br>for<br>yourself</div></div><div class='respDivL'><div class='vertical-center'>(E)</div></div><div class='respDivR'><div class='vertical-center'>(I)</div></div></div>","E","$69<br>for<br>yourself","$85<br>for<br>4","1","69","85","4","OTHER"
"html-keyboard-response","55","187341","0.0-6.0-3.16","628dec55823f672331c68577","bdp_sd","Sat Mar 25 2023 23:48:13 GMT-0400 (Eastern Daylight Time)","207097","","null","","","","","offerFB","","<div class='trialBorder'><div class='vertical-center'><img style='vertical-align:center; align:center' src=img/fixation3.jpg></div><div class='cl'><div class='vertical-center'><font style='color:orange'>$85<br>for<br>Paige W</font></div></div><div class='cr'><div class='vertical-center'>$69<br>for<br>yourself</div></div><div class='respDivL'><div class='vertical-center'><font style='color:orange'>(E)</font></div></div><div class='respDivR'><div class='vertical-center'>(I)</div></div></div>","null","$69<br>for<br>yourself","$85<br>for<br>4","1","69","85","4",""
"html-keyboard-response","56","187845","0.0-6.0-1.17","628dec55823f672331c68577","bdp_sd","Sat Mar 25 2023 23:48:13 GMT-0400 (Eastern Daylight Time)","207097","","null","","","","","FIX","","<div class='trialBorder'><div class='vertical-center'><img style='vertical-align:center; align:center' src=img/fixation3.jpg></div></div>","null","","","","","","",""
"html-keyboard-response","57","189661","0.0-6.0-2.17","628dec55823f672331c68577","bdp_sd","Sat Mar 25 2023 23:48:13 GMT-0400 (Eastern Daylight Time)","207097","","1815","","","","","offer","","<div class='trialBorder'><div class='vertical-center'><img style='vertical-align:center; align:center' src=img/fixation3.jpg></div><div class='cl'><div class='vertical-center'>$25<br>for<br>yourself</div></div><div class='cr'><div class='vertical-center'>$60<br>for<br>Steven B</div></div><div class='respDivL'><div class='vertical-center'>(E)</div></div><div class='respDivR'><div class='vertical-center'>(I)</div></div></div>","I","$25<br>for<br>yourself","$60<br>for<br>3","0","25","60","3","OTHER"
"html-keyboard-response","58","189913","0.0-6.0-3.17","628dec55823f672331c68577","bdp_sd","Sat Mar 25 2023 23:48:13 GMT-0400 (Eastern Daylight Time)","207097","","null","","","","","offerFB","","<div class='trialBorder'><div class='vertical-center'><img style='vertical-align:center; align:center' src=img/fixation3.jpg></div><div class='cl'><div class='vertical-center'>$25<br>for<br>yourself</div></div><div class='cr'><div class='vertical-center'><font style='color:orange'>$60<br>for<br>Steven B</font></div></div><div class='respDivL'><div class='vertical-center'>(E)</div></div><div class='respDivR'><div class='vertical-center'><font style='color:orange'>(I)</font></div></div></div>","null","$25<br>for<br>yourself","$60<br>for<br>3","0","25","60","3",""
"html-keyboard-response","59","190417","0.0-6.0-1.18","628dec55823f672331c68577","bdp_sd","Sat Mar 25 2023 23:48:13 GMT-0400 (Eastern Daylight Time)","207097","","null","","","","","FIX","","<div class='trialBorder'><div class='vertical-center'><img style='vertical-align:center; align:center' src=img/fixation3.jpg></div></div>","null","","","","","","",""
"html-keyboard-response","60","191497","0.0-6.0-2.18","628dec55823f672331c68577","bdp_sd","Sat Mar 25 2023 23:48:13 GMT-0400 (Eastern Daylight Time)","207097","","1079","","","","","offer","","<div class='trialBorder'><div class='vertical-center'><img style='vertical-align:center; align:center' src=img/fixation3.jpg></div><div class='cl'><div class='vertical-center'>$31<br>for<br>yourself</div></div><div class='cr'><div class='vertical-center'>$85<br>for<br>Chris B</div></div><div class='respDivL'><div class='vertical-center'>(E)</div></div><div class='respDivR'><div class='vertical-center'>(I)</div></div></div>","I","$31<br>for<br>yourself","$85<br>for<br>1","0","31","85","1","OTHER"
"html-keyboard-response","61","191749","0.0-6.0-3.18","628dec55823f672331c68577","bdp_sd","Sat Mar 25 2023 23:48:13 GMT-0400 (Eastern Daylight Time)","207097","","null","","","","","offerFB","","<div class='trialBorder'><div class='vertical-center'><img style='vertical-align:center; align:center' src=img/fixation3.jpg></div><div class='cl'><div class='vertical-center'>$31<br>for<br>yourself</div></div><div class='cr'><div class='vertical-center'><font style='color:orange'>$85<br>for<br>Chris B</font></div></div><div class='respDivL'><div class='vertical-center'>(E)</div></div><div class='respDivR'><div class='vertical-center'><font style='color:orange'>(I)</font></div></div></div>","null","$31<br>for<br>yourself","$85<br>for<br>1","0","31","85","1",""
"html-keyboard-response","62","192253","0.0-6.0-1.19","628dec55823f672331c68577","bdp_sd","Sat Mar 25 2023 23:48:13 GMT-0400 (Eastern Daylight Time)","207097","","null","","","","","FIX","","<div class='trialBorder'><div class='vertical-center'><img style='vertical-align:center; align:center' src=img/fixation3.jpg></div></div>","null","","","","","","",""
"html-keyboard-response","63","193433","0.0-6.0-2.19","628dec55823f672331c68577","bdp_sd","Sat Mar 25 2023 23:48:13 GMT-0400 (Eastern Daylight Time)","207097","","1179","","","","","offer","","<div class='trialBorder'><div class='vertical-center'><img style='vertical-align:center; align:center' src=img/fixation3.jpg></div><div class='cl'><div class='vertical-center'>$60<br>for<br>Paige W</div></div><div class='cr'><div class='vertical-center'>$49<br>for<br>yourself</div></div><div class='respDivL'><div class='vertical-center'>(E)</div></div><div class='respDivR'><div class='vertical-center'>(I)</div></div></div>","E","$49<br>for<br>yourself","$60<br>for<br>4","1","49","60","4","OTHER"
"html-keyboard-response","64","193684","0.0-6.0-3.19","628dec55823f672331c68577","bdp_sd","Sat Mar 25 2023 23:48:13 GMT-0400 (Eastern Daylight Time)","207097","","null","","","","","offerFB","","<div class='trialBorder'><div class='vertical-center'><img style='vertical-align:center; align:center' src=img/fixation3.jpg></div><div class='cl'><div class='vertical-center'><font style='color:orange'>$60<br>for<br>Paige W</font></div></div><div class='cr'><div class='vertical-center'>$49<br>for<br>yourself</div></div><div class='respDivL'><div class='vertical-center'><font style='color:orange'>(E)</font></div></div><div class='respDivR'><div class='vertical-center'>(I)</div></div></div>","null","$49<br>for<br>yourself","$60<br>for<br>4","1","49","60","4",""
"html-keyboard-response","65","194185","0.0-6.0-1.20","628dec55823f672331c68577","bdp_sd","Sat Mar 25 2023 23:48:13 GMT-0400 (Eastern Daylight Time)","207097","","null","","","","","FIX","","<div class='trialBorder'><div class='vertical-center'><img style='vertical-align:center; align:center' src=img/fixation3.jpg></div></div>","null","","","","","","",""
"html-keyboard-response","66","195332","0.0-6.0-2.20","628dec55823f672331c68577","bdp_sd","Sat Mar 25 2023 23:48:13 GMT-0400 (Eastern Daylight Time)","207097","","1146","","","","","offer","","<div class='trialBorder'><div class='vertical-center'><img style='vertical-align:center; align:center' src=img/fixation3.jpg></div><div class='cl'><div class='vertical-center'>$34<br>for<br>yourself</div></div><div class='cr'><div class='vertical-center'>$50<br>for<br>Paige W</div></div><div class='respDivL'><div class='vertical-center'>(E)</div></div><div class='respDivR'><div class='vertical-center'>(I)</div></div></div>","I","$34<br>for<br>yourself","$50<br>for<br>4","0","34","50","4","OTHER"
"html-keyboard-response","67","195585","0.0-6.0-3.20","628dec55823f672331c68577","bdp_sd","Sat Mar 25 2023 23:48:13 GMT-0400 (Eastern Daylight Time)","207097","","null","","","","","offerFB","","<div class='trialBorder'><div class='vertical-center'><img style='vertical-align:center; align:center' src=img/fixation3.jpg></div><div class='cl'><div class='vertical-center'>$34<br>for<br>yourself</div></div><div class='cr'><div class='vertical-center'><font style='color:orange'>$50<br>for<br>Paige W</font></div></div><div class='respDivL'><div class='vertical-center'>(E)</div></div><div class='respDivR'><div class='vertical-center'><font style='color:orange'>(I)</font></div></div></div>","null","$34<br>for<br>yourself","$50<br>for<br>4","0","34","50","4",""
"html-keyboard-response","68","196089","0.0-6.0-1.21","628dec55823f672331c68577","bdp_sd","Sat Mar 25 2023 23:48:13 GMT-0400 (Eastern Daylight Time)","207097","","null","","","","","FIX","","<div class='trialBorder'><div class='vertical-center'><img style='vertical-align:center; align:center' src=img/fixation3.jpg></div></div>","null","","","","","","",""
"html-keyboard-response","69","197155","0.0-6.0-2.21","628dec55823f672331c68577","bdp_sd","Sat Mar 25 2023 23:48:13 GMT-0400 (Eastern Daylight Time)","207097","","1066","","","","","offer","","<div class='trialBorder'><div class='vertical-center'><img style='vertical-align:center; align:center' src=img/fixation3.jpg></div><div class='cl'><div class='vertical-center'>$75<br>for<br>Josh M</div></div><div class='cr'><div class='vertical-center'>$67<br>for<br>yourself</div></div><div class='respDivL'><div class='vertical-center'>(E)</div></div><div class='respDivR'><div class='vertical-center'>(I)</div></div></div>","E","$67<br>for<br>yourself","$75<br>for<br>5","1","67","75","5","OTHER"
"html-keyboard-response","70","197408","0.0-6.0-3.21","628dec55823f672331c68577","bdp_sd","Sat Mar 25 2023 23:48:13 GMT-0400 (Eastern Daylight Time)","207097","","null","","","","","offerFB","","<div class='trialBorder'><div class='vertical-center'><img style='vertical-align:center; align:center' src=img/fixation3.jpg></div><div class='cl'><div class='vertical-center'><font style='color:orange'>$75<br>for<br>Josh M</font></div></div><div class='cr'><div class='vertical-center'>$67<br>for<br>yourself</div></div><div class='respDivL'><div class='vertical-center'><font style='color:orange'>(E)</font></div></div><div class='respDivR'><div class='vertical-center'>(I)</div></div></div>","null","$67<br>for<br>yourself","$75<br>for<br>5","1","67","75","5",""
"html-keyboard-response","71","197913","0.0-6.0-1.22","628dec55823f672331c68577","bdp_sd","Sat Mar 25 2023 23:48:13 GMT-0400 (Eastern Daylight Time)","207097","","null","","","","","FIX","","<div class='trialBorder'><div class='vertical-center'><img style='vertical-align:center; align:center' src=img/fixation3.jpg></div></div>","null","","","","","","",""
"html-keyboard-response","72","198696","0.0-6.0-2.22","628dec55823f672331c68577","bdp_sd","Sat Mar 25 2023 23:48:13 GMT-0400 (Eastern Daylight Time)","207097","","783","","","","","offer","","<div class='trialBorder'><div class='vertical-center'><img style='vertical-align:center; align:center' src=img/fixation3.jpg></div><div class='cl'><div class='vertical-center'>$75<br>for<br>Steven B</div></div><div class='cr'><div class='vertical-center'>$41<br>for<br>yourself</div></div><div class='respDivL'><div class='vertical-center'>(E)</div></div><div class='respDivR'><div class='vertical-center'>(I)</div></div></div>","E","$41<br>for<br>yourself","$75<br>for<br>3","1","41","75","3","OTHER"
"html-keyboard-response","73","198948","0.0-6.0-3.22","628dec55823f672331c68577","bdp_sd","Sat Mar 25 2023 23:48:13 GMT-0400 (Eastern Daylight Time)","207097","","null","","","","","offerFB","","<div class='trialBorder'><div class='vertical-center'><img style='vertical-align:center; align:center' src=img/fixation3.jpg></div><div class='cl'><div class='vertical-center'><font style='color:orange'>$75<br>for<br>Steven B</font></div></div><div class='cr'><div class='vertical-center'>$41<br>for<br>yourself</div></div><div class='respDivL'><div class='vertical-center'><font style='color:orange'>(E)</font></div></div><div class='respDivR'><div class='vertical-center'>(I)</div></div></div>","null","$41<br>for<br>yourself","$75<br>for<br>3","1","41","75","3",""
"html-keyboard-response","74","199453","0.0-6.0-1.23","628dec55823f672331c68577","bdp_sd","Sat Mar 25 2023 23:48:13 GMT-0400 (Eastern Daylight Time)","207097","","null","","","","","FIX","","<div class='trialBorder'><div class='vertical-center'><img style='vertical-align:center; align:center' src=img/fixation3.jpg></div></div>","null","","","","","","",""
"html-keyboard-response","75","200329","0.0-6.0-2.23","628dec55823f672331c68577","bdp_sd","Sat Mar 25 2023 23:48:13 GMT-0400 (Eastern Daylight Time)","207097","","876","","","","","offer","","<div class='trialBorder'><div class='vertical-center'><img style='vertical-align:center; align:center' src=img/fixation3.jpg></div><div class='cl'><div class='vertical-center'>$33<br>for<br>yourself</div></div><div class='cr'><div class='vertical-center'>$80<br>for<br>Joseph B</div></div><div class='respDivL'><div class='vertical-center'>(E)</div></div><div class='respDivR'><div class='vertical-center'>(I)</div></div></div>","I","$33<br>for<br>yourself","$80<br>for<br>2","0","33","80","2","OTHER"
"html-keyboard-response","76","200581","0.0-6.0-3.23","628dec55823f672331c68577","bdp_sd","Sat Mar 25 2023 23:48:13 GMT-0400 (Eastern Daylight Time)","207097","","null","","","","","offerFB","","<div class='trialBorder'><div class='vertical-center'><img style='vertical-align:center; align:center' src=img/fixation3.jpg></div><div class='cl'><div class='vertical-center'>$33<br>for<br>yourself</div></div><div class='cr'><div class='vertical-center'><font style='color:orange'>$80<br>for<br>Joseph B</font></div></div><div class='respDivL'><div class='vertical-center'>(E)</div></div><div class='respDivR'><div class='vertical-center'><font style='color:orange'>(I)</font></div></div></div>","null","$33<br>for<br>yourself","$80<br>for<br>2","0","33","80","2",""
"html-keyboard-response","77","201084","0.0-6.0-1.24","628dec55823f672331c68577","bdp_sd","Sat Mar 25 2023 23:48:13 GMT-0400 (Eastern Daylight Time)","207097","","null","","","","","FIX","","<div class='trialBorder'><div class='vertical-center'><img style='vertical-align:center; align:center' src=img/fixation3.jpg></div></div>","null","","","","","","",""
"html-keyboard-response","78","202113","0.0-6.0-2.24","628dec55823f672331c68577","bdp_sd","Sat Mar 25 2023 23:48:13 GMT-0400 (Eastern Daylight Time)","207097","","1028","","","","","offer","","<div class='trialBorder'><div class='vertical-center'><img style='vertical-align:center; align:center' src=img/fixation3.jpg></div><div class='cl'><div class='vertical-center'>$24<br>for<br>yourself</div></div><div class='cr'><div class='vertical-center'>$35<br>for<br>Steven B</div></div><div class='respDivL'><div class='vertical-center'>(E)</div></div><div class='respDivR'><div class='vertical-center'>(I)</div></div></div>","I","$24<br>for<br>yourself","$35<br>for<br>3","0","24","35","3","OTHER"
"html-keyboard-response","79","202365","0.0-6.0-3.24","628dec55823f672331c68577","bdp_sd","Sat Mar 25 2023 23:48:13 GMT-0400 (Eastern Daylight Time)","207097","","null","","","","","offerFB","","<div class='trialBorder'><div class='vertical-center'><img style='vertical-align:center; align:center' src=img/fixation3.jpg></div><div class='cl'><div class='vertical-center'>$24<br>for<br>yourself</div></div><div class='cr'><div class='vertical-center'><font style='color:orange'>$35<br>for<br>Steven B</font></div></div><div class='respDivL'><div class='vertical-center'>(E)</div></div><div class='respDivR'><div class='vertical-center'><font style='color:orange'>(I)</font></div></div></div>","null","$24<br>for<br>yourself","$35<br>for<br>3","0","24","35","3",""
"html-keyboard-response","80","202868","0.0-6.0-1.25","628dec55823f672331c68577","bdp_sd","Sat Mar 25 2023 23:48:13 GMT-0400 (Eastern Daylight Time)","207097","","null","","","","","FIX","","<div class='trialBorder'><div class='vertical-center'><img style='vertical-align:center; align:center' src=img/fixation3.jpg></div></div>","null","","","","","","",""
"html-keyboard-response","81","203841","0.0-6.0-2.25","628dec55823f672331c68577","bdp_sd","Sat Mar 25 2023 23:48:13 GMT-0400 (Eastern Daylight Time)","207097","","972","","","","","offer","","<div class='trialBorder'><div class='vertical-center'><img style='vertical-align:center; align:center' src=img/fixation3.jpg></div><div class='cl'><div class='vertical-center'>$50<br>for<br>Steven B</div></div><div class='cr'><div class='vertical-center'>$27<br>for<br>yourself</div></div><div class='respDivL'><div class='vertical-center'>(E)</div></div><div class='respDivR'><div class='vertical-center'>(I)</div></div></div>","E","$27<br>for<br>yourself","$50<br>for<br>3","1","27","50","3","OTHER"
"html-keyboard-response","82","204092","0.0-6.0-3.25","628dec55823f672331c68577","bdp_sd","Sat Mar 25 2023 23:48:13 GMT-0400 (Eastern Daylight Time)","207097","","null","","","","","offerFB","","<div class='trialBorder'><div class='vertical-center'><img style='vertical-align:center; align:center' src=img/fixation3.jpg></div><div class='cl'><div class='vertical-center'><font style='color:orange'>$50<br>for<br>Steven B</font></div></div><div class='cr'><div class='vertical-center'>$27<br>for<br>yourself</div></div><div class='respDivL'><div class='vertical-center'><font style='color:orange'>(E)</font></div></div><div class='respDivR'><div class='vertical-center'>(I)</div></div></div>","null","$27<br>for<br>yourself","$50<br>for<br>3","1","27","50","3",""
"html-keyboard-response","83","204597","0.0-6.0-1.26","628dec55823f672331c68577","bdp_sd","Sat Mar 25 2023 23:48:13 GMT-0400 (Eastern Daylight Time)","207097","","null","","","","","FIX","","<div class='trialBorder'><div class='vertical-center'><img style='vertical-align:center; align:center' src=img/fixation3.jpg></div></div>","null","","","","","","",""
"html-keyboard-response","84","205840","0.0-6.0-2.26","628dec55823f672331c68577","bdp_sd","Sat Mar 25 2023 23:48:13 GMT-0400 (Eastern Daylight Time)","207097","","1243","","","","","offer","","<div class='trialBorder'><div class='vertical-center'><img style='vertical-align:center; align:center' src=img/fixation3.jpg></div><div class='cl'><div class='vertical-center'>$78<br>for<br>yourself</div></div><div class='cr'><div class='vertical-center'>$80<br>for<br>Josh M</div></div><div class='respDivL'><div class='vertical-center'>(E)</div></div><div class='respDivR'><div class='vertical-center'>(I)</div></div></div>","I","$78<br>for<br>yourself","$80<br>for<br>5","0","78","80","5","OTHER"
"html-keyboard-response","85","206093","0.0-6.0-3.26","628dec55823f672331c68577","bdp_sd","Sat Mar 25 2023 23:48:13 GMT-0400 (Eastern Daylight Time)","207097","","null","","","","","offerFB","","<div class='trialBorder'><div class='vertical-center'><img style='vertical-align:center; align:center' src=img/fixation3.jpg></div><div class='cl'><div class='vertical-center'>$78<br>for<br>yourself</div></div><div class='cr'><div class='vertical-center'><font style='color:orange'>$80<br>for<br>Josh M</font></div></div><div class='respDivL'><div class='vertical-center'>(E)</div></div><div class='respDivR'><div class='vertical-center'><font style='color:orange'>(I)</font></div></div></div>","null","$78<br>for<br>yourself","$80<br>for<br>5","0","78","80","5",""
"","","","","628dec55823f672331c68577","bdp_sd","Sat Mar 25 2023 23:48:13 GMT-0400 (Eastern Daylight Time)","207097","","","","fullscreenexit","86","206108","fullscreenexit","","","","","","","","","",""
"fullscreen","86","207097","0.0-7.0","628dec55823f672331c68577","bdp_sd","Sat Mar 25 2023 23:48:13 GMT-0400 (Eastern Daylight Time)","207097","","","","","","","","true","","","","","","","","",""
"html-keyboard-response","87","207597","0.0-8.0","","","","","","null","","","","","","","","null","","","","","","",""
