"trial_type","trial_index","time_elapsed","internal_node_id","subject_id","task","startTime","totalTime","view_history","rt","responses","event","trial","time","trialtype","success","stimulus","key_press","selfOffer","otherOffer","otherLeft","selfAmt","otherAmt","otherDist","chosen"
"pavlovia","0","7","0.0-0.0","63f477547d2302b4346299f4","bdp_sd","Sun Apr 09 2023 19:11:48 GMT-0500 (Central Daylight Time)","183639","","","","","","","","","","","","","","","","",""
"instructions","1","5574","0.0-1.0","63f477547d2302b4346299f4","bdp_sd","Sun Apr 09 2023 19:11:48 GMT-0500 (Central Daylight Time)","183639","[{""page_index"":0,""viewing_time"":5565}]","5565","","","","","","","","","","","","","","",""
"survey-text","2","96975","0.0-2.0","63f477547d2302b4346299f4","bdp_sd","Sun Apr 09 2023 19:11:48 GMT-0500 (Central Daylight Time)","183639","","91398","{""Q0"":""David w"",""Q1"":""Warner J"",""Q2"":""George B"",""Q3"":""William P"",""Q4"":""Barak M""}","","","","","","","","","","","","","",""
"","","","","63f477547d2302b4346299f4","bdp_sd","Sun Apr 09 2023 19:11:48 GMT-0500 (Central Daylight Time)","183639","","","","fullscreenenter","3","98529","fullscreenenter","","","","","","","","","",""
"fullscreen","3","99515","0.0-3.0","63f477547d2302b4346299f4","bdp_sd","Sun Apr 09 2023 19:11:48 GMT-0500 (Central Daylight Time)","183639","","","","","","","","true","","","","","","","","",""
"instructions","4","118140","0.0-5.0","63f477547d2302b4346299f4","bdp_sd","Sun Apr 09 2023 19:11:48 GMT-0500 (Central Daylight Time)","183639","[{""page_index"":0,""viewing_time"":3973},{""page_index"":1,""viewing_time"":12672},{""page_index"":2,""viewing_time"":1978}]","18623","","","","","","","","","","","","","","",""
"html-keyboard-response","5","118649","0.0-6.0-1.0","63f477547d2302b4346299f4","bdp_sd","Sun Apr 09 2023 19:11:48 GMT-0500 (Central Daylight Time)","183639","","null","","","","","FIX","","<div class='trialBorder'><div class='vertical-center'><img style='vertical-align:center; align:center' src=img/fixation3.jpg></div></div>","null","","","","","","",""
"html-keyboard-response","6","121468","0.0-6.0-2.0","63f477547d2302b4346299f4","bdp_sd","Sun Apr 09 2023 19:11:48 GMT-0500 (Central Daylight Time)","183639","","2817","","","","","offer","","<div class='trialBorder'><div class='vertical-center'><img style='vertical-align:center; align:center' src=img/fixation3.jpg></div><div class='cl'><div class='vertical-center'>$80<br>for<br>Barak M</div></div><div class='cr'><div class='vertical-center'>$78<br>for<br>yourself</div></div><div class='respDivL'><div class='vertical-center'>(E)</div></div><div class='respDivR'><div class='vertical-center'>(I)</div></div></div>","I","$78<br>for<br>yourself","$80<br>for<br>5","1","78","80","5","SELF"
"html-keyboard-response","7","121722","0.0-6.0-3.0","63f477547d2302b4346299f4","bdp_sd","Sun Apr 09 2023 19:11:48 GMT-0500 (Central Daylight Time)","183639","","null","","","","","offerFB","","<div class='trialBorder'><div class='vertical-center'><img style='vertical-align:center; align:center' src=img/fixation3.jpg></div><div class='cl'><div class='vertical-center'>$80<br>for<br>Barak M</div></div><div class='cr'><div class='vertical-center'><font style='color:orange'>$78<br>for<br>yourself</font></div></div><div class='respDivL'><div class='vertical-center'>(E)</div></div><div class='respDivR'><div class='vertical-center'><font style='color:orange'>(I)</font></div></div></div>","null","$78<br>for<br>yourself","$80<br>for<br>5","1","78","80","5",""
"html-keyboard-response","8","122227","0.0-6.0-1.1","63f477547d2302b4346299f4","bdp_sd","Sun Apr 09 2023 19:11:48 GMT-0500 (Central Daylight Time)","183639","","null","","","","","FIX","","<div class='trialBorder'><div class='vertical-center'><img style='vertical-align:center; align:center' src=img/fixation3.jpg></div></div>","null","","","","","","",""
"html-keyboard-response","9","123693","0.0-6.0-2.1","63f477547d2302b4346299f4","bdp_sd","Sun Apr 09 2023 19:11:48 GMT-0500 (Central Daylight Time)","183639","","1464","","","","","offer","","<div class='trialBorder'><div class='vertical-center'><img style='vertical-align:center; align:center' src=img/fixation3.jpg></div><div class='cl'><div class='vertical-center'>$25<br>for<br>William P</div></div><div class='cr'><div class='vertical-center'>$19<br>for<br>yourself</div></div><div class='respDivL'><div class='vertical-center'>(E)</div></div><div class='respDivR'><div class='vertical-center'>(I)</div></div></div>","I","$19<br>for<br>yourself","$25<br>for<br>4","1","19","25","4","SELF"
"html-keyboard-response","10","123950","0.0-6.0-3.1","63f477547d2302b4346299f4","bdp_sd","Sun Apr 09 2023 19:11:48 GMT-0500 (Central Daylight Time)","183639","","null","","","","","offerFB","","<div class='trialBorder'><div class='vertical-center'><img style='vertical-align:center; align:center' src=img/fixation3.jpg></div><div class='cl'><div class='vertical-center'>$25<br>for<br>William P</div></div><div class='cr'><div class='vertical-center'><font style='color:orange'>$19<br>for<br>yourself</font></div></div><div class='respDivL'><div class='vertical-center'>(E)</div></div><div class='respDivR'><div class='vertical-center'><font style='color:orange'>(I)</font></div></div></div>","null","$19<br>for<br>yourself","$25<br>for<br>4","1","19","25","4",""
"html-keyboard-response","11","124460","0.0-6.0-1.2","63f477547d2302b4346299f4","bdp_sd","Sun Apr 09 2023 19:11:48 GMT-0500 (Central Daylight Time)","183639","","null","","","","","FIX","","<div class='trialBorder'><div class='vertical-center'><img style='vertical-align:center; align:center' src=img/fixation3.jpg></div></div>","null","","","","","","",""
"html-keyboard-response","12","126265","0.0-6.0-2.2","63f477547d2302b4346299f4","bdp_sd","Sun Apr 09 2023 19:11:48 GMT-0500 (Central Daylight Time)","183639","","1804","","","","","offer","","<div class='trialBorder'><div class='vertical-center'><img style='vertical-align:center; align:center' src=img/fixation3.jpg></div><div class='cl'><div class='vertical-center'>$30<br>for<br>Warner J</div></div><div class='cr'><div class='vertical-center'>$11<br>for<br>yourself</div></div><div class='respDivL'><div class='vertical-center'>(E)</div></div><div class='respDivR'><div class='vertical-center'>(I)</div></div></div>","E","$11<br>for<br>yourself","$30<br>for<br>2","1","11","30","2","OTHER"
"html-keyboard-response","13","126520","0.0-6.0-3.2","63f477547d2302b4346299f4","bdp_sd","Sun Apr 09 2023 19:11:48 GMT-0500 (Central Daylight Time)","183639","","null","","","","","offerFB","","<div class='trialBorder'><div class='vertical-center'><img style='vertical-align:center; align:center' src=img/fixation3.jpg></div><div class='cl'><div class='vertical-center'><font style='color:orange'>$30<br>for<br>Warner J</font></div></div><div class='cr'><div class='vertical-center'>$11<br>for<br>yourself</div></div><div class='respDivL'><div class='vertical-center'><font style='color:orange'>(E)</font></div></div><div class='respDivR'><div class='vertical-center'>(I)</div></div></div>","null","$11<br>for<br>yourself","$30<br>for<br>2","1","11","30","2",""
"html-keyboard-response","14","127028","0.0-6.0-1.3","63f477547d2302b4346299f4","bdp_sd","Sun Apr 09 2023 19:11:48 GMT-0500 (Central Daylight Time)","183639","","null","","","","","FIX","","<div class='trialBorder'><div class='vertical-center'><img style='vertical-align:center; align:center' src=img/fixation3.jpg></div></div>","null","","","","","","",""
"html-keyboard-response","15","128168","0.0-6.0-2.3","63f477547d2302b4346299f4","bdp_sd","Sun Apr 09 2023 19:11:48 GMT-0500 (Central Daylight Time)","183639","","1138","","","","","offer","","<div class='trialBorder'><div class='vertical-center'><img style='vertical-align:center; align:center' src=img/fixation3.jpg></div><div class='cl'><div class='vertical-center'>$50<br>for<br>Barak M</div></div><div class='cr'><div class='vertical-center'>$47<br>for<br>yourself</div></div><div class='respDivL'><div class='vertical-center'>(E)</div></div><div class='respDivR'><div class='vertical-center'>(I)</div></div></div>","I","$47<br>for<br>yourself","$50<br>for<br>5","1","47","50","5","SELF"
"html-keyboard-response","16","128421","0.0-6.0-3.3","63f477547d2302b4346299f4","bdp_sd","Sun Apr 09 2023 19:11:48 GMT-0500 (Central Daylight Time)","183639","","null","","","","","offerFB","","<div class='trialBorder'><div class='vertical-center'><img style='vertical-align:center; align:center' src=img/fixation3.jpg></div><div class='cl'><div class='vertical-center'>$50<br>for<br>Barak M</div></div><div class='cr'><div class='vertical-center'><font style='color:orange'>$47<br>for<br>yourself</font></div></div><div class='respDivL'><div class='vertical-center'>(E)</div></div><div class='respDivR'><div class='vertical-center'><font style='color:orange'>(I)</font></div></div></div>","null","$47<br>for<br>yourself","$50<br>for<br>5","1","47","50","5",""
"html-keyboard-response","17","128931","0.0-6.0-1.4","63f477547d2302b4346299f4","bdp_sd","Sun Apr 09 2023 19:11:48 GMT-0500 (Central Daylight Time)","183639","","null","","","","","FIX","","<div class='trialBorder'><div class='vertical-center'><img style='vertical-align:center; align:center' src=img/fixation3.jpg></div></div>","null","","","","","","",""
"html-keyboard-response","18","130301","0.0-6.0-2.4","63f477547d2302b4346299f4","bdp_sd","Sun Apr 09 2023 19:11:48 GMT-0500 (Central Daylight Time)","183639","","1368","","","","","offer","","<div class='trialBorder'><div class='vertical-center'><img style='vertical-align:center; align:center' src=img/fixation3.jpg></div><div class='cl'><div class='vertical-center'>$25<br>for<br>yourself</div></div><div class='cr'><div class='vertical-center'>$60<br>for<br>George B</div></div><div class='respDivL'><div class='vertical-center'>(E)</div></div><div class='respDivR'><div class='vertical-center'>(I)</div></div></div>","I","$25<br>for<br>yourself","$60<br>for<br>3","0","25","60","3","OTHER"
"html-keyboard-response","19","130560","0.0-6.0-3.4","63f477547d2302b4346299f4","bdp_sd","Sun Apr 09 2023 19:11:48 GMT-0500 (Central Daylight Time)","183639","","null","","","","","offerFB","","<div class='trialBorder'><div class='vertical-center'><img style='vertical-align:center; align:center' src=img/fixation3.jpg></div><div class='cl'><div class='vertical-center'>$25<br>for<br>yourself</div></div><div class='cr'><div class='vertical-center'><font style='color:orange'>$60<br>for<br>George B</font></div></div><div class='respDivL'><div class='vertical-center'>(E)</div></div><div class='respDivR'><div class='vertical-center'><font style='color:orange'>(I)</font></div></div></div>","null","$25<br>for<br>yourself","$60<br>for<br>3","0","25","60","3",""
"html-keyboard-response","20","131062","0.0-6.0-1.5","63f477547d2302b4346299f4","bdp_sd","Sun Apr 09 2023 19:11:48 GMT-0500 (Central Daylight Time)","183639","","null","","","","","FIX","","<div class='trialBorder'><div class='vertical-center'><img style='vertical-align:center; align:center' src=img/fixation3.jpg></div></div>","null","","","","","","",""
"html-keyboard-response","21","132176","0.0-6.0-2.5","63f477547d2302b4346299f4","bdp_sd","Sun Apr 09 2023 19:11:48 GMT-0500 (Central Daylight Time)","183639","","1112","","","","","offer","","<div class='trialBorder'><div class='vertical-center'><img style='vertical-align:center; align:center' src=img/fixation3.jpg></div><div class='cl'><div class='vertical-center'>$30<br>for<br>William P</div></div><div class='cr'><div class='vertical-center'>$25<br>for<br>yourself</div></div><div class='respDivL'><div class='vertical-center'>(E)</div></div><div class='respDivR'><div class='vertical-center'>(I)</div></div></div>","I","$25<br>for<br>yourself","$30<br>for<br>4","1","25","30","4","SELF"
"html-keyboard-response","22","132430","0.0-6.0-3.5","63f477547d2302b4346299f4","bdp_sd","Sun Apr 09 2023 19:11:48 GMT-0500 (Central Daylight Time)","183639","","null","","","","","offerFB","","<div class='trialBorder'><div class='vertical-center'><img style='vertical-align:center; align:center' src=img/fixation3.jpg></div><div class='cl'><div class='vertical-center'>$30<br>for<br>William P</div></div><div class='cr'><div class='vertical-center'><font style='color:orange'>$25<br>for<br>yourself</font></div></div><div class='respDivL'><div class='vertical-center'>(E)</div></div><div class='respDivR'><div class='vertical-center'><font style='color:orange'>(I)</font></div></div></div>","null","$25<br>for<br>yourself","$30<br>for<br>4","1","25","30","4",""
"html-keyboard-response","23","132941","0.0-6.0-1.6","63f477547d2302b4346299f4","bdp_sd","Sun Apr 09 2023 19:11:48 GMT-0500 (Central Daylight Time)","183639","","null","","","","","FIX","","<div class='trialBorder'><div class='vertical-center'><img style='vertical-align:center; align:center' src=img/fixation3.jpg></div></div>","null","","","","","","",""
"html-keyboard-response","24","134341","0.0-6.0-2.6","63f477547d2302b4346299f4","bdp_sd","Sun Apr 09 2023 19:11:48 GMT-0500 (Central Daylight Time)","183639","","1398","","","","","offer","","<div class='trialBorder'><div class='vertical-center'><img style='vertical-align:center; align:center' src=img/fixation3.jpg></div><div class='cl'><div class='vertical-center'>$50<br>for<br>George B</div></div><div class='cr'><div class='vertical-center'>$27<br>for<br>yourself</div></div><div class='respDivL'><div class='vertical-center'>(E)</div></div><div class='respDivR'><div class='vertical-center'>(I)</div></div></div>","E","$27<br>for<br>yourself","$50<br>for<br>3","1","27","50","3","OTHER"
"html-keyboard-response","25","134593","0.0-6.0-3.6","63f477547d2302b4346299f4","bdp_sd","Sun Apr 09 2023 19:11:48 GMT-0500 (Central Daylight Time)","183639","","null","","","","","offerFB","","<div class='trialBorder'><div class='vertical-center'><img style='vertical-align:center; align:center' src=img/fixation3.jpg></div><div class='cl'><div class='vertical-center'><font style='color:orange'>$50<br>for<br>George B</font></div></div><div class='cr'><div class='vertical-center'>$27<br>for<br>yourself</div></div><div class='respDivL'><div class='vertical-center'><font style='color:orange'>(E)</font></div></div><div class='respDivR'><div class='vertical-center'>(I)</div></div></div>","null","$27<br>for<br>yourself","$50<br>for<br>3","1","27","50","3",""
"html-keyboard-response","26","135099","0.0-6.0-1.7","63f477547d2302b4346299f4","bdp_sd","Sun Apr 09 2023 19:11:48 GMT-0500 (Central Daylight Time)","183639","","null","","","","","FIX","","<div class='trialBorder'><div class='vertical-center'><img style='vertical-align:center; align:center' src=img/fixation3.jpg></div></div>","null","","","","","","",""
"html-keyboard-response","27","136274","0.0-6.0-2.7","63f477547d2302b4346299f4","bdp_sd","Sun Apr 09 2023 19:11:48 GMT-0500 (Central Daylight Time)","183639","","1173","","","","","offer","","<div class='trialBorder'><div class='vertical-center'><img style='vertical-align:center; align:center' src=img/fixation3.jpg></div><div class='cl'><div class='vertical-center'>$30<br>for<br>Barak M</div></div><div class='cr'><div class='vertical-center'>$28<br>for<br>yourself</div></div><div class='respDivL'><div class='vertical-center'>(E)</div></div><div class='respDivR'><div class='vertical-center'>(I)</div></div></div>","I","$28<br>for<br>yourself","$30<br>for<br>5","1","28","30","5","SELF"
"html-keyboard-response","28","136527","0.0-6.0-3.7","63f477547d2302b4346299f4","bdp_sd","Sun Apr 09 2023 19:11:48 GMT-0500 (Central Daylight Time)","183639","","null","","","","","offerFB","","<div class='trialBorder'><div class='vertical-center'><img style='vertical-align:center; align:center' src=img/fixation3.jpg></div><div class='cl'><div class='vertical-center'>$30<br>for<br>Barak M</div></div><div class='cr'><div class='vertical-center'><font style='color:orange'>$28<br>for<br>yourself</font></div></div><div class='respDivL'><div class='vertical-center'>(E)</div></div><div class='respDivR'><div class='vertical-center'><font style='color:orange'>(I)</font></div></div></div>","null","$28<br>for<br>yourself","$30<br>for<br>5","1","28","30","5",""
"html-keyboard-response","29","137030","0.0-6.0-1.8","63f477547d2302b4346299f4","bdp_sd","Sun Apr 09 2023 19:11:48 GMT-0500 (Central Daylight Time)","183639","","null","","","","","FIX","","<div class='trialBorder'><div class='vertical-center'><img style='vertical-align:center; align:center' src=img/fixation3.jpg></div></div>","null","","","","","","",""
"html-keyboard-response","30","138700","0.0-6.0-2.8","63f477547d2302b4346299f4","bdp_sd","Sun Apr 09 2023 19:11:48 GMT-0500 (Central Daylight Time)","183639","","1668","","","","","offer","","<div class='trialBorder'><div class='vertical-center'><img style='vertical-align:center; align:center' src=img/fixation3.jpg></div><div class='cl'><div class='vertical-center'>$60<br>for<br>Barak M</div></div><div class='cr'><div class='vertical-center'>$54<br>for<br>yourself</div></div><div class='respDivL'><div class='vertical-center'>(E)</div></div><div class='respDivR'><div class='vertical-center'>(I)</div></div></div>","I","$54<br>for<br>yourself","$60<br>for<br>5","1","54","60","5","SELF"
"html-keyboard-response","31","138960","0.0-6.0-3.8","63f477547d2302b4346299f4","bdp_sd","Sun Apr 09 2023 19:11:48 GMT-0500 (Central Daylight Time)","183639","","null","","","","","offerFB","","<div class='trialBorder'><div class='vertical-center'><img style='vertical-align:center; align:center' src=img/fixation3.jpg></div><div class='cl'><div class='vertical-center'>$60<br>for<br>Barak M</div></div><div class='cr'><div class='vertical-center'><font style='color:orange'>$54<br>for<br>yourself</font></div></div><div class='respDivL'><div class='vertical-center'>(E)</div></div><div class='respDivR'><div class='vertical-center'><font style='color:orange'>(I)</font></div></div></div>","null","$54<br>for<br>yourself","$60<br>for<br>5","1","54","60","5",""
"html-keyboard-response","32","139467","0.0-6.0-1.9","63f477547d2302b4346299f4","bdp_sd","Sun Apr 09 2023 19:11:48 GMT-0500 (Central Daylight Time)","183639","","null","","","","","FIX","","<div class='trialBorder'><div class='vertical-center'><img style='vertical-align:center; align:center' src=img/fixation3.jpg></div></div>","null","","","","","","",""
"html-keyboard-response","33","141104","0.0-6.0-2.9","63f477547d2302b4346299f4","bdp_sd","Sun Apr 09 2023 19:11:48 GMT-0500 (Central Daylight Time)","183639","","1635","","","","","offer","","<div class='trialBorder'><div class='vertical-center'><img style='vertical-align:center; align:center' src=img/fixation3.jpg></div><div class='cl'><div class='vertical-center'>$55<br>for<br>Barak M</div></div><div class='cr'><div class='vertical-center'>$54<br>for<br>yourself</div></div><div class='respDivL'><div class='vertical-center'>(E)</div></div><div class='respDivR'><div class='vertical-center'>(I)</div></div></div>","I","$54<br>for<br>yourself","$55<br>for<br>5","1","54","55","5","SELF"
"html-keyboard-response","34","141356","0.0-6.0-3.9","63f477547d2302b4346299f4","bdp_sd","Sun Apr 09 2023 19:11:48 GMT-0500 (Central Daylight Time)","183639","","null","","","","","offerFB","","<div class='trialBorder'><div class='vertical-center'><img style='vertical-align:center; align:center' src=img/fixation3.jpg></div><div class='cl'><div class='vertical-center'>$55<br>for<br>Barak M</div></div><div class='cr'><div class='vertical-center'><font style='color:orange'>$54<br>for<br>yourself</font></div></div><div class='respDivL'><div class='vertical-center'>(E)</div></div><div class='respDivR'><div class='vertical-center'><font style='color:orange'>(I)</font></div></div></div>","null","$54<br>for<br>yourself","$55<br>for<br>5","1","54","55","5",""
"html-keyboard-response","35","141866","0.0-6.0-1.10","63f477547d2302b4346299f4","bdp_sd","Sun Apr 09 2023 19:11:48 GMT-0500 (Central Daylight Time)","183639","","null","","","","","FIX","","<div class='trialBorder'><div class='vertical-center'><img style='vertical-align:center; align:center' src=img/fixation3.jpg></div></div>","null","","","","","","",""
"html-keyboard-response","36","143018","0.0-6.0-2.10","63f477547d2302b4346299f4","bdp_sd","Sun Apr 09 2023 19:11:48 GMT-0500 (Central Daylight Time)","183639","","1150","","","","","offer","","<div class='trialBorder'><div class='vertical-center'><img style='vertical-align:center; align:center' src=img/fixation3.jpg></div><div class='cl'><div class='vertical-center'>$85<br>for<br>Barak M</div></div><div class='cr'><div class='vertical-center'>$80<br>for<br>yourself</div></div><div class='respDivL'><div class='vertical-center'>(E)</div></div><div class='respDivR'><div class='vertical-center'>(I)</div></div></div>","I","$80<br>for<br>yourself","$85<br>for<br>5","1","80","85","5","SELF"
"html-keyboard-response","37","143278","0.0-6.0-3.10","63f477547d2302b4346299f4","bdp_sd","Sun Apr 09 2023 19:11:48 GMT-0500 (Central Daylight Time)","183639","","null","","","","","offerFB","","<div class='trialBorder'><div class='vertical-center'><img style='vertical-align:center; align:center' src=img/fixation3.jpg></div><div class='cl'><div class='vertical-center'>$85<br>for<br>Barak M</div></div><div class='cr'><div class='vertical-center'><font style='color:orange'>$80<br>for<br>yourself</font></div></div><div class='respDivL'><div class='vertical-center'>(E)</div></div><div class='respDivR'><div class='vertical-center'><font style='color:orange'>(I)</font></div></div></div>","null","$80<br>for<br>yourself","$85<br>for<br>5","1","80","85","5",""
"html-keyboard-response","38","143787","0.0-6.0-1.11","63f477547d2302b4346299f4","bdp_sd","Sun Apr 09 2023 19:11:48 GMT-0500 (Central Daylight Time)","183639","","null","","","","","FIX","","<div class='trialBorder'><div class='vertical-center'><img style='vertical-align:center; align:center' src=img/fixation3.jpg></div></div>","null","","","","","","",""
"html-keyboard-response","39","145409","0.0-6.0-2.11","63f477547d2302b4346299f4","bdp_sd","Sun Apr 09 2023 19:11:48 GMT-0500 (Central Daylight Time)","183639","","1620","","","","","offer","","<div class='trialBorder'><div class='vertical-center'><img style='vertical-align:center; align:center' src=img/fixation3.jpg></div><div class='cl'><div class='vertical-center'>$67<br>for<br>yourself</div></div><div class='cr'><div class='vertical-center'>$75<br>for<br>Barak M</div></div><div class='respDivL'><div class='vertical-center'>(E)</div></div><div class='respDivR'><div class='vertical-center'>(I)</div></div></div>","E","$67<br>for<br>yourself","$75<br>for<br>5","0","67","75","5","SELF"
"html-keyboard-response","40","145664","0.0-6.0-3.11","63f477547d2302b4346299f4","bdp_sd","Sun Apr 09 2023 19:11:48 GMT-0500 (Central Daylight Time)","183639","","null","","","","","offerFB","","<div class='trialBorder'><div class='vertical-center'><img style='vertical-align:center; align:center' src=img/fixation3.jpg></div><div class='cl'><div class='vertical-center'><font style='color:orange'>$67<br>for<br>yourself</font></div></div><div class='cr'><div class='vertical-center'>$75<br>for<br>Barak M</div></div><div class='respDivL'><div class='vertical-center'><font style='color:orange'>(E)</font></div></div><div class='respDivR'><div class='vertical-center'>(I)</div></div></div>","null","$67<br>for<br>yourself","$75<br>for<br>5","0","67","75","5",""
"html-keyboard-response","41","146174","0.0-6.0-1.12","63f477547d2302b4346299f4","bdp_sd","Sun Apr 09 2023 19:11:48 GMT-0500 (Central Daylight Time)","183639","","null","","","","","FIX","","<div class='trialBorder'><div class='vertical-center'><img style='vertical-align:center; align:center' src=img/fixation3.jpg></div></div>","null","","","","","","",""
"html-keyboard-response","42","147931","0.0-6.0-2.12","63f477547d2302b4346299f4","bdp_sd","Sun Apr 09 2023 19:11:48 GMT-0500 (Central Daylight Time)","183639","","1756","","","","","offer","","<div class='trialBorder'><div class='vertical-center'><img style='vertical-align:center; align:center' src=img/fixation3.jpg></div><div class='cl'><div class='vertical-center'>$14<br>for<br>yourself</div></div><div class='cr'><div class='vertical-center'>$25<br>for<br>George B</div></div><div class='respDivL'><div class='vertical-center'>(E)</div></div><div class='respDivR'><div class='vertical-center'>(I)</div></div></div>","I","$14<br>for<br>yourself","$25<br>for<br>3","0","14","25","3","OTHER"
"html-keyboard-response","43","148192","0.0-6.0-3.12","63f477547d2302b4346299f4","bdp_sd","Sun Apr 09 2023 19:11:48 GMT-0500 (Central Daylight Time)","183639","","null","","","","","offerFB","","<div class='trialBorder'><div class='vertical-center'><img style='vertical-align:center; align:center' src=img/fixation3.jpg></div><div class='cl'><div class='vertical-center'>$14<br>for<br>yourself</div></div><div class='cr'><div class='vertical-center'><font style='color:orange'>$25<br>for<br>George B</font></div></div><div class='respDivL'><div class='vertical-center'>(E)</div></div><div class='respDivR'><div class='vertical-center'><font style='color:orange'>(I)</font></div></div></div>","null","$14<br>for<br>yourself","$25<br>for<br>3","0","14","25","3",""
"html-keyboard-response","44","148700","0.0-6.0-1.13","63f477547d2302b4346299f4","bdp_sd","Sun Apr 09 2023 19:11:48 GMT-0500 (Central Daylight Time)","183639","","null","","","","","FIX","","<div class='trialBorder'><div class='vertical-center'><img style='vertical-align:center; align:center' src=img/fixation3.jpg></div></div>","null","","","","","","",""
"html-keyboard-response","45","150722","0.0-6.0-2.13","63f477547d2302b4346299f4","bdp_sd","Sun Apr 09 2023 19:11:48 GMT-0500 (Central Daylight Time)","183639","","2020","","","","","offer","","<div class='trialBorder'><div class='vertical-center'><img style='vertical-align:center; align:center' src=img/fixation3.jpg></div><div class='cl'><div class='vertical-center'>$49<br>for<br>yourself</div></div><div class='cr'><div class='vertical-center'>$60<br>for<br>William P</div></div><div class='respDivL'><div class='vertical-center'>(E)</div></div><div class='respDivR'><div class='vertical-center'>(I)</div></div></div>","E","$49<br>for<br>yourself","$60<br>for<br>4","0","49","60","4","SELF"
"html-keyboard-response","46","150981","0.0-6.0-3.13","63f477547d2302b4346299f4","bdp_sd","Sun Apr 09 2023 19:11:48 GMT-0500 (Central Daylight Time)","183639","","null","","","","","offerFB","","<div class='trialBorder'><div class='vertical-center'><img style='vertical-align:center; align:center' src=img/fixation3.jpg></div><div class='cl'><div class='vertical-center'><font style='color:orange'>$49<br>for<br>yourself</font></div></div><div class='cr'><div class='vertical-center'>$60<br>for<br>William P</div></div><div class='respDivL'><div class='vertical-center'><font style='color:orange'>(E)</font></div></div><div class='respDivR'><div class='vertical-center'>(I)</div></div></div>","null","$49<br>for<br>yourself","$60<br>for<br>4","0","49","60","4",""
"html-keyboard-response","47","151487","0.0-6.0-1.14","63f477547d2302b4346299f4","bdp_sd","Sun Apr 09 2023 19:11:48 GMT-0500 (Central Daylight Time)","183639","","null","","","","","FIX","","<div class='trialBorder'><div class='vertical-center'><img style='vertical-align:center; align:center' src=img/fixation3.jpg></div></div>","null","","","","","","",""
"html-keyboard-response","48","153419","0.0-6.0-2.14","63f477547d2302b4346299f4","bdp_sd","Sun Apr 09 2023 19:11:48 GMT-0500 (Central Daylight Time)","183639","","1931","","","","","offer","","<div class='trialBorder'><div class='vertical-center'><img style='vertical-align:center; align:center' src=img/fixation3.jpg></div><div class='cl'><div class='vertical-center'>$80<br>for<br>Warner J</div></div><div class='cr'><div class='vertical-center'>$33<br>for<br>yourself</div></div><div class='respDivL'><div class='vertical-center'>(E)</div></div><div class='respDivR'><div class='vertical-center'>(I)</div></div></div>","I","$33<br>for<br>yourself","$80<br>for<br>2","1","33","80","2","SELF"
"html-keyboard-response","49","153673","0.0-6.0-3.14","63f477547d2302b4346299f4","bdp_sd","Sun Apr 09 2023 19:11:48 GMT-0500 (Central Daylight Time)","183639","","null","","","","","offerFB","","<div class='trialBorder'><div class='vertical-center'><img style='vertical-align:center; align:center' src=img/fixation3.jpg></div><div class='cl'><div class='vertical-center'>$80<br>for<br>Warner J</div></div><div class='cr'><div class='vertical-center'><font style='color:orange'>$33<br>for<br>yourself</font></div></div><div class='respDivL'><div class='vertical-center'>(E)</div></div><div class='respDivR'><div class='vertical-center'><font style='color:orange'>(I)</font></div></div></div>","null","$33<br>for<br>yourself","$80<br>for<br>2","1","33","80","2",""
"html-keyboard-response","50","154189","0.0-6.0-1.15","63f477547d2302b4346299f4","bdp_sd","Sun Apr 09 2023 19:11:48 GMT-0500 (Central Daylight Time)","183639","","null","","","","","FIX","","<div class='trialBorder'><div class='vertical-center'><img style='vertical-align:center; align:center' src=img/fixation3.jpg></div></div>","null","","","","","","",""
"html-keyboard-response","51","156117","0.0-6.0-2.15","63f477547d2302b4346299f4","bdp_sd","Sun Apr 09 2023 19:11:48 GMT-0500 (Central Daylight Time)","183639","","1927","","","","","offer","","<div class='trialBorder'><div class='vertical-center'><img style='vertical-align:center; align:center' src=img/fixation3.jpg></div><div class='cl'><div class='vertical-center'>$69<br>for<br>yourself</div></div><div class='cr'><div class='vertical-center'>$85<br>for<br>William P</div></div><div class='respDivL'><div class='vertical-center'>(E)</div></div><div class='respDivR'><div class='vertical-center'>(I)</div></div></div>","E","$69<br>for<br>yourself","$85<br>for<br>4","0","69","85","4","SELF"
"html-keyboard-response","52","156370","0.0-6.0-3.15","63f477547d2302b4346299f4","bdp_sd","Sun Apr 09 2023 19:11:48 GMT-0500 (Central Daylight Time)","183639","","null","","","","","offerFB","","<div class='trialBorder'><div class='vertical-center'><img style='vertical-align:center; align:center' src=img/fixation3.jpg></div><div class='cl'><div class='vertical-center'><font style='color:orange'>$69<br>for<br>yourself</font></div></div><div class='cr'><div class='vertical-center'>$85<br>for<br>William P</div></div><div class='respDivL'><div class='vertical-center'><font style='color:orange'>(E)</font></div></div><div class='respDivR'><div class='vertical-center'>(I)</div></div></div>","null","$69<br>for<br>yourself","$85<br>for<br>4","0","69","85","4",""
"html-keyboard-response","53","156879","0.0-6.0-1.16","63f477547d2302b4346299f4","bdp_sd","Sun Apr 09 2023 19:11:48 GMT-0500 (Central Daylight Time)","183639","","null","","","","","FIX","","<div class='trialBorder'><div class='vertical-center'><img style='vertical-align:center; align:center' src=img/fixation3.jpg></div></div>","null","","","","","","",""
"html-keyboard-response","54","158397","0.0-6.0-2.16","63f477547d2302b4346299f4","bdp_sd","Sun Apr 09 2023 19:11:48 GMT-0500 (Central Daylight Time)","183639","","1516","","","","","offer","","<div class='trialBorder'><div class='vertical-center'><img style='vertical-align:center; align:center' src=img/fixation3.jpg></div><div class='cl'><div class='vertical-center'>$40<br>for<br>yourself</div></div><div class='cr'><div class='vertical-center'>$55<br>for<br>William P</div></div><div class='respDivL'><div class='vertical-center'>(E)</div></div><div class='respDivR'><div class='vertical-center'>(I)</div></div></div>","I","$40<br>for<br>yourself","$55<br>for<br>4","0","40","55","4","OTHER"
"html-keyboard-response","55","158651","0.0-6.0-3.16","63f477547d2302b4346299f4","bdp_sd","Sun Apr 09 2023 19:11:48 GMT-0500 (Central Daylight Time)","183639","","null","","","","","offerFB","","<div class='trialBorder'><div class='vertical-center'><img style='vertical-align:center; align:center' src=img/fixation3.jpg></div><div class='cl'><div class='vertical-center'>$40<br>for<br>yourself</div></div><div class='cr'><div class='vertical-center'><font style='color:orange'>$55<br>for<br>William P</font></div></div><div class='respDivL'><div class='vertical-center'>(E)</div></div><div class='respDivR'><div class='vertical-center'><font style='color:orange'>(I)</font></div></div></div>","null","$40<br>for<br>yourself","$55<br>for<br>4","0","40","55","4",""
"html-keyboard-response","56","159160","0.0-6.0-1.17","63f477547d2302b4346299f4","bdp_sd","Sun Apr 09 2023 19:11:48 GMT-0500 (Central Daylight Time)","183639","","null","","","","","FIX","","<div class='trialBorder'><div class='vertical-center'><img style='vertical-align:center; align:center' src=img/fixation3.jpg></div></div>","null","","","","","","",""
"html-keyboard-response","57","160718","0.0-6.0-2.17","63f477547d2302b4346299f4","bdp_sd","Sun Apr 09 2023 19:11:48 GMT-0500 (Central Daylight Time)","183639","","1556","","","","","offer","","<div class='trialBorder'><div class='vertical-center'><img style='vertical-align:center; align:center' src=img/fixation3.jpg></div><div class='cl'><div class='vertical-center'>$24<br>for<br>yourself</div></div><div class='cr'><div class='vertical-center'>$35<br>for<br>George B</div></div><div class='respDivL'><div class='vertical-center'>(E)</div></div><div class='respDivR'><div class='vertical-center'>(I)</div></div></div>","E","$24<br>for<br>yourself","$35<br>for<br>3","0","24","35","3","SELF"
"html-keyboard-response","58","160974","0.0-6.0-3.17","63f477547d2302b4346299f4","bdp_sd","Sun Apr 09 2023 19:11:48 GMT-0500 (Central Daylight Time)","183639","","null","","","","","offerFB","","<div class='trialBorder'><div class='vertical-center'><img style='vertical-align:center; align:center' src=img/fixation3.jpg></div><div class='cl'><div class='vertical-center'><font style='color:orange'>$24<br>for<br>yourself</font></div></div><div class='cr'><div class='vertical-center'>$35<br>for<br>George B</div></div><div class='respDivL'><div class='vertical-center'><font style='color:orange'>(E)</font></div></div><div class='respDivR'><div class='vertical-center'>(I)</div></div></div>","null","$24<br>for<br>yourself","$35<br>for<br>3","0","24","35","3",""
"html-keyboard-response","59","161482","0.0-6.0-1.18","63f477547d2302b4346299f4","bdp_sd","Sun Apr 09 2023 19:11:48 GMT-0500 (Central Daylight Time)","183639","","null","","","","","FIX","","<div class='trialBorder'><div class='vertical-center'><img style='vertical-align:center; align:center' src=img/fixation3.jpg></div></div>","null","","","","","","",""
"html-keyboard-response","60","162757","0.0-6.0-2.18","63f477547d2302b4346299f4","bdp_sd","Sun Apr 09 2023 19:11:48 GMT-0500 (Central Daylight Time)","183639","","1274","","","","","offer","","<div class='trialBorder'><div class='vertical-center'><img style='vertical-align:center; align:center' src=img/fixation3.jpg></div><div class='cl'><div class='vertical-center'>$20<br>for<br>yourself</div></div><div class='cr'><div class='vertical-center'>$55<br>for<br>David w</div></div><div class='respDivL'><div class='vertical-center'>(E)</div></div><div class='respDivR'><div class='vertical-center'>(I)</div></div></div>","I","$20<br>for<br>yourself","$55<br>for<br>1","0","20","55","1","OTHER"
"html-keyboard-response","61","163009","0.0-6.0-3.18","63f477547d2302b4346299f4","bdp_sd","Sun Apr 09 2023 19:11:48 GMT-0500 (Central Daylight Time)","183639","","null","","","","","offerFB","","<div class='trialBorder'><div class='vertical-center'><img style='vertical-align:center; align:center' src=img/fixation3.jpg></div><div class='cl'><div class='vertical-center'>$20<br>for<br>yourself</div></div><div class='cr'><div class='vertical-center'><font style='color:orange'>$55<br>for<br>David w</font></div></div><div class='respDivL'><div class='vertical-center'>(E)</div></div><div class='respDivR'><div class='vertical-center'><font style='color:orange'>(I)</font></div></div></div>","null","$20<br>for<br>yourself","$55<br>for<br>1","0","20","55","1",""
"html-keyboard-response","62","163525","0.0-6.0-1.19","63f477547d2302b4346299f4","bdp_sd","Sun Apr 09 2023 19:11:48 GMT-0500 (Central Daylight Time)","183639","","null","","","","","FIX","","<div class='trialBorder'><div class='vertical-center'><img style='vertical-align:center; align:center' src=img/fixation3.jpg></div></div>","null","","","","","","",""
"html-keyboard-response","63","164999","0.0-6.0-2.19","63f477547d2302b4346299f4","bdp_sd","Sun Apr 09 2023 19:11:48 GMT-0500 (Central Daylight Time)","183639","","1472","","","","","offer","","<div class='trialBorder'><div class='vertical-center'><img style='vertical-align:center; align:center' src=img/fixation3.jpg></div><div class='cl'><div class='vertical-center'>$34<br>for<br>yourself</div></div><div class='cr'><div class='vertical-center'>$35<br>for<br>Barak M</div></div><div class='respDivL'><div class='vertical-center'>(E)</div></div><div class='respDivR'><div class='vertical-center'>(I)</div></div></div>","E","$34<br>for<br>yourself","$35<br>for<br>5","0","34","35","5","SELF"
"html-keyboard-response","64","165258","0.0-6.0-3.19","63f477547d2302b4346299f4","bdp_sd","Sun Apr 09 2023 19:11:48 GMT-0500 (Central Daylight Time)","183639","","null","","","","","offerFB","","<div class='trialBorder'><div class='vertical-center'><img style='vertical-align:center; align:center' src=img/fixation3.jpg></div><div class='cl'><div class='vertical-center'><font style='color:orange'>$34<br>for<br>yourself</font></div></div><div class='cr'><div class='vertical-center'>$35<br>for<br>Barak M</div></div><div class='respDivL'><div class='vertical-center'><font style='color:orange'>(E)</font></div></div><div class='respDivR'><div class='vertical-center'>(I)</div></div></div>","null","$34<br>for<br>yourself","$35<br>for<br>5","0","34","35","5",""
"html-keyboard-response","65","165769","0.0-6.0-1.20","63f477547d2302b4346299f4","bdp_sd","Sun Apr 09 2023 19:11:48 GMT-0500 (Central Daylight Time)","183639","","null","","","","","FIX","","<div class='trialBorder'><div class='vertical-center'><img style='vertical-align:center; align:center' src=img/fixation3.jpg></div></div>","null","","","","","","",""
"html-keyboard-response","66","167448","0.0-6.0-2.20","63f477547d2302b4346299f4","bdp_sd","Sun Apr 09 2023 19:11:48 GMT-0500 (Central Daylight Time)","183639","","1678","","","","","offer","","<div class='trialBorder'><div class='vertical-center'><img style='vertical-align:center; align:center' src=img/fixation3.jpg></div><div class='cl'><div class='vertical-center'>$15<br>for<br>yourself</div></div><div class='cr'><div class='vertical-center'>$35<br>for<br>Warner J</div></div><div class='respDivL'><div class='vertical-center'>(E)</div></div><div class='respDivR'><div class='vertical-center'>(I)</div></div></div>","I","$15<br>for<br>yourself","$35<br>for<br>2","0","15","35","2","OTHER"
"html-keyboard-response","67","167704","0.0-6.0-3.20","63f477547d2302b4346299f4","bdp_sd","Sun Apr 09 2023 19:11:48 GMT-0500 (Central Daylight Time)","183639","","null","","","","","offerFB","","<div class='trialBorder'><div class='vertical-center'><img style='vertical-align:center; align:center' src=img/fixation3.jpg></div><div class='cl'><div class='vertical-center'>$15<br>for<br>yourself</div></div><div class='cr'><div class='vertical-center'><font style='color:orange'>$35<br>for<br>Warner J</font></div></div><div class='respDivL'><div class='vertical-center'>(E)</div></div><div class='respDivR'><div class='vertical-center'><font style='color:orange'>(I)</font></div></div></div>","null","$15<br>for<br>yourself","$35<br>for<br>2","0","15","35","2",""
"html-keyboard-response","68","168213","0.0-6.0-1.21","63f477547d2302b4346299f4","bdp_sd","Sun Apr 09 2023 19:11:48 GMT-0500 (Central Daylight Time)","183639","","null","","","","","FIX","","<div class='trialBorder'><div class='vertical-center'><img style='vertical-align:center; align:center' src=img/fixation3.jpg></div></div>","null","","","","","","",""
"html-keyboard-response","69","169978","0.0-6.0-2.21","63f477547d2302b4346299f4","bdp_sd","Sun Apr 09 2023 19:11:48 GMT-0500 (Central Daylight Time)","183639","","1764","","","","","offer","","<div class='trialBorder'><div class='vertical-center'><img style='vertical-align:center; align:center' src=img/fixation3.jpg></div><div class='cl'><div class='vertical-center'>$75<br>for<br>George B</div></div><div class='cr'><div class='vertical-center'>$41<br>for<br>yourself</div></div><div class='respDivL'><div class='vertical-center'>(E)</div></div><div class='respDivR'><div class='vertical-center'>(I)</div></div></div>","I","$41<br>for<br>yourself","$75<br>for<br>3","1","41","75","3","SELF"
"html-keyboard-response","70","170232","0.0-6.0-3.21","63f477547d2302b4346299f4","bdp_sd","Sun Apr 09 2023 19:11:48 GMT-0500 (Central Daylight Time)","183639","","null","","","","","offerFB","","<div class='trialBorder'><div class='vertical-center'><img style='vertical-align:center; align:center' src=img/fixation3.jpg></div><div class='cl'><div class='vertical-center'>$75<br>for<br>George B</div></div><div class='cr'><div class='vertical-center'><font style='color:orange'>$41<br>for<br>yourself</font></div></div><div class='respDivL'><div class='vertical-center'>(E)</div></div><div class='respDivR'><div class='vertical-center'><font style='color:orange'>(I)</font></div></div></div>","null","$41<br>for<br>yourself","$75<br>for<br>3","1","41","75","3",""
"html-keyboard-response","71","170735","0.0-6.0-1.22","63f477547d2302b4346299f4","bdp_sd","Sun Apr 09 2023 19:11:48 GMT-0500 (Central Daylight Time)","183639","","null","","","","","FIX","","<div class='trialBorder'><div class='vertical-center'><img style='vertical-align:center; align:center' src=img/fixation3.jpg></div></div>","null","","","","","","",""
"html-keyboard-response","72","172408","0.0-6.0-2.22","63f477547d2302b4346299f4","bdp_sd","Sun Apr 09 2023 19:11:48 GMT-0500 (Central Daylight Time)","183639","","1672","","","","","offer","","<div class='trialBorder'><div class='vertical-center'><img style='vertical-align:center; align:center' src=img/fixation3.jpg></div><div class='cl'><div class='vertical-center'>$22<br>for<br>yourself</div></div><div class='cr'><div class='vertical-center'>$25<br>for<br>Barak M</div></div><div class='respDivL'><div class='vertical-center'>(E)</div></div><div class='respDivR'><div class='vertical-center'>(I)</div></div></div>","E","$22<br>for<br>yourself","$25<br>for<br>5","0","22","25","5","SELF"
"html-keyboard-response","73","172661","0.0-6.0-3.22","63f477547d2302b4346299f4","bdp_sd","Sun Apr 09 2023 19:11:48 GMT-0500 (Central Daylight Time)","183639","","null","","","","","offerFB","","<div class='trialBorder'><div class='vertical-center'><img style='vertical-align:center; align:center' src=img/fixation3.jpg></div><div class='cl'><div class='vertical-center'><font style='color:orange'>$22<br>for<br>yourself</font></div></div><div class='cr'><div class='vertical-center'>$25<br>for<br>Barak M</div></div><div class='respDivL'><div class='vertical-center'><font style='color:orange'>(E)</font></div></div><div class='respDivR'><div class='vertical-center'>(I)</div></div></div>","null","$22<br>for<br>yourself","$25<br>for<br>5","0","22","25","5",""
"html-keyboard-response","74","173167","0.0-6.0-1.23","63f477547d2302b4346299f4","bdp_sd","Sun Apr 09 2023 19:11:48 GMT-0500 (Central Daylight Time)","183639","","null","","","","","FIX","","<div class='trialBorder'><div class='vertical-center'><img style='vertical-align:center; align:center' src=img/fixation3.jpg></div></div>","null","","","","","","",""
"html-keyboard-response","75","174781","0.0-6.0-2.23","63f477547d2302b4346299f4","bdp_sd","Sun Apr 09 2023 19:11:48 GMT-0500 (Central Daylight Time)","183639","","1612","","","","","offer","","<div class='trialBorder'><div class='vertical-center'><img style='vertical-align:center; align:center' src=img/fixation3.jpg></div><div class='cl'><div class='vertical-center'>$34<br>for<br>yourself</div></div><div class='cr'><div class='vertical-center'>$50<br>for<br>William P</div></div><div class='respDivL'><div class='vertical-center'>(E)</div></div><div class='respDivR'><div class='vertical-center'>(I)</div></div></div>","I","$34<br>for<br>yourself","$50<br>for<br>4","0","34","50","4","OTHER"
"html-keyboard-response","76","175038","0.0-6.0-3.23","63f477547d2302b4346299f4","bdp_sd","Sun Apr 09 2023 19:11:48 GMT-0500 (Central Daylight Time)","183639","","null","","","","","offerFB","","<div class='trialBorder'><div class='vertical-center'><img style='vertical-align:center; align:center' src=img/fixation3.jpg></div><div class='cl'><div class='vertical-center'>$34<br>for<br>yourself</div></div><div class='cr'><div class='vertical-center'><font style='color:orange'>$50<br>for<br>William P</font></div></div><div class='respDivL'><div class='vertical-center'>(E)</div></div><div class='respDivR'><div class='vertical-center'><font style='color:orange'>(I)</font></div></div></div>","null","$34<br>for<br>yourself","$50<br>for<br>4","0","34","50","4",""
"html-keyboard-response","77","175540","0.0-6.0-1.24","63f477547d2302b4346299f4","bdp_sd","Sun Apr 09 2023 19:11:48 GMT-0500 (Central Daylight Time)","183639","","null","","","","","FIX","","<div class='trialBorder'><div class='vertical-center'><img style='vertical-align:center; align:center' src=img/fixation3.jpg></div></div>","null","","","","","","",""
"html-keyboard-response","78","177906","0.0-6.0-2.24","63f477547d2302b4346299f4","bdp_sd","Sun Apr 09 2023 19:11:48 GMT-0500 (Central Daylight Time)","183639","","2365","","","","","offer","","<div class='trialBorder'><div class='vertical-center'><img style='vertical-align:center; align:center' src=img/fixation3.jpg></div><div class='cl'><div class='vertical-center'>$55<br>for<br>yourself</div></div><div class='cr'><div class='vertical-center'>$75<br>for<br>William P</div></div><div class='respDivL'><div class='vertical-center'>(E)</div></div><div class='respDivR'><div class='vertical-center'>(I)</div></div></div>","E","$55<br>for<br>yourself","$75<br>for<br>4","0","55","75","4","SELF"
"html-keyboard-response","79","178159","0.0-6.0-3.24","63f477547d2302b4346299f4","bdp_sd","Sun Apr 09 2023 19:11:48 GMT-0500 (Central Daylight Time)","183639","","null","","","","","offerFB","","<div class='trialBorder'><div class='vertical-center'><img style='vertical-align:center; align:center' src=img/fixation3.jpg></div><div class='cl'><div class='vertical-center'><font style='color:orange'>$55<br>for<br>yourself</font></div></div><div class='cr'><div class='vertical-center'>$75<br>for<br>William P</div></div><div class='respDivL'><div class='vertical-center'><font style='color:orange'>(E)</font></div></div><div class='respDivR'><div class='vertical-center'>(I)</div></div></div>","null","$55<br>for<br>yourself","$75<br>for<br>4","0","55","75","4",""
"html-keyboard-response","80","178669","0.0-6.0-1.25","63f477547d2302b4346299f4","bdp_sd","Sun Apr 09 2023 19:11:48 GMT-0500 (Central Daylight Time)","183639","","null","","","","","FIX","","<div class='trialBorder'><div class='vertical-center'><img style='vertical-align:center; align:center' src=img/fixation3.jpg></div></div>","null","","","","","","",""
"html-keyboard-response","81","180088","0.0-6.0-2.25","63f477547d2302b4346299f4","bdp_sd","Sun Apr 09 2023 19:11:48 GMT-0500 (Central Daylight Time)","183639","","1417","","","","","offer","","<div class='trialBorder'><div class='vertical-center'><img style='vertical-align:center; align:center' src=img/fixation3.jpg></div><div class='cl'><div class='vertical-center'>$31<br>for<br>yourself</div></div><div class='cr'><div class='vertical-center'>$85<br>for<br>David w</div></div><div class='respDivL'><div class='vertical-center'>(E)</div></div><div class='respDivR'><div class='vertical-center'>(I)</div></div></div>","I","$31<br>for<br>yourself","$85<br>for<br>1","0","31","85","1","OTHER"
"html-keyboard-response","82","180347","0.0-6.0-3.25","63f477547d2302b4346299f4","bdp_sd","Sun Apr 09 2023 19:11:48 GMT-0500 (Central Daylight Time)","183639","","null","","","","","offerFB","","<div class='trialBorder'><div class='vertical-center'><img style='vertical-align:center; align:center' src=img/fixation3.jpg></div><div class='cl'><div class='vertical-center'>$31<br>for<br>yourself</div></div><div class='cr'><div class='vertical-center'><font style='color:orange'>$85<br>for<br>David w</font></div></div><div class='respDivL'><div class='vertical-center'>(E)</div></div><div class='respDivR'><div class='vertical-center'><font style='color:orange'>(I)</font></div></div></div>","null","$31<br>for<br>yourself","$85<br>for<br>1","0","31","85","1",""
"html-keyboard-response","83","180850","0.0-6.0-1.26","63f477547d2302b4346299f4","bdp_sd","Sun Apr 09 2023 19:11:48 GMT-0500 (Central Daylight Time)","183639","","null","","","","","FIX","","<div class='trialBorder'><div class='vertical-center'><img style='vertical-align:center; align:center' src=img/fixation3.jpg></div></div>","null","","","","","","",""
"html-keyboard-response","84","182376","0.0-6.0-2.26","63f477547d2302b4346299f4","bdp_sd","Sun Apr 09 2023 19:11:48 GMT-0500 (Central Daylight Time)","183639","","1525","","","","","offer","","<div class='trialBorder'><div class='vertical-center'><img style='vertical-align:center; align:center' src=img/fixation3.jpg></div><div class='cl'><div class='vertical-center'>$80<br>for<br>George B</div></div><div class='cr'><div class='vertical-center'>$54<br>for<br>yourself</div></div><div class='respDivL'><div class='vertical-center'>(E)</div></div><div class='respDivR'><div class='vertical-center'>(I)</div></div></div>","I","$54<br>for<br>yourself","$80<br>for<br>3","1","54","80","3","SELF"
"html-keyboard-response","85","182633","0.0-6.0-3.26","63f477547d2302b4346299f4","bdp_sd","Sun Apr 09 2023 19:11:48 GMT-0500 (Central Daylight Time)","183639","","null","","","","","offerFB","","<div class='trialBorder'><div class='vertical-center'><img style='vertical-align:center; align:center' src=img/fixation3.jpg></div><div class='cl'><div class='vertical-center'>$80<br>for<br>George B</div></div><div class='cr'><div class='vertical-center'><font style='color:orange'>$54<br>for<br>yourself</font></div></div><div class='respDivL'><div class='vertical-center'>(E)</div></div><div class='respDivR'><div class='vertical-center'><font style='color:orange'>(I)</font></div></div></div>","null","$54<br>for<br>yourself","$80<br>for<br>3","1","54","80","3",""
"","","","","63f477547d2302b4346299f4","bdp_sd","Sun Apr 09 2023 19:11:48 GMT-0500 (Central Daylight Time)","183639","","","","fullscreenexit","86","182656","fullscreenexit","","","","","","","","","",""
"fullscreen","86","183638","0.0-7.0","63f477547d2302b4346299f4","bdp_sd","Sun Apr 09 2023 19:11:48 GMT-0500 (Central Daylight Time)","183639","","","","","","","","true","","","","","","","","",""
"html-keyboard-response","87","184148","0.0-8.0","","","","","","null","","","","","","","","null","","","","","","",""
