"trial_type","trial_index","time_elapsed","internal_node_id","subject_id","task","startTime","totalTime","view_history","rt","responses","event","trial","time","trialtype","success","stimulus","key_press","selfOffer","otherOffer","otherLeft","selfAmt","otherAmt","otherDist","chosen"
"pavlovia","0","13","0.0-0.0","62fd76d3f0824c29d4b1e6bd","bdp_sd","Mon Mar 27 2023 16:18:06 GMT-0400 (Eastern Daylight Time)","148811","","","","","","","","","","","","","","","","",""
"instructions","1","2262","0.0-1.0","62fd76d3f0824c29d4b1e6bd","bdp_sd","Mon Mar 27 2023 16:18:06 GMT-0400 (Eastern Daylight Time)","148811","[{""page_index"":0,""viewing_time"":2248}]","2248","","","","","","","","","","","","","","",""
"survey-text","2","67805","0.0-2.0","62fd76d3f0824c29d4b1e6bd","bdp_sd","Mon Mar 27 2023 16:18:06 GMT-0400 (Eastern Daylight Time)","148811","","65539","{""Q0"":""James S"",""Q1"":""Steve K"",""Q2"":""Lindsay K"",""Q3"":""Matthew K"",""Q4"":""Charlotte K""}","","","","","","","","","","","","","",""
"","","","","62fd76d3f0824c29d4b1e6bd","bdp_sd","Mon Mar 27 2023 16:18:06 GMT-0400 (Eastern Daylight Time)","148811","","","","fullscreenenter","3","70137","fullscreenenter","","","","","","","","","",""
"fullscreen","3","71099","0.0-3.0","62fd76d3f0824c29d4b1e6bd","bdp_sd","Mon Mar 27 2023 16:18:06 GMT-0400 (Eastern Daylight Time)","148811","","","","","","","","true","","","","","","","","",""
"instructions","4","95413","0.0-5.0","62fd76d3f0824c29d4b1e6bd","bdp_sd","Mon Mar 27 2023 16:18:06 GMT-0400 (Eastern Daylight Time)","148811","[{""page_index"":0,""viewing_time"":7637},{""page_index"":1,""viewing_time"":9695},{""page_index"":2,""viewing_time"":6980}]","24312","","","","","","","","","","","","","","",""
"html-keyboard-response","5","95919","0.0-6.0-1.0","62fd76d3f0824c29d4b1e6bd","bdp_sd","Mon Mar 27 2023 16:18:06 GMT-0400 (Eastern Daylight Time)","148811","","null","","","","","FIX","","<div class='trialBorder'><div class='vertical-center'><img style='vertical-align:center; align:center' src=img/fixation3.jpg></div></div>","null","","","","","","",""
"html-keyboard-response","6","99863","0.0-6.0-2.0","62fd76d3f0824c29d4b1e6bd","bdp_sd","Mon Mar 27 2023 16:18:06 GMT-0400 (Eastern Daylight Time)","148811","","3940","","","","","offer","","<div class='trialBorder'><div class='vertical-center'><img style='vertical-align:center; align:center' src=img/fixation3.jpg></div><div class='cl'><div class='vertical-center'>$28<br>for<br>yourself</div></div><div class='cr'><div class='vertical-center'>$30<br>for<br>Charlotte K</div></div><div class='respDivL'><div class='vertical-center'>(E)</div></div><div class='respDivR'><div class='vertical-center'>(I)</div></div></div>","I","$28<br>for<br>yourself","$30<br>for<br>5","0","28","30","5","OTHER"
"html-keyboard-response","7","100126","0.0-6.0-3.0","62fd76d3f0824c29d4b1e6bd","bdp_sd","Mon Mar 27 2023 16:18:06 GMT-0400 (Eastern Daylight Time)","148811","","null","","","","","offerFB","","<div class='trialBorder'><div class='vertical-center'><img style='vertical-align:center; align:center' src=img/fixation3.jpg></div><div class='cl'><div class='vertical-center'>$28<br>for<br>yourself</div></div><div class='cr'><div class='vertical-center'><font style='color:orange'>$30<br>for<br>Charlotte K</font></div></div><div class='respDivL'><div class='vertical-center'>(E)</div></div><div class='respDivR'><div class='vertical-center'><font style='color:orange'>(I)</font></div></div></div>","null","$28<br>for<br>yourself","$30<br>for<br>5","0","28","30","5",""
"html-keyboard-response","8","100640","0.0-6.0-1.1","62fd76d3f0824c29d4b1e6bd","bdp_sd","Mon Mar 27 2023 16:18:06 GMT-0400 (Eastern Daylight Time)","148811","","null","","","","","FIX","","<div class='trialBorder'><div class='vertical-center'><img style='vertical-align:center; align:center' src=img/fixation3.jpg></div></div>","null","","","","","","",""
"html-keyboard-response","9","102392","0.0-6.0-2.1","62fd76d3f0824c29d4b1e6bd","bdp_sd","Mon Mar 27 2023 16:18:06 GMT-0400 (Eastern Daylight Time)","148811","","1749","","","","","offer","","<div class='trialBorder'><div class='vertical-center'><img style='vertical-align:center; align:center' src=img/fixation3.jpg></div><div class='cl'><div class='vertical-center'>$75<br>for<br>Lindsay K</div></div><div class='cr'><div class='vertical-center'>$41<br>for<br>yourself</div></div><div class='respDivL'><div class='vertical-center'>(E)</div></div><div class='respDivR'><div class='vertical-center'>(I)</div></div></div>","E","$41<br>for<br>yourself","$75<br>for<br>3","1","41","75","3","OTHER"
"html-keyboard-response","10","102650","0.0-6.0-3.1","62fd76d3f0824c29d4b1e6bd","bdp_sd","Mon Mar 27 2023 16:18:06 GMT-0400 (Eastern Daylight Time)","148811","","null","","","","","offerFB","","<div class='trialBorder'><div class='vertical-center'><img style='vertical-align:center; align:center' src=img/fixation3.jpg></div><div class='cl'><div class='vertical-center'><font style='color:orange'>$75<br>for<br>Lindsay K</font></div></div><div class='cr'><div class='vertical-center'>$41<br>for<br>yourself</div></div><div class='respDivL'><div class='vertical-center'><font style='color:orange'>(E)</font></div></div><div class='respDivR'><div class='vertical-center'>(I)</div></div></div>","null","$41<br>for<br>yourself","$75<br>for<br>3","1","41","75","3",""
"html-keyboard-response","11","103155","0.0-6.0-1.2","62fd76d3f0824c29d4b1e6bd","bdp_sd","Mon Mar 27 2023 16:18:06 GMT-0400 (Eastern Daylight Time)","148811","","null","","","","","FIX","","<div class='trialBorder'><div class='vertical-center'><img style='vertical-align:center; align:center' src=img/fixation3.jpg></div></div>","null","","","","","","",""
"html-keyboard-response","12","104425","0.0-6.0-2.2","62fd76d3f0824c29d4b1e6bd","bdp_sd","Mon Mar 27 2023 16:18:06 GMT-0400 (Eastern Daylight Time)","148811","","1267","","","","","offer","","<div class='trialBorder'><div class='vertical-center'><img style='vertical-align:center; align:center' src=img/fixation3.jpg></div><div class='cl'><div class='vertical-center'>$75<br>for<br>Charlotte K</div></div><div class='cr'><div class='vertical-center'>$67<br>for<br>yourself</div></div><div class='respDivL'><div class='vertical-center'>(E)</div></div><div class='respDivR'><div class='vertical-center'>(I)</div></div></div>","E","$67<br>for<br>yourself","$75<br>for<br>5","1","67","75","5","OTHER"
"html-keyboard-response","13","104681","0.0-6.0-3.2","62fd76d3f0824c29d4b1e6bd","bdp_sd","Mon Mar 27 2023 16:18:06 GMT-0400 (Eastern Daylight Time)","148811","","null","","","","","offerFB","","<div class='trialBorder'><div class='vertical-center'><img style='vertical-align:center; align:center' src=img/fixation3.jpg></div><div class='cl'><div class='vertical-center'><font style='color:orange'>$75<br>for<br>Charlotte K</font></div></div><div class='cr'><div class='vertical-center'>$67<br>for<br>yourself</div></div><div class='respDivL'><div class='vertical-center'><font style='color:orange'>(E)</font></div></div><div class='respDivR'><div class='vertical-center'>(I)</div></div></div>","null","$67<br>for<br>yourself","$75<br>for<br>5","1","67","75","5",""
"html-keyboard-response","14","105187","0.0-6.0-1.3","62fd76d3f0824c29d4b1e6bd","bdp_sd","Mon Mar 27 2023 16:18:06 GMT-0400 (Eastern Daylight Time)","148811","","null","","","","","FIX","","<div class='trialBorder'><div class='vertical-center'><img style='vertical-align:center; align:center' src=img/fixation3.jpg></div></div>","null","","","","","","",""
"html-keyboard-response","15","106650","0.0-6.0-2.3","62fd76d3f0824c29d4b1e6bd","bdp_sd","Mon Mar 27 2023 16:18:06 GMT-0400 (Eastern Daylight Time)","148811","","1460","","","","","offer","","<div class='trialBorder'><div class='vertical-center'><img style='vertical-align:center; align:center' src=img/fixation3.jpg></div><div class='cl'><div class='vertical-center'>$85<br>for<br>Matthew K</div></div><div class='cr'><div class='vertical-center'>$69<br>for<br>yourself</div></div><div class='respDivL'><div class='vertical-center'>(E)</div></div><div class='respDivR'><div class='vertical-center'>(I)</div></div></div>","E","$69<br>for<br>yourself","$85<br>for<br>4","1","69","85","4","OTHER"
"html-keyboard-response","16","106910","0.0-6.0-3.3","62fd76d3f0824c29d4b1e6bd","bdp_sd","Mon Mar 27 2023 16:18:06 GMT-0400 (Eastern Daylight Time)","148811","","null","","","","","offerFB","","<div class='trialBorder'><div class='vertical-center'><img style='vertical-align:center; align:center' src=img/fixation3.jpg></div><div class='cl'><div class='vertical-center'><font style='color:orange'>$85<br>for<br>Matthew K</font></div></div><div class='cr'><div class='vertical-center'>$69<br>for<br>yourself</div></div><div class='respDivL'><div class='vertical-center'><font style='color:orange'>(E)</font></div></div><div class='respDivR'><div class='vertical-center'>(I)</div></div></div>","null","$69<br>for<br>yourself","$85<br>for<br>4","1","69","85","4",""
"html-keyboard-response","17","107414","0.0-6.0-1.4","62fd76d3f0824c29d4b1e6bd","bdp_sd","Mon Mar 27 2023 16:18:06 GMT-0400 (Eastern Daylight Time)","148811","","null","","","","","FIX","","<div class='trialBorder'><div class='vertical-center'><img style='vertical-align:center; align:center' src=img/fixation3.jpg></div></div>","null","","","","","","",""
"html-keyboard-response","18","108383","0.0-6.0-2.4","62fd76d3f0824c29d4b1e6bd","bdp_sd","Mon Mar 27 2023 16:18:06 GMT-0400 (Eastern Daylight Time)","148811","","967","","","","","offer","","<div class='trialBorder'><div class='vertical-center'><img style='vertical-align:center; align:center' src=img/fixation3.jpg></div><div class='cl'><div class='vertical-center'>$55<br>for<br>yourself</div></div><div class='cr'><div class='vertical-center'>$75<br>for<br>Matthew K</div></div><div class='respDivL'><div class='vertical-center'>(E)</div></div><div class='respDivR'><div class='vertical-center'>(I)</div></div></div>","I","$55<br>for<br>yourself","$75<br>for<br>4","0","55","75","4","OTHER"
"html-keyboard-response","19","108650","0.0-6.0-3.4","62fd76d3f0824c29d4b1e6bd","bdp_sd","Mon Mar 27 2023 16:18:06 GMT-0400 (Eastern Daylight Time)","148811","","null","","","","","offerFB","","<div class='trialBorder'><div class='vertical-center'><img style='vertical-align:center; align:center' src=img/fixation3.jpg></div><div class='cl'><div class='vertical-center'>$55<br>for<br>yourself</div></div><div class='cr'><div class='vertical-center'><font style='color:orange'>$75<br>for<br>Matthew K</font></div></div><div class='respDivL'><div class='vertical-center'>(E)</div></div><div class='respDivR'><div class='vertical-center'><font style='color:orange'>(I)</font></div></div></div>","null","$55<br>for<br>yourself","$75<br>for<br>4","0","55","75","4",""
"html-keyboard-response","20","109159","0.0-6.0-1.5","62fd76d3f0824c29d4b1e6bd","bdp_sd","Mon Mar 27 2023 16:18:06 GMT-0400 (Eastern Daylight Time)","148811","","null","","","","","FIX","","<div class='trialBorder'><div class='vertical-center'><img style='vertical-align:center; align:center' src=img/fixation3.jpg></div></div>","null","","","","","","",""
"html-keyboard-response","21","110795","0.0-6.0-2.5","62fd76d3f0824c29d4b1e6bd","bdp_sd","Mon Mar 27 2023 16:18:06 GMT-0400 (Eastern Daylight Time)","148811","","1634","","","","","offer","","<div class='trialBorder'><div class='vertical-center'><img style='vertical-align:center; align:center' src=img/fixation3.jpg></div><div class='cl'><div class='vertical-center'>$25<br>for<br>Charlotte K</div></div><div class='cr'><div class='vertical-center'>$22<br>for<br>yourself</div></div><div class='respDivL'><div class='vertical-center'>(E)</div></div><div class='respDivR'><div class='vertical-center'>(I)</div></div></div>","E","$22<br>for<br>yourself","$25<br>for<br>5","1","22","25","5","OTHER"
"html-keyboard-response","22","111053","0.0-6.0-3.5","62fd76d3f0824c29d4b1e6bd","bdp_sd","Mon Mar 27 2023 16:18:06 GMT-0400 (Eastern Daylight Time)","148811","","null","","","","","offerFB","","<div class='trialBorder'><div class='vertical-center'><img style='vertical-align:center; align:center' src=img/fixation3.jpg></div><div class='cl'><div class='vertical-center'><font style='color:orange'>$25<br>for<br>Charlotte K</font></div></div><div class='cr'><div class='vertical-center'>$22<br>for<br>yourself</div></div><div class='respDivL'><div class='vertical-center'><font style='color:orange'>(E)</font></div></div><div class='respDivR'><div class='vertical-center'>(I)</div></div></div>","null","$22<br>for<br>yourself","$25<br>for<br>5","1","22","25","5",""
"html-keyboard-response","23","111561","0.0-6.0-1.6","62fd76d3f0824c29d4b1e6bd","bdp_sd","Mon Mar 27 2023 16:18:06 GMT-0400 (Eastern Daylight Time)","148811","","null","","","","","FIX","","<div class='trialBorder'><div class='vertical-center'><img style='vertical-align:center; align:center' src=img/fixation3.jpg></div></div>","null","","","","","","",""
"html-keyboard-response","24","112735","0.0-6.0-2.6","62fd76d3f0824c29d4b1e6bd","bdp_sd","Mon Mar 27 2023 16:18:06 GMT-0400 (Eastern Daylight Time)","148811","","1173","","","","","offer","","<div class='trialBorder'><div class='vertical-center'><img style='vertical-align:center; align:center' src=img/fixation3.jpg></div><div class='cl'><div class='vertical-center'>$20<br>for<br>yourself</div></div><div class='cr'><div class='vertical-center'>$55<br>for<br>James S</div></div><div class='respDivL'><div class='vertical-center'>(E)</div></div><div class='respDivR'><div class='vertical-center'>(I)</div></div></div>","I","$20<br>for<br>yourself","$55<br>for<br>1","0","20","55","1","OTHER"
"html-keyboard-response","25","112993","0.0-6.0-3.6","62fd76d3f0824c29d4b1e6bd","bdp_sd","Mon Mar 27 2023 16:18:06 GMT-0400 (Eastern Daylight Time)","148811","","null","","","","","offerFB","","<div class='trialBorder'><div class='vertical-center'><img style='vertical-align:center; align:center' src=img/fixation3.jpg></div><div class='cl'><div class='vertical-center'>$20<br>for<br>yourself</div></div><div class='cr'><div class='vertical-center'><font style='color:orange'>$55<br>for<br>James S</font></div></div><div class='respDivL'><div class='vertical-center'>(E)</div></div><div class='respDivR'><div class='vertical-center'><font style='color:orange'>(I)</font></div></div></div>","null","$20<br>for<br>yourself","$55<br>for<br>1","0","20","55","1",""
"html-keyboard-response","26","113500","0.0-6.0-1.7","62fd76d3f0824c29d4b1e6bd","bdp_sd","Mon Mar 27 2023 16:18:06 GMT-0400 (Eastern Daylight Time)","148811","","null","","","","","FIX","","<div class='trialBorder'><div class='vertical-center'><img style='vertical-align:center; align:center' src=img/fixation3.jpg></div></div>","null","","","","","","",""
"html-keyboard-response","27","114740","0.0-6.0-2.7","62fd76d3f0824c29d4b1e6bd","bdp_sd","Mon Mar 27 2023 16:18:06 GMT-0400 (Eastern Daylight Time)","148811","","1239","","","","","offer","","<div class='trialBorder'><div class='vertical-center'><img style='vertical-align:center; align:center' src=img/fixation3.jpg></div><div class='cl'><div class='vertical-center'>$31<br>for<br>yourself</div></div><div class='cr'><div class='vertical-center'>$85<br>for<br>James S</div></div><div class='respDivL'><div class='vertical-center'>(E)</div></div><div class='respDivR'><div class='vertical-center'>(I)</div></div></div>","I","$31<br>for<br>yourself","$85<br>for<br>1","0","31","85","1","OTHER"
"html-keyboard-response","28","114993","0.0-6.0-3.7","62fd76d3f0824c29d4b1e6bd","bdp_sd","Mon Mar 27 2023 16:18:06 GMT-0400 (Eastern Daylight Time)","148811","","null","","","","","offerFB","","<div class='trialBorder'><div class='vertical-center'><img style='vertical-align:center; align:center' src=img/fixation3.jpg></div><div class='cl'><div class='vertical-center'>$31<br>for<br>yourself</div></div><div class='cr'><div class='vertical-center'><font style='color:orange'>$85<br>for<br>James S</font></div></div><div class='respDivL'><div class='vertical-center'>(E)</div></div><div class='respDivR'><div class='vertical-center'><font style='color:orange'>(I)</font></div></div></div>","null","$31<br>for<br>yourself","$85<br>for<br>1","0","31","85","1",""
"html-keyboard-response","29","115497","0.0-6.0-1.8","62fd76d3f0824c29d4b1e6bd","bdp_sd","Mon Mar 27 2023 16:18:06 GMT-0400 (Eastern Daylight Time)","148811","","null","","","","","FIX","","<div class='trialBorder'><div class='vertical-center'><img style='vertical-align:center; align:center' src=img/fixation3.jpg></div></div>","null","","","","","","",""
"html-keyboard-response","30","116683","0.0-6.0-2.8","62fd76d3f0824c29d4b1e6bd","bdp_sd","Mon Mar 27 2023 16:18:06 GMT-0400 (Eastern Daylight Time)","148811","","1184","","","","","offer","","<div class='trialBorder'><div class='vertical-center'><img style='vertical-align:center; align:center' src=img/fixation3.jpg></div><div class='cl'><div class='vertical-center'>$80<br>for<br>Charlotte K</div></div><div class='cr'><div class='vertical-center'>$78<br>for<br>yourself</div></div><div class='respDivL'><div class='vertical-center'>(E)</div></div><div class='respDivR'><div class='vertical-center'>(I)</div></div></div>","E","$78<br>for<br>yourself","$80<br>for<br>5","1","78","80","5","OTHER"
"html-keyboard-response","31","116949","0.0-6.0-3.8","62fd76d3f0824c29d4b1e6bd","bdp_sd","Mon Mar 27 2023 16:18:06 GMT-0400 (Eastern Daylight Time)","148811","","null","","","","","offerFB","","<div class='trialBorder'><div class='vertical-center'><img style='vertical-align:center; align:center' src=img/fixation3.jpg></div><div class='cl'><div class='vertical-center'><font style='color:orange'>$80<br>for<br>Charlotte K</font></div></div><div class='cr'><div class='vertical-center'>$78<br>for<br>yourself</div></div><div class='respDivL'><div class='vertical-center'><font style='color:orange'>(E)</font></div></div><div class='respDivR'><div class='vertical-center'>(I)</div></div></div>","null","$78<br>for<br>yourself","$80<br>for<br>5","1","78","80","5",""
"html-keyboard-response","32","117453","0.0-6.0-1.9","62fd76d3f0824c29d4b1e6bd","bdp_sd","Mon Mar 27 2023 16:18:06 GMT-0400 (Eastern Daylight Time)","148811","","null","","","","","FIX","","<div class='trialBorder'><div class='vertical-center'><img style='vertical-align:center; align:center' src=img/fixation3.jpg></div></div>","null","","","","","","",""
"html-keyboard-response","33","118265","0.0-6.0-2.9","62fd76d3f0824c29d4b1e6bd","bdp_sd","Mon Mar 27 2023 16:18:06 GMT-0400 (Eastern Daylight Time)","148811","","810","","","","","offer","","<div class='trialBorder'><div class='vertical-center'><img style='vertical-align:center; align:center' src=img/fixation3.jpg></div><div class='cl'><div class='vertical-center'>$11<br>for<br>yourself</div></div><div class='cr'><div class='vertical-center'>$30<br>for<br>Steve K</div></div><div class='respDivL'><div class='vertical-center'>(E)</div></div><div class='respDivR'><div class='vertical-center'>(I)</div></div></div>","I","$11<br>for<br>yourself","$30<br>for<br>2","0","11","30","2","OTHER"
"html-keyboard-response","34","118528","0.0-6.0-3.9","62fd76d3f0824c29d4b1e6bd","bdp_sd","Mon Mar 27 2023 16:18:06 GMT-0400 (Eastern Daylight Time)","148811","","null","","","","","offerFB","","<div class='trialBorder'><div class='vertical-center'><img style='vertical-align:center; align:center' src=img/fixation3.jpg></div><div class='cl'><div class='vertical-center'>$11<br>for<br>yourself</div></div><div class='cr'><div class='vertical-center'><font style='color:orange'>$30<br>for<br>Steve K</font></div></div><div class='respDivL'><div class='vertical-center'>(E)</div></div><div class='respDivR'><div class='vertical-center'><font style='color:orange'>(I)</font></div></div></div>","null","$11<br>for<br>yourself","$30<br>for<br>2","0","11","30","2",""
"html-keyboard-response","35","119035","0.0-6.0-1.10","62fd76d3f0824c29d4b1e6bd","bdp_sd","Mon Mar 27 2023 16:18:06 GMT-0400 (Eastern Daylight Time)","148811","","null","","","","","FIX","","<div class='trialBorder'><div class='vertical-center'><img style='vertical-align:center; align:center' src=img/fixation3.jpg></div></div>","null","","","","","","",""
"html-keyboard-response","36","119813","0.0-6.0-2.10","62fd76d3f0824c29d4b1e6bd","bdp_sd","Mon Mar 27 2023 16:18:06 GMT-0400 (Eastern Daylight Time)","148811","","776","","","","","offer","","<div class='trialBorder'><div class='vertical-center'><img style='vertical-align:center; align:center' src=img/fixation3.jpg></div><div class='cl'><div class='vertical-center'>$25<br>for<br>Matthew K</div></div><div class='cr'><div class='vertical-center'>$19<br>for<br>yourself</div></div><div class='respDivL'><div class='vertical-center'>(E)</div></div><div class='respDivR'><div class='vertical-center'>(I)</div></div></div>","E","$19<br>for<br>yourself","$25<br>for<br>4","1","19","25","4","OTHER"
"html-keyboard-response","37","120066","0.0-6.0-3.10","62fd76d3f0824c29d4b1e6bd","bdp_sd","Mon Mar 27 2023 16:18:06 GMT-0400 (Eastern Daylight Time)","148811","","null","","","","","offerFB","","<div class='trialBorder'><div class='vertical-center'><img style='vertical-align:center; align:center' src=img/fixation3.jpg></div><div class='cl'><div class='vertical-center'><font style='color:orange'>$25<br>for<br>Matthew K</font></div></div><div class='cr'><div class='vertical-center'>$19<br>for<br>yourself</div></div><div class='respDivL'><div class='vertical-center'><font style='color:orange'>(E)</font></div></div><div class='respDivR'><div class='vertical-center'>(I)</div></div></div>","null","$19<br>for<br>yourself","$25<br>for<br>4","1","19","25","4",""
"html-keyboard-response","38","120573","0.0-6.0-1.11","62fd76d3f0824c29d4b1e6bd","bdp_sd","Mon Mar 27 2023 16:18:06 GMT-0400 (Eastern Daylight Time)","148811","","null","","","","","FIX","","<div class='trialBorder'><div class='vertical-center'><img style='vertical-align:center; align:center' src=img/fixation3.jpg></div></div>","null","","","","","","",""
"html-keyboard-response","39","121332","0.0-6.0-2.11","62fd76d3f0824c29d4b1e6bd","bdp_sd","Mon Mar 27 2023 16:18:06 GMT-0400 (Eastern Daylight Time)","148811","","758","","","","","offer","","<div class='trialBorder'><div class='vertical-center'><img style='vertical-align:center; align:center' src=img/fixation3.jpg></div><div class='cl'><div class='vertical-center'>$80<br>for<br>Lindsay K</div></div><div class='cr'><div class='vertical-center'>$54<br>for<br>yourself</div></div><div class='respDivL'><div class='vertical-center'>(E)</div></div><div class='respDivR'><div class='vertical-center'>(I)</div></div></div>","E","$54<br>for<br>yourself","$80<br>for<br>3","1","54","80","3","OTHER"
"html-keyboard-response","40","121588","0.0-6.0-3.11","62fd76d3f0824c29d4b1e6bd","bdp_sd","Mon Mar 27 2023 16:18:06 GMT-0400 (Eastern Daylight Time)","148811","","null","","","","","offerFB","","<div class='trialBorder'><div class='vertical-center'><img style='vertical-align:center; align:center' src=img/fixation3.jpg></div><div class='cl'><div class='vertical-center'><font style='color:orange'>$80<br>for<br>Lindsay K</font></div></div><div class='cr'><div class='vertical-center'>$54<br>for<br>yourself</div></div><div class='respDivL'><div class='vertical-center'><font style='color:orange'>(E)</font></div></div><div class='respDivR'><div class='vertical-center'>(I)</div></div></div>","null","$54<br>for<br>yourself","$80<br>for<br>3","1","54","80","3",""
"html-keyboard-response","41","122110","0.0-6.0-1.12","62fd76d3f0824c29d4b1e6bd","bdp_sd","Mon Mar 27 2023 16:18:06 GMT-0400 (Eastern Daylight Time)","148811","","null","","","","","FIX","","<div class='trialBorder'><div class='vertical-center'><img style='vertical-align:center; align:center' src=img/fixation3.jpg></div></div>","null","","","","","","",""
"html-keyboard-response","42","123146","0.0-6.0-2.12","62fd76d3f0824c29d4b1e6bd","bdp_sd","Mon Mar 27 2023 16:18:06 GMT-0400 (Eastern Daylight Time)","148811","","1034","","","","","offer","","<div class='trialBorder'><div class='vertical-center'><img style='vertical-align:center; align:center' src=img/fixation3.jpg></div><div class='cl'><div class='vertical-center'>$50<br>for<br>Charlotte K</div></div><div class='cr'><div class='vertical-center'>$47<br>for<br>yourself</div></div><div class='respDivL'><div class='vertical-center'>(E)</div></div><div class='respDivR'><div class='vertical-center'>(I)</div></div></div>","E","$47<br>for<br>yourself","$50<br>for<br>5","1","47","50","5","OTHER"
"html-keyboard-response","43","123403","0.0-6.0-3.12","62fd76d3f0824c29d4b1e6bd","bdp_sd","Mon Mar 27 2023 16:18:06 GMT-0400 (Eastern Daylight Time)","148811","","null","","","","","offerFB","","<div class='trialBorder'><div class='vertical-center'><img style='vertical-align:center; align:center' src=img/fixation3.jpg></div><div class='cl'><div class='vertical-center'><font style='color:orange'>$50<br>for<br>Charlotte K</font></div></div><div class='cr'><div class='vertical-center'>$47<br>for<br>yourself</div></div><div class='respDivL'><div class='vertical-center'><font style='color:orange'>(E)</font></div></div><div class='respDivR'><div class='vertical-center'>(I)</div></div></div>","null","$47<br>for<br>yourself","$50<br>for<br>5","1","47","50","5",""
"html-keyboard-response","44","123911","0.0-6.0-1.13","62fd76d3f0824c29d4b1e6bd","bdp_sd","Mon Mar 27 2023 16:18:06 GMT-0400 (Eastern Daylight Time)","148811","","null","","","","","FIX","","<div class='trialBorder'><div class='vertical-center'><img style='vertical-align:center; align:center' src=img/fixation3.jpg></div></div>","null","","","","","","",""
"html-keyboard-response","45","124978","0.0-6.0-2.13","62fd76d3f0824c29d4b1e6bd","bdp_sd","Mon Mar 27 2023 16:18:06 GMT-0400 (Eastern Daylight Time)","148811","","1065","","","","","offer","","<div class='trialBorder'><div class='vertical-center'><img style='vertical-align:center; align:center' src=img/fixation3.jpg></div><div class='cl'><div class='vertical-center'>$35<br>for<br>Lindsay K</div></div><div class='cr'><div class='vertical-center'>$24<br>for<br>yourself</div></div><div class='respDivL'><div class='vertical-center'>(E)</div></div><div class='respDivR'><div class='vertical-center'>(I)</div></div></div>","E","$24<br>for<br>yourself","$35<br>for<br>3","1","24","35","3","OTHER"
"html-keyboard-response","46","125238","0.0-6.0-3.13","62fd76d3f0824c29d4b1e6bd","bdp_sd","Mon Mar 27 2023 16:18:06 GMT-0400 (Eastern Daylight Time)","148811","","null","","","","","offerFB","","<div class='trialBorder'><div class='vertical-center'><img style='vertical-align:center; align:center' src=img/fixation3.jpg></div><div class='cl'><div class='vertical-center'><font style='color:orange'>$35<br>for<br>Lindsay K</font></div></div><div class='cr'><div class='vertical-center'>$24<br>for<br>yourself</div></div><div class='respDivL'><div class='vertical-center'><font style='color:orange'>(E)</font></div></div><div class='respDivR'><div class='vertical-center'>(I)</div></div></div>","null","$24<br>for<br>yourself","$35<br>for<br>3","1","24","35","3",""
"html-keyboard-response","47","125741","0.0-6.0-1.14","62fd76d3f0824c29d4b1e6bd","bdp_sd","Mon Mar 27 2023 16:18:06 GMT-0400 (Eastern Daylight Time)","148811","","null","","","","","FIX","","<div class='trialBorder'><div class='vertical-center'><img style='vertical-align:center; align:center' src=img/fixation3.jpg></div></div>","null","","","","","","",""
"html-keyboard-response","48","126755","0.0-6.0-2.14","62fd76d3f0824c29d4b1e6bd","bdp_sd","Mon Mar 27 2023 16:18:06 GMT-0400 (Eastern Daylight Time)","148811","","1012","","","","","offer","","<div class='trialBorder'><div class='vertical-center'><img style='vertical-align:center; align:center' src=img/fixation3.jpg></div><div class='cl'><div class='vertical-center'>$54<br>for<br>yourself</div></div><div class='cr'><div class='vertical-center'>$60<br>for<br>Charlotte K</div></div><div class='respDivL'><div class='vertical-center'>(E)</div></div><div class='respDivR'><div class='vertical-center'>(I)</div></div></div>","I","$54<br>for<br>yourself","$60<br>for<br>5","0","54","60","5","OTHER"
"html-keyboard-response","49","127010","0.0-6.0-3.14","62fd76d3f0824c29d4b1e6bd","bdp_sd","Mon Mar 27 2023 16:18:06 GMT-0400 (Eastern Daylight Time)","148811","","null","","","","","offerFB","","<div class='trialBorder'><div class='vertical-center'><img style='vertical-align:center; align:center' src=img/fixation3.jpg></div><div class='cl'><div class='vertical-center'>$54<br>for<br>yourself</div></div><div class='cr'><div class='vertical-center'><font style='color:orange'>$60<br>for<br>Charlotte K</font></div></div><div class='respDivL'><div class='vertical-center'>(E)</div></div><div class='respDivR'><div class='vertical-center'><font style='color:orange'>(I)</font></div></div></div>","null","$54<br>for<br>yourself","$60<br>for<br>5","0","54","60","5",""
"html-keyboard-response","50","127518","0.0-6.0-1.15","62fd76d3f0824c29d4b1e6bd","bdp_sd","Mon Mar 27 2023 16:18:06 GMT-0400 (Eastern Daylight Time)","148811","","null","","","","","FIX","","<div class='trialBorder'><div class='vertical-center'><img style='vertical-align:center; align:center' src=img/fixation3.jpg></div></div>","null","","","","","","",""
"html-keyboard-response","51","128423","0.0-6.0-2.15","62fd76d3f0824c29d4b1e6bd","bdp_sd","Mon Mar 27 2023 16:18:06 GMT-0400 (Eastern Daylight Time)","148811","","903","","","","","offer","","<div class='trialBorder'><div class='vertical-center'><img style='vertical-align:center; align:center' src=img/fixation3.jpg></div><div class='cl'><div class='vertical-center'>$49<br>for<br>yourself</div></div><div class='cr'><div class='vertical-center'>$60<br>for<br>Matthew K</div></div><div class='respDivL'><div class='vertical-center'>(E)</div></div><div class='respDivR'><div class='vertical-center'>(I)</div></div></div>","I","$49<br>for<br>yourself","$60<br>for<br>4","0","49","60","4","OTHER"
"html-keyboard-response","52","128680","0.0-6.0-3.15","62fd76d3f0824c29d4b1e6bd","bdp_sd","Mon Mar 27 2023 16:18:06 GMT-0400 (Eastern Daylight Time)","148811","","null","","","","","offerFB","","<div class='trialBorder'><div class='vertical-center'><img style='vertical-align:center; align:center' src=img/fixation3.jpg></div><div class='cl'><div class='vertical-center'>$49<br>for<br>yourself</div></div><div class='cr'><div class='vertical-center'><font style='color:orange'>$60<br>for<br>Matthew K</font></div></div><div class='respDivL'><div class='vertical-center'>(E)</div></div><div class='respDivR'><div class='vertical-center'><font style='color:orange'>(I)</font></div></div></div>","null","$49<br>for<br>yourself","$60<br>for<br>4","0","49","60","4",""
"html-keyboard-response","53","129182","0.0-6.0-1.16","62fd76d3f0824c29d4b1e6bd","bdp_sd","Mon Mar 27 2023 16:18:06 GMT-0400 (Eastern Daylight Time)","148811","","null","","","","","FIX","","<div class='trialBorder'><div class='vertical-center'><img style='vertical-align:center; align:center' src=img/fixation3.jpg></div></div>","null","","","","","","",""
"html-keyboard-response","54","130196","0.0-6.0-2.16","62fd76d3f0824c29d4b1e6bd","bdp_sd","Mon Mar 27 2023 16:18:06 GMT-0400 (Eastern Daylight Time)","148811","","1008","","","","","offer","","<div class='trialBorder'><div class='vertical-center'><img style='vertical-align:center; align:center' src=img/fixation3.jpg></div><div class='cl'><div class='vertical-center'>$54<br>for<br>yourself</div></div><div class='cr'><div class='vertical-center'>$55<br>for<br>Charlotte K</div></div><div class='respDivL'><div class='vertical-center'>(E)</div></div><div class='respDivR'><div class='vertical-center'>(I)</div></div></div>","I","$54<br>for<br>yourself","$55<br>for<br>5","0","54","55","5","OTHER"
"html-keyboard-response","55","130456","0.0-6.0-3.16","62fd76d3f0824c29d4b1e6bd","bdp_sd","Mon Mar 27 2023 16:18:06 GMT-0400 (Eastern Daylight Time)","148811","","null","","","","","offerFB","","<div class='trialBorder'><div class='vertical-center'><img style='vertical-align:center; align:center' src=img/fixation3.jpg></div><div class='cl'><div class='vertical-center'>$54<br>for<br>yourself</div></div><div class='cr'><div class='vertical-center'><font style='color:orange'>$55<br>for<br>Charlotte K</font></div></div><div class='respDivL'><div class='vertical-center'>(E)</div></div><div class='respDivR'><div class='vertical-center'><font style='color:orange'>(I)</font></div></div></div>","null","$54<br>for<br>yourself","$55<br>for<br>5","0","54","55","5",""
"html-keyboard-response","56","130967","0.0-6.0-1.17","62fd76d3f0824c29d4b1e6bd","bdp_sd","Mon Mar 27 2023 16:18:06 GMT-0400 (Eastern Daylight Time)","148811","","null","","","","","FIX","","<div class='trialBorder'><div class='vertical-center'><img style='vertical-align:center; align:center' src=img/fixation3.jpg></div></div>","null","","","","","","",""
"html-keyboard-response","57","131892","0.0-6.0-2.17","62fd76d3f0824c29d4b1e6bd","bdp_sd","Mon Mar 27 2023 16:18:06 GMT-0400 (Eastern Daylight Time)","148811","","923","","","","","offer","","<div class='trialBorder'><div class='vertical-center'><img style='vertical-align:center; align:center' src=img/fixation3.jpg></div><div class='cl'><div class='vertical-center'>$60<br>for<br>Lindsay K</div></div><div class='cr'><div class='vertical-center'>$25<br>for<br>yourself</div></div><div class='respDivL'><div class='vertical-center'>(E)</div></div><div class='respDivR'><div class='vertical-center'>(I)</div></div></div>","E","$25<br>for<br>yourself","$60<br>for<br>3","1","25","60","3","OTHER"
"html-keyboard-response","58","132152","0.0-6.0-3.17","62fd76d3f0824c29d4b1e6bd","bdp_sd","Mon Mar 27 2023 16:18:06 GMT-0400 (Eastern Daylight Time)","148811","","null","","","","","offerFB","","<div class='trialBorder'><div class='vertical-center'><img style='vertical-align:center; align:center' src=img/fixation3.jpg></div><div class='cl'><div class='vertical-center'><font style='color:orange'>$60<br>for<br>Lindsay K</font></div></div><div class='cr'><div class='vertical-center'>$25<br>for<br>yourself</div></div><div class='respDivL'><div class='vertical-center'><font style='color:orange'>(E)</font></div></div><div class='respDivR'><div class='vertical-center'>(I)</div></div></div>","null","$25<br>for<br>yourself","$60<br>for<br>3","1","25","60","3",""
"html-keyboard-response","59","132655","0.0-6.0-1.18","62fd76d3f0824c29d4b1e6bd","bdp_sd","Mon Mar 27 2023 16:18:06 GMT-0400 (Eastern Daylight Time)","148811","","null","","","","","FIX","","<div class='trialBorder'><div class='vertical-center'><img style='vertical-align:center; align:center' src=img/fixation3.jpg></div></div>","null","","","","","","",""
"html-keyboard-response","60","133812","0.0-6.0-2.18","62fd76d3f0824c29d4b1e6bd","bdp_sd","Mon Mar 27 2023 16:18:06 GMT-0400 (Eastern Daylight Time)","148811","","1155","","","","","offer","","<div class='trialBorder'><div class='vertical-center'><img style='vertical-align:center; align:center' src=img/fixation3.jpg></div><div class='cl'><div class='vertical-center'>$40<br>for<br>yourself</div></div><div class='cr'><div class='vertical-center'>$55<br>for<br>Matthew K</div></div><div class='respDivL'><div class='vertical-center'>(E)</div></div><div class='respDivR'><div class='vertical-center'>(I)</div></div></div>","I","$40<br>for<br>yourself","$55<br>for<br>4","0","40","55","4","OTHER"
"html-keyboard-response","61","134067","0.0-6.0-3.18","62fd76d3f0824c29d4b1e6bd","bdp_sd","Mon Mar 27 2023 16:18:06 GMT-0400 (Eastern Daylight Time)","148811","","null","","","","","offerFB","","<div class='trialBorder'><div class='vertical-center'><img style='vertical-align:center; align:center' src=img/fixation3.jpg></div><div class='cl'><div class='vertical-center'>$40<br>for<br>yourself</div></div><div class='cr'><div class='vertical-center'><font style='color:orange'>$55<br>for<br>Matthew K</font></div></div><div class='respDivL'><div class='vertical-center'>(E)</div></div><div class='respDivR'><div class='vertical-center'><font style='color:orange'>(I)</font></div></div></div>","null","$40<br>for<br>yourself","$55<br>for<br>4","0","40","55","4",""
"html-keyboard-response","62","134584","0.0-6.0-1.19","62fd76d3f0824c29d4b1e6bd","bdp_sd","Mon Mar 27 2023 16:18:06 GMT-0400 (Eastern Daylight Time)","148811","","null","","","","","FIX","","<div class='trialBorder'><div class='vertical-center'><img style='vertical-align:center; align:center' src=img/fixation3.jpg></div></div>","null","","","","","","",""
"html-keyboard-response","63","135449","0.0-6.0-2.19","62fd76d3f0824c29d4b1e6bd","bdp_sd","Mon Mar 27 2023 16:18:06 GMT-0400 (Eastern Daylight Time)","148811","","854","","","","","offer","","<div class='trialBorder'><div class='vertical-center'><img style='vertical-align:center; align:center' src=img/fixation3.jpg></div><div class='cl'><div class='vertical-center'>$15<br>for<br>yourself</div></div><div class='cr'><div class='vertical-center'>$35<br>for<br>Steve K</div></div><div class='respDivL'><div class='vertical-center'>(E)</div></div><div class='respDivR'><div class='vertical-center'>(I)</div></div></div>","I","$15<br>for<br>yourself","$35<br>for<br>2","0","15","35","2","OTHER"
"html-keyboard-response","64","135712","0.0-6.0-3.19","62fd76d3f0824c29d4b1e6bd","bdp_sd","Mon Mar 27 2023 16:18:06 GMT-0400 (Eastern Daylight Time)","148811","","null","","","","","offerFB","","<div class='trialBorder'><div class='vertical-center'><img style='vertical-align:center; align:center' src=img/fixation3.jpg></div><div class='cl'><div class='vertical-center'>$15<br>for<br>yourself</div></div><div class='cr'><div class='vertical-center'><font style='color:orange'>$35<br>for<br>Steve K</font></div></div><div class='respDivL'><div class='vertical-center'>(E)</div></div><div class='respDivR'><div class='vertical-center'><font style='color:orange'>(I)</font></div></div></div>","null","$15<br>for<br>yourself","$35<br>for<br>2","0","15","35","2",""
"html-keyboard-response","65","136222","0.0-6.0-1.20","62fd76d3f0824c29d4b1e6bd","bdp_sd","Mon Mar 27 2023 16:18:06 GMT-0400 (Eastern Daylight Time)","148811","","null","","","","","FIX","","<div class='trialBorder'><div class='vertical-center'><img style='vertical-align:center; align:center' src=img/fixation3.jpg></div></div>","null","","","","","","",""
"html-keyboard-response","66","137028","0.0-6.0-2.20","62fd76d3f0824c29d4b1e6bd","bdp_sd","Mon Mar 27 2023 16:18:06 GMT-0400 (Eastern Daylight Time)","148811","","804","","","","","offer","","<div class='trialBorder'><div class='vertical-center'><img style='vertical-align:center; align:center' src=img/fixation3.jpg></div><div class='cl'><div class='vertical-center'>$80<br>for<br>Steve K</div></div><div class='cr'><div class='vertical-center'>$33<br>for<br>yourself</div></div><div class='respDivL'><div class='vertical-center'>(E)</div></div><div class='respDivR'><div class='vertical-center'>(I)</div></div></div>","E","$33<br>for<br>yourself","$80<br>for<br>2","1","33","80","2","OTHER"
"html-keyboard-response","67","137292","0.0-6.0-3.20","62fd76d3f0824c29d4b1e6bd","bdp_sd","Mon Mar 27 2023 16:18:06 GMT-0400 (Eastern Daylight Time)","148811","","null","","","","","offerFB","","<div class='trialBorder'><div class='vertical-center'><img style='vertical-align:center; align:center' src=img/fixation3.jpg></div><div class='cl'><div class='vertical-center'><font style='color:orange'>$80<br>for<br>Steve K</font></div></div><div class='cr'><div class='vertical-center'>$33<br>for<br>yourself</div></div><div class='respDivL'><div class='vertical-center'><font style='color:orange'>(E)</font></div></div><div class='respDivR'><div class='vertical-center'>(I)</div></div></div>","null","$33<br>for<br>yourself","$80<br>for<br>2","1","33","80","2",""
"html-keyboard-response","68","137801","0.0-6.0-1.21","62fd76d3f0824c29d4b1e6bd","bdp_sd","Mon Mar 27 2023 16:18:06 GMT-0400 (Eastern Daylight Time)","148811","","null","","","","","FIX","","<div class='trialBorder'><div class='vertical-center'><img style='vertical-align:center; align:center' src=img/fixation3.jpg></div></div>","null","","","","","","",""
"html-keyboard-response","69","139124","0.0-6.0-2.21","62fd76d3f0824c29d4b1e6bd","bdp_sd","Mon Mar 27 2023 16:18:06 GMT-0400 (Eastern Daylight Time)","148811","","1320","","","","","offer","","<div class='trialBorder'><div class='vertical-center'><img style='vertical-align:center; align:center' src=img/fixation3.jpg></div><div class='cl'><div class='vertical-center'>$25<br>for<br>yourself</div></div><div class='cr'><div class='vertical-center'>$30<br>for<br>Matthew K</div></div><div class='respDivL'><div class='vertical-center'>(E)</div></div><div class='respDivR'><div class='vertical-center'>(I)</div></div></div>","I","$25<br>for<br>yourself","$30<br>for<br>4","0","25","30","4","OTHER"
"html-keyboard-response","70","139378","0.0-6.0-3.21","62fd76d3f0824c29d4b1e6bd","bdp_sd","Mon Mar 27 2023 16:18:06 GMT-0400 (Eastern Daylight Time)","148811","","null","","","","","offerFB","","<div class='trialBorder'><div class='vertical-center'><img style='vertical-align:center; align:center' src=img/fixation3.jpg></div><div class='cl'><div class='vertical-center'>$25<br>for<br>yourself</div></div><div class='cr'><div class='vertical-center'><font style='color:orange'>$30<br>for<br>Matthew K</font></div></div><div class='respDivL'><div class='vertical-center'>(E)</div></div><div class='respDivR'><div class='vertical-center'><font style='color:orange'>(I)</font></div></div></div>","null","$25<br>for<br>yourself","$30<br>for<br>4","0","25","30","4",""
"html-keyboard-response","71","139888","0.0-6.0-1.22","62fd76d3f0824c29d4b1e6bd","bdp_sd","Mon Mar 27 2023 16:18:06 GMT-0400 (Eastern Daylight Time)","148811","","null","","","","","FIX","","<div class='trialBorder'><div class='vertical-center'><img style='vertical-align:center; align:center' src=img/fixation3.jpg></div></div>","null","","","","","","",""
"html-keyboard-response","72","140731","0.0-6.0-2.22","62fd76d3f0824c29d4b1e6bd","bdp_sd","Mon Mar 27 2023 16:18:06 GMT-0400 (Eastern Daylight Time)","148811","","842","","","","","offer","","<div class='trialBorder'><div class='vertical-center'><img style='vertical-align:center; align:center' src=img/fixation3.jpg></div><div class='cl'><div class='vertical-center'>$50<br>for<br>Lindsay K</div></div><div class='cr'><div class='vertical-center'>$27<br>for<br>yourself</div></div><div class='respDivL'><div class='vertical-center'>(E)</div></div><div class='respDivR'><div class='vertical-center'>(I)</div></div></div>","E","$27<br>for<br>yourself","$50<br>for<br>3","1","27","50","3","OTHER"
"html-keyboard-response","73","140997","0.0-6.0-3.22","62fd76d3f0824c29d4b1e6bd","bdp_sd","Mon Mar 27 2023 16:18:06 GMT-0400 (Eastern Daylight Time)","148811","","null","","","","","offerFB","","<div class='trialBorder'><div class='vertical-center'><img style='vertical-align:center; align:center' src=img/fixation3.jpg></div><div class='cl'><div class='vertical-center'><font style='color:orange'>$50<br>for<br>Lindsay K</font></div></div><div class='cr'><div class='vertical-center'>$27<br>for<br>yourself</div></div><div class='respDivL'><div class='vertical-center'><font style='color:orange'>(E)</font></div></div><div class='respDivR'><div class='vertical-center'>(I)</div></div></div>","null","$27<br>for<br>yourself","$50<br>for<br>3","1","27","50","3",""
"html-keyboard-response","74","141499","0.0-6.0-1.23","62fd76d3f0824c29d4b1e6bd","bdp_sd","Mon Mar 27 2023 16:18:06 GMT-0400 (Eastern Daylight Time)","148811","","null","","","","","FIX","","<div class='trialBorder'><div class='vertical-center'><img style='vertical-align:center; align:center' src=img/fixation3.jpg></div></div>","null","","","","","","",""
"html-keyboard-response","75","142273","0.0-6.0-2.23","62fd76d3f0824c29d4b1e6bd","bdp_sd","Mon Mar 27 2023 16:18:06 GMT-0400 (Eastern Daylight Time)","148811","","772","","","","","offer","","<div class='trialBorder'><div class='vertical-center'><img style='vertical-align:center; align:center' src=img/fixation3.jpg></div><div class='cl'><div class='vertical-center'>$34<br>for<br>yourself</div></div><div class='cr'><div class='vertical-center'>$50<br>for<br>Matthew K</div></div><div class='respDivL'><div class='vertical-center'>(E)</div></div><div class='respDivR'><div class='vertical-center'>(I)</div></div></div>","I","$34<br>for<br>yourself","$50<br>for<br>4","0","34","50","4","OTHER"
"html-keyboard-response","76","142536","0.0-6.0-3.23","62fd76d3f0824c29d4b1e6bd","bdp_sd","Mon Mar 27 2023 16:18:06 GMT-0400 (Eastern Daylight Time)","148811","","null","","","","","offerFB","","<div class='trialBorder'><div class='vertical-center'><img style='vertical-align:center; align:center' src=img/fixation3.jpg></div><div class='cl'><div class='vertical-center'>$34<br>for<br>yourself</div></div><div class='cr'><div class='vertical-center'><font style='color:orange'>$50<br>for<br>Matthew K</font></div></div><div class='respDivL'><div class='vertical-center'>(E)</div></div><div class='respDivR'><div class='vertical-center'><font style='color:orange'>(I)</font></div></div></div>","null","$34<br>for<br>yourself","$50<br>for<br>4","0","34","50","4",""
"html-keyboard-response","77","143043","0.0-6.0-1.24","62fd76d3f0824c29d4b1e6bd","bdp_sd","Mon Mar 27 2023 16:18:06 GMT-0400 (Eastern Daylight Time)","148811","","null","","","","","FIX","","<div class='trialBorder'><div class='vertical-center'><img style='vertical-align:center; align:center' src=img/fixation3.jpg></div></div>","null","","","","","","",""
"html-keyboard-response","78","143834","0.0-6.0-2.24","62fd76d3f0824c29d4b1e6bd","bdp_sd","Mon Mar 27 2023 16:18:06 GMT-0400 (Eastern Daylight Time)","148811","","789","","","","","offer","","<div class='trialBorder'><div class='vertical-center'><img style='vertical-align:center; align:center' src=img/fixation3.jpg></div><div class='cl'><div class='vertical-center'>$34<br>for<br>yourself</div></div><div class='cr'><div class='vertical-center'>$35<br>for<br>Charlotte K</div></div><div class='respDivL'><div class='vertical-center'>(E)</div></div><div class='respDivR'><div class='vertical-center'>(I)</div></div></div>","I","$34<br>for<br>yourself","$35<br>for<br>5","0","34","35","5","OTHER"
"html-keyboard-response","79","144095","0.0-6.0-3.24","62fd76d3f0824c29d4b1e6bd","bdp_sd","Mon Mar 27 2023 16:18:06 GMT-0400 (Eastern Daylight Time)","148811","","null","","","","","offerFB","","<div class='trialBorder'><div class='vertical-center'><img style='vertical-align:center; align:center' src=img/fixation3.jpg></div><div class='cl'><div class='vertical-center'>$34<br>for<br>yourself</div></div><div class='cr'><div class='vertical-center'><font style='color:orange'>$35<br>for<br>Charlotte K</font></div></div><div class='respDivL'><div class='vertical-center'>(E)</div></div><div class='respDivR'><div class='vertical-center'><font style='color:orange'>(I)</font></div></div></div>","null","$34<br>for<br>yourself","$35<br>for<br>5","0","34","35","5",""
"html-keyboard-response","80","144609","0.0-6.0-1.25","62fd76d3f0824c29d4b1e6bd","bdp_sd","Mon Mar 27 2023 16:18:06 GMT-0400 (Eastern Daylight Time)","148811","","null","","","","","FIX","","<div class='trialBorder'><div class='vertical-center'><img style='vertical-align:center; align:center' src=img/fixation3.jpg></div></div>","null","","","","","","",""
"html-keyboard-response","81","145917","0.0-6.0-2.25","62fd76d3f0824c29d4b1e6bd","bdp_sd","Mon Mar 27 2023 16:18:06 GMT-0400 (Eastern Daylight Time)","148811","","1307","","","","","offer","","<div class='trialBorder'><div class='vertical-center'><img style='vertical-align:center; align:center' src=img/fixation3.jpg></div><div class='cl'><div class='vertical-center'>$85<br>for<br>Charlotte K</div></div><div class='cr'><div class='vertical-center'>$80<br>for<br>yourself</div></div><div class='respDivL'><div class='vertical-center'>(E)</div></div><div class='respDivR'><div class='vertical-center'>(I)</div></div></div>","E","$80<br>for<br>yourself","$85<br>for<br>5","1","80","85","5","OTHER"
"html-keyboard-response","82","146174","0.0-6.0-3.25","62fd76d3f0824c29d4b1e6bd","bdp_sd","Mon Mar 27 2023 16:18:06 GMT-0400 (Eastern Daylight Time)","148811","","null","","","","","offerFB","","<div class='trialBorder'><div class='vertical-center'><img style='vertical-align:center; align:center' src=img/fixation3.jpg></div><div class='cl'><div class='vertical-center'><font style='color:orange'>$85<br>for<br>Charlotte K</font></div></div><div class='cr'><div class='vertical-center'>$80<br>for<br>yourself</div></div><div class='respDivL'><div class='vertical-center'><font style='color:orange'>(E)</font></div></div><div class='respDivR'><div class='vertical-center'>(I)</div></div></div>","null","$80<br>for<br>yourself","$85<br>for<br>5","1","80","85","5",""
"html-keyboard-response","83","146685","0.0-6.0-1.26","62fd76d3f0824c29d4b1e6bd","bdp_sd","Mon Mar 27 2023 16:18:06 GMT-0400 (Eastern Daylight Time)","148811","","null","","","","","FIX","","<div class='trialBorder'><div class='vertical-center'><img style='vertical-align:center; align:center' src=img/fixation3.jpg></div></div>","null","","","","","","",""
"html-keyboard-response","84","147553","0.0-6.0-2.26","62fd76d3f0824c29d4b1e6bd","bdp_sd","Mon Mar 27 2023 16:18:06 GMT-0400 (Eastern Daylight Time)","148811","","866","","","","","offer","","<div class='trialBorder'><div class='vertical-center'><img style='vertical-align:center; align:center' src=img/fixation3.jpg></div><div class='cl'><div class='vertical-center'>$25<br>for<br>Lindsay K</div></div><div class='cr'><div class='vertical-center'>$14<br>for<br>yourself</div></div><div class='respDivL'><div class='vertical-center'>(E)</div></div><div class='respDivR'><div class='vertical-center'>(I)</div></div></div>","E","$14<br>for<br>yourself","$25<br>for<br>3","1","14","25","3","OTHER"
"html-keyboard-response","85","147807","0.0-6.0-3.26","62fd76d3f0824c29d4b1e6bd","bdp_sd","Mon Mar 27 2023 16:18:06 GMT-0400 (Eastern Daylight Time)","148811","","null","","","","","offerFB","","<div class='trialBorder'><div class='vertical-center'><img style='vertical-align:center; align:center' src=img/fixation3.jpg></div><div class='cl'><div class='vertical-center'><font style='color:orange'>$25<br>for<br>Lindsay K</font></div></div><div class='cr'><div class='vertical-center'>$14<br>for<br>yourself</div></div><div class='respDivL'><div class='vertical-center'><font style='color:orange'>(E)</font></div></div><div class='respDivR'><div class='vertical-center'>(I)</div></div></div>","null","$14<br>for<br>yourself","$25<br>for<br>3","1","14","25","3",""
"","","","","62fd76d3f0824c29d4b1e6bd","bdp_sd","Mon Mar 27 2023 16:18:06 GMT-0400 (Eastern Daylight Time)","148811","","","","fullscreenexit","86","147854","fullscreenexit","","","","","","","","","",""
"fullscreen","86","148810","0.0-7.0","62fd76d3f0824c29d4b1e6bd","bdp_sd","Mon Mar 27 2023 16:18:06 GMT-0400 (Eastern Daylight Time)","148811","","","","","","","","true","","","","","","","","",""
"html-keyboard-response","87","149316","0.0-8.0","","","","","","null","","","","","","","","null","","","","","","",""
