"event","trial","time","trialtype","subject_id","task","startTime","totalTime","trial_type","trial_index","time_elapsed","internal_node_id","view_history","rt","responses","success","stimulus","key_press","selfOffer","otherOffer","otherLeft","selfAmt","otherAmt","otherDist","chosen"
"focus","0","0","focusevent","63f969ceb2a0b028aa612b33","bdp_sd","Sat Mar 25 2023 20:25:04 GMT-0400 (Eastern Daylight Time)","229483","","","","","","","","","","","","","","","","",""
"","","","","63f969ceb2a0b028aa612b33","bdp_sd","Sat Mar 25 2023 20:25:04 GMT-0400 (Eastern Daylight Time)","229483","pavlovia","0","1","0.0-0.0","","","","","","","","","","","","",""
"","","","","63f969ceb2a0b028aa612b33","bdp_sd","Sat Mar 25 2023 20:25:04 GMT-0400 (Eastern Daylight Time)","229483","instructions","1","5799","0.0-1.0","[{""page_index"":0,""viewing_time"":5797}]","5797","","","","","","","","","","",""
"","","","","63f969ceb2a0b028aa612b33","bdp_sd","Sat Mar 25 2023 20:25:04 GMT-0400 (Eastern Daylight Time)","229483","survey-text","2","72364","0.0-2.0","","66562","{""Q0"":""Nida r"",""Q1"":""Vana r"",""Q2"":""Tani r"",""Q3"":""Lika b"",""Q4"":""dori b""}","","","","","","","","","",""
"fullscreenexit","3","77852","fullscreenexit","63f969ceb2a0b028aa612b33","bdp_sd","Sat Mar 25 2023 20:25:04 GMT-0400 (Eastern Daylight Time)","229483","","","","","","","","","","","","","","","","",""
"","","","","63f969ceb2a0b028aa612b33","bdp_sd","Sat Mar 25 2023 20:25:04 GMT-0400 (Eastern Daylight Time)","229483","fullscreen","3","78657","0.0-3.0","","","","true","","","","","","","","",""
"","","","fullscreenfail","63f969ceb2a0b028aa612b33","bdp_sd","Sat Mar 25 2023 20:25:04 GMT-0400 (Eastern Daylight Time)","229483","image-keyboard-response","4","81644","0.0-4.0-0.0","","2984","","","","32","","","","","","",""
"","","","","63f969ceb2a0b028aa612b33","bdp_sd","Sat Mar 25 2023 20:25:04 GMT-0400 (Eastern Daylight Time)","229483","instructions","5","148004","0.0-5.0","[{""page_index"":0,""viewing_time"":51816},{""page_index"":1,""viewing_time"":9226},{""page_index"":2,""viewing_time"":5067}]","66109","","","","","","","","","","",""
"","","","FIX","63f969ceb2a0b028aa612b33","bdp_sd","Sat Mar 25 2023 20:25:04 GMT-0400 (Eastern Daylight Time)","229483","html-keyboard-response","6","148508","0.0-6.0-1.0","","null","","","<div class='trialBorder'><div class='vertical-center'><img style='vertical-align:center; align:center' src=img/fixation3.jpg></div></div>","null","","","","","","",""
"","","","offer","63f969ceb2a0b028aa612b33","bdp_sd","Sat Mar 25 2023 20:25:04 GMT-0400 (Eastern Daylight Time)","229483","html-keyboard-response","7","153029","0.0-6.0-2.0","","4516","","","<div class='trialBorder'><div class='vertical-center'><img style='vertical-align:center; align:center' src=img/fixation3.jpg></div><div class='cl'><div class='vertical-center'>$22<br>for<br>yourself</div></div><div class='cr'><div class='vertical-center'>$25<br>for<br>dori b</div></div><div class='respDivL'><div class='vertical-center'>(E)</div></div><div class='respDivR'><div class='vertical-center'>(I)</div></div></div>","I","$22<br>for<br>yourself","$25<br>for<br>5","0","22","25","5","OTHER"
"","","","offerFB","63f969ceb2a0b028aa612b33","bdp_sd","Sat Mar 25 2023 20:25:04 GMT-0400 (Eastern Daylight Time)","229483","html-keyboard-response","8","153286","0.0-6.0-3.0","","null","","","<div class='trialBorder'><div class='vertical-center'><img style='vertical-align:center; align:center' src=img/fixation3.jpg></div><div class='cl'><div class='vertical-center'>$22<br>for<br>yourself</div></div><div class='cr'><div class='vertical-center'><font style='color:orange'>$25<br>for<br>dori b</font></div></div><div class='respDivL'><div class='vertical-center'>(E)</div></div><div class='respDivR'><div class='vertical-center'><font style='color:orange'>(I)</font></div></div></div>","null","$22<br>for<br>yourself","$25<br>for<br>5","0","22","25","5",""
"","","","FIX","63f969ceb2a0b028aa612b33","bdp_sd","Sat Mar 25 2023 20:25:04 GMT-0400 (Eastern Daylight Time)","229483","html-keyboard-response","9","153789","0.0-6.0-1.1","","null","","","<div class='trialBorder'><div class='vertical-center'><img style='vertical-align:center; align:center' src=img/fixation3.jpg></div></div>","null","","","","","","",""
"","","","offer","63f969ceb2a0b028aa612b33","bdp_sd","Sat Mar 25 2023 20:25:04 GMT-0400 (Eastern Daylight Time)","229483","html-keyboard-response","10","157560","0.0-6.0-2.1","","3769","","","<div class='trialBorder'><div class='vertical-center'><img style='vertical-align:center; align:center' src=img/fixation3.jpg></div><div class='cl'><div class='vertical-center'>$60<br>for<br>Lika b</div></div><div class='cr'><div class='vertical-center'>$49<br>for<br>yourself</div></div><div class='respDivL'><div class='vertical-center'>(E)</div></div><div class='respDivR'><div class='vertical-center'>(I)</div></div></div>","I","$49<br>for<br>yourself","$60<br>for<br>4","1","49","60","4","SELF"
"","","","offerFB","63f969ceb2a0b028aa612b33","bdp_sd","Sat Mar 25 2023 20:25:04 GMT-0400 (Eastern Daylight Time)","229483","html-keyboard-response","11","157825","0.0-6.0-3.1","","null","","","<div class='trialBorder'><div class='vertical-center'><img style='vertical-align:center; align:center' src=img/fixation3.jpg></div><div class='cl'><div class='vertical-center'>$60<br>for<br>Lika b</div></div><div class='cr'><div class='vertical-center'><font style='color:orange'>$49<br>for<br>yourself</font></div></div><div class='respDivL'><div class='vertical-center'>(E)</div></div><div class='respDivR'><div class='vertical-center'><font style='color:orange'>(I)</font></div></div></div>","null","$49<br>for<br>yourself","$60<br>for<br>4","1","49","60","4",""
"","","","FIX","63f969ceb2a0b028aa612b33","bdp_sd","Sat Mar 25 2023 20:25:04 GMT-0400 (Eastern Daylight Time)","229483","html-keyboard-response","12","158335","0.0-6.0-1.2","","null","","","<div class='trialBorder'><div class='vertical-center'><img style='vertical-align:center; align:center' src=img/fixation3.jpg></div></div>","null","","","","","","",""
"","","","offer","63f969ceb2a0b028aa612b33","bdp_sd","Sat Mar 25 2023 20:25:04 GMT-0400 (Eastern Daylight Time)","229483","html-keyboard-response","13","160408","0.0-6.0-2.2","","2072","","","<div class='trialBorder'><div class='vertical-center'><img style='vertical-align:center; align:center' src=img/fixation3.jpg></div><div class='cl'><div class='vertical-center'>$54<br>for<br>yourself</div></div><div class='cr'><div class='vertical-center'>$55<br>for<br>dori b</div></div><div class='respDivL'><div class='vertical-center'>(E)</div></div><div class='respDivR'><div class='vertical-center'>(I)</div></div></div>","I","$54<br>for<br>yourself","$55<br>for<br>5","0","54","55","5","OTHER"
"","","","offerFB","63f969ceb2a0b028aa612b33","bdp_sd","Sat Mar 25 2023 20:25:04 GMT-0400 (Eastern Daylight Time)","229483","html-keyboard-response","14","160664","0.0-6.0-3.2","","null","","","<div class='trialBorder'><div class='vertical-center'><img style='vertical-align:center; align:center' src=img/fixation3.jpg></div><div class='cl'><div class='vertical-center'>$54<br>for<br>yourself</div></div><div class='cr'><div class='vertical-center'><font style='color:orange'>$55<br>for<br>dori b</font></div></div><div class='respDivL'><div class='vertical-center'>(E)</div></div><div class='respDivR'><div class='vertical-center'><font style='color:orange'>(I)</font></div></div></div>","null","$54<br>for<br>yourself","$55<br>for<br>5","0","54","55","5",""
"","","","FIX","63f969ceb2a0b028aa612b33","bdp_sd","Sat Mar 25 2023 20:25:04 GMT-0400 (Eastern Daylight Time)","229483","html-keyboard-response","15","161167","0.0-6.0-1.3","","null","","","<div class='trialBorder'><div class='vertical-center'><img style='vertical-align:center; align:center' src=img/fixation3.jpg></div></div>","null","","","","","","",""
"","","","offer","63f969ceb2a0b028aa612b33","bdp_sd","Sat Mar 25 2023 20:25:04 GMT-0400 (Eastern Daylight Time)","229483","html-keyboard-response","16","166571","0.0-6.0-2.3","","5403","","","<div class='trialBorder'><div class='vertical-center'><img style='vertical-align:center; align:center' src=img/fixation3.jpg></div><div class='cl'><div class='vertical-center'>$85<br>for<br>Nida r</div></div><div class='cr'><div class='vertical-center'>$31<br>for<br>yourself</div></div><div class='respDivL'><div class='vertical-center'>(E)</div></div><div class='respDivR'><div class='vertical-center'>(I)</div></div></div>","E","$31<br>for<br>yourself","$85<br>for<br>1","1","31","85","1","OTHER"
"","","","offerFB","63f969ceb2a0b028aa612b33","bdp_sd","Sat Mar 25 2023 20:25:04 GMT-0400 (Eastern Daylight Time)","229483","html-keyboard-response","17","166825","0.0-6.0-3.3","","null","","","<div class='trialBorder'><div class='vertical-center'><img style='vertical-align:center; align:center' src=img/fixation3.jpg></div><div class='cl'><div class='vertical-center'><font style='color:orange'>$85<br>for<br>Nida r</font></div></div><div class='cr'><div class='vertical-center'>$31<br>for<br>yourself</div></div><div class='respDivL'><div class='vertical-center'><font style='color:orange'>(E)</font></div></div><div class='respDivR'><div class='vertical-center'>(I)</div></div></div>","null","$31<br>for<br>yourself","$85<br>for<br>1","1","31","85","1",""
"","","","FIX","63f969ceb2a0b028aa612b33","bdp_sd","Sat Mar 25 2023 20:25:04 GMT-0400 (Eastern Daylight Time)","229483","html-keyboard-response","18","167338","0.0-6.0-1.4","","null","","","<div class='trialBorder'><div class='vertical-center'><img style='vertical-align:center; align:center' src=img/fixation3.jpg></div></div>","null","","","","","","",""
"","","","offer","63f969ceb2a0b028aa612b33","bdp_sd","Sat Mar 25 2023 20:25:04 GMT-0400 (Eastern Daylight Time)","229483","html-keyboard-response","19","169055","0.0-6.0-2.4","","1715","","","<div class='trialBorder'><div class='vertical-center'><img style='vertical-align:center; align:center' src=img/fixation3.jpg></div><div class='cl'><div class='vertical-center'>$55<br>for<br>Nida r</div></div><div class='cr'><div class='vertical-center'>$20<br>for<br>yourself</div></div><div class='respDivL'><div class='vertical-center'>(E)</div></div><div class='respDivR'><div class='vertical-center'>(I)</div></div></div>","E","$20<br>for<br>yourself","$55<br>for<br>1","1","20","55","1","OTHER"
"","","","offerFB","63f969ceb2a0b028aa612b33","bdp_sd","Sat Mar 25 2023 20:25:04 GMT-0400 (Eastern Daylight Time)","229483","html-keyboard-response","20","169308","0.0-6.0-3.4","","null","","","<div class='trialBorder'><div class='vertical-center'><img style='vertical-align:center; align:center' src=img/fixation3.jpg></div><div class='cl'><div class='vertical-center'><font style='color:orange'>$55<br>for<br>Nida r</font></div></div><div class='cr'><div class='vertical-center'>$20<br>for<br>yourself</div></div><div class='respDivL'><div class='vertical-center'><font style='color:orange'>(E)</font></div></div><div class='respDivR'><div class='vertical-center'>(I)</div></div></div>","null","$20<br>for<br>yourself","$55<br>for<br>1","1","20","55","1",""
"","","","FIX","63f969ceb2a0b028aa612b33","bdp_sd","Sat Mar 25 2023 20:25:04 GMT-0400 (Eastern Daylight Time)","229483","html-keyboard-response","21","169811","0.0-6.0-1.5","","null","","","<div class='trialBorder'><div class='vertical-center'><img style='vertical-align:center; align:center' src=img/fixation3.jpg></div></div>","null","","","","","","",""
"","","","offer","63f969ceb2a0b028aa612b33","bdp_sd","Sat Mar 25 2023 20:25:04 GMT-0400 (Eastern Daylight Time)","229483","html-keyboard-response","22","171565","0.0-6.0-2.5","","1753","","","<div class='trialBorder'><div class='vertical-center'><img style='vertical-align:center; align:center' src=img/fixation3.jpg></div><div class='cl'><div class='vertical-center'>$55<br>for<br>Lika b</div></div><div class='cr'><div class='vertical-center'>$40<br>for<br>yourself</div></div><div class='respDivL'><div class='vertical-center'>(E)</div></div><div class='respDivR'><div class='vertical-center'>(I)</div></div></div>","E","$40<br>for<br>yourself","$55<br>for<br>4","1","40","55","4","OTHER"
"","","","offerFB","63f969ceb2a0b028aa612b33","bdp_sd","Sat Mar 25 2023 20:25:04 GMT-0400 (Eastern Daylight Time)","229483","html-keyboard-response","23","171824","0.0-6.0-3.5","","null","","","<div class='trialBorder'><div class='vertical-center'><img style='vertical-align:center; align:center' src=img/fixation3.jpg></div><div class='cl'><div class='vertical-center'><font style='color:orange'>$55<br>for<br>Lika b</font></div></div><div class='cr'><div class='vertical-center'>$40<br>for<br>yourself</div></div><div class='respDivL'><div class='vertical-center'><font style='color:orange'>(E)</font></div></div><div class='respDivR'><div class='vertical-center'>(I)</div></div></div>","null","$40<br>for<br>yourself","$55<br>for<br>4","1","40","55","4",""
"","","","FIX","63f969ceb2a0b028aa612b33","bdp_sd","Sat Mar 25 2023 20:25:04 GMT-0400 (Eastern Daylight Time)","229483","html-keyboard-response","24","172336","0.0-6.0-1.6","","null","","","<div class='trialBorder'><div class='vertical-center'><img style='vertical-align:center; align:center' src=img/fixation3.jpg></div></div>","null","","","","","","",""
"","","","offer","63f969ceb2a0b028aa612b33","bdp_sd","Sat Mar 25 2023 20:25:04 GMT-0400 (Eastern Daylight Time)","229483","html-keyboard-response","25","174773","0.0-6.0-2.6","","2434","","","<div class='trialBorder'><div class='vertical-center'><img style='vertical-align:center; align:center' src=img/fixation3.jpg></div><div class='cl'><div class='vertical-center'>$25<br>for<br>Tani r</div></div><div class='cr'><div class='vertical-center'>$14<br>for<br>yourself</div></div><div class='respDivL'><div class='vertical-center'>(E)</div></div><div class='respDivR'><div class='vertical-center'>(I)</div></div></div>","E","$14<br>for<br>yourself","$25<br>for<br>3","1","14","25","3","OTHER"
"","","","offerFB","63f969ceb2a0b028aa612b33","bdp_sd","Sat Mar 25 2023 20:25:04 GMT-0400 (Eastern Daylight Time)","229483","html-keyboard-response","26","175029","0.0-6.0-3.6","","null","","","<div class='trialBorder'><div class='vertical-center'><img style='vertical-align:center; align:center' src=img/fixation3.jpg></div><div class='cl'><div class='vertical-center'><font style='color:orange'>$25<br>for<br>Tani r</font></div></div><div class='cr'><div class='vertical-center'>$14<br>for<br>yourself</div></div><div class='respDivL'><div class='vertical-center'><font style='color:orange'>(E)</font></div></div><div class='respDivR'><div class='vertical-center'>(I)</div></div></div>","null","$14<br>for<br>yourself","$25<br>for<br>3","1","14","25","3",""
"","","","FIX","63f969ceb2a0b028aa612b33","bdp_sd","Sat Mar 25 2023 20:25:04 GMT-0400 (Eastern Daylight Time)","229483","html-keyboard-response","27","175536","0.0-6.0-1.7","","null","","","<div class='trialBorder'><div class='vertical-center'><img style='vertical-align:center; align:center' src=img/fixation3.jpg></div></div>","null","","","","","","",""
"","","","offer","63f969ceb2a0b028aa612b33","bdp_sd","Sat Mar 25 2023 20:25:04 GMT-0400 (Eastern Daylight Time)","229483","html-keyboard-response","28","178978","0.0-6.0-2.7","","3441","","","<div class='trialBorder'><div class='vertical-center'><img style='vertical-align:center; align:center' src=img/fixation3.jpg></div><div class='cl'><div class='vertical-center'>$19<br>for<br>yourself</div></div><div class='cr'><div class='vertical-center'>$25<br>for<br>Lika b</div></div><div class='respDivL'><div class='vertical-center'>(E)</div></div><div class='respDivR'><div class='vertical-center'>(I)</div></div></div>","E","$19<br>for<br>yourself","$25<br>for<br>4","0","19","25","4","SELF"
"","","","offerFB","63f969ceb2a0b028aa612b33","bdp_sd","Sat Mar 25 2023 20:25:04 GMT-0400 (Eastern Daylight Time)","229483","html-keyboard-response","29","179233","0.0-6.0-3.7","","null","","","<div class='trialBorder'><div class='vertical-center'><img style='vertical-align:center; align:center' src=img/fixation3.jpg></div><div class='cl'><div class='vertical-center'><font style='color:orange'>$19<br>for<br>yourself</font></div></div><div class='cr'><div class='vertical-center'>$25<br>for<br>Lika b</div></div><div class='respDivL'><div class='vertical-center'><font style='color:orange'>(E)</font></div></div><div class='respDivR'><div class='vertical-center'>(I)</div></div></div>","null","$19<br>for<br>yourself","$25<br>for<br>4","0","19","25","4",""
"","","","FIX","63f969ceb2a0b028aa612b33","bdp_sd","Sat Mar 25 2023 20:25:04 GMT-0400 (Eastern Daylight Time)","229483","html-keyboard-response","30","179743","0.0-6.0-1.8","","null","","","<div class='trialBorder'><div class='vertical-center'><img style='vertical-align:center; align:center' src=img/fixation3.jpg></div></div>","null","","","","","","",""
"","","","offer","63f969ceb2a0b028aa612b33","bdp_sd","Sat Mar 25 2023 20:25:04 GMT-0400 (Eastern Daylight Time)","229483","html-keyboard-response","31","182509","0.0-6.0-2.8","","2764","","","<div class='trialBorder'><div class='vertical-center'><img style='vertical-align:center; align:center' src=img/fixation3.jpg></div><div class='cl'><div class='vertical-center'>$30<br>for<br>dori b</div></div><div class='cr'><div class='vertical-center'>$28<br>for<br>yourself</div></div><div class='respDivL'><div class='vertical-center'>(E)</div></div><div class='respDivR'><div class='vertical-center'>(I)</div></div></div>","I","$28<br>for<br>yourself","$30<br>for<br>5","1","28","30","5","SELF"
"","","","offerFB","63f969ceb2a0b028aa612b33","bdp_sd","Sat Mar 25 2023 20:25:04 GMT-0400 (Eastern Daylight Time)","229483","html-keyboard-response","32","182774","0.0-6.0-3.8","","null","","","<div class='trialBorder'><div class='vertical-center'><img style='vertical-align:center; align:center' src=img/fixation3.jpg></div><div class='cl'><div class='vertical-center'>$30<br>for<br>dori b</div></div><div class='cr'><div class='vertical-center'><font style='color:orange'>$28<br>for<br>yourself</font></div></div><div class='respDivL'><div class='vertical-center'>(E)</div></div><div class='respDivR'><div class='vertical-center'><font style='color:orange'>(I)</font></div></div></div>","null","$28<br>for<br>yourself","$30<br>for<br>5","1","28","30","5",""
"","","","FIX","63f969ceb2a0b028aa612b33","bdp_sd","Sat Mar 25 2023 20:25:04 GMT-0400 (Eastern Daylight Time)","229483","html-keyboard-response","33","183277","0.0-6.0-1.9","","null","","","<div class='trialBorder'><div class='vertical-center'><img style='vertical-align:center; align:center' src=img/fixation3.jpg></div></div>","null","","","","","","",""
"","","","offer","63f969ceb2a0b028aa612b33","bdp_sd","Sat Mar 25 2023 20:25:04 GMT-0400 (Eastern Daylight Time)","229483","html-keyboard-response","34","185205","0.0-6.0-2.9","","1927","","","<div class='trialBorder'><div class='vertical-center'><img style='vertical-align:center; align:center' src=img/fixation3.jpg></div><div class='cl'><div class='vertical-center'>$50<br>for<br>Tani r</div></div><div class='cr'><div class='vertical-center'>$27<br>for<br>yourself</div></div><div class='respDivL'><div class='vertical-center'>(E)</div></div><div class='respDivR'><div class='vertical-center'>(I)</div></div></div>","I","$27<br>for<br>yourself","$50<br>for<br>3","1","27","50","3","SELF"
"","","","offerFB","63f969ceb2a0b028aa612b33","bdp_sd","Sat Mar 25 2023 20:25:04 GMT-0400 (Eastern Daylight Time)","229483","html-keyboard-response","35","185467","0.0-6.0-3.9","","null","","","<div class='trialBorder'><div class='vertical-center'><img style='vertical-align:center; align:center' src=img/fixation3.jpg></div><div class='cl'><div class='vertical-center'>$50<br>for<br>Tani r</div></div><div class='cr'><div class='vertical-center'><font style='color:orange'>$27<br>for<br>yourself</font></div></div><div class='respDivL'><div class='vertical-center'>(E)</div></div><div class='respDivR'><div class='vertical-center'><font style='color:orange'>(I)</font></div></div></div>","null","$27<br>for<br>yourself","$50<br>for<br>3","1","27","50","3",""
"","","","FIX","63f969ceb2a0b028aa612b33","bdp_sd","Sat Mar 25 2023 20:25:04 GMT-0400 (Eastern Daylight Time)","229483","html-keyboard-response","36","185970","0.0-6.0-1.10","","null","","","<div class='trialBorder'><div class='vertical-center'><img style='vertical-align:center; align:center' src=img/fixation3.jpg></div></div>","null","","","","","","",""
"","","","offer","63f969ceb2a0b028aa612b33","bdp_sd","Sat Mar 25 2023 20:25:04 GMT-0400 (Eastern Daylight Time)","229483","html-keyboard-response","37","187955","0.0-6.0-2.10","","1983","","","<div class='trialBorder'><div class='vertical-center'><img style='vertical-align:center; align:center' src=img/fixation3.jpg></div><div class='cl'><div class='vertical-center'>$47<br>for<br>yourself</div></div><div class='cr'><div class='vertical-center'>$50<br>for<br>dori b</div></div><div class='respDivL'><div class='vertical-center'>(E)</div></div><div class='respDivR'><div class='vertical-center'>(I)</div></div></div>","I","$47<br>for<br>yourself","$50<br>for<br>5","0","47","50","5","OTHER"
"","","","offerFB","63f969ceb2a0b028aa612b33","bdp_sd","Sat Mar 25 2023 20:25:04 GMT-0400 (Eastern Daylight Time)","229483","html-keyboard-response","38","188219","0.0-6.0-3.10","","null","","","<div class='trialBorder'><div class='vertical-center'><img style='vertical-align:center; align:center' src=img/fixation3.jpg></div><div class='cl'><div class='vertical-center'>$47<br>for<br>yourself</div></div><div class='cr'><div class='vertical-center'><font style='color:orange'>$50<br>for<br>dori b</font></div></div><div class='respDivL'><div class='vertical-center'>(E)</div></div><div class='respDivR'><div class='vertical-center'><font style='color:orange'>(I)</font></div></div></div>","null","$47<br>for<br>yourself","$50<br>for<br>5","0","47","50","5",""
"","","","FIX","63f969ceb2a0b028aa612b33","bdp_sd","Sat Mar 25 2023 20:25:04 GMT-0400 (Eastern Daylight Time)","229483","html-keyboard-response","39","188727","0.0-6.0-1.11","","null","","","<div class='trialBorder'><div class='vertical-center'><img style='vertical-align:center; align:center' src=img/fixation3.jpg></div></div>","null","","","","","","",""
"","","","offer","63f969ceb2a0b028aa612b33","bdp_sd","Sat Mar 25 2023 20:25:04 GMT-0400 (Eastern Daylight Time)","229483","html-keyboard-response","40","190446","0.0-6.0-2.11","","1718","","","<div class='trialBorder'><div class='vertical-center'><img style='vertical-align:center; align:center' src=img/fixation3.jpg></div><div class='cl'><div class='vertical-center'>$60<br>for<br>dori b</div></div><div class='cr'><div class='vertical-center'>$54<br>for<br>yourself</div></div><div class='respDivL'><div class='vertical-center'>(E)</div></div><div class='respDivR'><div class='vertical-center'>(I)</div></div></div>","I","$54<br>for<br>yourself","$60<br>for<br>5","1","54","60","5","SELF"
"","","","offerFB","63f969ceb2a0b028aa612b33","bdp_sd","Sat Mar 25 2023 20:25:04 GMT-0400 (Eastern Daylight Time)","229483","html-keyboard-response","41","190710","0.0-6.0-3.11","","null","","","<div class='trialBorder'><div class='vertical-center'><img style='vertical-align:center; align:center' src=img/fixation3.jpg></div><div class='cl'><div class='vertical-center'>$60<br>for<br>dori b</div></div><div class='cr'><div class='vertical-center'><font style='color:orange'>$54<br>for<br>yourself</font></div></div><div class='respDivL'><div class='vertical-center'>(E)</div></div><div class='respDivR'><div class='vertical-center'><font style='color:orange'>(I)</font></div></div></div>","null","$54<br>for<br>yourself","$60<br>for<br>5","1","54","60","5",""
"","","","FIX","63f969ceb2a0b028aa612b33","bdp_sd","Sat Mar 25 2023 20:25:04 GMT-0400 (Eastern Daylight Time)","229483","html-keyboard-response","42","191216","0.0-6.0-1.12","","null","","","<div class='trialBorder'><div class='vertical-center'><img style='vertical-align:center; align:center' src=img/fixation3.jpg></div></div>","null","","","","","","",""
"","","","offer","63f969ceb2a0b028aa612b33","bdp_sd","Sat Mar 25 2023 20:25:04 GMT-0400 (Eastern Daylight Time)","229483","html-keyboard-response","43","193681","0.0-6.0-2.12","","2464","","","<div class='trialBorder'><div class='vertical-center'><img style='vertical-align:center; align:center' src=img/fixation3.jpg></div><div class='cl'><div class='vertical-center'>$55<br>for<br>yourself</div></div><div class='cr'><div class='vertical-center'>$75<br>for<br>Lika b</div></div><div class='respDivL'><div class='vertical-center'>(E)</div></div><div class='respDivR'><div class='vertical-center'>(I)</div></div></div>","I","$55<br>for<br>yourself","$75<br>for<br>4","0","55","75","4","OTHER"
"","","","offerFB","63f969ceb2a0b028aa612b33","bdp_sd","Sat Mar 25 2023 20:25:04 GMT-0400 (Eastern Daylight Time)","229483","html-keyboard-response","44","193940","0.0-6.0-3.12","","null","","","<div class='trialBorder'><div class='vertical-center'><img style='vertical-align:center; align:center' src=img/fixation3.jpg></div><div class='cl'><div class='vertical-center'>$55<br>for<br>yourself</div></div><div class='cr'><div class='vertical-center'><font style='color:orange'>$75<br>for<br>Lika b</font></div></div><div class='respDivL'><div class='vertical-center'>(E)</div></div><div class='respDivR'><div class='vertical-center'><font style='color:orange'>(I)</font></div></div></div>","null","$55<br>for<br>yourself","$75<br>for<br>4","0","55","75","4",""
"","","","FIX","63f969ceb2a0b028aa612b33","bdp_sd","Sat Mar 25 2023 20:25:04 GMT-0400 (Eastern Daylight Time)","229483","html-keyboard-response","45","194441","0.0-6.0-1.13","","null","","","<div class='trialBorder'><div class='vertical-center'><img style='vertical-align:center; align:center' src=img/fixation3.jpg></div></div>","null","","","","","","",""
"","","","offer","63f969ceb2a0b028aa612b33","bdp_sd","Sat Mar 25 2023 20:25:04 GMT-0400 (Eastern Daylight Time)","229483","html-keyboard-response","46","197904","0.0-6.0-2.13","","3463","","","<div class='trialBorder'><div class='vertical-center'><img style='vertical-align:center; align:center' src=img/fixation3.jpg></div><div class='cl'><div class='vertical-center'>$34<br>for<br>yourself</div></div><div class='cr'><div class='vertical-center'>$35<br>for<br>dori b</div></div><div class='respDivL'><div class='vertical-center'>(E)</div></div><div class='respDivR'><div class='vertical-center'>(I)</div></div></div>","E","$34<br>for<br>yourself","$35<br>for<br>5","0","34","35","5","SELF"
"","","","offerFB","63f969ceb2a0b028aa612b33","bdp_sd","Sat Mar 25 2023 20:25:04 GMT-0400 (Eastern Daylight Time)","229483","html-keyboard-response","47","198169","0.0-6.0-3.13","","null","","","<div class='trialBorder'><div class='vertical-center'><img style='vertical-align:center; align:center' src=img/fixation3.jpg></div><div class='cl'><div class='vertical-center'><font style='color:orange'>$34<br>for<br>yourself</font></div></div><div class='cr'><div class='vertical-center'>$35<br>for<br>dori b</div></div><div class='respDivL'><div class='vertical-center'><font style='color:orange'>(E)</font></div></div><div class='respDivR'><div class='vertical-center'>(I)</div></div></div>","null","$34<br>for<br>yourself","$35<br>for<br>5","0","34","35","5",""
"","","","FIX","63f969ceb2a0b028aa612b33","bdp_sd","Sat Mar 25 2023 20:25:04 GMT-0400 (Eastern Daylight Time)","229483","html-keyboard-response","48","198678","0.0-6.0-1.14","","null","","","<div class='trialBorder'><div class='vertical-center'><img style='vertical-align:center; align:center' src=img/fixation3.jpg></div></div>","null","","","","","","",""
"","","","offer","63f969ceb2a0b028aa612b33","bdp_sd","Sat Mar 25 2023 20:25:04 GMT-0400 (Eastern Daylight Time)","229483","html-keyboard-response","49","200535","0.0-6.0-2.14","","1855","","","<div class='trialBorder'><div class='vertical-center'><img style='vertical-align:center; align:center' src=img/fixation3.jpg></div><div class='cl'><div class='vertical-center'>$80<br>for<br>Vana r</div></div><div class='cr'><div class='vertical-center'>$33<br>for<br>yourself</div></div><div class='respDivL'><div class='vertical-center'>(E)</div></div><div class='respDivR'><div class='vertical-center'>(I)</div></div></div>","I","$33<br>for<br>yourself","$80<br>for<br>2","1","33","80","2","SELF"
"","","","offerFB","63f969ceb2a0b028aa612b33","bdp_sd","Sat Mar 25 2023 20:25:04 GMT-0400 (Eastern Daylight Time)","229483","html-keyboard-response","50","200790","0.0-6.0-3.14","","null","","","<div class='trialBorder'><div class='vertical-center'><img style='vertical-align:center; align:center' src=img/fixation3.jpg></div><div class='cl'><div class='vertical-center'>$80<br>for<br>Vana r</div></div><div class='cr'><div class='vertical-center'><font style='color:orange'>$33<br>for<br>yourself</font></div></div><div class='respDivL'><div class='vertical-center'>(E)</div></div><div class='respDivR'><div class='vertical-center'><font style='color:orange'>(I)</font></div></div></div>","null","$33<br>for<br>yourself","$80<br>for<br>2","1","33","80","2",""
"","","","FIX","63f969ceb2a0b028aa612b33","bdp_sd","Sat Mar 25 2023 20:25:04 GMT-0400 (Eastern Daylight Time)","229483","html-keyboard-response","51","201294","0.0-6.0-1.15","","null","","","<div class='trialBorder'><div class='vertical-center'><img style='vertical-align:center; align:center' src=img/fixation3.jpg></div></div>","null","","","","","","",""
"","","","offer","63f969ceb2a0b028aa612b33","bdp_sd","Sat Mar 25 2023 20:25:04 GMT-0400 (Eastern Daylight Time)","229483","html-keyboard-response","52","203272","0.0-6.0-2.15","","1978","","","<div class='trialBorder'><div class='vertical-center'><img style='vertical-align:center; align:center' src=img/fixation3.jpg></div><div class='cl'><div class='vertical-center'>$69<br>for<br>yourself</div></div><div class='cr'><div class='vertical-center'>$85<br>for<br>Lika b</div></div><div class='respDivL'><div class='vertical-center'>(E)</div></div><div class='respDivR'><div class='vertical-center'>(I)</div></div></div>","I","$69<br>for<br>yourself","$85<br>for<br>4","0","69","85","4","OTHER"
"","","","offerFB","63f969ceb2a0b028aa612b33","bdp_sd","Sat Mar 25 2023 20:25:04 GMT-0400 (Eastern Daylight Time)","229483","html-keyboard-response","53","203531","0.0-6.0-3.15","","null","","","<div class='trialBorder'><div class='vertical-center'><img style='vertical-align:center; align:center' src=img/fixation3.jpg></div><div class='cl'><div class='vertical-center'>$69<br>for<br>yourself</div></div><div class='cr'><div class='vertical-center'><font style='color:orange'>$85<br>for<br>Lika b</font></div></div><div class='respDivL'><div class='vertical-center'>(E)</div></div><div class='respDivR'><div class='vertical-center'><font style='color:orange'>(I)</font></div></div></div>","null","$69<br>for<br>yourself","$85<br>for<br>4","0","69","85","4",""
"","","","FIX","63f969ceb2a0b028aa612b33","bdp_sd","Sat Mar 25 2023 20:25:04 GMT-0400 (Eastern Daylight Time)","229483","html-keyboard-response","54","204034","0.0-6.0-1.16","","null","","","<div class='trialBorder'><div class='vertical-center'><img style='vertical-align:center; align:center' src=img/fixation3.jpg></div></div>","null","","","","","","",""
"","","","offer","63f969ceb2a0b028aa612b33","bdp_sd","Sat Mar 25 2023 20:25:04 GMT-0400 (Eastern Daylight Time)","229483","html-keyboard-response","55","205277","0.0-6.0-2.16","","1242","","","<div class='trialBorder'><div class='vertical-center'><img style='vertical-align:center; align:center' src=img/fixation3.jpg></div><div class='cl'><div class='vertical-center'>$25<br>for<br>yourself</div></div><div class='cr'><div class='vertical-center'>$60<br>for<br>Tani r</div></div><div class='respDivL'><div class='vertical-center'>(E)</div></div><div class='respDivR'><div class='vertical-center'>(I)</div></div></div>","I","$25<br>for<br>yourself","$60<br>for<br>3","0","25","60","3","OTHER"
"","","","offerFB","63f969ceb2a0b028aa612b33","bdp_sd","Sat Mar 25 2023 20:25:04 GMT-0400 (Eastern Daylight Time)","229483","html-keyboard-response","56","205537","0.0-6.0-3.16","","null","","","<div class='trialBorder'><div class='vertical-center'><img style='vertical-align:center; align:center' src=img/fixation3.jpg></div><div class='cl'><div class='vertical-center'>$25<br>for<br>yourself</div></div><div class='cr'><div class='vertical-center'><font style='color:orange'>$60<br>for<br>Tani r</font></div></div><div class='respDivL'><div class='vertical-center'>(E)</div></div><div class='respDivR'><div class='vertical-center'><font style='color:orange'>(I)</font></div></div></div>","null","$25<br>for<br>yourself","$60<br>for<br>3","0","25","60","3",""
"","","","FIX","63f969ceb2a0b028aa612b33","bdp_sd","Sat Mar 25 2023 20:25:04 GMT-0400 (Eastern Daylight Time)","229483","html-keyboard-response","57","206040","0.0-6.0-1.17","","null","","","<div class='trialBorder'><div class='vertical-center'><img style='vertical-align:center; align:center' src=img/fixation3.jpg></div></div>","null","","","","","","",""
"","","","offer","63f969ceb2a0b028aa612b33","bdp_sd","Sat Mar 25 2023 20:25:04 GMT-0400 (Eastern Daylight Time)","229483","html-keyboard-response","58","207097","0.0-6.0-2.17","","1056","","","<div class='trialBorder'><div class='vertical-center'><img style='vertical-align:center; align:center' src=img/fixation3.jpg></div><div class='cl'><div class='vertical-center'>$80<br>for<br>yourself</div></div><div class='cr'><div class='vertical-center'>$85<br>for<br>dori b</div></div><div class='respDivL'><div class='vertical-center'>(E)</div></div><div class='respDivR'><div class='vertical-center'>(I)</div></div></div>","E","$80<br>for<br>yourself","$85<br>for<br>5","0","80","85","5","SELF"
"","","","offerFB","63f969ceb2a0b028aa612b33","bdp_sd","Sat Mar 25 2023 20:25:04 GMT-0400 (Eastern Daylight Time)","229483","html-keyboard-response","59","207350","0.0-6.0-3.17","","null","","","<div class='trialBorder'><div class='vertical-center'><img style='vertical-align:center; align:center' src=img/fixation3.jpg></div><div class='cl'><div class='vertical-center'><font style='color:orange'>$80<br>for<br>yourself</font></div></div><div class='cr'><div class='vertical-center'>$85<br>for<br>dori b</div></div><div class='respDivL'><div class='vertical-center'><font style='color:orange'>(E)</font></div></div><div class='respDivR'><div class='vertical-center'>(I)</div></div></div>","null","$80<br>for<br>yourself","$85<br>for<br>5","0","80","85","5",""
"","","","FIX","63f969ceb2a0b028aa612b33","bdp_sd","Sat Mar 25 2023 20:25:04 GMT-0400 (Eastern Daylight Time)","229483","html-keyboard-response","60","207853","0.0-6.0-1.18","","null","","","<div class='trialBorder'><div class='vertical-center'><img style='vertical-align:center; align:center' src=img/fixation3.jpg></div></div>","null","","","","","","",""
"","","","offer","63f969ceb2a0b028aa612b33","bdp_sd","Sat Mar 25 2023 20:25:04 GMT-0400 (Eastern Daylight Time)","229483","html-keyboard-response","61","209943","0.0-6.0-2.18","","2090","","","<div class='trialBorder'><div class='vertical-center'><img style='vertical-align:center; align:center' src=img/fixation3.jpg></div><div class='cl'><div class='vertical-center'>$24<br>for<br>yourself</div></div><div class='cr'><div class='vertical-center'>$35<br>for<br>Tani r</div></div><div class='respDivL'><div class='vertical-center'>(E)</div></div><div class='respDivR'><div class='vertical-center'>(I)</div></div></div>","I","$24<br>for<br>yourself","$35<br>for<br>3","0","24","35","3","OTHER"
"","","","offerFB","63f969ceb2a0b028aa612b33","bdp_sd","Sat Mar 25 2023 20:25:04 GMT-0400 (Eastern Daylight Time)","229483","html-keyboard-response","62","210204","0.0-6.0-3.18","","null","","","<div class='trialBorder'><div class='vertical-center'><img style='vertical-align:center; align:center' src=img/fixation3.jpg></div><div class='cl'><div class='vertical-center'>$24<br>for<br>yourself</div></div><div class='cr'><div class='vertical-center'><font style='color:orange'>$35<br>for<br>Tani r</font></div></div><div class='respDivL'><div class='vertical-center'>(E)</div></div><div class='respDivR'><div class='vertical-center'><font style='color:orange'>(I)</font></div></div></div>","null","$24<br>for<br>yourself","$35<br>for<br>3","0","24","35","3",""
"","","","FIX","63f969ceb2a0b028aa612b33","bdp_sd","Sat Mar 25 2023 20:25:04 GMT-0400 (Eastern Daylight Time)","229483","html-keyboard-response","63","210719","0.0-6.0-1.19","","null","","","<div class='trialBorder'><div class='vertical-center'><img style='vertical-align:center; align:center' src=img/fixation3.jpg></div></div>","null","","","","","","",""
"","","","offer","63f969ceb2a0b028aa612b33","bdp_sd","Sat Mar 25 2023 20:25:04 GMT-0400 (Eastern Daylight Time)","229483","html-keyboard-response","64","212591","0.0-6.0-2.19","","1871","","","<div class='trialBorder'><div class='vertical-center'><img style='vertical-align:center; align:center' src=img/fixation3.jpg></div><div class='cl'><div class='vertical-center'>$75<br>for<br>dori b</div></div><div class='cr'><div class='vertical-center'>$67<br>for<br>yourself</div></div><div class='respDivL'><div class='vertical-center'>(E)</div></div><div class='respDivR'><div class='vertical-center'>(I)</div></div></div>","E","$67<br>for<br>yourself","$75<br>for<br>5","1","67","75","5","OTHER"
"","","","offerFB","63f969ceb2a0b028aa612b33","bdp_sd","Sat Mar 25 2023 20:25:04 GMT-0400 (Eastern Daylight Time)","229483","html-keyboard-response","65","212849","0.0-6.0-3.19","","null","","","<div class='trialBorder'><div class='vertical-center'><img style='vertical-align:center; align:center' src=img/fixation3.jpg></div><div class='cl'><div class='vertical-center'><font style='color:orange'>$75<br>for<br>dori b</font></div></div><div class='cr'><div class='vertical-center'>$67<br>for<br>yourself</div></div><div class='respDivL'><div class='vertical-center'><font style='color:orange'>(E)</font></div></div><div class='respDivR'><div class='vertical-center'>(I)</div></div></div>","null","$67<br>for<br>yourself","$75<br>for<br>5","1","67","75","5",""
"","","","FIX","63f969ceb2a0b028aa612b33","bdp_sd","Sat Mar 25 2023 20:25:04 GMT-0400 (Eastern Daylight Time)","229483","html-keyboard-response","66","213351","0.0-6.0-1.20","","null","","","<div class='trialBorder'><div class='vertical-center'><img style='vertical-align:center; align:center' src=img/fixation3.jpg></div></div>","null","","","","","","",""
"","","","offer","63f969ceb2a0b028aa612b33","bdp_sd","Sat Mar 25 2023 20:25:04 GMT-0400 (Eastern Daylight Time)","229483","html-keyboard-response","67","214876","0.0-6.0-2.20","","1524","","","<div class='trialBorder'><div class='vertical-center'><img style='vertical-align:center; align:center' src=img/fixation3.jpg></div><div class='cl'><div class='vertical-center'>$41<br>for<br>yourself</div></div><div class='cr'><div class='vertical-center'>$75<br>for<br>Tani r</div></div><div class='respDivL'><div class='vertical-center'>(E)</div></div><div class='respDivR'><div class='vertical-center'>(I)</div></div></div>","I","$41<br>for<br>yourself","$75<br>for<br>3","0","41","75","3","OTHER"
"","","","offerFB","63f969ceb2a0b028aa612b33","bdp_sd","Sat Mar 25 2023 20:25:04 GMT-0400 (Eastern Daylight Time)","229483","html-keyboard-response","68","215134","0.0-6.0-3.20","","null","","","<div class='trialBorder'><div class='vertical-center'><img style='vertical-align:center; align:center' src=img/fixation3.jpg></div><div class='cl'><div class='vertical-center'>$41<br>for<br>yourself</div></div><div class='cr'><div class='vertical-center'><font style='color:orange'>$75<br>for<br>Tani r</font></div></div><div class='respDivL'><div class='vertical-center'>(E)</div></div><div class='respDivR'><div class='vertical-center'><font style='color:orange'>(I)</font></div></div></div>","null","$41<br>for<br>yourself","$75<br>for<br>3","0","41","75","3",""
"","","","FIX","63f969ceb2a0b028aa612b33","bdp_sd","Sat Mar 25 2023 20:25:04 GMT-0400 (Eastern Daylight Time)","229483","html-keyboard-response","69","215637","0.0-6.0-1.21","","null","","","<div class='trialBorder'><div class='vertical-center'><img style='vertical-align:center; align:center' src=img/fixation3.jpg></div></div>","null","","","","","","",""
"","","","offer","63f969ceb2a0b028aa612b33","bdp_sd","Sat Mar 25 2023 20:25:04 GMT-0400 (Eastern Daylight Time)","229483","html-keyboard-response","70","216997","0.0-6.0-2.21","","1359","","","<div class='trialBorder'><div class='vertical-center'><img style='vertical-align:center; align:center' src=img/fixation3.jpg></div><div class='cl'><div class='vertical-center'>$15<br>for<br>yourself</div></div><div class='cr'><div class='vertical-center'>$35<br>for<br>Vana r</div></div><div class='respDivL'><div class='vertical-center'>(E)</div></div><div class='respDivR'><div class='vertical-center'>(I)</div></div></div>","I","$15<br>for<br>yourself","$35<br>for<br>2","0","15","35","2","OTHER"
"","","","offerFB","63f969ceb2a0b028aa612b33","bdp_sd","Sat Mar 25 2023 20:25:04 GMT-0400 (Eastern Daylight Time)","229483","html-keyboard-response","71","217262","0.0-6.0-3.21","","null","","","<div class='trialBorder'><div class='vertical-center'><img style='vertical-align:center; align:center' src=img/fixation3.jpg></div><div class='cl'><div class='vertical-center'>$15<br>for<br>yourself</div></div><div class='cr'><div class='vertical-center'><font style='color:orange'>$35<br>for<br>Vana r</font></div></div><div class='respDivL'><div class='vertical-center'>(E)</div></div><div class='respDivR'><div class='vertical-center'><font style='color:orange'>(I)</font></div></div></div>","null","$15<br>for<br>yourself","$35<br>for<br>2","0","15","35","2",""
"","","","FIX","63f969ceb2a0b028aa612b33","bdp_sd","Sat Mar 25 2023 20:25:04 GMT-0400 (Eastern Daylight Time)","229483","html-keyboard-response","72","217765","0.0-6.0-1.22","","null","","","<div class='trialBorder'><div class='vertical-center'><img style='vertical-align:center; align:center' src=img/fixation3.jpg></div></div>","null","","","","","","",""
"","","","offer","63f969ceb2a0b028aa612b33","bdp_sd","Sat Mar 25 2023 20:25:04 GMT-0400 (Eastern Daylight Time)","229483","html-keyboard-response","73","219533","0.0-6.0-2.22","","1768","","","<div class='trialBorder'><div class='vertical-center'><img style='vertical-align:center; align:center' src=img/fixation3.jpg></div><div class='cl'><div class='vertical-center'>$30<br>for<br>Vana r</div></div><div class='cr'><div class='vertical-center'>$11<br>for<br>yourself</div></div><div class='respDivL'><div class='vertical-center'>(E)</div></div><div class='respDivR'><div class='vertical-center'>(I)</div></div></div>","I","$11<br>for<br>yourself","$30<br>for<br>2","1","11","30","2","SELF"
"","","","offerFB","63f969ceb2a0b028aa612b33","bdp_sd","Sat Mar 25 2023 20:25:04 GMT-0400 (Eastern Daylight Time)","229483","html-keyboard-response","74","219791","0.0-6.0-3.22","","null","","","<div class='trialBorder'><div class='vertical-center'><img style='vertical-align:center; align:center' src=img/fixation3.jpg></div><div class='cl'><div class='vertical-center'>$30<br>for<br>Vana r</div></div><div class='cr'><div class='vertical-center'><font style='color:orange'>$11<br>for<br>yourself</font></div></div><div class='respDivL'><div class='vertical-center'>(E)</div></div><div class='respDivR'><div class='vertical-center'><font style='color:orange'>(I)</font></div></div></div>","null","$11<br>for<br>yourself","$30<br>for<br>2","1","11","30","2",""
"","","","FIX","63f969ceb2a0b028aa612b33","bdp_sd","Sat Mar 25 2023 20:25:04 GMT-0400 (Eastern Daylight Time)","229483","html-keyboard-response","75","220294","0.0-6.0-1.23","","null","","","<div class='trialBorder'><div class='vertical-center'><img style='vertical-align:center; align:center' src=img/fixation3.jpg></div></div>","null","","","","","","",""
"","","","offer","63f969ceb2a0b028aa612b33","bdp_sd","Sat Mar 25 2023 20:25:04 GMT-0400 (Eastern Daylight Time)","229483","html-keyboard-response","76","221573","0.0-6.0-2.23","","1278","","","<div class='trialBorder'><div class='vertical-center'><img style='vertical-align:center; align:center' src=img/fixation3.jpg></div><div class='cl'><div class='vertical-center'>$30<br>for<br>Lika b</div></div><div class='cr'><div class='vertical-center'>$25<br>for<br>yourself</div></div><div class='respDivL'><div class='vertical-center'>(E)</div></div><div class='respDivR'><div class='vertical-center'>(I)</div></div></div>","I","$25<br>for<br>yourself","$30<br>for<br>4","1","25","30","4","SELF"
"","","","offerFB","63f969ceb2a0b028aa612b33","bdp_sd","Sat Mar 25 2023 20:25:04 GMT-0400 (Eastern Daylight Time)","229483","html-keyboard-response","77","221839","0.0-6.0-3.23","","null","","","<div class='trialBorder'><div class='vertical-center'><img style='vertical-align:center; align:center' src=img/fixation3.jpg></div><div class='cl'><div class='vertical-center'>$30<br>for<br>Lika b</div></div><div class='cr'><div class='vertical-center'><font style='color:orange'>$25<br>for<br>yourself</font></div></div><div class='respDivL'><div class='vertical-center'>(E)</div></div><div class='respDivR'><div class='vertical-center'><font style='color:orange'>(I)</font></div></div></div>","null","$25<br>for<br>yourself","$30<br>for<br>4","1","25","30","4",""
"","","","FIX","63f969ceb2a0b028aa612b33","bdp_sd","Sat Mar 25 2023 20:25:04 GMT-0400 (Eastern Daylight Time)","229483","html-keyboard-response","78","222343","0.0-6.0-1.24","","null","","","<div class='trialBorder'><div class='vertical-center'><img style='vertical-align:center; align:center' src=img/fixation3.jpg></div></div>","null","","","","","","",""
"","","","offer","63f969ceb2a0b028aa612b33","bdp_sd","Sat Mar 25 2023 20:25:04 GMT-0400 (Eastern Daylight Time)","229483","html-keyboard-response","79","223930","0.0-6.0-2.24","","1586","","","<div class='trialBorder'><div class='vertical-center'><img style='vertical-align:center; align:center' src=img/fixation3.jpg></div><div class='cl'><div class='vertical-center'>$34<br>for<br>yourself</div></div><div class='cr'><div class='vertical-center'>$50<br>for<br>Lika b</div></div><div class='respDivL'><div class='vertical-center'>(E)</div></div><div class='respDivR'><div class='vertical-center'>(I)</div></div></div>","E","$34<br>for<br>yourself","$50<br>for<br>4","0","34","50","4","SELF"
"","","","offerFB","63f969ceb2a0b028aa612b33","bdp_sd","Sat Mar 25 2023 20:25:04 GMT-0400 (Eastern Daylight Time)","229483","html-keyboard-response","80","224187","0.0-6.0-3.24","","null","","","<div class='trialBorder'><div class='vertical-center'><img style='vertical-align:center; align:center' src=img/fixation3.jpg></div><div class='cl'><div class='vertical-center'><font style='color:orange'>$34<br>for<br>yourself</font></div></div><div class='cr'><div class='vertical-center'>$50<br>for<br>Lika b</div></div><div class='respDivL'><div class='vertical-center'><font style='color:orange'>(E)</font></div></div><div class='respDivR'><div class='vertical-center'>(I)</div></div></div>","null","$34<br>for<br>yourself","$50<br>for<br>4","0","34","50","4",""
"","","","FIX","63f969ceb2a0b028aa612b33","bdp_sd","Sat Mar 25 2023 20:25:04 GMT-0400 (Eastern Daylight Time)","229483","html-keyboard-response","81","224691","0.0-6.0-1.25","","null","","","<div class='trialBorder'><div class='vertical-center'><img style='vertical-align:center; align:center' src=img/fixation3.jpg></div></div>","null","","","","","","",""
"","","","offer","63f969ceb2a0b028aa612b33","bdp_sd","Sat Mar 25 2023 20:25:04 GMT-0400 (Eastern Daylight Time)","229483","html-keyboard-response","82","226282","0.0-6.0-2.25","","1591","","","<div class='trialBorder'><div class='vertical-center'><img style='vertical-align:center; align:center' src=img/fixation3.jpg></div><div class='cl'><div class='vertical-center'>$80<br>for<br>Tani r</div></div><div class='cr'><div class='vertical-center'>$54<br>for<br>yourself</div></div><div class='respDivL'><div class='vertical-center'>(E)</div></div><div class='respDivR'><div class='vertical-center'>(I)</div></div></div>","I","$54<br>for<br>yourself","$80<br>for<br>3","1","54","80","3","SELF"
"","","","offerFB","63f969ceb2a0b028aa612b33","bdp_sd","Sat Mar 25 2023 20:25:04 GMT-0400 (Eastern Daylight Time)","229483","html-keyboard-response","83","226548","0.0-6.0-3.25","","null","","","<div class='trialBorder'><div class='vertical-center'><img style='vertical-align:center; align:center' src=img/fixation3.jpg></div><div class='cl'><div class='vertical-center'>$80<br>for<br>Tani r</div></div><div class='cr'><div class='vertical-center'><font style='color:orange'>$54<br>for<br>yourself</font></div></div><div class='respDivL'><div class='vertical-center'>(E)</div></div><div class='respDivR'><div class='vertical-center'><font style='color:orange'>(I)</font></div></div></div>","null","$54<br>for<br>yourself","$80<br>for<br>3","1","54","80","3",""
"","","","FIX","63f969ceb2a0b028aa612b33","bdp_sd","Sat Mar 25 2023 20:25:04 GMT-0400 (Eastern Daylight Time)","229483","html-keyboard-response","84","227057","0.0-6.0-1.26","","null","","","<div class='trialBorder'><div class='vertical-center'><img style='vertical-align:center; align:center' src=img/fixation3.jpg></div></div>","null","","","","","","",""
"","","","offer","63f969ceb2a0b028aa612b33","bdp_sd","Sat Mar 25 2023 20:25:04 GMT-0400 (Eastern Daylight Time)","229483","html-keyboard-response","85","228216","0.0-6.0-2.26","","1158","","","<div class='trialBorder'><div class='vertical-center'><img style='vertical-align:center; align:center' src=img/fixation3.jpg></div><div class='cl'><div class='vertical-center'>$80<br>for<br>dori b</div></div><div class='cr'><div class='vertical-center'>$78<br>for<br>yourself</div></div><div class='respDivL'><div class='vertical-center'>(E)</div></div><div class='respDivR'><div class='vertical-center'>(I)</div></div></div>","I","$78<br>for<br>yourself","$80<br>for<br>5","1","78","80","5","SELF"
"","","","offerFB","63f969ceb2a0b028aa612b33","bdp_sd","Sat Mar 25 2023 20:25:04 GMT-0400 (Eastern Daylight Time)","229483","html-keyboard-response","86","228471","0.0-6.0-3.26","","null","","","<div class='trialBorder'><div class='vertical-center'><img style='vertical-align:center; align:center' src=img/fixation3.jpg></div><div class='cl'><div class='vertical-center'>$80<br>for<br>dori b</div></div><div class='cr'><div class='vertical-center'><font style='color:orange'>$78<br>for<br>yourself</font></div></div><div class='respDivL'><div class='vertical-center'>(E)</div></div><div class='respDivR'><div class='vertical-center'><font style='color:orange'>(I)</font></div></div></div>","null","$78<br>for<br>yourself","$80<br>for<br>5","1","78","80","5",""
"fullscreenexit","87","228692","fullscreenexit","63f969ceb2a0b028aa612b33","bdp_sd","Sat Mar 25 2023 20:25:04 GMT-0400 (Eastern Daylight Time)","229483","","","","","","","","","","","","","","","","",""
"","","","","63f969ceb2a0b028aa612b33","bdp_sd","Sat Mar 25 2023 20:25:04 GMT-0400 (Eastern Daylight Time)","229483","fullscreen","87","229482","0.0-7.0","","","","true","","","","","","","","",""
"","","","","","","","","html-keyboard-response","88","229985","0.0-8.0","","null","","","","null","","","","","","",""
