"trial_type","trial_index","time_elapsed","internal_node_id","subject_id","task","startTime","totalTime","view_history","rt","responses","event","trial","time","trialtype","success","stimulus","key_press","selfOffer","otherOffer","otherLeft","selfAmt","otherAmt","otherDist","chosen"
"pavlovia","0","4","0.0-0.0","61282ca83be28773ac7c421f","bdp_sd","Mon Mar 27 2023 14:06:51 GMT-0400 (Eastern Daylight Time)","392712","","","","","","","","","","","","","","","","",""
"instructions","1","22377","0.0-1.0","61282ca83be28773ac7c421f","bdp_sd","Mon Mar 27 2023 14:06:51 GMT-0400 (Eastern Daylight Time)","392712","[{""page_index"":0,""viewing_time"":22372}]","22372","","","","","","","","","","","","","","",""
"survey-text","2","148573","0.0-2.0","61282ca83be28773ac7c421f","bdp_sd","Mon Mar 27 2023 14:06:51 GMT-0400 (Eastern Daylight Time)","392712","","126194","{""Q0"":""tc"",""Q1"":""jb"",""Q2"":""jd"",""Q3"":""kp"",""Q4"":""jp""}","","","","","","","","","","","","","",""
"","","","","61282ca83be28773ac7c421f","bdp_sd","Mon Mar 27 2023 14:06:51 GMT-0400 (Eastern Daylight Time)","392712","","","","fullscreenenter","3","152402","fullscreenenter","","","","","","","","","",""
"fullscreen","3","153391","0.0-3.0","61282ca83be28773ac7c421f","bdp_sd","Mon Mar 27 2023 14:06:51 GMT-0400 (Eastern Daylight Time)","392712","","","","","","","","true","","","","","","","","",""
"instructions","4","196175","0.0-5.0","61282ca83be28773ac7c421f","bdp_sd","Mon Mar 27 2023 14:06:51 GMT-0400 (Eastern Daylight Time)","392712","[{""page_index"":0,""viewing_time"":20093},{""page_index"":1,""viewing_time"":15154},{""page_index"":2,""viewing_time"":7535}]","42782","","","","","","","","","","","","","","",""
"html-keyboard-response","5","196680","0.0-6.0-1.0","61282ca83be28773ac7c421f","bdp_sd","Mon Mar 27 2023 14:06:51 GMT-0400 (Eastern Daylight Time)","392712","","null","","","","","FIX","","<div class='trialBorder'><div class='vertical-center'><img style='vertical-align:center; align:center' src=img/fixation3.jpg></div></div>","null","","","","","","",""
"html-keyboard-response","6","207565","0.0-6.0-2.0","61282ca83be28773ac7c421f","bdp_sd","Mon Mar 27 2023 14:06:51 GMT-0400 (Eastern Daylight Time)","392712","","10884","","","","","offer","","<div class='trialBorder'><div class='vertical-center'><img style='vertical-align:center; align:center' src=img/fixation3.jpg></div><div class='cl'><div class='vertical-center'>$54<br>for<br>yourself</div></div><div class='cr'><div class='vertical-center'>$80<br>for<br>jd</div></div><div class='respDivL'><div class='vertical-center'>(E)</div></div><div class='respDivR'><div class='vertical-center'>(I)</div></div></div>","E","$54<br>for<br>yourself","$80<br>for<br>3","0","54","80","3","SELF"
"html-keyboard-response","7","207823","0.0-6.0-3.0","61282ca83be28773ac7c421f","bdp_sd","Mon Mar 27 2023 14:06:51 GMT-0400 (Eastern Daylight Time)","392712","","null","","","","","offerFB","","<div class='trialBorder'><div class='vertical-center'><img style='vertical-align:center; align:center' src=img/fixation3.jpg></div><div class='cl'><div class='vertical-center'><font style='color:orange'>$54<br>for<br>yourself</font></div></div><div class='cr'><div class='vertical-center'>$80<br>for<br>jd</div></div><div class='respDivL'><div class='vertical-center'><font style='color:orange'>(E)</font></div></div><div class='respDivR'><div class='vertical-center'>(I)</div></div></div>","null","$54<br>for<br>yourself","$80<br>for<br>3","0","54","80","3",""
"html-keyboard-response","8","208327","0.0-6.0-1.1","61282ca83be28773ac7c421f","bdp_sd","Mon Mar 27 2023 14:06:51 GMT-0400 (Eastern Daylight Time)","392712","","null","","","","","FIX","","<div class='trialBorder'><div class='vertical-center'><img style='vertical-align:center; align:center' src=img/fixation3.jpg></div></div>","null","","","","","","",""
"html-keyboard-response","9","213394","0.0-6.0-2.1","61282ca83be28773ac7c421f","bdp_sd","Mon Mar 27 2023 14:06:51 GMT-0400 (Eastern Daylight Time)","392712","","5065","","","","","offer","","<div class='trialBorder'><div class='vertical-center'><img style='vertical-align:center; align:center' src=img/fixation3.jpg></div><div class='cl'><div class='vertical-center'>$31<br>for<br>yourself</div></div><div class='cr'><div class='vertical-center'>$85<br>for<br>tc</div></div><div class='respDivL'><div class='vertical-center'>(E)</div></div><div class='respDivR'><div class='vertical-center'>(I)</div></div></div>","I","$31<br>for<br>yourself","$85<br>for<br>1","0","31","85","1","OTHER"
"html-keyboard-response","10","213647","0.0-6.0-3.1","61282ca83be28773ac7c421f","bdp_sd","Mon Mar 27 2023 14:06:51 GMT-0400 (Eastern Daylight Time)","392712","","null","","","","","offerFB","","<div class='trialBorder'><div class='vertical-center'><img style='vertical-align:center; align:center' src=img/fixation3.jpg></div><div class='cl'><div class='vertical-center'>$31<br>for<br>yourself</div></div><div class='cr'><div class='vertical-center'><font style='color:orange'>$85<br>for<br>tc</font></div></div><div class='respDivL'><div class='vertical-center'>(E)</div></div><div class='respDivR'><div class='vertical-center'><font style='color:orange'>(I)</font></div></div></div>","null","$31<br>for<br>yourself","$85<br>for<br>1","0","31","85","1",""
"html-keyboard-response","11","214151","0.0-6.0-1.2","61282ca83be28773ac7c421f","bdp_sd","Mon Mar 27 2023 14:06:51 GMT-0400 (Eastern Daylight Time)","392712","","null","","","","","FIX","","<div class='trialBorder'><div class='vertical-center'><img style='vertical-align:center; align:center' src=img/fixation3.jpg></div></div>","null","","","","","","",""
"html-keyboard-response","12","220624","0.0-6.0-2.2","61282ca83be28773ac7c421f","bdp_sd","Mon Mar 27 2023 14:06:51 GMT-0400 (Eastern Daylight Time)","392712","","6471","","","","","offer","","<div class='trialBorder'><div class='vertical-center'><img style='vertical-align:center; align:center' src=img/fixation3.jpg></div><div class='cl'><div class='vertical-center'>$15<br>for<br>yourself</div></div><div class='cr'><div class='vertical-center'>$35<br>for<br>jb</div></div><div class='respDivL'><div class='vertical-center'>(E)</div></div><div class='respDivR'><div class='vertical-center'>(I)</div></div></div>","I","$15<br>for<br>yourself","$35<br>for<br>2","0","15","35","2","OTHER"
"html-keyboard-response","13","220880","0.0-6.0-3.2","61282ca83be28773ac7c421f","bdp_sd","Mon Mar 27 2023 14:06:51 GMT-0400 (Eastern Daylight Time)","392712","","null","","","","","offerFB","","<div class='trialBorder'><div class='vertical-center'><img style='vertical-align:center; align:center' src=img/fixation3.jpg></div><div class='cl'><div class='vertical-center'>$15<br>for<br>yourself</div></div><div class='cr'><div class='vertical-center'><font style='color:orange'>$35<br>for<br>jb</font></div></div><div class='respDivL'><div class='vertical-center'>(E)</div></div><div class='respDivR'><div class='vertical-center'><font style='color:orange'>(I)</font></div></div></div>","null","$15<br>for<br>yourself","$35<br>for<br>2","0","15","35","2",""
"html-keyboard-response","14","221383","0.0-6.0-1.3","61282ca83be28773ac7c421f","bdp_sd","Mon Mar 27 2023 14:06:51 GMT-0400 (Eastern Daylight Time)","392712","","null","","","","","FIX","","<div class='trialBorder'><div class='vertical-center'><img style='vertical-align:center; align:center' src=img/fixation3.jpg></div></div>","null","","","","","","",""
"html-keyboard-response","15","229547","0.0-6.0-2.3","61282ca83be28773ac7c421f","bdp_sd","Mon Mar 27 2023 14:06:51 GMT-0400 (Eastern Daylight Time)","392712","","8162","","","","","offer","","<div class='trialBorder'><div class='vertical-center'><img style='vertical-align:center; align:center' src=img/fixation3.jpg></div><div class='cl'><div class='vertical-center'>$34<br>for<br>yourself</div></div><div class='cr'><div class='vertical-center'>$35<br>for<br>jp</div></div><div class='respDivL'><div class='vertical-center'>(E)</div></div><div class='respDivR'><div class='vertical-center'>(I)</div></div></div>","E","$34<br>for<br>yourself","$35<br>for<br>5","0","34","35","5","SELF"
"html-keyboard-response","16","229799","0.0-6.0-3.3","61282ca83be28773ac7c421f","bdp_sd","Mon Mar 27 2023 14:06:51 GMT-0400 (Eastern Daylight Time)","392712","","null","","","","","offerFB","","<div class='trialBorder'><div class='vertical-center'><img style='vertical-align:center; align:center' src=img/fixation3.jpg></div><div class='cl'><div class='vertical-center'><font style='color:orange'>$34<br>for<br>yourself</font></div></div><div class='cr'><div class='vertical-center'>$35<br>for<br>jp</div></div><div class='respDivL'><div class='vertical-center'><font style='color:orange'>(E)</font></div></div><div class='respDivR'><div class='vertical-center'>(I)</div></div></div>","null","$34<br>for<br>yourself","$35<br>for<br>5","0","34","35","5",""
"html-keyboard-response","17","230303","0.0-6.0-1.4","61282ca83be28773ac7c421f","bdp_sd","Mon Mar 27 2023 14:06:51 GMT-0400 (Eastern Daylight Time)","392712","","null","","","","","FIX","","<div class='trialBorder'><div class='vertical-center'><img style='vertical-align:center; align:center' src=img/fixation3.jpg></div></div>","null","","","","","","",""
"html-keyboard-response","18","239106","0.0-6.0-2.4","61282ca83be28773ac7c421f","bdp_sd","Mon Mar 27 2023 14:06:51 GMT-0400 (Eastern Daylight Time)","392712","","8802","","","","","offer","","<div class='trialBorder'><div class='vertical-center'><img style='vertical-align:center; align:center' src=img/fixation3.jpg></div><div class='cl'><div class='vertical-center'>$80<br>for<br>jb</div></div><div class='cr'><div class='vertical-center'>$33<br>for<br>yourself</div></div><div class='respDivL'><div class='vertical-center'>(E)</div></div><div class='respDivR'><div class='vertical-center'>(I)</div></div></div>","E","$33<br>for<br>yourself","$80<br>for<br>2","1","33","80","2","OTHER"
"html-keyboard-response","19","239359","0.0-6.0-3.4","61282ca83be28773ac7c421f","bdp_sd","Mon Mar 27 2023 14:06:51 GMT-0400 (Eastern Daylight Time)","392712","","null","","","","","offerFB","","<div class='trialBorder'><div class='vertical-center'><img style='vertical-align:center; align:center' src=img/fixation3.jpg></div><div class='cl'><div class='vertical-center'><font style='color:orange'>$80<br>for<br>jb</font></div></div><div class='cr'><div class='vertical-center'>$33<br>for<br>yourself</div></div><div class='respDivL'><div class='vertical-center'><font style='color:orange'>(E)</font></div></div><div class='respDivR'><div class='vertical-center'>(I)</div></div></div>","null","$33<br>for<br>yourself","$80<br>for<br>2","1","33","80","2",""
"html-keyboard-response","20","239863","0.0-6.0-1.5","61282ca83be28773ac7c421f","bdp_sd","Mon Mar 27 2023 14:06:51 GMT-0400 (Eastern Daylight Time)","392712","","null","","","","","FIX","","<div class='trialBorder'><div class='vertical-center'><img style='vertical-align:center; align:center' src=img/fixation3.jpg></div></div>","null","","","","","","",""
"html-keyboard-response","21","245149","0.0-6.0-2.5","61282ca83be28773ac7c421f","bdp_sd","Mon Mar 27 2023 14:06:51 GMT-0400 (Eastern Daylight Time)","392712","","5284","","","","","offer","","<div class='trialBorder'><div class='vertical-center'><img style='vertical-align:center; align:center' src=img/fixation3.jpg></div><div class='cl'><div class='vertical-center'>$50<br>for<br>jp</div></div><div class='cr'><div class='vertical-center'>$47<br>for<br>yourself</div></div><div class='respDivL'><div class='vertical-center'>(E)</div></div><div class='respDivR'><div class='vertical-center'>(I)</div></div></div>","I","$47<br>for<br>yourself","$50<br>for<br>5","1","47","50","5","SELF"
"html-keyboard-response","22","245407","0.0-6.0-3.5","61282ca83be28773ac7c421f","bdp_sd","Mon Mar 27 2023 14:06:51 GMT-0400 (Eastern Daylight Time)","392712","","null","","","","","offerFB","","<div class='trialBorder'><div class='vertical-center'><img style='vertical-align:center; align:center' src=img/fixation3.jpg></div><div class='cl'><div class='vertical-center'>$50<br>for<br>jp</div></div><div class='cr'><div class='vertical-center'><font style='color:orange'>$47<br>for<br>yourself</font></div></div><div class='respDivL'><div class='vertical-center'>(E)</div></div><div class='respDivR'><div class='vertical-center'><font style='color:orange'>(I)</font></div></div></div>","null","$47<br>for<br>yourself","$50<br>for<br>5","1","47","50","5",""
"html-keyboard-response","23","245911","0.0-6.0-1.6","61282ca83be28773ac7c421f","bdp_sd","Mon Mar 27 2023 14:06:51 GMT-0400 (Eastern Daylight Time)","392712","","null","","","","","FIX","","<div class='trialBorder'><div class='vertical-center'><img style='vertical-align:center; align:center' src=img/fixation3.jpg></div></div>","null","","","","","","",""
"html-keyboard-response","24","251144","0.0-6.0-2.6","61282ca83be28773ac7c421f","bdp_sd","Mon Mar 27 2023 14:06:51 GMT-0400 (Eastern Daylight Time)","392712","","5231","","","","","offer","","<div class='trialBorder'><div class='vertical-center'><img style='vertical-align:center; align:center' src=img/fixation3.jpg></div><div class='cl'><div class='vertical-center'>$11<br>for<br>yourself</div></div><div class='cr'><div class='vertical-center'>$30<br>for<br>jb</div></div><div class='respDivL'><div class='vertical-center'>(E)</div></div><div class='respDivR'><div class='vertical-center'>(I)</div></div></div>","I","$11<br>for<br>yourself","$30<br>for<br>2","0","11","30","2","OTHER"
"html-keyboard-response","25","251399","0.0-6.0-3.6","61282ca83be28773ac7c421f","bdp_sd","Mon Mar 27 2023 14:06:51 GMT-0400 (Eastern Daylight Time)","392712","","null","","","","","offerFB","","<div class='trialBorder'><div class='vertical-center'><img style='vertical-align:center; align:center' src=img/fixation3.jpg></div><div class='cl'><div class='vertical-center'>$11<br>for<br>yourself</div></div><div class='cr'><div class='vertical-center'><font style='color:orange'>$30<br>for<br>jb</font></div></div><div class='respDivL'><div class='vertical-center'>(E)</div></div><div class='respDivR'><div class='vertical-center'><font style='color:orange'>(I)</font></div></div></div>","null","$11<br>for<br>yourself","$30<br>for<br>2","0","11","30","2",""
"html-keyboard-response","26","251903","0.0-6.0-1.7","61282ca83be28773ac7c421f","bdp_sd","Mon Mar 27 2023 14:06:51 GMT-0400 (Eastern Daylight Time)","392712","","null","","","","","FIX","","<div class='trialBorder'><div class='vertical-center'><img style='vertical-align:center; align:center' src=img/fixation3.jpg></div></div>","null","","","","","","",""
"html-keyboard-response","27","257488","0.0-6.0-2.7","61282ca83be28773ac7c421f","bdp_sd","Mon Mar 27 2023 14:06:51 GMT-0400 (Eastern Daylight Time)","392712","","5584","","","","","offer","","<div class='trialBorder'><div class='vertical-center'><img style='vertical-align:center; align:center' src=img/fixation3.jpg></div><div class='cl'><div class='vertical-center'>$85<br>for<br>kp</div></div><div class='cr'><div class='vertical-center'>$69<br>for<br>yourself</div></div><div class='respDivL'><div class='vertical-center'>(E)</div></div><div class='respDivR'><div class='vertical-center'>(I)</div></div></div>","I","$69<br>for<br>yourself","$85<br>for<br>4","1","69","85","4","SELF"
"html-keyboard-response","28","257743","0.0-6.0-3.7","61282ca83be28773ac7c421f","bdp_sd","Mon Mar 27 2023 14:06:51 GMT-0400 (Eastern Daylight Time)","392712","","null","","","","","offerFB","","<div class='trialBorder'><div class='vertical-center'><img style='vertical-align:center; align:center' src=img/fixation3.jpg></div><div class='cl'><div class='vertical-center'>$85<br>for<br>kp</div></div><div class='cr'><div class='vertical-center'><font style='color:orange'>$69<br>for<br>yourself</font></div></div><div class='respDivL'><div class='vertical-center'>(E)</div></div><div class='respDivR'><div class='vertical-center'><font style='color:orange'>(I)</font></div></div></div>","null","$69<br>for<br>yourself","$85<br>for<br>4","1","69","85","4",""
"html-keyboard-response","29","258247","0.0-6.0-1.8","61282ca83be28773ac7c421f","bdp_sd","Mon Mar 27 2023 14:06:51 GMT-0400 (Eastern Daylight Time)","392712","","null","","","","","FIX","","<div class='trialBorder'><div class='vertical-center'><img style='vertical-align:center; align:center' src=img/fixation3.jpg></div></div>","null","","","","","","",""
"html-keyboard-response","30","264726","0.0-6.0-2.8","61282ca83be28773ac7c421f","bdp_sd","Mon Mar 27 2023 14:06:51 GMT-0400 (Eastern Daylight Time)","392712","","6478","","","","","offer","","<div class='trialBorder'><div class='vertical-center'><img style='vertical-align:center; align:center' src=img/fixation3.jpg></div><div class='cl'><div class='vertical-center'>$50<br>for<br>kp</div></div><div class='cr'><div class='vertical-center'>$34<br>for<br>yourself</div></div><div class='respDivL'><div class='vertical-center'>(E)</div></div><div class='respDivR'><div class='vertical-center'>(I)</div></div></div>","E","$34<br>for<br>yourself","$50<br>for<br>4","1","34","50","4","OTHER"
"html-keyboard-response","31","264983","0.0-6.0-3.8","61282ca83be28773ac7c421f","bdp_sd","Mon Mar 27 2023 14:06:51 GMT-0400 (Eastern Daylight Time)","392712","","null","","","","","offerFB","","<div class='trialBorder'><div class='vertical-center'><img style='vertical-align:center; align:center' src=img/fixation3.jpg></div><div class='cl'><div class='vertical-center'><font style='color:orange'>$50<br>for<br>kp</font></div></div><div class='cr'><div class='vertical-center'>$34<br>for<br>yourself</div></div><div class='respDivL'><div class='vertical-center'><font style='color:orange'>(E)</font></div></div><div class='respDivR'><div class='vertical-center'>(I)</div></div></div>","null","$34<br>for<br>yourself","$50<br>for<br>4","1","34","50","4",""
"html-keyboard-response","32","265487","0.0-6.0-1.9","61282ca83be28773ac7c421f","bdp_sd","Mon Mar 27 2023 14:06:51 GMT-0400 (Eastern Daylight Time)","392712","","null","","","","","FIX","","<div class='trialBorder'><div class='vertical-center'><img style='vertical-align:center; align:center' src=img/fixation3.jpg></div></div>","null","","","","","","",""
"html-keyboard-response","33","272162","0.0-6.0-2.9","61282ca83be28773ac7c421f","bdp_sd","Mon Mar 27 2023 14:06:51 GMT-0400 (Eastern Daylight Time)","392712","","6674","","","","","offer","","<div class='trialBorder'><div class='vertical-center'><img style='vertical-align:center; align:center' src=img/fixation3.jpg></div><div class='cl'><div class='vertical-center'>$55<br>for<br>tc</div></div><div class='cr'><div class='vertical-center'>$20<br>for<br>yourself</div></div><div class='respDivL'><div class='vertical-center'>(E)</div></div><div class='respDivR'><div class='vertical-center'>(I)</div></div></div>","E","$20<br>for<br>yourself","$55<br>for<br>1","1","20","55","1","OTHER"
"html-keyboard-response","34","272415","0.0-6.0-3.9","61282ca83be28773ac7c421f","bdp_sd","Mon Mar 27 2023 14:06:51 GMT-0400 (Eastern Daylight Time)","392712","","null","","","","","offerFB","","<div class='trialBorder'><div class='vertical-center'><img style='vertical-align:center; align:center' src=img/fixation3.jpg></div><div class='cl'><div class='vertical-center'><font style='color:orange'>$55<br>for<br>tc</font></div></div><div class='cr'><div class='vertical-center'>$20<br>for<br>yourself</div></div><div class='respDivL'><div class='vertical-center'><font style='color:orange'>(E)</font></div></div><div class='respDivR'><div class='vertical-center'>(I)</div></div></div>","null","$20<br>for<br>yourself","$55<br>for<br>1","1","20","55","1",""
"html-keyboard-response","35","272919","0.0-6.0-1.10","61282ca83be28773ac7c421f","bdp_sd","Mon Mar 27 2023 14:06:51 GMT-0400 (Eastern Daylight Time)","392712","","null","","","","","FIX","","<div class='trialBorder'><div class='vertical-center'><img style='vertical-align:center; align:center' src=img/fixation3.jpg></div></div>","null","","","","","","",""
"html-keyboard-response","36","280017","0.0-6.0-2.10","61282ca83be28773ac7c421f","bdp_sd","Mon Mar 27 2023 14:06:51 GMT-0400 (Eastern Daylight Time)","392712","","7097","","","","","offer","","<div class='trialBorder'><div class='vertical-center'><img style='vertical-align:center; align:center' src=img/fixation3.jpg></div><div class='cl'><div class='vertical-center'>$27<br>for<br>yourself</div></div><div class='cr'><div class='vertical-center'>$50<br>for<br>jd</div></div><div class='respDivL'><div class='vertical-center'>(E)</div></div><div class='respDivR'><div class='vertical-center'>(I)</div></div></div>","I","$27<br>for<br>yourself","$50<br>for<br>3","0","27","50","3","OTHER"
"html-keyboard-response","37","280271","0.0-6.0-3.10","61282ca83be28773ac7c421f","bdp_sd","Mon Mar 27 2023 14:06:51 GMT-0400 (Eastern Daylight Time)","392712","","null","","","","","offerFB","","<div class='trialBorder'><div class='vertical-center'><img style='vertical-align:center; align:center' src=img/fixation3.jpg></div><div class='cl'><div class='vertical-center'>$27<br>for<br>yourself</div></div><div class='cr'><div class='vertical-center'><font style='color:orange'>$50<br>for<br>jd</font></div></div><div class='respDivL'><div class='vertical-center'>(E)</div></div><div class='respDivR'><div class='vertical-center'><font style='color:orange'>(I)</font></div></div></div>","null","$27<br>for<br>yourself","$50<br>for<br>3","0","27","50","3",""
"html-keyboard-response","38","280775","0.0-6.0-1.11","61282ca83be28773ac7c421f","bdp_sd","Mon Mar 27 2023 14:06:51 GMT-0400 (Eastern Daylight Time)","392712","","null","","","","","FIX","","<div class='trialBorder'><div class='vertical-center'><img style='vertical-align:center; align:center' src=img/fixation3.jpg></div></div>","null","","","","","","",""
"html-keyboard-response","39","285492","0.0-6.0-2.11","61282ca83be28773ac7c421f","bdp_sd","Mon Mar 27 2023 14:06:51 GMT-0400 (Eastern Daylight Time)","392712","","4715","","","","","offer","","<div class='trialBorder'><div class='vertical-center'><img style='vertical-align:center; align:center' src=img/fixation3.jpg></div><div class='cl'><div class='vertical-center'>$75<br>for<br>kp</div></div><div class='cr'><div class='vertical-center'>$55<br>for<br>yourself</div></div><div class='respDivL'><div class='vertical-center'>(E)</div></div><div class='respDivR'><div class='vertical-center'>(I)</div></div></div>","I","$55<br>for<br>yourself","$75<br>for<br>4","1","55","75","4","SELF"
"html-keyboard-response","40","285751","0.0-6.0-3.11","61282ca83be28773ac7c421f","bdp_sd","Mon Mar 27 2023 14:06:51 GMT-0400 (Eastern Daylight Time)","392712","","null","","","","","offerFB","","<div class='trialBorder'><div class='vertical-center'><img style='vertical-align:center; align:center' src=img/fixation3.jpg></div><div class='cl'><div class='vertical-center'>$75<br>for<br>kp</div></div><div class='cr'><div class='vertical-center'><font style='color:orange'>$55<br>for<br>yourself</font></div></div><div class='respDivL'><div class='vertical-center'>(E)</div></div><div class='respDivR'><div class='vertical-center'><font style='color:orange'>(I)</font></div></div></div>","null","$55<br>for<br>yourself","$75<br>for<br>4","1","55","75","4",""
"html-keyboard-response","41","286255","0.0-6.0-1.12","61282ca83be28773ac7c421f","bdp_sd","Mon Mar 27 2023 14:06:51 GMT-0400 (Eastern Daylight Time)","392712","","null","","","","","FIX","","<div class='trialBorder'><div class='vertical-center'><img style='vertical-align:center; align:center' src=img/fixation3.jpg></div></div>","null","","","","","","",""
"html-keyboard-response","42","290777","0.0-6.0-2.12","61282ca83be28773ac7c421f","bdp_sd","Mon Mar 27 2023 14:06:51 GMT-0400 (Eastern Daylight Time)","392712","","4521","","","","","offer","","<div class='trialBorder'><div class='vertical-center'><img style='vertical-align:center; align:center' src=img/fixation3.jpg></div><div class='cl'><div class='vertical-center'>$25<br>for<br>kp</div></div><div class='cr'><div class='vertical-center'>$19<br>for<br>yourself</div></div><div class='respDivL'><div class='vertical-center'>(E)</div></div><div class='respDivR'><div class='vertical-center'>(I)</div></div></div>","E","$19<br>for<br>yourself","$25<br>for<br>4","1","19","25","4","OTHER"
"html-keyboard-response","43","291031","0.0-6.0-3.12","61282ca83be28773ac7c421f","bdp_sd","Mon Mar 27 2023 14:06:51 GMT-0400 (Eastern Daylight Time)","392712","","null","","","","","offerFB","","<div class='trialBorder'><div class='vertical-center'><img style='vertical-align:center; align:center' src=img/fixation3.jpg></div><div class='cl'><div class='vertical-center'><font style='color:orange'>$25<br>for<br>kp</font></div></div><div class='cr'><div class='vertical-center'>$19<br>for<br>yourself</div></div><div class='respDivL'><div class='vertical-center'><font style='color:orange'>(E)</font></div></div><div class='respDivR'><div class='vertical-center'>(I)</div></div></div>","null","$19<br>for<br>yourself","$25<br>for<br>4","1","19","25","4",""
"html-keyboard-response","44","291535","0.0-6.0-1.13","61282ca83be28773ac7c421f","bdp_sd","Mon Mar 27 2023 14:06:51 GMT-0400 (Eastern Daylight Time)","392712","","null","","","","","FIX","","<div class='trialBorder'><div class='vertical-center'><img style='vertical-align:center; align:center' src=img/fixation3.jpg></div></div>","null","","","","","","",""
"html-keyboard-response","45","298522","0.0-6.0-2.13","61282ca83be28773ac7c421f","bdp_sd","Mon Mar 27 2023 14:06:51 GMT-0400 (Eastern Daylight Time)","392712","","6986","","","","","offer","","<div class='trialBorder'><div class='vertical-center'><img style='vertical-align:center; align:center' src=img/fixation3.jpg></div><div class='cl'><div class='vertical-center'>$22<br>for<br>yourself</div></div><div class='cr'><div class='vertical-center'>$25<br>for<br>jp</div></div><div class='respDivL'><div class='vertical-center'>(E)</div></div><div class='respDivR'><div class='vertical-center'>(I)</div></div></div>","E","$22<br>for<br>yourself","$25<br>for<br>5","0","22","25","5","SELF"
"html-keyboard-response","46","298776","0.0-6.0-3.13","61282ca83be28773ac7c421f","bdp_sd","Mon Mar 27 2023 14:06:51 GMT-0400 (Eastern Daylight Time)","392712","","null","","","","","offerFB","","<div class='trialBorder'><div class='vertical-center'><img style='vertical-align:center; align:center' src=img/fixation3.jpg></div><div class='cl'><div class='vertical-center'><font style='color:orange'>$22<br>for<br>yourself</font></div></div><div class='cr'><div class='vertical-center'>$25<br>for<br>jp</div></div><div class='respDivL'><div class='vertical-center'><font style='color:orange'>(E)</font></div></div><div class='respDivR'><div class='vertical-center'>(I)</div></div></div>","null","$22<br>for<br>yourself","$25<br>for<br>5","0","22","25","5",""
"html-keyboard-response","47","299279","0.0-6.0-1.14","61282ca83be28773ac7c421f","bdp_sd","Mon Mar 27 2023 14:06:51 GMT-0400 (Eastern Daylight Time)","392712","","null","","","","","FIX","","<div class='trialBorder'><div class='vertical-center'><img style='vertical-align:center; align:center' src=img/fixation3.jpg></div></div>","null","","","","","","",""
"html-keyboard-response","48","306365","0.0-6.0-2.14","61282ca83be28773ac7c421f","bdp_sd","Mon Mar 27 2023 14:06:51 GMT-0400 (Eastern Daylight Time)","392712","","7084","","","","","offer","","<div class='trialBorder'><div class='vertical-center'><img style='vertical-align:center; align:center' src=img/fixation3.jpg></div><div class='cl'><div class='vertical-center'>$60<br>for<br>kp</div></div><div class='cr'><div class='vertical-center'>$49<br>for<br>yourself</div></div><div class='respDivL'><div class='vertical-center'>(E)</div></div><div class='respDivR'><div class='vertical-center'>(I)</div></div></div>","I","$49<br>for<br>yourself","$60<br>for<br>4","1","49","60","4","SELF"
"html-keyboard-response","49","306624","0.0-6.0-3.14","61282ca83be28773ac7c421f","bdp_sd","Mon Mar 27 2023 14:06:51 GMT-0400 (Eastern Daylight Time)","392712","","null","","","","","offerFB","","<div class='trialBorder'><div class='vertical-center'><img style='vertical-align:center; align:center' src=img/fixation3.jpg></div><div class='cl'><div class='vertical-center'>$60<br>for<br>kp</div></div><div class='cr'><div class='vertical-center'><font style='color:orange'>$49<br>for<br>yourself</font></div></div><div class='respDivL'><div class='vertical-center'>(E)</div></div><div class='respDivR'><div class='vertical-center'><font style='color:orange'>(I)</font></div></div></div>","null","$49<br>for<br>yourself","$60<br>for<br>4","1","49","60","4",""
"html-keyboard-response","50","307128","0.0-6.0-1.15","61282ca83be28773ac7c421f","bdp_sd","Mon Mar 27 2023 14:06:51 GMT-0400 (Eastern Daylight Time)","392712","","null","","","","","FIX","","<div class='trialBorder'><div class='vertical-center'><img style='vertical-align:center; align:center' src=img/fixation3.jpg></div></div>","null","","","","","","",""
"html-keyboard-response","51","309930","0.0-6.0-2.15","61282ca83be28773ac7c421f","bdp_sd","Mon Mar 27 2023 14:06:51 GMT-0400 (Eastern Daylight Time)","392712","","2802","","","","","offer","","<div class='trialBorder'><div class='vertical-center'><img style='vertical-align:center; align:center' src=img/fixation3.jpg></div><div class='cl'><div class='vertical-center'>$40<br>for<br>yourself</div></div><div class='cr'><div class='vertical-center'>$55<br>for<br>kp</div></div><div class='respDivL'><div class='vertical-center'>(E)</div></div><div class='respDivR'><div class='vertical-center'>(I)</div></div></div>","E","$40<br>for<br>yourself","$55<br>for<br>4","0","40","55","4","SELF"
"html-keyboard-response","52","310183","0.0-6.0-3.15","61282ca83be28773ac7c421f","bdp_sd","Mon Mar 27 2023 14:06:51 GMT-0400 (Eastern Daylight Time)","392712","","null","","","","","offerFB","","<div class='trialBorder'><div class='vertical-center'><img style='vertical-align:center; align:center' src=img/fixation3.jpg></div><div class='cl'><div class='vertical-center'><font style='color:orange'>$40<br>for<br>yourself</font></div></div><div class='cr'><div class='vertical-center'>$55<br>for<br>kp</div></div><div class='respDivL'><div class='vertical-center'><font style='color:orange'>(E)</font></div></div><div class='respDivR'><div class='vertical-center'>(I)</div></div></div>","null","$40<br>for<br>yourself","$55<br>for<br>4","0","40","55","4",""
"html-keyboard-response","53","310687","0.0-6.0-1.16","61282ca83be28773ac7c421f","bdp_sd","Mon Mar 27 2023 14:06:51 GMT-0400 (Eastern Daylight Time)","392712","","null","","","","","FIX","","<div class='trialBorder'><div class='vertical-center'><img style='vertical-align:center; align:center' src=img/fixation3.jpg></div></div>","null","","","","","","",""
"html-keyboard-response","54","314635","0.0-6.0-2.16","61282ca83be28773ac7c421f","bdp_sd","Mon Mar 27 2023 14:06:51 GMT-0400 (Eastern Daylight Time)","392712","","3947","","","","","offer","","<div class='trialBorder'><div class='vertical-center'><img style='vertical-align:center; align:center' src=img/fixation3.jpg></div><div class='cl'><div class='vertical-center'>$14<br>for<br>yourself</div></div><div class='cr'><div class='vertical-center'>$25<br>for<br>jd</div></div><div class='respDivL'><div class='vertical-center'>(E)</div></div><div class='respDivR'><div class='vertical-center'>(I)</div></div></div>","I","$14<br>for<br>yourself","$25<br>for<br>3","0","14","25","3","OTHER"
"html-keyboard-response","55","314895","0.0-6.0-3.16","61282ca83be28773ac7c421f","bdp_sd","Mon Mar 27 2023 14:06:51 GMT-0400 (Eastern Daylight Time)","392712","","null","","","","","offerFB","","<div class='trialBorder'><div class='vertical-center'><img style='vertical-align:center; align:center' src=img/fixation3.jpg></div><div class='cl'><div class='vertical-center'>$14<br>for<br>yourself</div></div><div class='cr'><div class='vertical-center'><font style='color:orange'>$25<br>for<br>jd</font></div></div><div class='respDivL'><div class='vertical-center'>(E)</div></div><div class='respDivR'><div class='vertical-center'><font style='color:orange'>(I)</font></div></div></div>","null","$14<br>for<br>yourself","$25<br>for<br>3","0","14","25","3",""
"html-keyboard-response","56","315407","0.0-6.0-1.17","61282ca83be28773ac7c421f","bdp_sd","Mon Mar 27 2023 14:06:51 GMT-0400 (Eastern Daylight Time)","392712","","null","","","","","FIX","","<div class='trialBorder'><div class='vertical-center'><img style='vertical-align:center; align:center' src=img/fixation3.jpg></div></div>","null","","","","","","",""
"html-keyboard-response","57","319783","0.0-6.0-2.17","61282ca83be28773ac7c421f","bdp_sd","Mon Mar 27 2023 14:06:51 GMT-0400 (Eastern Daylight Time)","392712","","4375","","","","","offer","","<div class='trialBorder'><div class='vertical-center'><img style='vertical-align:center; align:center' src=img/fixation3.jpg></div><div class='cl'><div class='vertical-center'>$54<br>for<br>yourself</div></div><div class='cr'><div class='vertical-center'>$60<br>for<br>jp</div></div><div class='respDivL'><div class='vertical-center'>(E)</div></div><div class='respDivR'><div class='vertical-center'>(I)</div></div></div>","E","$54<br>for<br>yourself","$60<br>for<br>5","0","54","60","5","SELF"
"html-keyboard-response","58","320039","0.0-6.0-3.17","61282ca83be28773ac7c421f","bdp_sd","Mon Mar 27 2023 14:06:51 GMT-0400 (Eastern Daylight Time)","392712","","null","","","","","offerFB","","<div class='trialBorder'><div class='vertical-center'><img style='vertical-align:center; align:center' src=img/fixation3.jpg></div><div class='cl'><div class='vertical-center'><font style='color:orange'>$54<br>for<br>yourself</font></div></div><div class='cr'><div class='vertical-center'>$60<br>for<br>jp</div></div><div class='respDivL'><div class='vertical-center'><font style='color:orange'>(E)</font></div></div><div class='respDivR'><div class='vertical-center'>(I)</div></div></div>","null","$54<br>for<br>yourself","$60<br>for<br>5","0","54","60","5",""
"html-keyboard-response","59","320543","0.0-6.0-1.18","61282ca83be28773ac7c421f","bdp_sd","Mon Mar 27 2023 14:06:51 GMT-0400 (Eastern Daylight Time)","392712","","null","","","","","FIX","","<div class='trialBorder'><div class='vertical-center'><img style='vertical-align:center; align:center' src=img/fixation3.jpg></div></div>","null","","","","","","",""
"html-keyboard-response","60","324142","0.0-6.0-2.18","61282ca83be28773ac7c421f","bdp_sd","Mon Mar 27 2023 14:06:51 GMT-0400 (Eastern Daylight Time)","392712","","3597","","","","","offer","","<div class='trialBorder'><div class='vertical-center'><img style='vertical-align:center; align:center' src=img/fixation3.jpg></div><div class='cl'><div class='vertical-center'>$80<br>for<br>yourself</div></div><div class='cr'><div class='vertical-center'>$85<br>for<br>jp</div></div><div class='respDivL'><div class='vertical-center'>(E)</div></div><div class='respDivR'><div class='vertical-center'>(I)</div></div></div>","E","$80<br>for<br>yourself","$85<br>for<br>5","0","80","85","5","SELF"
"html-keyboard-response","61","324399","0.0-6.0-3.18","61282ca83be28773ac7c421f","bdp_sd","Mon Mar 27 2023 14:06:51 GMT-0400 (Eastern Daylight Time)","392712","","null","","","","","offerFB","","<div class='trialBorder'><div class='vertical-center'><img style='vertical-align:center; align:center' src=img/fixation3.jpg></div><div class='cl'><div class='vertical-center'><font style='color:orange'>$80<br>for<br>yourself</font></div></div><div class='cr'><div class='vertical-center'>$85<br>for<br>jp</div></div><div class='respDivL'><div class='vertical-center'><font style='color:orange'>(E)</font></div></div><div class='respDivR'><div class='vertical-center'>(I)</div></div></div>","null","$80<br>for<br>yourself","$85<br>for<br>5","0","80","85","5",""
"html-keyboard-response","62","324903","0.0-6.0-1.19","61282ca83be28773ac7c421f","bdp_sd","Mon Mar 27 2023 14:06:51 GMT-0400 (Eastern Daylight Time)","392712","","null","","","","","FIX","","<div class='trialBorder'><div class='vertical-center'><img style='vertical-align:center; align:center' src=img/fixation3.jpg></div></div>","null","","","","","","",""
"html-keyboard-response","63","328572","0.0-6.0-2.19","61282ca83be28773ac7c421f","bdp_sd","Mon Mar 27 2023 14:06:51 GMT-0400 (Eastern Daylight Time)","392712","","3667","","","","","offer","","<div class='trialBorder'><div class='vertical-center'><img style='vertical-align:center; align:center' src=img/fixation3.jpg></div><div class='cl'><div class='vertical-center'>$25<br>for<br>yourself</div></div><div class='cr'><div class='vertical-center'>$30<br>for<br>kp</div></div><div class='respDivL'><div class='vertical-center'>(E)</div></div><div class='respDivR'><div class='vertical-center'>(I)</div></div></div>","I","$25<br>for<br>yourself","$30<br>for<br>4","0","25","30","4","OTHER"
"html-keyboard-response","64","328831","0.0-6.0-3.19","61282ca83be28773ac7c421f","bdp_sd","Mon Mar 27 2023 14:06:51 GMT-0400 (Eastern Daylight Time)","392712","","null","","","","","offerFB","","<div class='trialBorder'><div class='vertical-center'><img style='vertical-align:center; align:center' src=img/fixation3.jpg></div><div class='cl'><div class='vertical-center'>$25<br>for<br>yourself</div></div><div class='cr'><div class='vertical-center'><font style='color:orange'>$30<br>for<br>kp</font></div></div><div class='respDivL'><div class='vertical-center'>(E)</div></div><div class='respDivR'><div class='vertical-center'><font style='color:orange'>(I)</font></div></div></div>","null","$25<br>for<br>yourself","$30<br>for<br>4","0","25","30","4",""
"html-keyboard-response","65","329335","0.0-6.0-1.20","61282ca83be28773ac7c421f","bdp_sd","Mon Mar 27 2023 14:06:51 GMT-0400 (Eastern Daylight Time)","392712","","null","","","","","FIX","","<div class='trialBorder'><div class='vertical-center'><img style='vertical-align:center; align:center' src=img/fixation3.jpg></div></div>","null","","","","","","",""
"html-keyboard-response","66","336597","0.0-6.0-2.20","61282ca83be28773ac7c421f","bdp_sd","Mon Mar 27 2023 14:06:51 GMT-0400 (Eastern Daylight Time)","392712","","7261","","","","","offer","","<div class='trialBorder'><div class='vertical-center'><img style='vertical-align:center; align:center' src=img/fixation3.jpg></div><div class='cl'><div class='vertical-center'>$55<br>for<br>jp</div></div><div class='cr'><div class='vertical-center'>$54<br>for<br>yourself</div></div><div class='respDivL'><div class='vertical-center'>(E)</div></div><div class='respDivR'><div class='vertical-center'>(I)</div></div></div>","I","$54<br>for<br>yourself","$55<br>for<br>5","1","54","55","5","SELF"
"html-keyboard-response","67","336855","0.0-6.0-3.20","61282ca83be28773ac7c421f","bdp_sd","Mon Mar 27 2023 14:06:51 GMT-0400 (Eastern Daylight Time)","392712","","null","","","","","offerFB","","<div class='trialBorder'><div class='vertical-center'><img style='vertical-align:center; align:center' src=img/fixation3.jpg></div><div class='cl'><div class='vertical-center'>$55<br>for<br>jp</div></div><div class='cr'><div class='vertical-center'><font style='color:orange'>$54<br>for<br>yourself</font></div></div><div class='respDivL'><div class='vertical-center'>(E)</div></div><div class='respDivR'><div class='vertical-center'><font style='color:orange'>(I)</font></div></div></div>","null","$54<br>for<br>yourself","$55<br>for<br>5","1","54","55","5",""
"html-keyboard-response","68","337359","0.0-6.0-1.21","61282ca83be28773ac7c421f","bdp_sd","Mon Mar 27 2023 14:06:51 GMT-0400 (Eastern Daylight Time)","392712","","null","","","","","FIX","","<div class='trialBorder'><div class='vertical-center'><img style='vertical-align:center; align:center' src=img/fixation3.jpg></div></div>","null","","","","","","",""
"html-keyboard-response","69","354869","0.0-6.0-2.21","61282ca83be28773ac7c421f","bdp_sd","Mon Mar 27 2023 14:06:51 GMT-0400 (Eastern Daylight Time)","392712","","17508","","","","","offer","","<div class='trialBorder'><div class='vertical-center'><img style='vertical-align:center; align:center' src=img/fixation3.jpg></div><div class='cl'><div class='vertical-center'>$80<br>for<br>jp</div></div><div class='cr'><div class='vertical-center'>$78<br>for<br>yourself</div></div><div class='respDivL'><div class='vertical-center'>(E)</div></div><div class='respDivR'><div class='vertical-center'>(I)</div></div></div>","I","$78<br>for<br>yourself","$80<br>for<br>5","1","78","80","5","SELF"
"html-keyboard-response","70","355128","0.0-6.0-3.21","61282ca83be28773ac7c421f","bdp_sd","Mon Mar 27 2023 14:06:51 GMT-0400 (Eastern Daylight Time)","392712","","null","","","","","offerFB","","<div class='trialBorder'><div class='vertical-center'><img style='vertical-align:center; align:center' src=img/fixation3.jpg></div><div class='cl'><div class='vertical-center'>$80<br>for<br>jp</div></div><div class='cr'><div class='vertical-center'><font style='color:orange'>$78<br>for<br>yourself</font></div></div><div class='respDivL'><div class='vertical-center'>(E)</div></div><div class='respDivR'><div class='vertical-center'><font style='color:orange'>(I)</font></div></div></div>","null","$78<br>for<br>yourself","$80<br>for<br>5","1","78","80","5",""
"html-keyboard-response","71","355631","0.0-6.0-1.22","61282ca83be28773ac7c421f","bdp_sd","Mon Mar 27 2023 14:06:51 GMT-0400 (Eastern Daylight Time)","392712","","null","","","","","FIX","","<div class='trialBorder'><div class='vertical-center'><img style='vertical-align:center; align:center' src=img/fixation3.jpg></div></div>","null","","","","","","",""
"html-keyboard-response","72","366592","0.0-6.0-2.22","61282ca83be28773ac7c421f","bdp_sd","Mon Mar 27 2023 14:06:51 GMT-0400 (Eastern Daylight Time)","392712","","10960","","","","","offer","","<div class='trialBorder'><div class='vertical-center'><img style='vertical-align:center; align:center' src=img/fixation3.jpg></div><div class='cl'><div class='vertical-center'>$30<br>for<br>jp</div></div><div class='cr'><div class='vertical-center'>$28<br>for<br>yourself</div></div><div class='respDivL'><div class='vertical-center'>(E)</div></div><div class='respDivR'><div class='vertical-center'>(I)</div></div></div>","I","$28<br>for<br>yourself","$30<br>for<br>5","1","28","30","5","SELF"
"html-keyboard-response","73","366847","0.0-6.0-3.22","61282ca83be28773ac7c421f","bdp_sd","Mon Mar 27 2023 14:06:51 GMT-0400 (Eastern Daylight Time)","392712","","null","","","","","offerFB","","<div class='trialBorder'><div class='vertical-center'><img style='vertical-align:center; align:center' src=img/fixation3.jpg></div><div class='cl'><div class='vertical-center'>$30<br>for<br>jp</div></div><div class='cr'><div class='vertical-center'><font style='color:orange'>$28<br>for<br>yourself</font></div></div><div class='respDivL'><div class='vertical-center'>(E)</div></div><div class='respDivR'><div class='vertical-center'><font style='color:orange'>(I)</font></div></div></div>","null","$28<br>for<br>yourself","$30<br>for<br>5","1","28","30","5",""
"html-keyboard-response","74","367351","0.0-6.0-1.23","61282ca83be28773ac7c421f","bdp_sd","Mon Mar 27 2023 14:06:51 GMT-0400 (Eastern Daylight Time)","392712","","null","","","","","FIX","","<div class='trialBorder'><div class='vertical-center'><img style='vertical-align:center; align:center' src=img/fixation3.jpg></div></div>","null","","","","","","",""
"html-keyboard-response","75","375494","0.0-6.0-2.23","61282ca83be28773ac7c421f","bdp_sd","Mon Mar 27 2023 14:06:51 GMT-0400 (Eastern Daylight Time)","392712","","8142","","","","","offer","","<div class='trialBorder'><div class='vertical-center'><img style='vertical-align:center; align:center' src=img/fixation3.jpg></div><div class='cl'><div class='vertical-center'>$60<br>for<br>jd</div></div><div class='cr'><div class='vertical-center'>$25<br>for<br>yourself</div></div><div class='respDivL'><div class='vertical-center'>(E)</div></div><div class='respDivR'><div class='vertical-center'>(I)</div></div></div>","E","$25<br>for<br>yourself","$60<br>for<br>3","1","25","60","3","OTHER"
"html-keyboard-response","76","375751","0.0-6.0-3.23","61282ca83be28773ac7c421f","bdp_sd","Mon Mar 27 2023 14:06:51 GMT-0400 (Eastern Daylight Time)","392712","","null","","","","","offerFB","","<div class='trialBorder'><div class='vertical-center'><img style='vertical-align:center; align:center' src=img/fixation3.jpg></div><div class='cl'><div class='vertical-center'><font style='color:orange'>$60<br>for<br>jd</font></div></div><div class='cr'><div class='vertical-center'>$25<br>for<br>yourself</div></div><div class='respDivL'><div class='vertical-center'><font style='color:orange'>(E)</font></div></div><div class='respDivR'><div class='vertical-center'>(I)</div></div></div>","null","$25<br>for<br>yourself","$60<br>for<br>3","1","25","60","3",""
"html-keyboard-response","77","376255","0.0-6.0-1.24","61282ca83be28773ac7c421f","bdp_sd","Mon Mar 27 2023 14:06:51 GMT-0400 (Eastern Daylight Time)","392712","","null","","","","","FIX","","<div class='trialBorder'><div class='vertical-center'><img style='vertical-align:center; align:center' src=img/fixation3.jpg></div></div>","null","","","","","","",""
"html-keyboard-response","78","382443","0.0-6.0-2.24","61282ca83be28773ac7c421f","bdp_sd","Mon Mar 27 2023 14:06:51 GMT-0400 (Eastern Daylight Time)","392712","","6187","","","","","offer","","<div class='trialBorder'><div class='vertical-center'><img style='vertical-align:center; align:center' src=img/fixation3.jpg></div><div class='cl'><div class='vertical-center'>$75<br>for<br>jd</div></div><div class='cr'><div class='vertical-center'>$41<br>for<br>yourself</div></div><div class='respDivL'><div class='vertical-center'>(E)</div></div><div class='respDivR'><div class='vertical-center'>(I)</div></div></div>","I","$41<br>for<br>yourself","$75<br>for<br>3","1","41","75","3","SELF"
"html-keyboard-response","79","382695","0.0-6.0-3.24","61282ca83be28773ac7c421f","bdp_sd","Mon Mar 27 2023 14:06:51 GMT-0400 (Eastern Daylight Time)","392712","","null","","","","","offerFB","","<div class='trialBorder'><div class='vertical-center'><img style='vertical-align:center; align:center' src=img/fixation3.jpg></div><div class='cl'><div class='vertical-center'>$75<br>for<br>jd</div></div><div class='cr'><div class='vertical-center'><font style='color:orange'>$41<br>for<br>yourself</font></div></div><div class='respDivL'><div class='vertical-center'>(E)</div></div><div class='respDivR'><div class='vertical-center'><font style='color:orange'>(I)</font></div></div></div>","null","$41<br>for<br>yourself","$75<br>for<br>3","1","41","75","3",""
"html-keyboard-response","80","383199","0.0-6.0-1.25","61282ca83be28773ac7c421f","bdp_sd","Mon Mar 27 2023 14:06:51 GMT-0400 (Eastern Daylight Time)","392712","","null","","","","","FIX","","<div class='trialBorder'><div class='vertical-center'><img style='vertical-align:center; align:center' src=img/fixation3.jpg></div></div>","null","","","","","","",""
"html-keyboard-response","81","387646","0.0-6.0-2.25","61282ca83be28773ac7c421f","bdp_sd","Mon Mar 27 2023 14:06:51 GMT-0400 (Eastern Daylight Time)","392712","","4445","","","","","offer","","<div class='trialBorder'><div class='vertical-center'><img style='vertical-align:center; align:center' src=img/fixation3.jpg></div><div class='cl'><div class='vertical-center'>$24<br>for<br>yourself</div></div><div class='cr'><div class='vertical-center'>$35<br>for<br>jd</div></div><div class='respDivL'><div class='vertical-center'>(E)</div></div><div class='respDivR'><div class='vertical-center'>(I)</div></div></div>","I","$24<br>for<br>yourself","$35<br>for<br>3","0","24","35","3","OTHER"
"html-keyboard-response","82","387903","0.0-6.0-3.25","61282ca83be28773ac7c421f","bdp_sd","Mon Mar 27 2023 14:06:51 GMT-0400 (Eastern Daylight Time)","392712","","null","","","","","offerFB","","<div class='trialBorder'><div class='vertical-center'><img style='vertical-align:center; align:center' src=img/fixation3.jpg></div><div class='cl'><div class='vertical-center'>$24<br>for<br>yourself</div></div><div class='cr'><div class='vertical-center'><font style='color:orange'>$35<br>for<br>jd</font></div></div><div class='respDivL'><div class='vertical-center'>(E)</div></div><div class='respDivR'><div class='vertical-center'><font style='color:orange'>(I)</font></div></div></div>","null","$24<br>for<br>yourself","$35<br>for<br>3","0","24","35","3",""
"html-keyboard-response","83","388407","0.0-6.0-1.26","61282ca83be28773ac7c421f","bdp_sd","Mon Mar 27 2023 14:06:51 GMT-0400 (Eastern Daylight Time)","392712","","null","","","","","FIX","","<div class='trialBorder'><div class='vertical-center'><img style='vertical-align:center; align:center' src=img/fixation3.jpg></div></div>","null","","","","","","",""
"html-keyboard-response","84","391447","0.0-6.0-2.26","61282ca83be28773ac7c421f","bdp_sd","Mon Mar 27 2023 14:06:51 GMT-0400 (Eastern Daylight Time)","392712","","3038","","","","","offer","","<div class='trialBorder'><div class='vertical-center'><img style='vertical-align:center; align:center' src=img/fixation3.jpg></div><div class='cl'><div class='vertical-center'>$67<br>for<br>yourself</div></div><div class='cr'><div class='vertical-center'>$75<br>for<br>jp</div></div><div class='respDivL'><div class='vertical-center'>(E)</div></div><div class='respDivR'><div class='vertical-center'>(I)</div></div></div>","E","$67<br>for<br>yourself","$75<br>for<br>5","0","67","75","5","SELF"
"html-keyboard-response","85","391704","0.0-6.0-3.26","61282ca83be28773ac7c421f","bdp_sd","Mon Mar 27 2023 14:06:51 GMT-0400 (Eastern Daylight Time)","392712","","null","","","","","offerFB","","<div class='trialBorder'><div class='vertical-center'><img style='vertical-align:center; align:center' src=img/fixation3.jpg></div><div class='cl'><div class='vertical-center'><font style='color:orange'>$67<br>for<br>yourself</font></div></div><div class='cr'><div class='vertical-center'>$75<br>for<br>jp</div></div><div class='respDivL'><div class='vertical-center'><font style='color:orange'>(E)</font></div></div><div class='respDivR'><div class='vertical-center'>(I)</div></div></div>","null","$67<br>for<br>yourself","$75<br>for<br>5","0","67","75","5",""
"","","","","61282ca83be28773ac7c421f","bdp_sd","Mon Mar 27 2023 14:06:51 GMT-0400 (Eastern Daylight Time)","392712","","","","fullscreenexit","86","391726","fullscreenexit","","","","","","","","","",""
"fullscreen","86","392711","0.0-7.0","61282ca83be28773ac7c421f","bdp_sd","Mon Mar 27 2023 14:06:51 GMT-0400 (Eastern Daylight Time)","392712","","","","","","","","true","","","","","","","","",""
"html-keyboard-response","87","393215","0.0-8.0","","","","","","null","","","","","","","","null","","","","","","",""
