"trial_type","trial_index","time_elapsed","internal_node_id","subject_id","task","startTime","totalTime","view_history","rt","responses","event","trial","time","trialtype","success","stimulus","key_press","selfOffer","otherOffer","otherLeft","selfAmt","otherAmt","otherDist","chosen"
"pavlovia","0","25","0.0-0.0","611343092396f1d9ed7018ad","bdp_sd","Sun Apr 16 2023 19:48:02 GMT-0600 (Mountain Daylight Time)","244663","","","","","","","","","","","","","","","","",""
"instructions","1","2008","0.0-1.0","611343092396f1d9ed7018ad","bdp_sd","Sun Apr 16 2023 19:48:02 GMT-0600 (Mountain Daylight Time)","244663","[{""page_index"":0,""viewing_time"":1979}]","1980","","","","","","","","","","","","","","",""
"survey-text","2","99577","0.0-2.0","611343092396f1d9ed7018ad","bdp_sd","Sun Apr 16 2023 19:48:02 GMT-0600 (Mountain Daylight Time)","244663","","97566","{""Q0"":""Jacob B"",""Q1"":""Cailey S"",""Q2"":""Ryan T"",""Q3"":""Sabrina F"",""Q4"":""Nick P""}","","","","","","","","","","","","","",""
"","","","","611343092396f1d9ed7018ad","bdp_sd","Sun Apr 16 2023 19:48:02 GMT-0600 (Mountain Daylight Time)","244663","","","","fullscreenenter","3","101227","fullscreenenter","","","","","","","","","",""
"fullscreen","3","102187","0.0-3.0","611343092396f1d9ed7018ad","bdp_sd","Sun Apr 16 2023 19:48:02 GMT-0600 (Mountain Daylight Time)","244663","","","","","","","","true","","","","","","","","",""
"instructions","4","121210","0.0-5.0","611343092396f1d9ed7018ad","bdp_sd","Sun Apr 16 2023 19:48:02 GMT-0600 (Mountain Daylight Time)","244663","[{""page_index"":0,""viewing_time"":5559},{""page_index"":1,""viewing_time"":9850},{""page_index"":2,""viewing_time"":3609}]","19019","","","","","","","","","","","","","","",""
"html-keyboard-response","5","121717","0.0-6.0-1.0","611343092396f1d9ed7018ad","bdp_sd","Sun Apr 16 2023 19:48:02 GMT-0600 (Mountain Daylight Time)","244663","","null","","","","","FIX","","<div class='trialBorder'><div class='vertical-center'><img style='vertical-align:center; align:center' src=img/fixation3.jpg></div></div>","null","","","","","","",""
"html-keyboard-response","6","126851","0.0-6.0-2.0","611343092396f1d9ed7018ad","bdp_sd","Sun Apr 16 2023 19:48:02 GMT-0600 (Mountain Daylight Time)","244663","","5130","","","","","offer","","<div class='trialBorder'><div class='vertical-center'><img style='vertical-align:center; align:center' src=img/fixation3.jpg></div><div class='cl'><div class='vertical-center'>$20<br>for<br>yourself</div></div><div class='cr'><div class='vertical-center'>$55<br>for<br>Jacob B</div></div><div class='respDivL'><div class='vertical-center'>(E)</div></div><div class='respDivR'><div class='vertical-center'>(I)</div></div></div>","I","$20<br>for<br>yourself","$55<br>for<br>1","0","20","55","1","OTHER"
"html-keyboard-response","7","127107","0.0-6.0-3.0","611343092396f1d9ed7018ad","bdp_sd","Sun Apr 16 2023 19:48:02 GMT-0600 (Mountain Daylight Time)","244663","","null","","","","","offerFB","","<div class='trialBorder'><div class='vertical-center'><img style='vertical-align:center; align:center' src=img/fixation3.jpg></div><div class='cl'><div class='vertical-center'>$20<br>for<br>yourself</div></div><div class='cr'><div class='vertical-center'><font style='color:orange'>$55<br>for<br>Jacob B</font></div></div><div class='respDivL'><div class='vertical-center'>(E)</div></div><div class='respDivR'><div class='vertical-center'><font style='color:orange'>(I)</font></div></div></div>","null","$20<br>for<br>yourself","$55<br>for<br>1","0","20","55","1",""
"html-keyboard-response","8","127611","0.0-6.0-1.1","611343092396f1d9ed7018ad","bdp_sd","Sun Apr 16 2023 19:48:02 GMT-0600 (Mountain Daylight Time)","244663","","null","","","","","FIX","","<div class='trialBorder'><div class='vertical-center'><img style='vertical-align:center; align:center' src=img/fixation3.jpg></div></div>","null","","","","","","",""
"html-keyboard-response","9","130111","0.0-6.0-2.1","611343092396f1d9ed7018ad","bdp_sd","Sun Apr 16 2023 19:48:02 GMT-0600 (Mountain Daylight Time)","244663","","2497","","","","","offer","","<div class='trialBorder'><div class='vertical-center'><img style='vertical-align:center; align:center' src=img/fixation3.jpg></div><div class='cl'><div class='vertical-center'>$28<br>for<br>yourself</div></div><div class='cr'><div class='vertical-center'>$30<br>for<br>Nick P</div></div><div class='respDivL'><div class='vertical-center'>(E)</div></div><div class='respDivR'><div class='vertical-center'>(I)</div></div></div>","E","$28<br>for<br>yourself","$30<br>for<br>5","0","28","30","5","SELF"
"html-keyboard-response","10","130365","0.0-6.0-3.1","611343092396f1d9ed7018ad","bdp_sd","Sun Apr 16 2023 19:48:02 GMT-0600 (Mountain Daylight Time)","244663","","null","","","","","offerFB","","<div class='trialBorder'><div class='vertical-center'><img style='vertical-align:center; align:center' src=img/fixation3.jpg></div><div class='cl'><div class='vertical-center'><font style='color:orange'>$28<br>for<br>yourself</font></div></div><div class='cr'><div class='vertical-center'>$30<br>for<br>Nick P</div></div><div class='respDivL'><div class='vertical-center'><font style='color:orange'>(E)</font></div></div><div class='respDivR'><div class='vertical-center'>(I)</div></div></div>","null","$28<br>for<br>yourself","$30<br>for<br>5","0","28","30","5",""
"html-keyboard-response","11","130868","0.0-6.0-1.2","611343092396f1d9ed7018ad","bdp_sd","Sun Apr 16 2023 19:48:02 GMT-0600 (Mountain Daylight Time)","244663","","null","","","","","FIX","","<div class='trialBorder'><div class='vertical-center'><img style='vertical-align:center; align:center' src=img/fixation3.jpg></div></div>","null","","","","","","",""
"html-keyboard-response","12","138910","0.0-6.0-2.2","611343092396f1d9ed7018ad","bdp_sd","Sun Apr 16 2023 19:48:02 GMT-0600 (Mountain Daylight Time)","244663","","8039","","","","","offer","","<div class='trialBorder'><div class='vertical-center'><img style='vertical-align:center; align:center' src=img/fixation3.jpg></div><div class='cl'><div class='vertical-center'>$54<br>for<br>yourself</div></div><div class='cr'><div class='vertical-center'>$55<br>for<br>Nick P</div></div><div class='respDivL'><div class='vertical-center'>(E)</div></div><div class='respDivR'><div class='vertical-center'>(I)</div></div></div>","I","$54<br>for<br>yourself","$55<br>for<br>5","0","54","55","5","OTHER"
"html-keyboard-response","13","139166","0.0-6.0-3.2","611343092396f1d9ed7018ad","bdp_sd","Sun Apr 16 2023 19:48:02 GMT-0600 (Mountain Daylight Time)","244663","","null","","","","","offerFB","","<div class='trialBorder'><div class='vertical-center'><img style='vertical-align:center; align:center' src=img/fixation3.jpg></div><div class='cl'><div class='vertical-center'>$54<br>for<br>yourself</div></div><div class='cr'><div class='vertical-center'><font style='color:orange'>$55<br>for<br>Nick P</font></div></div><div class='respDivL'><div class='vertical-center'>(E)</div></div><div class='respDivR'><div class='vertical-center'><font style='color:orange'>(I)</font></div></div></div>","null","$54<br>for<br>yourself","$55<br>for<br>5","0","54","55","5",""
"html-keyboard-response","14","139670","0.0-6.0-1.3","611343092396f1d9ed7018ad","bdp_sd","Sun Apr 16 2023 19:48:02 GMT-0600 (Mountain Daylight Time)","244663","","null","","","","","FIX","","<div class='trialBorder'><div class='vertical-center'><img style='vertical-align:center; align:center' src=img/fixation3.jpg></div></div>","null","","","","","","",""
"html-keyboard-response","15","143281","0.0-6.0-2.3","611343092396f1d9ed7018ad","bdp_sd","Sun Apr 16 2023 19:48:02 GMT-0600 (Mountain Daylight Time)","244663","","3609","","","","","offer","","<div class='trialBorder'><div class='vertical-center'><img style='vertical-align:center; align:center' src=img/fixation3.jpg></div><div class='cl'><div class='vertical-center'>$49<br>for<br>yourself</div></div><div class='cr'><div class='vertical-center'>$60<br>for<br>Sabrina F</div></div><div class='respDivL'><div class='vertical-center'>(E)</div></div><div class='respDivR'><div class='vertical-center'>(I)</div></div></div>","I","$49<br>for<br>yourself","$60<br>for<br>4","0","49","60","4","OTHER"
"html-keyboard-response","16","143537","0.0-6.0-3.3","611343092396f1d9ed7018ad","bdp_sd","Sun Apr 16 2023 19:48:02 GMT-0600 (Mountain Daylight Time)","244663","","null","","","","","offerFB","","<div class='trialBorder'><div class='vertical-center'><img style='vertical-align:center; align:center' src=img/fixation3.jpg></div><div class='cl'><div class='vertical-center'>$49<br>for<br>yourself</div></div><div class='cr'><div class='vertical-center'><font style='color:orange'>$60<br>for<br>Sabrina F</font></div></div><div class='respDivL'><div class='vertical-center'>(E)</div></div><div class='respDivR'><div class='vertical-center'><font style='color:orange'>(I)</font></div></div></div>","null","$49<br>for<br>yourself","$60<br>for<br>4","0","49","60","4",""
"html-keyboard-response","17","144040","0.0-6.0-1.4","611343092396f1d9ed7018ad","bdp_sd","Sun Apr 16 2023 19:48:02 GMT-0600 (Mountain Daylight Time)","244663","","null","","","","","FIX","","<div class='trialBorder'><div class='vertical-center'><img style='vertical-align:center; align:center' src=img/fixation3.jpg></div></div>","null","","","","","","",""
"html-keyboard-response","18","147510","0.0-6.0-2.4","611343092396f1d9ed7018ad","bdp_sd","Sun Apr 16 2023 19:48:02 GMT-0600 (Mountain Daylight Time)","244663","","3466","","","","","offer","","<div class='trialBorder'><div class='vertical-center'><img style='vertical-align:center; align:center' src=img/fixation3.jpg></div><div class='cl'><div class='vertical-center'>$27<br>for<br>yourself</div></div><div class='cr'><div class='vertical-center'>$50<br>for<br>Ryan T</div></div><div class='respDivL'><div class='vertical-center'>(E)</div></div><div class='respDivR'><div class='vertical-center'>(I)</div></div></div>","I","$27<br>for<br>yourself","$50<br>for<br>3","0","27","50","3","OTHER"
"html-keyboard-response","19","147767","0.0-6.0-3.4","611343092396f1d9ed7018ad","bdp_sd","Sun Apr 16 2023 19:48:02 GMT-0600 (Mountain Daylight Time)","244663","","null","","","","","offerFB","","<div class='trialBorder'><div class='vertical-center'><img style='vertical-align:center; align:center' src=img/fixation3.jpg></div><div class='cl'><div class='vertical-center'>$27<br>for<br>yourself</div></div><div class='cr'><div class='vertical-center'><font style='color:orange'>$50<br>for<br>Ryan T</font></div></div><div class='respDivL'><div class='vertical-center'>(E)</div></div><div class='respDivR'><div class='vertical-center'><font style='color:orange'>(I)</font></div></div></div>","null","$27<br>for<br>yourself","$50<br>for<br>3","0","27","50","3",""
"html-keyboard-response","20","148273","0.0-6.0-1.5","611343092396f1d9ed7018ad","bdp_sd","Sun Apr 16 2023 19:48:02 GMT-0600 (Mountain Daylight Time)","244663","","null","","","","","FIX","","<div class='trialBorder'><div class='vertical-center'><img style='vertical-align:center; align:center' src=img/fixation3.jpg></div></div>","null","","","","","","",""
"html-keyboard-response","21","154302","0.0-6.0-2.5","611343092396f1d9ed7018ad","bdp_sd","Sun Apr 16 2023 19:48:02 GMT-0600 (Mountain Daylight Time)","244663","","6025","","","","","offer","","<div class='trialBorder'><div class='vertical-center'><img style='vertical-align:center; align:center' src=img/fixation3.jpg></div><div class='cl'><div class='vertical-center'>$11<br>for<br>yourself</div></div><div class='cr'><div class='vertical-center'>$30<br>for<br>Cailey S</div></div><div class='respDivL'><div class='vertical-center'>(E)</div></div><div class='respDivR'><div class='vertical-center'>(I)</div></div></div>","I","$11<br>for<br>yourself","$30<br>for<br>2","0","11","30","2","OTHER"
"html-keyboard-response","22","154557","0.0-6.0-3.5","611343092396f1d9ed7018ad","bdp_sd","Sun Apr 16 2023 19:48:02 GMT-0600 (Mountain Daylight Time)","244663","","null","","","","","offerFB","","<div class='trialBorder'><div class='vertical-center'><img style='vertical-align:center; align:center' src=img/fixation3.jpg></div><div class='cl'><div class='vertical-center'>$11<br>for<br>yourself</div></div><div class='cr'><div class='vertical-center'><font style='color:orange'>$30<br>for<br>Cailey S</font></div></div><div class='respDivL'><div class='vertical-center'>(E)</div></div><div class='respDivR'><div class='vertical-center'><font style='color:orange'>(I)</font></div></div></div>","null","$11<br>for<br>yourself","$30<br>for<br>2","0","11","30","2",""
"html-keyboard-response","23","155060","0.0-6.0-1.6","611343092396f1d9ed7018ad","bdp_sd","Sun Apr 16 2023 19:48:02 GMT-0600 (Mountain Daylight Time)","244663","","null","","","","","FIX","","<div class='trialBorder'><div class='vertical-center'><img style='vertical-align:center; align:center' src=img/fixation3.jpg></div></div>","null","","","","","","",""
"html-keyboard-response","24","158511","0.0-6.0-2.6","611343092396f1d9ed7018ad","bdp_sd","Sun Apr 16 2023 19:48:02 GMT-0600 (Mountain Daylight Time)","244663","","3448","","","","","offer","","<div class='trialBorder'><div class='vertical-center'><img style='vertical-align:center; align:center' src=img/fixation3.jpg></div><div class='cl'><div class='vertical-center'>$25<br>for<br>yourself</div></div><div class='cr'><div class='vertical-center'>$60<br>for<br>Ryan T</div></div><div class='respDivL'><div class='vertical-center'>(E)</div></div><div class='respDivR'><div class='vertical-center'>(I)</div></div></div>","I","$25<br>for<br>yourself","$60<br>for<br>3","0","25","60","3","OTHER"
"html-keyboard-response","25","158769","0.0-6.0-3.6","611343092396f1d9ed7018ad","bdp_sd","Sun Apr 16 2023 19:48:02 GMT-0600 (Mountain Daylight Time)","244663","","null","","","","","offerFB","","<div class='trialBorder'><div class='vertical-center'><img style='vertical-align:center; align:center' src=img/fixation3.jpg></div><div class='cl'><div class='vertical-center'>$25<br>for<br>yourself</div></div><div class='cr'><div class='vertical-center'><font style='color:orange'>$60<br>for<br>Ryan T</font></div></div><div class='respDivL'><div class='vertical-center'>(E)</div></div><div class='respDivR'><div class='vertical-center'><font style='color:orange'>(I)</font></div></div></div>","null","$25<br>for<br>yourself","$60<br>for<br>3","0","25","60","3",""
"html-keyboard-response","26","159272","0.0-6.0-1.7","611343092396f1d9ed7018ad","bdp_sd","Sun Apr 16 2023 19:48:02 GMT-0600 (Mountain Daylight Time)","244663","","null","","","","","FIX","","<div class='trialBorder'><div class='vertical-center'><img style='vertical-align:center; align:center' src=img/fixation3.jpg></div></div>","null","","","","","","",""
"html-keyboard-response","27","164191","0.0-6.0-2.7","611343092396f1d9ed7018ad","bdp_sd","Sun Apr 16 2023 19:48:02 GMT-0600 (Mountain Daylight Time)","244663","","4916","","","","","offer","","<div class='trialBorder'><div class='vertical-center'><img style='vertical-align:center; align:center' src=img/fixation3.jpg></div><div class='cl'><div class='vertical-center'>$25<br>for<br>Ryan T</div></div><div class='cr'><div class='vertical-center'>$14<br>for<br>yourself</div></div><div class='respDivL'><div class='vertical-center'>(E)</div></div><div class='respDivR'><div class='vertical-center'>(I)</div></div></div>","I","$14<br>for<br>yourself","$25<br>for<br>3","1","14","25","3","SELF"
"html-keyboard-response","28","164446","0.0-6.0-3.7","611343092396f1d9ed7018ad","bdp_sd","Sun Apr 16 2023 19:48:02 GMT-0600 (Mountain Daylight Time)","244663","","null","","","","","offerFB","","<div class='trialBorder'><div class='vertical-center'><img style='vertical-align:center; align:center' src=img/fixation3.jpg></div><div class='cl'><div class='vertical-center'>$25<br>for<br>Ryan T</div></div><div class='cr'><div class='vertical-center'><font style='color:orange'>$14<br>for<br>yourself</font></div></div><div class='respDivL'><div class='vertical-center'>(E)</div></div><div class='respDivR'><div class='vertical-center'><font style='color:orange'>(I)</font></div></div></div>","null","$14<br>for<br>yourself","$25<br>for<br>3","1","14","25","3",""
"html-keyboard-response","29","164951","0.0-6.0-1.8","611343092396f1d9ed7018ad","bdp_sd","Sun Apr 16 2023 19:48:02 GMT-0600 (Mountain Daylight Time)","244663","","null","","","","","FIX","","<div class='trialBorder'><div class='vertical-center'><img style='vertical-align:center; align:center' src=img/fixation3.jpg></div></div>","null","","","","","","",""
"html-keyboard-response","30","167662","0.0-6.0-2.8","611343092396f1d9ed7018ad","bdp_sd","Sun Apr 16 2023 19:48:02 GMT-0600 (Mountain Daylight Time)","244663","","2708","","","","","offer","","<div class='trialBorder'><div class='vertical-center'><img style='vertical-align:center; align:center' src=img/fixation3.jpg></div><div class='cl'><div class='vertical-center'>$35<br>for<br>Nick P</div></div><div class='cr'><div class='vertical-center'>$34<br>for<br>yourself</div></div><div class='respDivL'><div class='vertical-center'>(E)</div></div><div class='respDivR'><div class='vertical-center'>(I)</div></div></div>","I","$34<br>for<br>yourself","$35<br>for<br>5","1","34","35","5","SELF"
"html-keyboard-response","31","167919","0.0-6.0-3.8","611343092396f1d9ed7018ad","bdp_sd","Sun Apr 16 2023 19:48:02 GMT-0600 (Mountain Daylight Time)","244663","","null","","","","","offerFB","","<div class='trialBorder'><div class='vertical-center'><img style='vertical-align:center; align:center' src=img/fixation3.jpg></div><div class='cl'><div class='vertical-center'>$35<br>for<br>Nick P</div></div><div class='cr'><div class='vertical-center'><font style='color:orange'>$34<br>for<br>yourself</font></div></div><div class='respDivL'><div class='vertical-center'>(E)</div></div><div class='respDivR'><div class='vertical-center'><font style='color:orange'>(I)</font></div></div></div>","null","$34<br>for<br>yourself","$35<br>for<br>5","1","34","35","5",""
"html-keyboard-response","32","168422","0.0-6.0-1.9","611343092396f1d9ed7018ad","bdp_sd","Sun Apr 16 2023 19:48:02 GMT-0600 (Mountain Daylight Time)","244663","","null","","","","","FIX","","<div class='trialBorder'><div class='vertical-center'><img style='vertical-align:center; align:center' src=img/fixation3.jpg></div></div>","null","","","","","","",""
"html-keyboard-response","33","171661","0.0-6.0-2.9","611343092396f1d9ed7018ad","bdp_sd","Sun Apr 16 2023 19:48:02 GMT-0600 (Mountain Daylight Time)","244663","","3236","","","","","offer","","<div class='trialBorder'><div class='vertical-center'><img style='vertical-align:center; align:center' src=img/fixation3.jpg></div><div class='cl'><div class='vertical-center'>$25<br>for<br>Nick P</div></div><div class='cr'><div class='vertical-center'>$22<br>for<br>yourself</div></div><div class='respDivL'><div class='vertical-center'>(E)</div></div><div class='respDivR'><div class='vertical-center'>(I)</div></div></div>","I","$22<br>for<br>yourself","$25<br>for<br>5","1","22","25","5","SELF"
"html-keyboard-response","34","171915","0.0-6.0-3.9","611343092396f1d9ed7018ad","bdp_sd","Sun Apr 16 2023 19:48:02 GMT-0600 (Mountain Daylight Time)","244663","","null","","","","","offerFB","","<div class='trialBorder'><div class='vertical-center'><img style='vertical-align:center; align:center' src=img/fixation3.jpg></div><div class='cl'><div class='vertical-center'>$25<br>for<br>Nick P</div></div><div class='cr'><div class='vertical-center'><font style='color:orange'>$22<br>for<br>yourself</font></div></div><div class='respDivL'><div class='vertical-center'>(E)</div></div><div class='respDivR'><div class='vertical-center'><font style='color:orange'>(I)</font></div></div></div>","null","$22<br>for<br>yourself","$25<br>for<br>5","1","22","25","5",""
"html-keyboard-response","35","172419","0.0-6.0-1.10","611343092396f1d9ed7018ad","bdp_sd","Sun Apr 16 2023 19:48:02 GMT-0600 (Mountain Daylight Time)","244663","","null","","","","","FIX","","<div class='trialBorder'><div class='vertical-center'><img style='vertical-align:center; align:center' src=img/fixation3.jpg></div></div>","null","","","","","","",""
"html-keyboard-response","36","174591","0.0-6.0-2.10","611343092396f1d9ed7018ad","bdp_sd","Sun Apr 16 2023 19:48:02 GMT-0600 (Mountain Daylight Time)","244663","","2169","","","","","offer","","<div class='trialBorder'><div class='vertical-center'><img style='vertical-align:center; align:center' src=img/fixation3.jpg></div><div class='cl'><div class='vertical-center'>$80<br>for<br>Ryan T</div></div><div class='cr'><div class='vertical-center'>$54<br>for<br>yourself</div></div><div class='respDivL'><div class='vertical-center'>(E)</div></div><div class='respDivR'><div class='vertical-center'>(I)</div></div></div>","E","$54<br>for<br>yourself","$80<br>for<br>3","1","54","80","3","OTHER"
"html-keyboard-response","37","174845","0.0-6.0-3.10","611343092396f1d9ed7018ad","bdp_sd","Sun Apr 16 2023 19:48:02 GMT-0600 (Mountain Daylight Time)","244663","","null","","","","","offerFB","","<div class='trialBorder'><div class='vertical-center'><img style='vertical-align:center; align:center' src=img/fixation3.jpg></div><div class='cl'><div class='vertical-center'><font style='color:orange'>$80<br>for<br>Ryan T</font></div></div><div class='cr'><div class='vertical-center'>$54<br>for<br>yourself</div></div><div class='respDivL'><div class='vertical-center'><font style='color:orange'>(E)</font></div></div><div class='respDivR'><div class='vertical-center'>(I)</div></div></div>","null","$54<br>for<br>yourself","$80<br>for<br>3","1","54","80","3",""
"html-keyboard-response","38","175349","0.0-6.0-1.11","611343092396f1d9ed7018ad","bdp_sd","Sun Apr 16 2023 19:48:02 GMT-0600 (Mountain Daylight Time)","244663","","null","","","","","FIX","","<div class='trialBorder'><div class='vertical-center'><img style='vertical-align:center; align:center' src=img/fixation3.jpg></div></div>","null","","","","","","",""
"html-keyboard-response","39","178782","0.0-6.0-2.11","611343092396f1d9ed7018ad","bdp_sd","Sun Apr 16 2023 19:48:02 GMT-0600 (Mountain Daylight Time)","244663","","3431","","","","","offer","","<div class='trialBorder'><div class='vertical-center'><img style='vertical-align:center; align:center' src=img/fixation3.jpg></div><div class='cl'><div class='vertical-center'>$35<br>for<br>Ryan T</div></div><div class='cr'><div class='vertical-center'>$24<br>for<br>yourself</div></div><div class='respDivL'><div class='vertical-center'>(E)</div></div><div class='respDivR'><div class='vertical-center'>(I)</div></div></div>","I","$24<br>for<br>yourself","$35<br>for<br>3","1","24","35","3","SELF"
"html-keyboard-response","40","179037","0.0-6.0-3.11","611343092396f1d9ed7018ad","bdp_sd","Sun Apr 16 2023 19:48:02 GMT-0600 (Mountain Daylight Time)","244663","","null","","","","","offerFB","","<div class='trialBorder'><div class='vertical-center'><img style='vertical-align:center; align:center' src=img/fixation3.jpg></div><div class='cl'><div class='vertical-center'>$35<br>for<br>Ryan T</div></div><div class='cr'><div class='vertical-center'><font style='color:orange'>$24<br>for<br>yourself</font></div></div><div class='respDivL'><div class='vertical-center'>(E)</div></div><div class='respDivR'><div class='vertical-center'><font style='color:orange'>(I)</font></div></div></div>","null","$24<br>for<br>yourself","$35<br>for<br>3","1","24","35","3",""
"html-keyboard-response","41","179540","0.0-6.0-1.12","611343092396f1d9ed7018ad","bdp_sd","Sun Apr 16 2023 19:48:02 GMT-0600 (Mountain Daylight Time)","244663","","null","","","","","FIX","","<div class='trialBorder'><div class='vertical-center'><img style='vertical-align:center; align:center' src=img/fixation3.jpg></div></div>","null","","","","","","",""
"html-keyboard-response","42","182202","0.0-6.0-2.12","611343092396f1d9ed7018ad","bdp_sd","Sun Apr 16 2023 19:48:02 GMT-0600 (Mountain Daylight Time)","244663","","2657","","","","","offer","","<div class='trialBorder'><div class='vertical-center'><img style='vertical-align:center; align:center' src=img/fixation3.jpg></div><div class='cl'><div class='vertical-center'>$35<br>for<br>Cailey S</div></div><div class='cr'><div class='vertical-center'>$15<br>for<br>yourself</div></div><div class='respDivL'><div class='vertical-center'>(E)</div></div><div class='respDivR'><div class='vertical-center'>(I)</div></div></div>","E","$15<br>for<br>yourself","$35<br>for<br>2","1","15","35","2","OTHER"
"html-keyboard-response","43","182458","0.0-6.0-3.12","611343092396f1d9ed7018ad","bdp_sd","Sun Apr 16 2023 19:48:02 GMT-0600 (Mountain Daylight Time)","244663","","null","","","","","offerFB","","<div class='trialBorder'><div class='vertical-center'><img style='vertical-align:center; align:center' src=img/fixation3.jpg></div><div class='cl'><div class='vertical-center'><font style='color:orange'>$35<br>for<br>Cailey S</font></div></div><div class='cr'><div class='vertical-center'>$15<br>for<br>yourself</div></div><div class='respDivL'><div class='vertical-center'><font style='color:orange'>(E)</font></div></div><div class='respDivR'><div class='vertical-center'>(I)</div></div></div>","null","$15<br>for<br>yourself","$35<br>for<br>2","1","15","35","2",""
"html-keyboard-response","44","182960","0.0-6.0-1.13","611343092396f1d9ed7018ad","bdp_sd","Sun Apr 16 2023 19:48:02 GMT-0600 (Mountain Daylight Time)","244663","","null","","","","","FIX","","<div class='trialBorder'><div class='vertical-center'><img style='vertical-align:center; align:center' src=img/fixation3.jpg></div></div>","null","","","","","","",""
"html-keyboard-response","45","185572","0.0-6.0-2.13","611343092396f1d9ed7018ad","bdp_sd","Sun Apr 16 2023 19:48:02 GMT-0600 (Mountain Daylight Time)","244663","","2609","","","","","offer","","<div class='trialBorder'><div class='vertical-center'><img style='vertical-align:center; align:center' src=img/fixation3.jpg></div><div class='cl'><div class='vertical-center'>$40<br>for<br>yourself</div></div><div class='cr'><div class='vertical-center'>$55<br>for<br>Sabrina F</div></div><div class='respDivL'><div class='vertical-center'>(E)</div></div><div class='respDivR'><div class='vertical-center'>(I)</div></div></div>","E","$40<br>for<br>yourself","$55<br>for<br>4","0","40","55","4","SELF"
"html-keyboard-response","46","185827","0.0-6.0-3.13","611343092396f1d9ed7018ad","bdp_sd","Sun Apr 16 2023 19:48:02 GMT-0600 (Mountain Daylight Time)","244663","","null","","","","","offerFB","","<div class='trialBorder'><div class='vertical-center'><img style='vertical-align:center; align:center' src=img/fixation3.jpg></div><div class='cl'><div class='vertical-center'><font style='color:orange'>$40<br>for<br>yourself</font></div></div><div class='cr'><div class='vertical-center'>$55<br>for<br>Sabrina F</div></div><div class='respDivL'><div class='vertical-center'><font style='color:orange'>(E)</font></div></div><div class='respDivR'><div class='vertical-center'>(I)</div></div></div>","null","$40<br>for<br>yourself","$55<br>for<br>4","0","40","55","4",""
"html-keyboard-response","47","186330","0.0-6.0-1.14","611343092396f1d9ed7018ad","bdp_sd","Sun Apr 16 2023 19:48:02 GMT-0600 (Mountain Daylight Time)","244663","","null","","","","","FIX","","<div class='trialBorder'><div class='vertical-center'><img style='vertical-align:center; align:center' src=img/fixation3.jpg></div></div>","null","","","","","","",""
"html-keyboard-response","48","189463","0.0-6.0-2.14","611343092396f1d9ed7018ad","bdp_sd","Sun Apr 16 2023 19:48:02 GMT-0600 (Mountain Daylight Time)","244663","","3130","","","","","offer","","<div class='trialBorder'><div class='vertical-center'><img style='vertical-align:center; align:center' src=img/fixation3.jpg></div><div class='cl'><div class='vertical-center'>$50<br>for<br>Sabrina F</div></div><div class='cr'><div class='vertical-center'>$34<br>for<br>yourself</div></div><div class='respDivL'><div class='vertical-center'>(E)</div></div><div class='respDivR'><div class='vertical-center'>(I)</div></div></div>","E","$34<br>for<br>yourself","$50<br>for<br>4","1","34","50","4","OTHER"
"html-keyboard-response","49","189719","0.0-6.0-3.14","611343092396f1d9ed7018ad","bdp_sd","Sun Apr 16 2023 19:48:02 GMT-0600 (Mountain Daylight Time)","244663","","null","","","","","offerFB","","<div class='trialBorder'><div class='vertical-center'><img style='vertical-align:center; align:center' src=img/fixation3.jpg></div><div class='cl'><div class='vertical-center'><font style='color:orange'>$50<br>for<br>Sabrina F</font></div></div><div class='cr'><div class='vertical-center'>$34<br>for<br>yourself</div></div><div class='respDivL'><div class='vertical-center'><font style='color:orange'>(E)</font></div></div><div class='respDivR'><div class='vertical-center'>(I)</div></div></div>","null","$34<br>for<br>yourself","$50<br>for<br>4","1","34","50","4",""
"html-keyboard-response","50","190222","0.0-6.0-1.15","611343092396f1d9ed7018ad","bdp_sd","Sun Apr 16 2023 19:48:02 GMT-0600 (Mountain Daylight Time)","244663","","null","","","","","FIX","","<div class='trialBorder'><div class='vertical-center'><img style='vertical-align:center; align:center' src=img/fixation3.jpg></div></div>","null","","","","","","",""
"html-keyboard-response","51","194002","0.0-6.0-2.15","611343092396f1d9ed7018ad","bdp_sd","Sun Apr 16 2023 19:48:02 GMT-0600 (Mountain Daylight Time)","244663","","3777","","","","","offer","","<div class='trialBorder'><div class='vertical-center'><img style='vertical-align:center; align:center' src=img/fixation3.jpg></div><div class='cl'><div class='vertical-center'>$19<br>for<br>yourself</div></div><div class='cr'><div class='vertical-center'>$25<br>for<br>Sabrina F</div></div><div class='respDivL'><div class='vertical-center'>(E)</div></div><div class='respDivR'><div class='vertical-center'>(I)</div></div></div>","E","$19<br>for<br>yourself","$25<br>for<br>4","0","19","25","4","SELF"
"html-keyboard-response","52","194258","0.0-6.0-3.15","611343092396f1d9ed7018ad","bdp_sd","Sun Apr 16 2023 19:48:02 GMT-0600 (Mountain Daylight Time)","244663","","null","","","","","offerFB","","<div class='trialBorder'><div class='vertical-center'><img style='vertical-align:center; align:center' src=img/fixation3.jpg></div><div class='cl'><div class='vertical-center'><font style='color:orange'>$19<br>for<br>yourself</font></div></div><div class='cr'><div class='vertical-center'>$25<br>for<br>Sabrina F</div></div><div class='respDivL'><div class='vertical-center'><font style='color:orange'>(E)</font></div></div><div class='respDivR'><div class='vertical-center'>(I)</div></div></div>","null","$19<br>for<br>yourself","$25<br>for<br>4","0","19","25","4",""
"html-keyboard-response","53","194760","0.0-6.0-1.16","611343092396f1d9ed7018ad","bdp_sd","Sun Apr 16 2023 19:48:02 GMT-0600 (Mountain Daylight Time)","244663","","null","","","","","FIX","","<div class='trialBorder'><div class='vertical-center'><img style='vertical-align:center; align:center' src=img/fixation3.jpg></div></div>","null","","","","","","",""
"html-keyboard-response","54","198313","0.0-6.0-2.16","611343092396f1d9ed7018ad","bdp_sd","Sun Apr 16 2023 19:48:02 GMT-0600 (Mountain Daylight Time)","244663","","3549","","","","","offer","","<div class='trialBorder'><div class='vertical-center'><img style='vertical-align:center; align:center' src=img/fixation3.jpg></div><div class='cl'><div class='vertical-center'>$75<br>for<br>Sabrina F</div></div><div class='cr'><div class='vertical-center'>$55<br>for<br>yourself</div></div><div class='respDivL'><div class='vertical-center'>(E)</div></div><div class='respDivR'><div class='vertical-center'>(I)</div></div></div>","E","$55<br>for<br>yourself","$75<br>for<br>4","1","55","75","4","OTHER"
"html-keyboard-response","55","198567","0.0-6.0-3.16","611343092396f1d9ed7018ad","bdp_sd","Sun Apr 16 2023 19:48:02 GMT-0600 (Mountain Daylight Time)","244663","","null","","","","","offerFB","","<div class='trialBorder'><div class='vertical-center'><img style='vertical-align:center; align:center' src=img/fixation3.jpg></div><div class='cl'><div class='vertical-center'><font style='color:orange'>$75<br>for<br>Sabrina F</font></div></div><div class='cr'><div class='vertical-center'>$55<br>for<br>yourself</div></div><div class='respDivL'><div class='vertical-center'><font style='color:orange'>(E)</font></div></div><div class='respDivR'><div class='vertical-center'>(I)</div></div></div>","null","$55<br>for<br>yourself","$75<br>for<br>4","1","55","75","4",""
"html-keyboard-response","56","199072","0.0-6.0-1.17","611343092396f1d9ed7018ad","bdp_sd","Sun Apr 16 2023 19:48:02 GMT-0600 (Mountain Daylight Time)","244663","","null","","","","","FIX","","<div class='trialBorder'><div class='vertical-center'><img style='vertical-align:center; align:center' src=img/fixation3.jpg></div></div>","null","","","","","","",""
"html-keyboard-response","57","200563","0.0-6.0-2.17","611343092396f1d9ed7018ad","bdp_sd","Sun Apr 16 2023 19:48:02 GMT-0600 (Mountain Daylight Time)","244663","","1488","","","","","offer","","<div class='trialBorder'><div class='vertical-center'><img style='vertical-align:center; align:center' src=img/fixation3.jpg></div><div class='cl'><div class='vertical-center'>$30<br>for<br>Sabrina F</div></div><div class='cr'><div class='vertical-center'>$25<br>for<br>yourself</div></div><div class='respDivL'><div class='vertical-center'>(E)</div></div><div class='respDivR'><div class='vertical-center'>(I)</div></div></div>","I","$25<br>for<br>yourself","$30<br>for<br>4","1","25","30","4","SELF"
"html-keyboard-response","58","200817","0.0-6.0-3.17","611343092396f1d9ed7018ad","bdp_sd","Sun Apr 16 2023 19:48:02 GMT-0600 (Mountain Daylight Time)","244663","","null","","","","","offerFB","","<div class='trialBorder'><div class='vertical-center'><img style='vertical-align:center; align:center' src=img/fixation3.jpg></div><div class='cl'><div class='vertical-center'>$30<br>for<br>Sabrina F</div></div><div class='cr'><div class='vertical-center'><font style='color:orange'>$25<br>for<br>yourself</font></div></div><div class='respDivL'><div class='vertical-center'>(E)</div></div><div class='respDivR'><div class='vertical-center'><font style='color:orange'>(I)</font></div></div></div>","null","$25<br>for<br>yourself","$30<br>for<br>4","1","25","30","4",""
"html-keyboard-response","59","201320","0.0-6.0-1.18","611343092396f1d9ed7018ad","bdp_sd","Sun Apr 16 2023 19:48:02 GMT-0600 (Mountain Daylight Time)","244663","","null","","","","","FIX","","<div class='trialBorder'><div class='vertical-center'><img style='vertical-align:center; align:center' src=img/fixation3.jpg></div></div>","null","","","","","","",""
"html-keyboard-response","60","204172","0.0-6.0-2.18","611343092396f1d9ed7018ad","bdp_sd","Sun Apr 16 2023 19:48:02 GMT-0600 (Mountain Daylight Time)","244663","","2849","","","","","offer","","<div class='trialBorder'><div class='vertical-center'><img style='vertical-align:center; align:center' src=img/fixation3.jpg></div><div class='cl'><div class='vertical-center'>$85<br>for<br>Nick P</div></div><div class='cr'><div class='vertical-center'>$80<br>for<br>yourself</div></div><div class='respDivL'><div class='vertical-center'>(E)</div></div><div class='respDivR'><div class='vertical-center'>(I)</div></div></div>","I","$80<br>for<br>yourself","$85<br>for<br>5","1","80","85","5","SELF"
"html-keyboard-response","61","204426","0.0-6.0-3.18","611343092396f1d9ed7018ad","bdp_sd","Sun Apr 16 2023 19:48:02 GMT-0600 (Mountain Daylight Time)","244663","","null","","","","","offerFB","","<div class='trialBorder'><div class='vertical-center'><img style='vertical-align:center; align:center' src=img/fixation3.jpg></div><div class='cl'><div class='vertical-center'>$85<br>for<br>Nick P</div></div><div class='cr'><div class='vertical-center'><font style='color:orange'>$80<br>for<br>yourself</font></div></div><div class='respDivL'><div class='vertical-center'>(E)</div></div><div class='respDivR'><div class='vertical-center'><font style='color:orange'>(I)</font></div></div></div>","null","$80<br>for<br>yourself","$85<br>for<br>5","1","80","85","5",""
"html-keyboard-response","62","204929","0.0-6.0-1.19","611343092396f1d9ed7018ad","bdp_sd","Sun Apr 16 2023 19:48:02 GMT-0600 (Mountain Daylight Time)","244663","","null","","","","","FIX","","<div class='trialBorder'><div class='vertical-center'><img style='vertical-align:center; align:center' src=img/fixation3.jpg></div></div>","null","","","","","","",""
"html-keyboard-response","63","210522","0.0-6.0-2.19","611343092396f1d9ed7018ad","bdp_sd","Sun Apr 16 2023 19:48:02 GMT-0600 (Mountain Daylight Time)","244663","","5590","","","","","offer","","<div class='trialBorder'><div class='vertical-center'><img style='vertical-align:center; align:center' src=img/fixation3.jpg></div><div class='cl'><div class='vertical-center'>$69<br>for<br>yourself</div></div><div class='cr'><div class='vertical-center'>$85<br>for<br>Sabrina F</div></div><div class='respDivL'><div class='vertical-center'>(E)</div></div><div class='respDivR'><div class='vertical-center'>(I)</div></div></div>","I","$69<br>for<br>yourself","$85<br>for<br>4","0","69","85","4","OTHER"
"html-keyboard-response","64","210777","0.0-6.0-3.19","611343092396f1d9ed7018ad","bdp_sd","Sun Apr 16 2023 19:48:02 GMT-0600 (Mountain Daylight Time)","244663","","null","","","","","offerFB","","<div class='trialBorder'><div class='vertical-center'><img style='vertical-align:center; align:center' src=img/fixation3.jpg></div><div class='cl'><div class='vertical-center'>$69<br>for<br>yourself</div></div><div class='cr'><div class='vertical-center'><font style='color:orange'>$85<br>for<br>Sabrina F</font></div></div><div class='respDivL'><div class='vertical-center'>(E)</div></div><div class='respDivR'><div class='vertical-center'><font style='color:orange'>(I)</font></div></div></div>","null","$69<br>for<br>yourself","$85<br>for<br>4","0","69","85","4",""
"html-keyboard-response","65","211281","0.0-6.0-1.20","611343092396f1d9ed7018ad","bdp_sd","Sun Apr 16 2023 19:48:02 GMT-0600 (Mountain Daylight Time)","244663","","null","","","","","FIX","","<div class='trialBorder'><div class='vertical-center'><img style='vertical-align:center; align:center' src=img/fixation3.jpg></div></div>","null","","","","","","",""
"html-keyboard-response","66","213323","0.0-6.0-2.20","611343092396f1d9ed7018ad","bdp_sd","Sun Apr 16 2023 19:48:02 GMT-0600 (Mountain Daylight Time)","244663","","2039","","","","","offer","","<div class='trialBorder'><div class='vertical-center'><img style='vertical-align:center; align:center' src=img/fixation3.jpg></div><div class='cl'><div class='vertical-center'>$78<br>for<br>yourself</div></div><div class='cr'><div class='vertical-center'>$80<br>for<br>Nick P</div></div><div class='respDivL'><div class='vertical-center'>(E)</div></div><div class='respDivR'><div class='vertical-center'>(I)</div></div></div>","E","$78<br>for<br>yourself","$80<br>for<br>5","0","78","80","5","SELF"
"html-keyboard-response","67","213578","0.0-6.0-3.20","611343092396f1d9ed7018ad","bdp_sd","Sun Apr 16 2023 19:48:02 GMT-0600 (Mountain Daylight Time)","244663","","null","","","","","offerFB","","<div class='trialBorder'><div class='vertical-center'><img style='vertical-align:center; align:center' src=img/fixation3.jpg></div><div class='cl'><div class='vertical-center'><font style='color:orange'>$78<br>for<br>yourself</font></div></div><div class='cr'><div class='vertical-center'>$80<br>for<br>Nick P</div></div><div class='respDivL'><div class='vertical-center'><font style='color:orange'>(E)</font></div></div><div class='respDivR'><div class='vertical-center'>(I)</div></div></div>","null","$78<br>for<br>yourself","$80<br>for<br>5","0","78","80","5",""
"html-keyboard-response","68","214082","0.0-6.0-1.21","611343092396f1d9ed7018ad","bdp_sd","Sun Apr 16 2023 19:48:02 GMT-0600 (Mountain Daylight Time)","244663","","null","","","","","FIX","","<div class='trialBorder'><div class='vertical-center'><img style='vertical-align:center; align:center' src=img/fixation3.jpg></div></div>","null","","","","","","",""
"html-keyboard-response","69","222193","0.0-6.0-2.21","611343092396f1d9ed7018ad","bdp_sd","Sun Apr 16 2023 19:48:02 GMT-0600 (Mountain Daylight Time)","244663","","8109","","","","","offer","","<div class='trialBorder'><div class='vertical-center'><img style='vertical-align:center; align:center' src=img/fixation3.jpg></div><div class='cl'><div class='vertical-center'>$60<br>for<br>Nick P</div></div><div class='cr'><div class='vertical-center'>$54<br>for<br>yourself</div></div><div class='respDivL'><div class='vertical-center'>(E)</div></div><div class='respDivR'><div class='vertical-center'>(I)</div></div></div>","E","$54<br>for<br>yourself","$60<br>for<br>5","1","54","60","5","OTHER"
"html-keyboard-response","70","222448","0.0-6.0-3.21","611343092396f1d9ed7018ad","bdp_sd","Sun Apr 16 2023 19:48:02 GMT-0600 (Mountain Daylight Time)","244663","","null","","","","","offerFB","","<div class='trialBorder'><div class='vertical-center'><img style='vertical-align:center; align:center' src=img/fixation3.jpg></div><div class='cl'><div class='vertical-center'><font style='color:orange'>$60<br>for<br>Nick P</font></div></div><div class='cr'><div class='vertical-center'>$54<br>for<br>yourself</div></div><div class='respDivL'><div class='vertical-center'><font style='color:orange'>(E)</font></div></div><div class='respDivR'><div class='vertical-center'>(I)</div></div></div>","null","$54<br>for<br>yourself","$60<br>for<br>5","1","54","60","5",""
"html-keyboard-response","71","222951","0.0-6.0-1.22","611343092396f1d9ed7018ad","bdp_sd","Sun Apr 16 2023 19:48:02 GMT-0600 (Mountain Daylight Time)","244663","","null","","","","","FIX","","<div class='trialBorder'><div class='vertical-center'><img style='vertical-align:center; align:center' src=img/fixation3.jpg></div></div>","null","","","","","","",""
"html-keyboard-response","72","225373","0.0-6.0-2.22","611343092396f1d9ed7018ad","bdp_sd","Sun Apr 16 2023 19:48:02 GMT-0600 (Mountain Daylight Time)","244663","","2420","","","","","offer","","<div class='trialBorder'><div class='vertical-center'><img style='vertical-align:center; align:center' src=img/fixation3.jpg></div><div class='cl'><div class='vertical-center'>$41<br>for<br>yourself</div></div><div class='cr'><div class='vertical-center'>$75<br>for<br>Ryan T</div></div><div class='respDivL'><div class='vertical-center'>(E)</div></div><div class='respDivR'><div class='vertical-center'>(I)</div></div></div>","I","$41<br>for<br>yourself","$75<br>for<br>3","0","41","75","3","OTHER"
"html-keyboard-response","73","225629","0.0-6.0-3.22","611343092396f1d9ed7018ad","bdp_sd","Sun Apr 16 2023 19:48:02 GMT-0600 (Mountain Daylight Time)","244663","","null","","","","","offerFB","","<div class='trialBorder'><div class='vertical-center'><img style='vertical-align:center; align:center' src=img/fixation3.jpg></div><div class='cl'><div class='vertical-center'>$41<br>for<br>yourself</div></div><div class='cr'><div class='vertical-center'><font style='color:orange'>$75<br>for<br>Ryan T</font></div></div><div class='respDivL'><div class='vertical-center'>(E)</div></div><div class='respDivR'><div class='vertical-center'><font style='color:orange'>(I)</font></div></div></div>","null","$41<br>for<br>yourself","$75<br>for<br>3","0","41","75","3",""
"html-keyboard-response","74","226133","0.0-6.0-1.23","611343092396f1d9ed7018ad","bdp_sd","Sun Apr 16 2023 19:48:02 GMT-0600 (Mountain Daylight Time)","244663","","null","","","","","FIX","","<div class='trialBorder'><div class='vertical-center'><img style='vertical-align:center; align:center' src=img/fixation3.jpg></div></div>","null","","","","","","",""
"html-keyboard-response","75","229743","0.0-6.0-2.23","611343092396f1d9ed7018ad","bdp_sd","Sun Apr 16 2023 19:48:02 GMT-0600 (Mountain Daylight Time)","244663","","3608","","","","","offer","","<div class='trialBorder'><div class='vertical-center'><img style='vertical-align:center; align:center' src=img/fixation3.jpg></div><div class='cl'><div class='vertical-center'>$50<br>for<br>Nick P</div></div><div class='cr'><div class='vertical-center'>$47<br>for<br>yourself</div></div><div class='respDivL'><div class='vertical-center'>(E)</div></div><div class='respDivR'><div class='vertical-center'>(I)</div></div></div>","I","$47<br>for<br>yourself","$50<br>for<br>5","1","47","50","5","SELF"
"html-keyboard-response","76","229997","0.0-6.0-3.23","611343092396f1d9ed7018ad","bdp_sd","Sun Apr 16 2023 19:48:02 GMT-0600 (Mountain Daylight Time)","244663","","null","","","","","offerFB","","<div class='trialBorder'><div class='vertical-center'><img style='vertical-align:center; align:center' src=img/fixation3.jpg></div><div class='cl'><div class='vertical-center'>$50<br>for<br>Nick P</div></div><div class='cr'><div class='vertical-center'><font style='color:orange'>$47<br>for<br>yourself</font></div></div><div class='respDivL'><div class='vertical-center'>(E)</div></div><div class='respDivR'><div class='vertical-center'><font style='color:orange'>(I)</font></div></div></div>","null","$47<br>for<br>yourself","$50<br>for<br>5","1","47","50","5",""
"html-keyboard-response","77","230500","0.0-6.0-1.24","611343092396f1d9ed7018ad","bdp_sd","Sun Apr 16 2023 19:48:02 GMT-0600 (Mountain Daylight Time)","244663","","null","","","","","FIX","","<div class='trialBorder'><div class='vertical-center'><img style='vertical-align:center; align:center' src=img/fixation3.jpg></div></div>","null","","","","","","",""
"html-keyboard-response","78","233263","0.0-6.0-2.24","611343092396f1d9ed7018ad","bdp_sd","Sun Apr 16 2023 19:48:02 GMT-0600 (Mountain Daylight Time)","244663","","2760","","","","","offer","","<div class='trialBorder'><div class='vertical-center'><img style='vertical-align:center; align:center' src=img/fixation3.jpg></div><div class='cl'><div class='vertical-center'>$33<br>for<br>yourself</div></div><div class='cr'><div class='vertical-center'>$80<br>for<br>Cailey S</div></div><div class='respDivL'><div class='vertical-center'>(E)</div></div><div class='respDivR'><div class='vertical-center'>(I)</div></div></div>","I","$33<br>for<br>yourself","$80<br>for<br>2","0","33","80","2","OTHER"
"html-keyboard-response","79","233517","0.0-6.0-3.24","611343092396f1d9ed7018ad","bdp_sd","Sun Apr 16 2023 19:48:02 GMT-0600 (Mountain Daylight Time)","244663","","null","","","","","offerFB","","<div class='trialBorder'><div class='vertical-center'><img style='vertical-align:center; align:center' src=img/fixation3.jpg></div><div class='cl'><div class='vertical-center'>$33<br>for<br>yourself</div></div><div class='cr'><div class='vertical-center'><font style='color:orange'>$80<br>for<br>Cailey S</font></div></div><div class='respDivL'><div class='vertical-center'>(E)</div></div><div class='respDivR'><div class='vertical-center'><font style='color:orange'>(I)</font></div></div></div>","null","$33<br>for<br>yourself","$80<br>for<br>2","0","33","80","2",""
"html-keyboard-response","80","234020","0.0-6.0-1.25","611343092396f1d9ed7018ad","bdp_sd","Sun Apr 16 2023 19:48:02 GMT-0600 (Mountain Daylight Time)","244663","","null","","","","","FIX","","<div class='trialBorder'><div class='vertical-center'><img style='vertical-align:center; align:center' src=img/fixation3.jpg></div></div>","null","","","","","","",""
"html-keyboard-response","81","238773","0.0-6.0-2.25","611343092396f1d9ed7018ad","bdp_sd","Sun Apr 16 2023 19:48:02 GMT-0600 (Mountain Daylight Time)","244663","","4751","","","","","offer","","<div class='trialBorder'><div class='vertical-center'><img style='vertical-align:center; align:center' src=img/fixation3.jpg></div><div class='cl'><div class='vertical-center'>$67<br>for<br>yourself</div></div><div class='cr'><div class='vertical-center'>$75<br>for<br>Nick P</div></div><div class='respDivL'><div class='vertical-center'>(E)</div></div><div class='respDivR'><div class='vertical-center'>(I)</div></div></div>","I","$67<br>for<br>yourself","$75<br>for<br>5","0","67","75","5","OTHER"
"html-keyboard-response","82","239029","0.0-6.0-3.25","611343092396f1d9ed7018ad","bdp_sd","Sun Apr 16 2023 19:48:02 GMT-0600 (Mountain Daylight Time)","244663","","null","","","","","offerFB","","<div class='trialBorder'><div class='vertical-center'><img style='vertical-align:center; align:center' src=img/fixation3.jpg></div><div class='cl'><div class='vertical-center'>$67<br>for<br>yourself</div></div><div class='cr'><div class='vertical-center'><font style='color:orange'>$75<br>for<br>Nick P</font></div></div><div class='respDivL'><div class='vertical-center'>(E)</div></div><div class='respDivR'><div class='vertical-center'><font style='color:orange'>(I)</font></div></div></div>","null","$67<br>for<br>yourself","$75<br>for<br>5","0","67","75","5",""
"html-keyboard-response","83","239531","0.0-6.0-1.26","611343092396f1d9ed7018ad","bdp_sd","Sun Apr 16 2023 19:48:02 GMT-0600 (Mountain Daylight Time)","244663","","null","","","","","FIX","","<div class='trialBorder'><div class='vertical-center'><img style='vertical-align:center; align:center' src=img/fixation3.jpg></div></div>","null","","","","","","",""
"html-keyboard-response","84","243404","0.0-6.0-2.26","611343092396f1d9ed7018ad","bdp_sd","Sun Apr 16 2023 19:48:02 GMT-0600 (Mountain Daylight Time)","244663","","3870","","","","","offer","","<div class='trialBorder'><div class='vertical-center'><img style='vertical-align:center; align:center' src=img/fixation3.jpg></div><div class='cl'><div class='vertical-center'>$85<br>for<br>Jacob B</div></div><div class='cr'><div class='vertical-center'>$31<br>for<br>yourself</div></div><div class='respDivL'><div class='vertical-center'>(E)</div></div><div class='respDivR'><div class='vertical-center'>(I)</div></div></div>","E","$31<br>for<br>yourself","$85<br>for<br>1","1","31","85","1","OTHER"
"html-keyboard-response","85","243658","0.0-6.0-3.26","611343092396f1d9ed7018ad","bdp_sd","Sun Apr 16 2023 19:48:02 GMT-0600 (Mountain Daylight Time)","244663","","null","","","","","offerFB","","<div class='trialBorder'><div class='vertical-center'><img style='vertical-align:center; align:center' src=img/fixation3.jpg></div><div class='cl'><div class='vertical-center'><font style='color:orange'>$85<br>for<br>Jacob B</font></div></div><div class='cr'><div class='vertical-center'>$31<br>for<br>yourself</div></div><div class='respDivL'><div class='vertical-center'><font style='color:orange'>(E)</font></div></div><div class='respDivR'><div class='vertical-center'>(I)</div></div></div>","null","$31<br>for<br>yourself","$85<br>for<br>1","1","31","85","1",""
"","","","","611343092396f1d9ed7018ad","bdp_sd","Sun Apr 16 2023 19:48:02 GMT-0600 (Mountain Daylight Time)","244663","","","","fullscreenexit","86","243817","fullscreenexit","","","","","","","","","",""
"fullscreen","86","244663","0.0-7.0","611343092396f1d9ed7018ad","bdp_sd","Sun Apr 16 2023 19:48:02 GMT-0600 (Mountain Daylight Time)","244663","","","","","","","","true","","","","","","","","",""
"html-keyboard-response","87","245166","0.0-8.0","","","","","","null","","","","","","","","null","","","","","","",""
