"trial_type","trial_index","time_elapsed","internal_node_id","subject_id","task","startTime","totalTime","view_history","rt","responses","event","trial","time","trialtype","success","stimulus","key_press","selfOffer","otherOffer","otherLeft","selfAmt","otherAmt","otherDist","chosen"
"pavlovia","0","2","0.0-0.0","63210b26bd58960c97b47ddc","bdp_sd","Thu Apr 13 2023 11:21:38 GMT+0100 (British Summer Time)","329894","","","","","","","","","","","","","","","","",""
"instructions","1","8841","0.0-1.0","63210b26bd58960c97b47ddc","bdp_sd","Thu Apr 13 2023 11:21:38 GMT+0100 (British Summer Time)","329894","[{""page_index"":0,""viewing_time"":8839}]","8839","","","","","","","","","","","","","","",""
"survey-text","2","90064","0.0-2.0","63210b26bd58960c97b47ddc","bdp_sd","Thu Apr 13 2023 11:21:38 GMT+0100 (British Summer Time)","329894","","81223","{""Q0"":""Steven D"",""Q1"":""Joseph C"",""Q2"":""Ashley H"",""Q3"":""Thomas N"",""Q4"":""Lisa N""}","","","","","","","","","","","","","",""
"","","","","63210b26bd58960c97b47ddc","bdp_sd","Thu Apr 13 2023 11:21:38 GMT+0100 (British Summer Time)","329894","","","","fullscreenenter","3","94019","fullscreenenter","","","","","","","","","",""
"fullscreen","3","95008","0.0-3.0","63210b26bd58960c97b47ddc","bdp_sd","Thu Apr 13 2023 11:21:38 GMT+0100 (British Summer Time)","329894","","","","","","","","true","","","","","","","","",""
"instructions","4","257141","0.0-5.0","63210b26bd58960c97b47ddc","bdp_sd","Thu Apr 13 2023 11:21:38 GMT+0100 (British Summer Time)","329894","[{""page_index"":0,""viewing_time"":6475},{""page_index"":1,""viewing_time"":94045},{""page_index"":2,""viewing_time"":61611}]","162132","","","","","","","","","","","","","","",""
"html-keyboard-response","5","257643","0.0-6.0-1.0","63210b26bd58960c97b47ddc","bdp_sd","Thu Apr 13 2023 11:21:38 GMT+0100 (British Summer Time)","329894","","null","","","","","FIX","","<div class='trialBorder'><div class='vertical-center'><img style='vertical-align:center; align:center' src=img/fixation3.jpg></div></div>","null","","","","","","",""
"html-keyboard-response","6","259645","0.0-6.0-2.0","63210b26bd58960c97b47ddc","bdp_sd","Thu Apr 13 2023 11:21:38 GMT+0100 (British Summer Time)","329894","","2002","","","","","offer","","<div class='trialBorder'><div class='vertical-center'><img style='vertical-align:center; align:center' src=img/fixation3.jpg></div><div class='cl'><div class='vertical-center'>$78<br>for<br>yourself</div></div><div class='cr'><div class='vertical-center'>$80<br>for<br>Lisa N</div></div><div class='respDivL'><div class='vertical-center'>(E)</div></div><div class='respDivR'><div class='vertical-center'>(I)</div></div></div>","E","$78<br>for<br>yourself","$80<br>for<br>5","0","78","80","5","SELF"
"html-keyboard-response","7","259896","0.0-6.0-3.0","63210b26bd58960c97b47ddc","bdp_sd","Thu Apr 13 2023 11:21:38 GMT+0100 (British Summer Time)","329894","","null","","","","","offerFB","","<div class='trialBorder'><div class='vertical-center'><img style='vertical-align:center; align:center' src=img/fixation3.jpg></div><div class='cl'><div class='vertical-center'><font style='color:orange'>$78<br>for<br>yourself</font></div></div><div class='cr'><div class='vertical-center'>$80<br>for<br>Lisa N</div></div><div class='respDivL'><div class='vertical-center'><font style='color:orange'>(E)</font></div></div><div class='respDivR'><div class='vertical-center'>(I)</div></div></div>","null","$78<br>for<br>yourself","$80<br>for<br>5","0","78","80","5",""
"html-keyboard-response","8","260398","0.0-6.0-1.1","63210b26bd58960c97b47ddc","bdp_sd","Thu Apr 13 2023 11:21:38 GMT+0100 (British Summer Time)","329894","","null","","","","","FIX","","<div class='trialBorder'><div class='vertical-center'><img style='vertical-align:center; align:center' src=img/fixation3.jpg></div></div>","null","","","","","","",""
"html-keyboard-response","9","262978","0.0-6.0-2.1","63210b26bd58960c97b47ddc","bdp_sd","Thu Apr 13 2023 11:21:38 GMT+0100 (British Summer Time)","329894","","2579","","","","","offer","","<div class='trialBorder'><div class='vertical-center'><img style='vertical-align:center; align:center' src=img/fixation3.jpg></div><div class='cl'><div class='vertical-center'>$25<br>for<br>Lisa N</div></div><div class='cr'><div class='vertical-center'>$22<br>for<br>yourself</div></div><div class='respDivL'><div class='vertical-center'>(E)</div></div><div class='respDivR'><div class='vertical-center'>(I)</div></div></div>","I","$22<br>for<br>yourself","$25<br>for<br>5","1","22","25","5","SELF"
"html-keyboard-response","10","263230","0.0-6.0-3.1","63210b26bd58960c97b47ddc","bdp_sd","Thu Apr 13 2023 11:21:38 GMT+0100 (British Summer Time)","329894","","null","","","","","offerFB","","<div class='trialBorder'><div class='vertical-center'><img style='vertical-align:center; align:center' src=img/fixation3.jpg></div><div class='cl'><div class='vertical-center'>$25<br>for<br>Lisa N</div></div><div class='cr'><div class='vertical-center'><font style='color:orange'>$22<br>for<br>yourself</font></div></div><div class='respDivL'><div class='vertical-center'>(E)</div></div><div class='respDivR'><div class='vertical-center'><font style='color:orange'>(I)</font></div></div></div>","null","$22<br>for<br>yourself","$25<br>for<br>5","1","22","25","5",""
"html-keyboard-response","11","263732","0.0-6.0-1.2","63210b26bd58960c97b47ddc","bdp_sd","Thu Apr 13 2023 11:21:38 GMT+0100 (British Summer Time)","329894","","null","","","","","FIX","","<div class='trialBorder'><div class='vertical-center'><img style='vertical-align:center; align:center' src=img/fixation3.jpg></div></div>","null","","","","","","",""
"html-keyboard-response","12","266646","0.0-6.0-2.2","63210b26bd58960c97b47ddc","bdp_sd","Thu Apr 13 2023 11:21:38 GMT+0100 (British Summer Time)","329894","","2914","","","","","offer","","<div class='trialBorder'><div class='vertical-center'><img style='vertical-align:center; align:center' src=img/fixation3.jpg></div><div class='cl'><div class='vertical-center'>$25<br>for<br>yourself</div></div><div class='cr'><div class='vertical-center'>$60<br>for<br>Ashley H</div></div><div class='respDivL'><div class='vertical-center'>(E)</div></div><div class='respDivR'><div class='vertical-center'>(I)</div></div></div>","I","$25<br>for<br>yourself","$60<br>for<br>3","0","25","60","3","OTHER"
"html-keyboard-response","13","266897","0.0-6.0-3.2","63210b26bd58960c97b47ddc","bdp_sd","Thu Apr 13 2023 11:21:38 GMT+0100 (British Summer Time)","329894","","null","","","","","offerFB","","<div class='trialBorder'><div class='vertical-center'><img style='vertical-align:center; align:center' src=img/fixation3.jpg></div><div class='cl'><div class='vertical-center'>$25<br>for<br>yourself</div></div><div class='cr'><div class='vertical-center'><font style='color:orange'>$60<br>for<br>Ashley H</font></div></div><div class='respDivL'><div class='vertical-center'>(E)</div></div><div class='respDivR'><div class='vertical-center'><font style='color:orange'>(I)</font></div></div></div>","null","$25<br>for<br>yourself","$60<br>for<br>3","0","25","60","3",""
"html-keyboard-response","14","267399","0.0-6.0-1.3","63210b26bd58960c97b47ddc","bdp_sd","Thu Apr 13 2023 11:21:38 GMT+0100 (British Summer Time)","329894","","null","","","","","FIX","","<div class='trialBorder'><div class='vertical-center'><img style='vertical-align:center; align:center' src=img/fixation3.jpg></div></div>","null","","","","","","",""
"html-keyboard-response","15","269520","0.0-6.0-2.3","63210b26bd58960c97b47ddc","bdp_sd","Thu Apr 13 2023 11:21:38 GMT+0100 (British Summer Time)","329894","","2121","","","","","offer","","<div class='trialBorder'><div class='vertical-center'><img style='vertical-align:center; align:center' src=img/fixation3.jpg></div><div class='cl'><div class='vertical-center'>$54<br>for<br>yourself</div></div><div class='cr'><div class='vertical-center'>$60<br>for<br>Lisa N</div></div><div class='respDivL'><div class='vertical-center'>(E)</div></div><div class='respDivR'><div class='vertical-center'>(I)</div></div></div>","E","$54<br>for<br>yourself","$60<br>for<br>5","0","54","60","5","SELF"
"html-keyboard-response","16","269771","0.0-6.0-3.3","63210b26bd58960c97b47ddc","bdp_sd","Thu Apr 13 2023 11:21:38 GMT+0100 (British Summer Time)","329894","","null","","","","","offerFB","","<div class='trialBorder'><div class='vertical-center'><img style='vertical-align:center; align:center' src=img/fixation3.jpg></div><div class='cl'><div class='vertical-center'><font style='color:orange'>$54<br>for<br>yourself</font></div></div><div class='cr'><div class='vertical-center'>$60<br>for<br>Lisa N</div></div><div class='respDivL'><div class='vertical-center'><font style='color:orange'>(E)</font></div></div><div class='respDivR'><div class='vertical-center'>(I)</div></div></div>","null","$54<br>for<br>yourself","$60<br>for<br>5","0","54","60","5",""
"html-keyboard-response","17","270272","0.0-6.0-1.4","63210b26bd58960c97b47ddc","bdp_sd","Thu Apr 13 2023 11:21:38 GMT+0100 (British Summer Time)","329894","","null","","","","","FIX","","<div class='trialBorder'><div class='vertical-center'><img style='vertical-align:center; align:center' src=img/fixation3.jpg></div></div>","null","","","","","","",""
"html-keyboard-response","18","272062","0.0-6.0-2.4","63210b26bd58960c97b47ddc","bdp_sd","Thu Apr 13 2023 11:21:38 GMT+0100 (British Summer Time)","329894","","1789","","","","","offer","","<div class='trialBorder'><div class='vertical-center'><img style='vertical-align:center; align:center' src=img/fixation3.jpg></div><div class='cl'><div class='vertical-center'>$75<br>for<br>Thomas N</div></div><div class='cr'><div class='vertical-center'>$55<br>for<br>yourself</div></div><div class='respDivL'><div class='vertical-center'>(E)</div></div><div class='respDivR'><div class='vertical-center'>(I)</div></div></div>","I","$55<br>for<br>yourself","$75<br>for<br>4","1","55","75","4","SELF"
"html-keyboard-response","19","272315","0.0-6.0-3.4","63210b26bd58960c97b47ddc","bdp_sd","Thu Apr 13 2023 11:21:38 GMT+0100 (British Summer Time)","329894","","null","","","","","offerFB","","<div class='trialBorder'><div class='vertical-center'><img style='vertical-align:center; align:center' src=img/fixation3.jpg></div><div class='cl'><div class='vertical-center'>$75<br>for<br>Thomas N</div></div><div class='cr'><div class='vertical-center'><font style='color:orange'>$55<br>for<br>yourself</font></div></div><div class='respDivL'><div class='vertical-center'>(E)</div></div><div class='respDivR'><div class='vertical-center'><font style='color:orange'>(I)</font></div></div></div>","null","$55<br>for<br>yourself","$75<br>for<br>4","1","55","75","4",""
"html-keyboard-response","20","272816","0.0-6.0-1.5","63210b26bd58960c97b47ddc","bdp_sd","Thu Apr 13 2023 11:21:38 GMT+0100 (British Summer Time)","329894","","null","","","","","FIX","","<div class='trialBorder'><div class='vertical-center'><img style='vertical-align:center; align:center' src=img/fixation3.jpg></div></div>","null","","","","","","",""
"html-keyboard-response","21","274898","0.0-6.0-2.5","63210b26bd58960c97b47ddc","bdp_sd","Thu Apr 13 2023 11:21:38 GMT+0100 (British Summer Time)","329894","","2082","","","","","offer","","<div class='trialBorder'><div class='vertical-center'><img style='vertical-align:center; align:center' src=img/fixation3.jpg></div><div class='cl'><div class='vertical-center'>$25<br>for<br>Ashley H</div></div><div class='cr'><div class='vertical-center'>$14<br>for<br>yourself</div></div><div class='respDivL'><div class='vertical-center'>(E)</div></div><div class='respDivR'><div class='vertical-center'>(I)</div></div></div>","E","$14<br>for<br>yourself","$25<br>for<br>3","1","14","25","3","OTHER"
"html-keyboard-response","22","275150","0.0-6.0-3.5","63210b26bd58960c97b47ddc","bdp_sd","Thu Apr 13 2023 11:21:38 GMT+0100 (British Summer Time)","329894","","null","","","","","offerFB","","<div class='trialBorder'><div class='vertical-center'><img style='vertical-align:center; align:center' src=img/fixation3.jpg></div><div class='cl'><div class='vertical-center'><font style='color:orange'>$25<br>for<br>Ashley H</font></div></div><div class='cr'><div class='vertical-center'>$14<br>for<br>yourself</div></div><div class='respDivL'><div class='vertical-center'><font style='color:orange'>(E)</font></div></div><div class='respDivR'><div class='vertical-center'>(I)</div></div></div>","null","$14<br>for<br>yourself","$25<br>for<br>3","1","14","25","3",""
"html-keyboard-response","23","275651","0.0-6.0-1.6","63210b26bd58960c97b47ddc","bdp_sd","Thu Apr 13 2023 11:21:38 GMT+0100 (British Summer Time)","329894","","null","","","","","FIX","","<div class='trialBorder'><div class='vertical-center'><img style='vertical-align:center; align:center' src=img/fixation3.jpg></div></div>","null","","","","","","",""
"html-keyboard-response","24","277453","0.0-6.0-2.6","63210b26bd58960c97b47ddc","bdp_sd","Thu Apr 13 2023 11:21:38 GMT+0100 (British Summer Time)","329894","","1800","","","","","offer","","<div class='trialBorder'><div class='vertical-center'><img style='vertical-align:center; align:center' src=img/fixation3.jpg></div><div class='cl'><div class='vertical-center'>$55<br>for<br>Steven D</div></div><div class='cr'><div class='vertical-center'>$20<br>for<br>yourself</div></div><div class='respDivL'><div class='vertical-center'>(E)</div></div><div class='respDivR'><div class='vertical-center'>(I)</div></div></div>","E","$20<br>for<br>yourself","$55<br>for<br>1","1","20","55","1","OTHER"
"html-keyboard-response","25","277704","0.0-6.0-3.6","63210b26bd58960c97b47ddc","bdp_sd","Thu Apr 13 2023 11:21:38 GMT+0100 (British Summer Time)","329894","","null","","","","","offerFB","","<div class='trialBorder'><div class='vertical-center'><img style='vertical-align:center; align:center' src=img/fixation3.jpg></div><div class='cl'><div class='vertical-center'><font style='color:orange'>$55<br>for<br>Steven D</font></div></div><div class='cr'><div class='vertical-center'>$20<br>for<br>yourself</div></div><div class='respDivL'><div class='vertical-center'><font style='color:orange'>(E)</font></div></div><div class='respDivR'><div class='vertical-center'>(I)</div></div></div>","null","$20<br>for<br>yourself","$55<br>for<br>1","1","20","55","1",""
"html-keyboard-response","26","278205","0.0-6.0-1.7","63210b26bd58960c97b47ddc","bdp_sd","Thu Apr 13 2023 11:21:38 GMT+0100 (British Summer Time)","329894","","null","","","","","FIX","","<div class='trialBorder'><div class='vertical-center'><img style='vertical-align:center; align:center' src=img/fixation3.jpg></div></div>","null","","","","","","",""
"html-keyboard-response","27","279856","0.0-6.0-2.7","63210b26bd58960c97b47ddc","bdp_sd","Thu Apr 13 2023 11:21:38 GMT+0100 (British Summer Time)","329894","","1650","","","","","offer","","<div class='trialBorder'><div class='vertical-center'><img style='vertical-align:center; align:center' src=img/fixation3.jpg></div><div class='cl'><div class='vertical-center'>$25<br>for<br>Thomas N</div></div><div class='cr'><div class='vertical-center'>$19<br>for<br>yourself</div></div><div class='respDivL'><div class='vertical-center'>(E)</div></div><div class='respDivR'><div class='vertical-center'>(I)</div></div></div>","I","$19<br>for<br>yourself","$25<br>for<br>4","1","19","25","4","SELF"
"html-keyboard-response","28","280108","0.0-6.0-3.7","63210b26bd58960c97b47ddc","bdp_sd","Thu Apr 13 2023 11:21:38 GMT+0100 (British Summer Time)","329894","","null","","","","","offerFB","","<div class='trialBorder'><div class='vertical-center'><img style='vertical-align:center; align:center' src=img/fixation3.jpg></div><div class='cl'><div class='vertical-center'>$25<br>for<br>Thomas N</div></div><div class='cr'><div class='vertical-center'><font style='color:orange'>$19<br>for<br>yourself</font></div></div><div class='respDivL'><div class='vertical-center'>(E)</div></div><div class='respDivR'><div class='vertical-center'><font style='color:orange'>(I)</font></div></div></div>","null","$19<br>for<br>yourself","$25<br>for<br>4","1","19","25","4",""
"html-keyboard-response","29","280609","0.0-6.0-1.8","63210b26bd58960c97b47ddc","bdp_sd","Thu Apr 13 2023 11:21:38 GMT+0100 (British Summer Time)","329894","","null","","","","","FIX","","<div class='trialBorder'><div class='vertical-center'><img style='vertical-align:center; align:center' src=img/fixation3.jpg></div></div>","null","","","","","","",""
"html-keyboard-response","30","283782","0.0-6.0-2.8","63210b26bd58960c97b47ddc","bdp_sd","Thu Apr 13 2023 11:21:38 GMT+0100 (British Summer Time)","329894","","3172","","","","","offer","","<div class='trialBorder'><div class='vertical-center'><img style='vertical-align:center; align:center' src=img/fixation3.jpg></div><div class='cl'><div class='vertical-center'>$60<br>for<br>Thomas N</div></div><div class='cr'><div class='vertical-center'>$49<br>for<br>yourself</div></div><div class='respDivL'><div class='vertical-center'>(E)</div></div><div class='respDivR'><div class='vertical-center'>(I)</div></div></div>","I","$49<br>for<br>yourself","$60<br>for<br>4","1","49","60","4","SELF"
"html-keyboard-response","31","284033","0.0-6.0-3.8","63210b26bd58960c97b47ddc","bdp_sd","Thu Apr 13 2023 11:21:38 GMT+0100 (British Summer Time)","329894","","null","","","","","offerFB","","<div class='trialBorder'><div class='vertical-center'><img style='vertical-align:center; align:center' src=img/fixation3.jpg></div><div class='cl'><div class='vertical-center'>$60<br>for<br>Thomas N</div></div><div class='cr'><div class='vertical-center'><font style='color:orange'>$49<br>for<br>yourself</font></div></div><div class='respDivL'><div class='vertical-center'>(E)</div></div><div class='respDivR'><div class='vertical-center'><font style='color:orange'>(I)</font></div></div></div>","null","$49<br>for<br>yourself","$60<br>for<br>4","1","49","60","4",""
"html-keyboard-response","32","284534","0.0-6.0-1.9","63210b26bd58960c97b47ddc","bdp_sd","Thu Apr 13 2023 11:21:38 GMT+0100 (British Summer Time)","329894","","null","","","","","FIX","","<div class='trialBorder'><div class='vertical-center'><img style='vertical-align:center; align:center' src=img/fixation3.jpg></div></div>","null","","","","","","",""
"html-keyboard-response","33","286182","0.0-6.0-2.9","63210b26bd58960c97b47ddc","bdp_sd","Thu Apr 13 2023 11:21:38 GMT+0100 (British Summer Time)","329894","","1647","","","","","offer","","<div class='trialBorder'><div class='vertical-center'><img style='vertical-align:center; align:center' src=img/fixation3.jpg></div><div class='cl'><div class='vertical-center'>$11<br>for<br>yourself</div></div><div class='cr'><div class='vertical-center'>$30<br>for<br>Joseph C</div></div><div class='respDivL'><div class='vertical-center'>(E)</div></div><div class='respDivR'><div class='vertical-center'>(I)</div></div></div>","I","$11<br>for<br>yourself","$30<br>for<br>2","0","11","30","2","OTHER"
"html-keyboard-response","34","286434","0.0-6.0-3.9","63210b26bd58960c97b47ddc","bdp_sd","Thu Apr 13 2023 11:21:38 GMT+0100 (British Summer Time)","329894","","null","","","","","offerFB","","<div class='trialBorder'><div class='vertical-center'><img style='vertical-align:center; align:center' src=img/fixation3.jpg></div><div class='cl'><div class='vertical-center'>$11<br>for<br>yourself</div></div><div class='cr'><div class='vertical-center'><font style='color:orange'>$30<br>for<br>Joseph C</font></div></div><div class='respDivL'><div class='vertical-center'>(E)</div></div><div class='respDivR'><div class='vertical-center'><font style='color:orange'>(I)</font></div></div></div>","null","$11<br>for<br>yourself","$30<br>for<br>2","0","11","30","2",""
"html-keyboard-response","35","286935","0.0-6.0-1.10","63210b26bd58960c97b47ddc","bdp_sd","Thu Apr 13 2023 11:21:38 GMT+0100 (British Summer Time)","329894","","null","","","","","FIX","","<div class='trialBorder'><div class='vertical-center'><img style='vertical-align:center; align:center' src=img/fixation3.jpg></div></div>","null","","","","","","",""
"html-keyboard-response","36","288631","0.0-6.0-2.10","63210b26bd58960c97b47ddc","bdp_sd","Thu Apr 13 2023 11:21:38 GMT+0100 (British Summer Time)","329894","","1695","","","","","offer","","<div class='trialBorder'><div class='vertical-center'><img style='vertical-align:center; align:center' src=img/fixation3.jpg></div><div class='cl'><div class='vertical-center'>$31<br>for<br>yourself</div></div><div class='cr'><div class='vertical-center'>$85<br>for<br>Steven D</div></div><div class='respDivL'><div class='vertical-center'>(E)</div></div><div class='respDivR'><div class='vertical-center'>(I)</div></div></div>","I","$31<br>for<br>yourself","$85<br>for<br>1","0","31","85","1","OTHER"
"html-keyboard-response","37","288882","0.0-6.0-3.10","63210b26bd58960c97b47ddc","bdp_sd","Thu Apr 13 2023 11:21:38 GMT+0100 (British Summer Time)","329894","","null","","","","","offerFB","","<div class='trialBorder'><div class='vertical-center'><img style='vertical-align:center; align:center' src=img/fixation3.jpg></div><div class='cl'><div class='vertical-center'>$31<br>for<br>yourself</div></div><div class='cr'><div class='vertical-center'><font style='color:orange'>$85<br>for<br>Steven D</font></div></div><div class='respDivL'><div class='vertical-center'>(E)</div></div><div class='respDivR'><div class='vertical-center'><font style='color:orange'>(I)</font></div></div></div>","null","$31<br>for<br>yourself","$85<br>for<br>1","0","31","85","1",""
"html-keyboard-response","38","289384","0.0-6.0-1.11","63210b26bd58960c97b47ddc","bdp_sd","Thu Apr 13 2023 11:21:38 GMT+0100 (British Summer Time)","329894","","null","","","","","FIX","","<div class='trialBorder'><div class='vertical-center'><img style='vertical-align:center; align:center' src=img/fixation3.jpg></div></div>","null","","","","","","",""
"html-keyboard-response","39","291263","0.0-6.0-2.11","63210b26bd58960c97b47ddc","bdp_sd","Thu Apr 13 2023 11:21:38 GMT+0100 (British Summer Time)","329894","","1878","","","","","offer","","<div class='trialBorder'><div class='vertical-center'><img style='vertical-align:center; align:center' src=img/fixation3.jpg></div><div class='cl'><div class='vertical-center'>$27<br>for<br>yourself</div></div><div class='cr'><div class='vertical-center'>$50<br>for<br>Ashley H</div></div><div class='respDivL'><div class='vertical-center'>(E)</div></div><div class='respDivR'><div class='vertical-center'>(I)</div></div></div>","I","$27<br>for<br>yourself","$50<br>for<br>3","0","27","50","3","OTHER"
"html-keyboard-response","40","291514","0.0-6.0-3.11","63210b26bd58960c97b47ddc","bdp_sd","Thu Apr 13 2023 11:21:38 GMT+0100 (British Summer Time)","329894","","null","","","","","offerFB","","<div class='trialBorder'><div class='vertical-center'><img style='vertical-align:center; align:center' src=img/fixation3.jpg></div><div class='cl'><div class='vertical-center'>$27<br>for<br>yourself</div></div><div class='cr'><div class='vertical-center'><font style='color:orange'>$50<br>for<br>Ashley H</font></div></div><div class='respDivL'><div class='vertical-center'>(E)</div></div><div class='respDivR'><div class='vertical-center'><font style='color:orange'>(I)</font></div></div></div>","null","$27<br>for<br>yourself","$50<br>for<br>3","0","27","50","3",""
"html-keyboard-response","41","292016","0.0-6.0-1.12","63210b26bd58960c97b47ddc","bdp_sd","Thu Apr 13 2023 11:21:38 GMT+0100 (British Summer Time)","329894","","null","","","","","FIX","","<div class='trialBorder'><div class='vertical-center'><img style='vertical-align:center; align:center' src=img/fixation3.jpg></div></div>","null","","","","","","",""
"html-keyboard-response","42","293654","0.0-6.0-2.12","63210b26bd58960c97b47ddc","bdp_sd","Thu Apr 13 2023 11:21:38 GMT+0100 (British Summer Time)","329894","","1638","","","","","offer","","<div class='trialBorder'><div class='vertical-center'><img style='vertical-align:center; align:center' src=img/fixation3.jpg></div><div class='cl'><div class='vertical-center'>$80<br>for<br>yourself</div></div><div class='cr'><div class='vertical-center'>$85<br>for<br>Lisa N</div></div><div class='respDivL'><div class='vertical-center'>(E)</div></div><div class='respDivR'><div class='vertical-center'>(I)</div></div></div>","E","$80<br>for<br>yourself","$85<br>for<br>5","0","80","85","5","SELF"
"html-keyboard-response","43","293906","0.0-6.0-3.12","63210b26bd58960c97b47ddc","bdp_sd","Thu Apr 13 2023 11:21:38 GMT+0100 (British Summer Time)","329894","","null","","","","","offerFB","","<div class='trialBorder'><div class='vertical-center'><img style='vertical-align:center; align:center' src=img/fixation3.jpg></div><div class='cl'><div class='vertical-center'><font style='color:orange'>$80<br>for<br>yourself</font></div></div><div class='cr'><div class='vertical-center'>$85<br>for<br>Lisa N</div></div><div class='respDivL'><div class='vertical-center'><font style='color:orange'>(E)</font></div></div><div class='respDivR'><div class='vertical-center'>(I)</div></div></div>","null","$80<br>for<br>yourself","$85<br>for<br>5","0","80","85","5",""
"html-keyboard-response","44","294407","0.0-6.0-1.13","63210b26bd58960c97b47ddc","bdp_sd","Thu Apr 13 2023 11:21:38 GMT+0100 (British Summer Time)","329894","","null","","","","","FIX","","<div class='trialBorder'><div class='vertical-center'><img style='vertical-align:center; align:center' src=img/fixation3.jpg></div></div>","null","","","","","","",""
"html-keyboard-response","45","296335","0.0-6.0-2.13","63210b26bd58960c97b47ddc","bdp_sd","Thu Apr 13 2023 11:21:38 GMT+0100 (British Summer Time)","329894","","1927","","","","","offer","","<div class='trialBorder'><div class='vertical-center'><img style='vertical-align:center; align:center' src=img/fixation3.jpg></div><div class='cl'><div class='vertical-center'>$55<br>for<br>Thomas N</div></div><div class='cr'><div class='vertical-center'>$40<br>for<br>yourself</div></div><div class='respDivL'><div class='vertical-center'>(E)</div></div><div class='respDivR'><div class='vertical-center'>(I)</div></div></div>","I","$40<br>for<br>yourself","$55<br>for<br>4","1","40","55","4","SELF"
"html-keyboard-response","46","296586","0.0-6.0-3.13","63210b26bd58960c97b47ddc","bdp_sd","Thu Apr 13 2023 11:21:38 GMT+0100 (British Summer Time)","329894","","null","","","","","offerFB","","<div class='trialBorder'><div class='vertical-center'><img style='vertical-align:center; align:center' src=img/fixation3.jpg></div><div class='cl'><div class='vertical-center'>$55<br>for<br>Thomas N</div></div><div class='cr'><div class='vertical-center'><font style='color:orange'>$40<br>for<br>yourself</font></div></div><div class='respDivL'><div class='vertical-center'>(E)</div></div><div class='respDivR'><div class='vertical-center'><font style='color:orange'>(I)</font></div></div></div>","null","$40<br>for<br>yourself","$55<br>for<br>4","1","40","55","4",""
"html-keyboard-response","47","297088","0.0-6.0-1.14","63210b26bd58960c97b47ddc","bdp_sd","Thu Apr 13 2023 11:21:38 GMT+0100 (British Summer Time)","329894","","null","","","","","FIX","","<div class='trialBorder'><div class='vertical-center'><img style='vertical-align:center; align:center' src=img/fixation3.jpg></div></div>","null","","","","","","",""
"html-keyboard-response","48","299080","0.0-6.0-2.14","63210b26bd58960c97b47ddc","bdp_sd","Thu Apr 13 2023 11:21:38 GMT+0100 (British Summer Time)","329894","","1991","","","","","offer","","<div class='trialBorder'><div class='vertical-center'><img style='vertical-align:center; align:center' src=img/fixation3.jpg></div><div class='cl'><div class='vertical-center'>$85<br>for<br>Thomas N</div></div><div class='cr'><div class='vertical-center'>$69<br>for<br>yourself</div></div><div class='respDivL'><div class='vertical-center'>(E)</div></div><div class='respDivR'><div class='vertical-center'>(I)</div></div></div>","I","$69<br>for<br>yourself","$85<br>for<br>4","1","69","85","4","SELF"
"html-keyboard-response","49","299331","0.0-6.0-3.14","63210b26bd58960c97b47ddc","bdp_sd","Thu Apr 13 2023 11:21:38 GMT+0100 (British Summer Time)","329894","","null","","","","","offerFB","","<div class='trialBorder'><div class='vertical-center'><img style='vertical-align:center; align:center' src=img/fixation3.jpg></div><div class='cl'><div class='vertical-center'>$85<br>for<br>Thomas N</div></div><div class='cr'><div class='vertical-center'><font style='color:orange'>$69<br>for<br>yourself</font></div></div><div class='respDivL'><div class='vertical-center'>(E)</div></div><div class='respDivR'><div class='vertical-center'><font style='color:orange'>(I)</font></div></div></div>","null","$69<br>for<br>yourself","$85<br>for<br>4","1","69","85","4",""
"html-keyboard-response","50","299832","0.0-6.0-1.15","63210b26bd58960c97b47ddc","bdp_sd","Thu Apr 13 2023 11:21:38 GMT+0100 (British Summer Time)","329894","","null","","","","","FIX","","<div class='trialBorder'><div class='vertical-center'><img style='vertical-align:center; align:center' src=img/fixation3.jpg></div></div>","null","","","","","","",""
"html-keyboard-response","51","301811","0.0-6.0-2.15","63210b26bd58960c97b47ddc","bdp_sd","Thu Apr 13 2023 11:21:38 GMT+0100 (British Summer Time)","329894","","1977","","","","","offer","","<div class='trialBorder'><div class='vertical-center'><img style='vertical-align:center; align:center' src=img/fixation3.jpg></div><div class='cl'><div class='vertical-center'>$41<br>for<br>yourself</div></div><div class='cr'><div class='vertical-center'>$75<br>for<br>Ashley H</div></div><div class='respDivL'><div class='vertical-center'>(E)</div></div><div class='respDivR'><div class='vertical-center'>(I)</div></div></div>","I","$41<br>for<br>yourself","$75<br>for<br>3","0","41","75","3","OTHER"
"html-keyboard-response","52","302062","0.0-6.0-3.15","63210b26bd58960c97b47ddc","bdp_sd","Thu Apr 13 2023 11:21:38 GMT+0100 (British Summer Time)","329894","","null","","","","","offerFB","","<div class='trialBorder'><div class='vertical-center'><img style='vertical-align:center; align:center' src=img/fixation3.jpg></div><div class='cl'><div class='vertical-center'>$41<br>for<br>yourself</div></div><div class='cr'><div class='vertical-center'><font style='color:orange'>$75<br>for<br>Ashley H</font></div></div><div class='respDivL'><div class='vertical-center'>(E)</div></div><div class='respDivR'><div class='vertical-center'><font style='color:orange'>(I)</font></div></div></div>","null","$41<br>for<br>yourself","$75<br>for<br>3","0","41","75","3",""
"html-keyboard-response","53","302563","0.0-6.0-1.16","63210b26bd58960c97b47ddc","bdp_sd","Thu Apr 13 2023 11:21:38 GMT+0100 (British Summer Time)","329894","","null","","","","","FIX","","<div class='trialBorder'><div class='vertical-center'><img style='vertical-align:center; align:center' src=img/fixation3.jpg></div></div>","null","","","","","","",""
"html-keyboard-response","54","304300","0.0-6.0-2.16","63210b26bd58960c97b47ddc","bdp_sd","Thu Apr 13 2023 11:21:38 GMT+0100 (British Summer Time)","329894","","1736","","","","","offer","","<div class='trialBorder'><div class='vertical-center'><img style='vertical-align:center; align:center' src=img/fixation3.jpg></div><div class='cl'><div class='vertical-center'>$67<br>for<br>yourself</div></div><div class='cr'><div class='vertical-center'>$75<br>for<br>Lisa N</div></div><div class='respDivL'><div class='vertical-center'>(E)</div></div><div class='respDivR'><div class='vertical-center'>(I)</div></div></div>","E","$67<br>for<br>yourself","$75<br>for<br>5","0","67","75","5","SELF"
"html-keyboard-response","55","304551","0.0-6.0-3.16","63210b26bd58960c97b47ddc","bdp_sd","Thu Apr 13 2023 11:21:38 GMT+0100 (British Summer Time)","329894","","null","","","","","offerFB","","<div class='trialBorder'><div class='vertical-center'><img style='vertical-align:center; align:center' src=img/fixation3.jpg></div><div class='cl'><div class='vertical-center'><font style='color:orange'>$67<br>for<br>yourself</font></div></div><div class='cr'><div class='vertical-center'>$75<br>for<br>Lisa N</div></div><div class='respDivL'><div class='vertical-center'><font style='color:orange'>(E)</font></div></div><div class='respDivR'><div class='vertical-center'>(I)</div></div></div>","null","$67<br>for<br>yourself","$75<br>for<br>5","0","67","75","5",""
"html-keyboard-response","56","305053","0.0-6.0-1.17","63210b26bd58960c97b47ddc","bdp_sd","Thu Apr 13 2023 11:21:38 GMT+0100 (British Summer Time)","329894","","null","","","","","FIX","","<div class='trialBorder'><div class='vertical-center'><img style='vertical-align:center; align:center' src=img/fixation3.jpg></div></div>","null","","","","","","",""
"html-keyboard-response","57","306829","0.0-6.0-2.17","63210b26bd58960c97b47ddc","bdp_sd","Thu Apr 13 2023 11:21:38 GMT+0100 (British Summer Time)","329894","","1775","","","","","offer","","<div class='trialBorder'><div class='vertical-center'><img style='vertical-align:center; align:center' src=img/fixation3.jpg></div><div class='cl'><div class='vertical-center'>$30<br>for<br>Lisa N</div></div><div class='cr'><div class='vertical-center'>$28<br>for<br>yourself</div></div><div class='respDivL'><div class='vertical-center'>(E)</div></div><div class='respDivR'><div class='vertical-center'>(I)</div></div></div>","I","$28<br>for<br>yourself","$30<br>for<br>5","1","28","30","5","SELF"
"html-keyboard-response","58","307081","0.0-6.0-3.17","63210b26bd58960c97b47ddc","bdp_sd","Thu Apr 13 2023 11:21:38 GMT+0100 (British Summer Time)","329894","","null","","","","","offerFB","","<div class='trialBorder'><div class='vertical-center'><img style='vertical-align:center; align:center' src=img/fixation3.jpg></div><div class='cl'><div class='vertical-center'>$30<br>for<br>Lisa N</div></div><div class='cr'><div class='vertical-center'><font style='color:orange'>$28<br>for<br>yourself</font></div></div><div class='respDivL'><div class='vertical-center'>(E)</div></div><div class='respDivR'><div class='vertical-center'><font style='color:orange'>(I)</font></div></div></div>","null","$28<br>for<br>yourself","$30<br>for<br>5","1","28","30","5",""
"html-keyboard-response","59","307582","0.0-6.0-1.18","63210b26bd58960c97b47ddc","bdp_sd","Thu Apr 13 2023 11:21:38 GMT+0100 (British Summer Time)","329894","","null","","","","","FIX","","<div class='trialBorder'><div class='vertical-center'><img style='vertical-align:center; align:center' src=img/fixation3.jpg></div></div>","null","","","","","","",""
"html-keyboard-response","60","308986","0.0-6.0-2.18","63210b26bd58960c97b47ddc","bdp_sd","Thu Apr 13 2023 11:21:38 GMT+0100 (British Summer Time)","329894","","1403","","","","","offer","","<div class='trialBorder'><div class='vertical-center'><img style='vertical-align:center; align:center' src=img/fixation3.jpg></div><div class='cl'><div class='vertical-center'>$35<br>for<br>Joseph C</div></div><div class='cr'><div class='vertical-center'>$15<br>for<br>yourself</div></div><div class='respDivL'><div class='vertical-center'>(E)</div></div><div class='respDivR'><div class='vertical-center'>(I)</div></div></div>","E","$15<br>for<br>yourself","$35<br>for<br>2","1","15","35","2","OTHER"
"html-keyboard-response","61","309238","0.0-6.0-3.18","63210b26bd58960c97b47ddc","bdp_sd","Thu Apr 13 2023 11:21:38 GMT+0100 (British Summer Time)","329894","","null","","","","","offerFB","","<div class='trialBorder'><div class='vertical-center'><img style='vertical-align:center; align:center' src=img/fixation3.jpg></div><div class='cl'><div class='vertical-center'><font style='color:orange'>$35<br>for<br>Joseph C</font></div></div><div class='cr'><div class='vertical-center'>$15<br>for<br>yourself</div></div><div class='respDivL'><div class='vertical-center'><font style='color:orange'>(E)</font></div></div><div class='respDivR'><div class='vertical-center'>(I)</div></div></div>","null","$15<br>for<br>yourself","$35<br>for<br>2","1","15","35","2",""
"html-keyboard-response","62","309740","0.0-6.0-1.19","63210b26bd58960c97b47ddc","bdp_sd","Thu Apr 13 2023 11:21:38 GMT+0100 (British Summer Time)","329894","","null","","","","","FIX","","<div class='trialBorder'><div class='vertical-center'><img style='vertical-align:center; align:center' src=img/fixation3.jpg></div></div>","null","","","","","","",""
"html-keyboard-response","63","312270","0.0-6.0-2.19","63210b26bd58960c97b47ddc","bdp_sd","Thu Apr 13 2023 11:21:38 GMT+0100 (British Summer Time)","329894","","2530","","","","","offer","","<div class='trialBorder'><div class='vertical-center'><img style='vertical-align:center; align:center' src=img/fixation3.jpg></div><div class='cl'><div class='vertical-center'>$47<br>for<br>yourself</div></div><div class='cr'><div class='vertical-center'>$50<br>for<br>Lisa N</div></div><div class='respDivL'><div class='vertical-center'>(E)</div></div><div class='respDivR'><div class='vertical-center'>(I)</div></div></div>","E","$47<br>for<br>yourself","$50<br>for<br>5","0","47","50","5","SELF"
"html-keyboard-response","64","312522","0.0-6.0-3.19","63210b26bd58960c97b47ddc","bdp_sd","Thu Apr 13 2023 11:21:38 GMT+0100 (British Summer Time)","329894","","null","","","","","offerFB","","<div class='trialBorder'><div class='vertical-center'><img style='vertical-align:center; align:center' src=img/fixation3.jpg></div><div class='cl'><div class='vertical-center'><font style='color:orange'>$47<br>for<br>yourself</font></div></div><div class='cr'><div class='vertical-center'>$50<br>for<br>Lisa N</div></div><div class='respDivL'><div class='vertical-center'><font style='color:orange'>(E)</font></div></div><div class='respDivR'><div class='vertical-center'>(I)</div></div></div>","null","$47<br>for<br>yourself","$50<br>for<br>5","0","47","50","5",""
"html-keyboard-response","65","313024","0.0-6.0-1.20","63210b26bd58960c97b47ddc","bdp_sd","Thu Apr 13 2023 11:21:38 GMT+0100 (British Summer Time)","329894","","null","","","","","FIX","","<div class='trialBorder'><div class='vertical-center'><img style='vertical-align:center; align:center' src=img/fixation3.jpg></div></div>","null","","","","","","",""
"html-keyboard-response","66","314498","0.0-6.0-2.20","63210b26bd58960c97b47ddc","bdp_sd","Thu Apr 13 2023 11:21:38 GMT+0100 (British Summer Time)","329894","","1474","","","","","offer","","<div class='trialBorder'><div class='vertical-center'><img style='vertical-align:center; align:center' src=img/fixation3.jpg></div><div class='cl'><div class='vertical-center'>$34<br>for<br>yourself</div></div><div class='cr'><div class='vertical-center'>$35<br>for<br>Lisa N</div></div><div class='respDivL'><div class='vertical-center'>(E)</div></div><div class='respDivR'><div class='vertical-center'>(I)</div></div></div>","E","$34<br>for<br>yourself","$35<br>for<br>5","0","34","35","5","SELF"
"html-keyboard-response","67","314750","0.0-6.0-3.20","63210b26bd58960c97b47ddc","bdp_sd","Thu Apr 13 2023 11:21:38 GMT+0100 (British Summer Time)","329894","","null","","","","","offerFB","","<div class='trialBorder'><div class='vertical-center'><img style='vertical-align:center; align:center' src=img/fixation3.jpg></div><div class='cl'><div class='vertical-center'><font style='color:orange'>$34<br>for<br>yourself</font></div></div><div class='cr'><div class='vertical-center'>$35<br>for<br>Lisa N</div></div><div class='respDivL'><div class='vertical-center'><font style='color:orange'>(E)</font></div></div><div class='respDivR'><div class='vertical-center'>(I)</div></div></div>","null","$34<br>for<br>yourself","$35<br>for<br>5","0","34","35","5",""
"html-keyboard-response","68","315252","0.0-6.0-1.21","63210b26bd58960c97b47ddc","bdp_sd","Thu Apr 13 2023 11:21:38 GMT+0100 (British Summer Time)","329894","","null","","","","","FIX","","<div class='trialBorder'><div class='vertical-center'><img style='vertical-align:center; align:center' src=img/fixation3.jpg></div></div>","null","","","","","","",""
"html-keyboard-response","69","316975","0.0-6.0-2.21","63210b26bd58960c97b47ddc","bdp_sd","Thu Apr 13 2023 11:21:38 GMT+0100 (British Summer Time)","329894","","1723","","","","","offer","","<div class='trialBorder'><div class='vertical-center'><img style='vertical-align:center; align:center' src=img/fixation3.jpg></div><div class='cl'><div class='vertical-center'>$55<br>for<br>Lisa N</div></div><div class='cr'><div class='vertical-center'>$54<br>for<br>yourself</div></div><div class='respDivL'><div class='vertical-center'>(E)</div></div><div class='respDivR'><div class='vertical-center'>(I)</div></div></div>","I","$54<br>for<br>yourself","$55<br>for<br>5","1","54","55","5","SELF"
"html-keyboard-response","70","317226","0.0-6.0-3.21","63210b26bd58960c97b47ddc","bdp_sd","Thu Apr 13 2023 11:21:38 GMT+0100 (British Summer Time)","329894","","null","","","","","offerFB","","<div class='trialBorder'><div class='vertical-center'><img style='vertical-align:center; align:center' src=img/fixation3.jpg></div><div class='cl'><div class='vertical-center'>$55<br>for<br>Lisa N</div></div><div class='cr'><div class='vertical-center'><font style='color:orange'>$54<br>for<br>yourself</font></div></div><div class='respDivL'><div class='vertical-center'>(E)</div></div><div class='respDivR'><div class='vertical-center'><font style='color:orange'>(I)</font></div></div></div>","null","$54<br>for<br>yourself","$55<br>for<br>5","1","54","55","5",""
"html-keyboard-response","71","317728","0.0-6.0-1.22","63210b26bd58960c97b47ddc","bdp_sd","Thu Apr 13 2023 11:21:38 GMT+0100 (British Summer Time)","329894","","null","","","","","FIX","","<div class='trialBorder'><div class='vertical-center'><img style='vertical-align:center; align:center' src=img/fixation3.jpg></div></div>","null","","","","","","",""
"html-keyboard-response","72","319255","0.0-6.0-2.22","63210b26bd58960c97b47ddc","bdp_sd","Thu Apr 13 2023 11:21:38 GMT+0100 (British Summer Time)","329894","","1527","","","","","offer","","<div class='trialBorder'><div class='vertical-center'><img style='vertical-align:center; align:center' src=img/fixation3.jpg></div><div class='cl'><div class='vertical-center'>$30<br>for<br>Thomas N</div></div><div class='cr'><div class='vertical-center'>$25<br>for<br>yourself</div></div><div class='respDivL'><div class='vertical-center'>(E)</div></div><div class='respDivR'><div class='vertical-center'>(I)</div></div></div>","I","$25<br>for<br>yourself","$30<br>for<br>4","1","25","30","4","SELF"
"html-keyboard-response","73","319507","0.0-6.0-3.22","63210b26bd58960c97b47ddc","bdp_sd","Thu Apr 13 2023 11:21:38 GMT+0100 (British Summer Time)","329894","","null","","","","","offerFB","","<div class='trialBorder'><div class='vertical-center'><img style='vertical-align:center; align:center' src=img/fixation3.jpg></div><div class='cl'><div class='vertical-center'>$30<br>for<br>Thomas N</div></div><div class='cr'><div class='vertical-center'><font style='color:orange'>$25<br>for<br>yourself</font></div></div><div class='respDivL'><div class='vertical-center'>(E)</div></div><div class='respDivR'><div class='vertical-center'><font style='color:orange'>(I)</font></div></div></div>","null","$25<br>for<br>yourself","$30<br>for<br>4","1","25","30","4",""
"html-keyboard-response","74","320008","0.0-6.0-1.23","63210b26bd58960c97b47ddc","bdp_sd","Thu Apr 13 2023 11:21:38 GMT+0100 (British Summer Time)","329894","","null","","","","","FIX","","<div class='trialBorder'><div class='vertical-center'><img style='vertical-align:center; align:center' src=img/fixation3.jpg></div></div>","null","","","","","","",""
"html-keyboard-response","75","321327","0.0-6.0-2.23","63210b26bd58960c97b47ddc","bdp_sd","Thu Apr 13 2023 11:21:38 GMT+0100 (British Summer Time)","329894","","1317","","","","","offer","","<div class='trialBorder'><div class='vertical-center'><img style='vertical-align:center; align:center' src=img/fixation3.jpg></div><div class='cl'><div class='vertical-center'>$35<br>for<br>Ashley H</div></div><div class='cr'><div class='vertical-center'>$24<br>for<br>yourself</div></div><div class='respDivL'><div class='vertical-center'>(E)</div></div><div class='respDivR'><div class='vertical-center'>(I)</div></div></div>","E","$24<br>for<br>yourself","$35<br>for<br>3","1","24","35","3","OTHER"
"html-keyboard-response","76","321578","0.0-6.0-3.23","63210b26bd58960c97b47ddc","bdp_sd","Thu Apr 13 2023 11:21:38 GMT+0100 (British Summer Time)","329894","","null","","","","","offerFB","","<div class='trialBorder'><div class='vertical-center'><img style='vertical-align:center; align:center' src=img/fixation3.jpg></div><div class='cl'><div class='vertical-center'><font style='color:orange'>$35<br>for<br>Ashley H</font></div></div><div class='cr'><div class='vertical-center'>$24<br>for<br>yourself</div></div><div class='respDivL'><div class='vertical-center'><font style='color:orange'>(E)</font></div></div><div class='respDivR'><div class='vertical-center'>(I)</div></div></div>","null","$24<br>for<br>yourself","$35<br>for<br>3","1","24","35","3",""
"html-keyboard-response","77","322079","0.0-6.0-1.24","63210b26bd58960c97b47ddc","bdp_sd","Thu Apr 13 2023 11:21:38 GMT+0100 (British Summer Time)","329894","","null","","","","","FIX","","<div class='trialBorder'><div class='vertical-center'><img style='vertical-align:center; align:center' src=img/fixation3.jpg></div></div>","null","","","","","","",""
"html-keyboard-response","78","323768","0.0-6.0-2.24","63210b26bd58960c97b47ddc","bdp_sd","Thu Apr 13 2023 11:21:38 GMT+0100 (British Summer Time)","329894","","1688","","","","","offer","","<div class='trialBorder'><div class='vertical-center'><img style='vertical-align:center; align:center' src=img/fixation3.jpg></div><div class='cl'><div class='vertical-center'>$54<br>for<br>yourself</div></div><div class='cr'><div class='vertical-center'>$80<br>for<br>Ashley H</div></div><div class='respDivL'><div class='vertical-center'>(E)</div></div><div class='respDivR'><div class='vertical-center'>(I)</div></div></div>","I","$54<br>for<br>yourself","$80<br>for<br>3","0","54","80","3","OTHER"
"html-keyboard-response","79","324020","0.0-6.0-3.24","63210b26bd58960c97b47ddc","bdp_sd","Thu Apr 13 2023 11:21:38 GMT+0100 (British Summer Time)","329894","","null","","","","","offerFB","","<div class='trialBorder'><div class='vertical-center'><img style='vertical-align:center; align:center' src=img/fixation3.jpg></div><div class='cl'><div class='vertical-center'>$54<br>for<br>yourself</div></div><div class='cr'><div class='vertical-center'><font style='color:orange'>$80<br>for<br>Ashley H</font></div></div><div class='respDivL'><div class='vertical-center'>(E)</div></div><div class='respDivR'><div class='vertical-center'><font style='color:orange'>(I)</font></div></div></div>","null","$54<br>for<br>yourself","$80<br>for<br>3","0","54","80","3",""
"html-keyboard-response","80","324521","0.0-6.0-1.25","63210b26bd58960c97b47ddc","bdp_sd","Thu Apr 13 2023 11:21:38 GMT+0100 (British Summer Time)","329894","","null","","","","","FIX","","<div class='trialBorder'><div class='vertical-center'><img style='vertical-align:center; align:center' src=img/fixation3.jpg></div></div>","null","","","","","","",""
"html-keyboard-response","81","325790","0.0-6.0-2.25","63210b26bd58960c97b47ddc","bdp_sd","Thu Apr 13 2023 11:21:38 GMT+0100 (British Summer Time)","329894","","1268","","","","","offer","","<div class='trialBorder'><div class='vertical-center'><img style='vertical-align:center; align:center' src=img/fixation3.jpg></div><div class='cl'><div class='vertical-center'>$80<br>for<br>Joseph C</div></div><div class='cr'><div class='vertical-center'>$33<br>for<br>yourself</div></div><div class='respDivL'><div class='vertical-center'>(E)</div></div><div class='respDivR'><div class='vertical-center'>(I)</div></div></div>","E","$33<br>for<br>yourself","$80<br>for<br>2","1","33","80","2","OTHER"
"html-keyboard-response","82","326041","0.0-6.0-3.25","63210b26bd58960c97b47ddc","bdp_sd","Thu Apr 13 2023 11:21:38 GMT+0100 (British Summer Time)","329894","","null","","","","","offerFB","","<div class='trialBorder'><div class='vertical-center'><img style='vertical-align:center; align:center' src=img/fixation3.jpg></div><div class='cl'><div class='vertical-center'><font style='color:orange'>$80<br>for<br>Joseph C</font></div></div><div class='cr'><div class='vertical-center'>$33<br>for<br>yourself</div></div><div class='respDivL'><div class='vertical-center'><font style='color:orange'>(E)</font></div></div><div class='respDivR'><div class='vertical-center'>(I)</div></div></div>","null","$33<br>for<br>yourself","$80<br>for<br>2","1","33","80","2",""
"html-keyboard-response","83","326543","0.0-6.0-1.26","63210b26bd58960c97b47ddc","bdp_sd","Thu Apr 13 2023 11:21:38 GMT+0100 (British Summer Time)","329894","","null","","","","","FIX","","<div class='trialBorder'><div class='vertical-center'><img style='vertical-align:center; align:center' src=img/fixation3.jpg></div></div>","null","","","","","","",""
"html-keyboard-response","84","328640","0.0-6.0-2.26","63210b26bd58960c97b47ddc","bdp_sd","Thu Apr 13 2023 11:21:38 GMT+0100 (British Summer Time)","329894","","2097","","","","","offer","","<div class='trialBorder'><div class='vertical-center'><img style='vertical-align:center; align:center' src=img/fixation3.jpg></div><div class='cl'><div class='vertical-center'>$34<br>for<br>yourself</div></div><div class='cr'><div class='vertical-center'>$50<br>for<br>Thomas N</div></div><div class='respDivL'><div class='vertical-center'>(E)</div></div><div class='respDivR'><div class='vertical-center'>(I)</div></div></div>","I","$34<br>for<br>yourself","$50<br>for<br>4","0","34","50","4","OTHER"
"html-keyboard-response","85","328892","0.0-6.0-3.26","63210b26bd58960c97b47ddc","bdp_sd","Thu Apr 13 2023 11:21:38 GMT+0100 (British Summer Time)","329894","","null","","","","","offerFB","","<div class='trialBorder'><div class='vertical-center'><img style='vertical-align:center; align:center' src=img/fixation3.jpg></div><div class='cl'><div class='vertical-center'>$34<br>for<br>yourself</div></div><div class='cr'><div class='vertical-center'><font style='color:orange'>$50<br>for<br>Thomas N</font></div></div><div class='respDivL'><div class='vertical-center'>(E)</div></div><div class='respDivR'><div class='vertical-center'><font style='color:orange'>(I)</font></div></div></div>","null","$34<br>for<br>yourself","$50<br>for<br>4","0","34","50","4",""
"","","","","63210b26bd58960c97b47ddc","bdp_sd","Thu Apr 13 2023 11:21:38 GMT+0100 (British Summer Time)","329894","","","","fullscreenexit","86","328913","fullscreenexit","","","","","","","","","",""
"fullscreen","86","329893","0.0-7.0","63210b26bd58960c97b47ddc","bdp_sd","Thu Apr 13 2023 11:21:38 GMT+0100 (British Summer Time)","329894","","","","","","","","true","","","","","","","","",""
"html-keyboard-response","87","330394","0.0-8.0","","","","","","null","","","","","","","","null","","","","","","",""
