"trial_type","trial_index","time_elapsed","internal_node_id","subject_id","task","startTime","totalTime","view_history","rt","responses","event","trial","time","trialtype","success","stimulus","key_press","selfOffer","otherOffer","otherLeft","selfAmt","otherAmt","otherDist","chosen"
"pavlovia","0","8","0.0-0.0","6340d2fa46f2d707e146b63b","bdp_sd","Mon Mar 27 2023 23:12:57 GMT-0400 (Eastern Daylight Time)","286246","","","","","","","","","","","","","","","","",""
"instructions","1","1739","0.0-1.0","6340d2fa46f2d707e146b63b","bdp_sd","Mon Mar 27 2023 23:12:57 GMT-0400 (Eastern Daylight Time)","286246","[{""page_index"":0,""viewing_time"":1731}]","1731","","","","","","","","","","","","","","",""
"survey-text","2","175143","0.0-2.0","6340d2fa46f2d707e146b63b","bdp_sd","Mon Mar 27 2023 23:12:57 GMT-0400 (Eastern Daylight Time)","286246","","173403","{""Q0"":""Alec D"",""Q1"":""Singh K"",""Q2"":""James N"",""Q3"":""Joe T"",""Q4"":""Larry H""}","","","","","","","","","","","","","",""
"","","","","6340d2fa46f2d707e146b63b","bdp_sd","Mon Mar 27 2023 23:12:57 GMT-0400 (Eastern Daylight Time)","286246","","","","fullscreenenter","3","176885","fullscreenenter","","","","","","","","","",""
"fullscreen","3","177844","0.0-3.0","6340d2fa46f2d707e146b63b","bdp_sd","Mon Mar 27 2023 23:12:57 GMT-0400 (Eastern Daylight Time)","286246","","","","","","","","true","","","","","","","","",""
"instructions","4","203467","0.0-5.0","6340d2fa46f2d707e146b63b","bdp_sd","Mon Mar 27 2023 23:12:57 GMT-0400 (Eastern Daylight Time)","286246","[{""page_index"":0,""viewing_time"":7539},{""page_index"":1,""viewing_time"":16073},{""page_index"":2,""viewing_time"":2010}]","25622","","","","","","","","","","","","","","",""
"html-keyboard-response","5","203974","0.0-6.0-1.0","6340d2fa46f2d707e146b63b","bdp_sd","Mon Mar 27 2023 23:12:57 GMT-0400 (Eastern Daylight Time)","286246","","null","","","","","FIX","","<div class='trialBorder'><div class='vertical-center'><img style='vertical-align:center; align:center' src=img/fixation3.jpg></div></div>","null","","","","","","",""
"html-keyboard-response","6","208568","0.0-6.0-2.0","6340d2fa46f2d707e146b63b","bdp_sd","Mon Mar 27 2023 23:12:57 GMT-0400 (Eastern Daylight Time)","286246","","4592","","","","","offer","","<div class='trialBorder'><div class='vertical-center'><img style='vertical-align:center; align:center' src=img/fixation3.jpg></div><div class='cl'><div class='vertical-center'>$34<br>for<br>yourself</div></div><div class='cr'><div class='vertical-center'>$50<br>for<br>Joe T</div></div><div class='respDivL'><div class='vertical-center'>(E)</div></div><div class='respDivR'><div class='vertical-center'>(I)</div></div></div>","I","$34<br>for<br>yourself","$50<br>for<br>4","0","34","50","4","OTHER"
"html-keyboard-response","7","208827","0.0-6.0-3.0","6340d2fa46f2d707e146b63b","bdp_sd","Mon Mar 27 2023 23:12:57 GMT-0400 (Eastern Daylight Time)","286246","","null","","","","","offerFB","","<div class='trialBorder'><div class='vertical-center'><img style='vertical-align:center; align:center' src=img/fixation3.jpg></div><div class='cl'><div class='vertical-center'>$34<br>for<br>yourself</div></div><div class='cr'><div class='vertical-center'><font style='color:orange'>$50<br>for<br>Joe T</font></div></div><div class='respDivL'><div class='vertical-center'>(E)</div></div><div class='respDivR'><div class='vertical-center'><font style='color:orange'>(I)</font></div></div></div>","null","$34<br>for<br>yourself","$50<br>for<br>4","0","34","50","4",""
"html-keyboard-response","8","209332","0.0-6.0-1.1","6340d2fa46f2d707e146b63b","bdp_sd","Mon Mar 27 2023 23:12:57 GMT-0400 (Eastern Daylight Time)","286246","","null","","","","","FIX","","<div class='trialBorder'><div class='vertical-center'><img style='vertical-align:center; align:center' src=img/fixation3.jpg></div></div>","null","","","","","","",""
"html-keyboard-response","9","214199","0.0-6.0-2.1","6340d2fa46f2d707e146b63b","bdp_sd","Mon Mar 27 2023 23:12:57 GMT-0400 (Eastern Daylight Time)","286246","","4864","","","","","offer","","<div class='trialBorder'><div class='vertical-center'><img style='vertical-align:center; align:center' src=img/fixation3.jpg></div><div class='cl'><div class='vertical-center'>$60<br>for<br>Larry H</div></div><div class='cr'><div class='vertical-center'>$54<br>for<br>yourself</div></div><div class='respDivL'><div class='vertical-center'>(E)</div></div><div class='respDivR'><div class='vertical-center'>(I)</div></div></div>","I","$54<br>for<br>yourself","$60<br>for<br>5","1","54","60","5","SELF"
"html-keyboard-response","10","214467","0.0-6.0-3.1","6340d2fa46f2d707e146b63b","bdp_sd","Mon Mar 27 2023 23:12:57 GMT-0400 (Eastern Daylight Time)","286246","","null","","","","","offerFB","","<div class='trialBorder'><div class='vertical-center'><img style='vertical-align:center; align:center' src=img/fixation3.jpg></div><div class='cl'><div class='vertical-center'>$60<br>for<br>Larry H</div></div><div class='cr'><div class='vertical-center'><font style='color:orange'>$54<br>for<br>yourself</font></div></div><div class='respDivL'><div class='vertical-center'>(E)</div></div><div class='respDivR'><div class='vertical-center'><font style='color:orange'>(I)</font></div></div></div>","null","$54<br>for<br>yourself","$60<br>for<br>5","1","54","60","5",""
"html-keyboard-response","11","214971","0.0-6.0-1.2","6340d2fa46f2d707e146b63b","bdp_sd","Mon Mar 27 2023 23:12:57 GMT-0400 (Eastern Daylight Time)","286246","","null","","","","","FIX","","<div class='trialBorder'><div class='vertical-center'><img style='vertical-align:center; align:center' src=img/fixation3.jpg></div></div>","null","","","","","","",""
"html-keyboard-response","12","217280","0.0-6.0-2.2","6340d2fa46f2d707e146b63b","bdp_sd","Mon Mar 27 2023 23:12:57 GMT-0400 (Eastern Daylight Time)","286246","","2307","","","","","offer","","<div class='trialBorder'><div class='vertical-center'><img style='vertical-align:center; align:center' src=img/fixation3.jpg></div><div class='cl'><div class='vertical-center'>$15<br>for<br>yourself</div></div><div class='cr'><div class='vertical-center'>$35<br>for<br>Singh K</div></div><div class='respDivL'><div class='vertical-center'>(E)</div></div><div class='respDivR'><div class='vertical-center'>(I)</div></div></div>","I","$15<br>for<br>yourself","$35<br>for<br>2","0","15","35","2","OTHER"
"html-keyboard-response","13","217538","0.0-6.0-3.2","6340d2fa46f2d707e146b63b","bdp_sd","Mon Mar 27 2023 23:12:57 GMT-0400 (Eastern Daylight Time)","286246","","null","","","","","offerFB","","<div class='trialBorder'><div class='vertical-center'><img style='vertical-align:center; align:center' src=img/fixation3.jpg></div><div class='cl'><div class='vertical-center'>$15<br>for<br>yourself</div></div><div class='cr'><div class='vertical-center'><font style='color:orange'>$35<br>for<br>Singh K</font></div></div><div class='respDivL'><div class='vertical-center'>(E)</div></div><div class='respDivR'><div class='vertical-center'><font style='color:orange'>(I)</font></div></div></div>","null","$15<br>for<br>yourself","$35<br>for<br>2","0","15","35","2",""
"html-keyboard-response","14","218043","0.0-6.0-1.3","6340d2fa46f2d707e146b63b","bdp_sd","Mon Mar 27 2023 23:12:57 GMT-0400 (Eastern Daylight Time)","286246","","null","","","","","FIX","","<div class='trialBorder'><div class='vertical-center'><img style='vertical-align:center; align:center' src=img/fixation3.jpg></div></div>","null","","","","","","",""
"html-keyboard-response","15","221073","0.0-6.0-2.3","6340d2fa46f2d707e146b63b","bdp_sd","Mon Mar 27 2023 23:12:57 GMT-0400 (Eastern Daylight Time)","286246","","3029","","","","","offer","","<div class='trialBorder'><div class='vertical-center'><img style='vertical-align:center; align:center' src=img/fixation3.jpg></div><div class='cl'><div class='vertical-center'>$54<br>for<br>yourself</div></div><div class='cr'><div class='vertical-center'>$80<br>for<br>James N</div></div><div class='respDivL'><div class='vertical-center'>(E)</div></div><div class='respDivR'><div class='vertical-center'>(I)</div></div></div>","E","$54<br>for<br>yourself","$80<br>for<br>3","0","54","80","3","SELF"
"html-keyboard-response","16","221331","0.0-6.0-3.3","6340d2fa46f2d707e146b63b","bdp_sd","Mon Mar 27 2023 23:12:57 GMT-0400 (Eastern Daylight Time)","286246","","null","","","","","offerFB","","<div class='trialBorder'><div class='vertical-center'><img style='vertical-align:center; align:center' src=img/fixation3.jpg></div><div class='cl'><div class='vertical-center'><font style='color:orange'>$54<br>for<br>yourself</font></div></div><div class='cr'><div class='vertical-center'>$80<br>for<br>James N</div></div><div class='respDivL'><div class='vertical-center'><font style='color:orange'>(E)</font></div></div><div class='respDivR'><div class='vertical-center'>(I)</div></div></div>","null","$54<br>for<br>yourself","$80<br>for<br>3","0","54","80","3",""
"html-keyboard-response","17","221837","0.0-6.0-1.4","6340d2fa46f2d707e146b63b","bdp_sd","Mon Mar 27 2023 23:12:57 GMT-0400 (Eastern Daylight Time)","286246","","null","","","","","FIX","","<div class='trialBorder'><div class='vertical-center'><img style='vertical-align:center; align:center' src=img/fixation3.jpg></div></div>","null","","","","","","",""
"html-keyboard-response","18","224199","0.0-6.0-2.4","6340d2fa46f2d707e146b63b","bdp_sd","Mon Mar 27 2023 23:12:57 GMT-0400 (Eastern Daylight Time)","286246","","2361","","","","","offer","","<div class='trialBorder'><div class='vertical-center'><img style='vertical-align:center; align:center' src=img/fixation3.jpg></div><div class='cl'><div class='vertical-center'>$50<br>for<br>Larry H</div></div><div class='cr'><div class='vertical-center'>$47<br>for<br>yourself</div></div><div class='respDivL'><div class='vertical-center'>(E)</div></div><div class='respDivR'><div class='vertical-center'>(I)</div></div></div>","I","$47<br>for<br>yourself","$50<br>for<br>5","1","47","50","5","SELF"
"html-keyboard-response","19","224466","0.0-6.0-3.4","6340d2fa46f2d707e146b63b","bdp_sd","Mon Mar 27 2023 23:12:57 GMT-0400 (Eastern Daylight Time)","286246","","null","","","","","offerFB","","<div class='trialBorder'><div class='vertical-center'><img style='vertical-align:center; align:center' src=img/fixation3.jpg></div><div class='cl'><div class='vertical-center'>$50<br>for<br>Larry H</div></div><div class='cr'><div class='vertical-center'><font style='color:orange'>$47<br>for<br>yourself</font></div></div><div class='respDivL'><div class='vertical-center'>(E)</div></div><div class='respDivR'><div class='vertical-center'><font style='color:orange'>(I)</font></div></div></div>","null","$47<br>for<br>yourself","$50<br>for<br>5","1","47","50","5",""
"html-keyboard-response","20","224972","0.0-6.0-1.5","6340d2fa46f2d707e146b63b","bdp_sd","Mon Mar 27 2023 23:12:57 GMT-0400 (Eastern Daylight Time)","286246","","null","","","","","FIX","","<div class='trialBorder'><div class='vertical-center'><img style='vertical-align:center; align:center' src=img/fixation3.jpg></div></div>","null","","","","","","",""
"html-keyboard-response","21","227021","0.0-6.0-2.5","6340d2fa46f2d707e146b63b","bdp_sd","Mon Mar 27 2023 23:12:57 GMT-0400 (Eastern Daylight Time)","286246","","2047","","","","","offer","","<div class='trialBorder'><div class='vertical-center'><img style='vertical-align:center; align:center' src=img/fixation3.jpg></div><div class='cl'><div class='vertical-center'>$78<br>for<br>yourself</div></div><div class='cr'><div class='vertical-center'>$80<br>for<br>Larry H</div></div><div class='respDivL'><div class='vertical-center'>(E)</div></div><div class='respDivR'><div class='vertical-center'>(I)</div></div></div>","E","$78<br>for<br>yourself","$80<br>for<br>5","0","78","80","5","SELF"
"html-keyboard-response","22","227274","0.0-6.0-3.5","6340d2fa46f2d707e146b63b","bdp_sd","Mon Mar 27 2023 23:12:57 GMT-0400 (Eastern Daylight Time)","286246","","null","","","","","offerFB","","<div class='trialBorder'><div class='vertical-center'><img style='vertical-align:center; align:center' src=img/fixation3.jpg></div><div class='cl'><div class='vertical-center'><font style='color:orange'>$78<br>for<br>yourself</font></div></div><div class='cr'><div class='vertical-center'>$80<br>for<br>Larry H</div></div><div class='respDivL'><div class='vertical-center'><font style='color:orange'>(E)</font></div></div><div class='respDivR'><div class='vertical-center'>(I)</div></div></div>","null","$78<br>for<br>yourself","$80<br>for<br>5","0","78","80","5",""
"html-keyboard-response","23","227779","0.0-6.0-1.6","6340d2fa46f2d707e146b63b","bdp_sd","Mon Mar 27 2023 23:12:57 GMT-0400 (Eastern Daylight Time)","286246","","null","","","","","FIX","","<div class='trialBorder'><div class='vertical-center'><img style='vertical-align:center; align:center' src=img/fixation3.jpg></div></div>","null","","","","","","",""
"html-keyboard-response","24","229461","0.0-6.0-2.6","6340d2fa46f2d707e146b63b","bdp_sd","Mon Mar 27 2023 23:12:57 GMT-0400 (Eastern Daylight Time)","286246","","1679","","","","","offer","","<div class='trialBorder'><div class='vertical-center'><img style='vertical-align:center; align:center' src=img/fixation3.jpg></div><div class='cl'><div class='vertical-center'>$35<br>for<br>Larry H</div></div><div class='cr'><div class='vertical-center'>$34<br>for<br>yourself</div></div><div class='respDivL'><div class='vertical-center'>(E)</div></div><div class='respDivR'><div class='vertical-center'>(I)</div></div></div>","I","$34<br>for<br>yourself","$35<br>for<br>5","1","34","35","5","SELF"
"html-keyboard-response","25","229713","0.0-6.0-3.6","6340d2fa46f2d707e146b63b","bdp_sd","Mon Mar 27 2023 23:12:57 GMT-0400 (Eastern Daylight Time)","286246","","null","","","","","offerFB","","<div class='trialBorder'><div class='vertical-center'><img style='vertical-align:center; align:center' src=img/fixation3.jpg></div><div class='cl'><div class='vertical-center'>$35<br>for<br>Larry H</div></div><div class='cr'><div class='vertical-center'><font style='color:orange'>$34<br>for<br>yourself</font></div></div><div class='respDivL'><div class='vertical-center'>(E)</div></div><div class='respDivR'><div class='vertical-center'><font style='color:orange'>(I)</font></div></div></div>","null","$34<br>for<br>yourself","$35<br>for<br>5","1","34","35","5",""
"html-keyboard-response","26","230216","0.0-6.0-1.7","6340d2fa46f2d707e146b63b","bdp_sd","Mon Mar 27 2023 23:12:57 GMT-0400 (Eastern Daylight Time)","286246","","null","","","","","FIX","","<div class='trialBorder'><div class='vertical-center'><img style='vertical-align:center; align:center' src=img/fixation3.jpg></div></div>","null","","","","","","",""
"html-keyboard-response","27","232150","0.0-6.0-2.7","6340d2fa46f2d707e146b63b","bdp_sd","Mon Mar 27 2023 23:12:57 GMT-0400 (Eastern Daylight Time)","286246","","1932","","","","","offer","","<div class='trialBorder'><div class='vertical-center'><img style='vertical-align:center; align:center' src=img/fixation3.jpg></div><div class='cl'><div class='vertical-center'>$14<br>for<br>yourself</div></div><div class='cr'><div class='vertical-center'>$25<br>for<br>James N</div></div><div class='respDivL'><div class='vertical-center'>(E)</div></div><div class='respDivR'><div class='vertical-center'>(I)</div></div></div>","I","$14<br>for<br>yourself","$25<br>for<br>3","0","14","25","3","OTHER"
"html-keyboard-response","28","232419","0.0-6.0-3.7","6340d2fa46f2d707e146b63b","bdp_sd","Mon Mar 27 2023 23:12:57 GMT-0400 (Eastern Daylight Time)","286246","","null","","","","","offerFB","","<div class='trialBorder'><div class='vertical-center'><img style='vertical-align:center; align:center' src=img/fixation3.jpg></div><div class='cl'><div class='vertical-center'>$14<br>for<br>yourself</div></div><div class='cr'><div class='vertical-center'><font style='color:orange'>$25<br>for<br>James N</font></div></div><div class='respDivL'><div class='vertical-center'>(E)</div></div><div class='respDivR'><div class='vertical-center'><font style='color:orange'>(I)</font></div></div></div>","null","$14<br>for<br>yourself","$25<br>for<br>3","0","14","25","3",""
"html-keyboard-response","29","232923","0.0-6.0-1.8","6340d2fa46f2d707e146b63b","bdp_sd","Mon Mar 27 2023 23:12:57 GMT-0400 (Eastern Daylight Time)","286246","","null","","","","","FIX","","<div class='trialBorder'><div class='vertical-center'><img style='vertical-align:center; align:center' src=img/fixation3.jpg></div></div>","null","","","","","","",""
"html-keyboard-response","30","235608","0.0-6.0-2.8","6340d2fa46f2d707e146b63b","bdp_sd","Mon Mar 27 2023 23:12:57 GMT-0400 (Eastern Daylight Time)","286246","","2683","","","","","offer","","<div class='trialBorder'><div class='vertical-center'><img style='vertical-align:center; align:center' src=img/fixation3.jpg></div><div class='cl'><div class='vertical-center'>$41<br>for<br>yourself</div></div><div class='cr'><div class='vertical-center'>$75<br>for<br>James N</div></div><div class='respDivL'><div class='vertical-center'>(E)</div></div><div class='respDivR'><div class='vertical-center'>(I)</div></div></div>","E","$41<br>for<br>yourself","$75<br>for<br>3","0","41","75","3","SELF"
"html-keyboard-response","31","235867","0.0-6.0-3.8","6340d2fa46f2d707e146b63b","bdp_sd","Mon Mar 27 2023 23:12:57 GMT-0400 (Eastern Daylight Time)","286246","","null","","","","","offerFB","","<div class='trialBorder'><div class='vertical-center'><img style='vertical-align:center; align:center' src=img/fixation3.jpg></div><div class='cl'><div class='vertical-center'><font style='color:orange'>$41<br>for<br>yourself</font></div></div><div class='cr'><div class='vertical-center'>$75<br>for<br>James N</div></div><div class='respDivL'><div class='vertical-center'><font style='color:orange'>(E)</font></div></div><div class='respDivR'><div class='vertical-center'>(I)</div></div></div>","null","$41<br>for<br>yourself","$75<br>for<br>3","0","41","75","3",""
"html-keyboard-response","32","236373","0.0-6.0-1.9","6340d2fa46f2d707e146b63b","bdp_sd","Mon Mar 27 2023 23:12:57 GMT-0400 (Eastern Daylight Time)","286246","","null","","","","","FIX","","<div class='trialBorder'><div class='vertical-center'><img style='vertical-align:center; align:center' src=img/fixation3.jpg></div></div>","null","","","","","","",""
"html-keyboard-response","33","239029","0.0-6.0-2.9","6340d2fa46f2d707e146b63b","bdp_sd","Mon Mar 27 2023 23:12:57 GMT-0400 (Eastern Daylight Time)","286246","","2654","","","","","offer","","<div class='trialBorder'><div class='vertical-center'><img style='vertical-align:center; align:center' src=img/fixation3.jpg></div><div class='cl'><div class='vertical-center'>$85<br>for<br>Larry H</div></div><div class='cr'><div class='vertical-center'>$80<br>for<br>yourself</div></div><div class='respDivL'><div class='vertical-center'>(E)</div></div><div class='respDivR'><div class='vertical-center'>(I)</div></div></div>","I","$80<br>for<br>yourself","$85<br>for<br>5","1","80","85","5","SELF"
"html-keyboard-response","34","239287","0.0-6.0-3.9","6340d2fa46f2d707e146b63b","bdp_sd","Mon Mar 27 2023 23:12:57 GMT-0400 (Eastern Daylight Time)","286246","","null","","","","","offerFB","","<div class='trialBorder'><div class='vertical-center'><img style='vertical-align:center; align:center' src=img/fixation3.jpg></div><div class='cl'><div class='vertical-center'>$85<br>for<br>Larry H</div></div><div class='cr'><div class='vertical-center'><font style='color:orange'>$80<br>for<br>yourself</font></div></div><div class='respDivL'><div class='vertical-center'>(E)</div></div><div class='respDivR'><div class='vertical-center'><font style='color:orange'>(I)</font></div></div></div>","null","$80<br>for<br>yourself","$85<br>for<br>5","1","80","85","5",""
"html-keyboard-response","35","239795","0.0-6.0-1.10","6340d2fa46f2d707e146b63b","bdp_sd","Mon Mar 27 2023 23:12:57 GMT-0400 (Eastern Daylight Time)","286246","","null","","","","","FIX","","<div class='trialBorder'><div class='vertical-center'><img style='vertical-align:center; align:center' src=img/fixation3.jpg></div></div>","null","","","","","","",""
"html-keyboard-response","36","241169","0.0-6.0-2.10","6340d2fa46f2d707e146b63b","bdp_sd","Mon Mar 27 2023 23:12:57 GMT-0400 (Eastern Daylight Time)","286246","","1372","","","","","offer","","<div class='trialBorder'><div class='vertical-center'><img style='vertical-align:center; align:center' src=img/fixation3.jpg></div><div class='cl'><div class='vertical-center'>$25<br>for<br>Larry H</div></div><div class='cr'><div class='vertical-center'>$22<br>for<br>yourself</div></div><div class='respDivL'><div class='vertical-center'>(E)</div></div><div class='respDivR'><div class='vertical-center'>(I)</div></div></div>","I","$22<br>for<br>yourself","$25<br>for<br>5","1","22","25","5","SELF"
"html-keyboard-response","37","241428","0.0-6.0-3.10","6340d2fa46f2d707e146b63b","bdp_sd","Mon Mar 27 2023 23:12:57 GMT-0400 (Eastern Daylight Time)","286246","","null","","","","","offerFB","","<div class='trialBorder'><div class='vertical-center'><img style='vertical-align:center; align:center' src=img/fixation3.jpg></div><div class='cl'><div class='vertical-center'>$25<br>for<br>Larry H</div></div><div class='cr'><div class='vertical-center'><font style='color:orange'>$22<br>for<br>yourself</font></div></div><div class='respDivL'><div class='vertical-center'>(E)</div></div><div class='respDivR'><div class='vertical-center'><font style='color:orange'>(I)</font></div></div></div>","null","$22<br>for<br>yourself","$25<br>for<br>5","1","22","25","5",""
"html-keyboard-response","38","241934","0.0-6.0-1.11","6340d2fa46f2d707e146b63b","bdp_sd","Mon Mar 27 2023 23:12:57 GMT-0400 (Eastern Daylight Time)","286246","","null","","","","","FIX","","<div class='trialBorder'><div class='vertical-center'><img style='vertical-align:center; align:center' src=img/fixation3.jpg></div></div>","null","","","","","","",""
"html-keyboard-response","39","245618","0.0-6.0-2.11","6340d2fa46f2d707e146b63b","bdp_sd","Mon Mar 27 2023 23:12:57 GMT-0400 (Eastern Daylight Time)","286246","","3682","","","","","offer","","<div class='trialBorder'><div class='vertical-center'><img style='vertical-align:center; align:center' src=img/fixation3.jpg></div><div class='cl'><div class='vertical-center'>$49<br>for<br>yourself</div></div><div class='cr'><div class='vertical-center'>$60<br>for<br>Joe T</div></div><div class='respDivL'><div class='vertical-center'>(E)</div></div><div class='respDivR'><div class='vertical-center'>(I)</div></div></div>","E","$49<br>for<br>yourself","$60<br>for<br>4","0","49","60","4","SELF"
"html-keyboard-response","40","245871","0.0-6.0-3.11","6340d2fa46f2d707e146b63b","bdp_sd","Mon Mar 27 2023 23:12:57 GMT-0400 (Eastern Daylight Time)","286246","","null","","","","","offerFB","","<div class='trialBorder'><div class='vertical-center'><img style='vertical-align:center; align:center' src=img/fixation3.jpg></div><div class='cl'><div class='vertical-center'><font style='color:orange'>$49<br>for<br>yourself</font></div></div><div class='cr'><div class='vertical-center'>$60<br>for<br>Joe T</div></div><div class='respDivL'><div class='vertical-center'><font style='color:orange'>(E)</font></div></div><div class='respDivR'><div class='vertical-center'>(I)</div></div></div>","null","$49<br>for<br>yourself","$60<br>for<br>4","0","49","60","4",""
"html-keyboard-response","41","246376","0.0-6.0-1.12","6340d2fa46f2d707e146b63b","bdp_sd","Mon Mar 27 2023 23:12:57 GMT-0400 (Eastern Daylight Time)","286246","","null","","","","","FIX","","<div class='trialBorder'><div class='vertical-center'><img style='vertical-align:center; align:center' src=img/fixation3.jpg></div></div>","null","","","","","","",""
"html-keyboard-response","42","247697","0.0-6.0-2.12","6340d2fa46f2d707e146b63b","bdp_sd","Mon Mar 27 2023 23:12:57 GMT-0400 (Eastern Daylight Time)","286246","","1319","","","","","offer","","<div class='trialBorder'><div class='vertical-center'><img style='vertical-align:center; align:center' src=img/fixation3.jpg></div><div class='cl'><div class='vertical-center'>$54<br>for<br>yourself</div></div><div class='cr'><div class='vertical-center'>$55<br>for<br>Larry H</div></div><div class='respDivL'><div class='vertical-center'>(E)</div></div><div class='respDivR'><div class='vertical-center'>(I)</div></div></div>","E","$54<br>for<br>yourself","$55<br>for<br>5","0","54","55","5","SELF"
"html-keyboard-response","43","247953","0.0-6.0-3.12","6340d2fa46f2d707e146b63b","bdp_sd","Mon Mar 27 2023 23:12:57 GMT-0400 (Eastern Daylight Time)","286246","","null","","","","","offerFB","","<div class='trialBorder'><div class='vertical-center'><img style='vertical-align:center; align:center' src=img/fixation3.jpg></div><div class='cl'><div class='vertical-center'><font style='color:orange'>$54<br>for<br>yourself</font></div></div><div class='cr'><div class='vertical-center'>$55<br>for<br>Larry H</div></div><div class='respDivL'><div class='vertical-center'><font style='color:orange'>(E)</font></div></div><div class='respDivR'><div class='vertical-center'>(I)</div></div></div>","null","$54<br>for<br>yourself","$55<br>for<br>5","0","54","55","5",""
"html-keyboard-response","44","248455","0.0-6.0-1.13","6340d2fa46f2d707e146b63b","bdp_sd","Mon Mar 27 2023 23:12:57 GMT-0400 (Eastern Daylight Time)","286246","","null","","","","","FIX","","<div class='trialBorder'><div class='vertical-center'><img style='vertical-align:center; align:center' src=img/fixation3.jpg></div></div>","null","","","","","","",""
"html-keyboard-response","45","251224","0.0-6.0-2.13","6340d2fa46f2d707e146b63b","bdp_sd","Mon Mar 27 2023 23:12:57 GMT-0400 (Eastern Daylight Time)","286246","","2768","","","","","offer","","<div class='trialBorder'><div class='vertical-center'><img style='vertical-align:center; align:center' src=img/fixation3.jpg></div><div class='cl'><div class='vertical-center'>$85<br>for<br>Alec D</div></div><div class='cr'><div class='vertical-center'>$31<br>for<br>yourself</div></div><div class='respDivL'><div class='vertical-center'>(E)</div></div><div class='respDivR'><div class='vertical-center'>(I)</div></div></div>","I","$31<br>for<br>yourself","$85<br>for<br>1","1","31","85","1","SELF"
"html-keyboard-response","46","251490","0.0-6.0-3.13","6340d2fa46f2d707e146b63b","bdp_sd","Mon Mar 27 2023 23:12:57 GMT-0400 (Eastern Daylight Time)","286246","","null","","","","","offerFB","","<div class='trialBorder'><div class='vertical-center'><img style='vertical-align:center; align:center' src=img/fixation3.jpg></div><div class='cl'><div class='vertical-center'>$85<br>for<br>Alec D</div></div><div class='cr'><div class='vertical-center'><font style='color:orange'>$31<br>for<br>yourself</font></div></div><div class='respDivL'><div class='vertical-center'>(E)</div></div><div class='respDivR'><div class='vertical-center'><font style='color:orange'>(I)</font></div></div></div>","null","$31<br>for<br>yourself","$85<br>for<br>1","1","31","85","1",""
"html-keyboard-response","47","251995","0.0-6.0-1.14","6340d2fa46f2d707e146b63b","bdp_sd","Mon Mar 27 2023 23:12:57 GMT-0400 (Eastern Daylight Time)","286246","","null","","","","","FIX","","<div class='trialBorder'><div class='vertical-center'><img style='vertical-align:center; align:center' src=img/fixation3.jpg></div></div>","null","","","","","","",""
"html-keyboard-response","48","253687","0.0-6.0-2.14","6340d2fa46f2d707e146b63b","bdp_sd","Mon Mar 27 2023 23:12:57 GMT-0400 (Eastern Daylight Time)","286246","","1689","","","","","offer","","<div class='trialBorder'><div class='vertical-center'><img style='vertical-align:center; align:center' src=img/fixation3.jpg></div><div class='cl'><div class='vertical-center'>$85<br>for<br>Joe T</div></div><div class='cr'><div class='vertical-center'>$69<br>for<br>yourself</div></div><div class='respDivL'><div class='vertical-center'>(E)</div></div><div class='respDivR'><div class='vertical-center'>(I)</div></div></div>","I","$69<br>for<br>yourself","$85<br>for<br>4","1","69","85","4","SELF"
"html-keyboard-response","49","253941","0.0-6.0-3.14","6340d2fa46f2d707e146b63b","bdp_sd","Mon Mar 27 2023 23:12:57 GMT-0400 (Eastern Daylight Time)","286246","","null","","","","","offerFB","","<div class='trialBorder'><div class='vertical-center'><img style='vertical-align:center; align:center' src=img/fixation3.jpg></div><div class='cl'><div class='vertical-center'>$85<br>for<br>Joe T</div></div><div class='cr'><div class='vertical-center'><font style='color:orange'>$69<br>for<br>yourself</font></div></div><div class='respDivL'><div class='vertical-center'>(E)</div></div><div class='respDivR'><div class='vertical-center'><font style='color:orange'>(I)</font></div></div></div>","null","$69<br>for<br>yourself","$85<br>for<br>4","1","69","85","4",""
"html-keyboard-response","50","254447","0.0-6.0-1.15","6340d2fa46f2d707e146b63b","bdp_sd","Mon Mar 27 2023 23:12:57 GMT-0400 (Eastern Daylight Time)","286246","","null","","","","","FIX","","<div class='trialBorder'><div class='vertical-center'><img style='vertical-align:center; align:center' src=img/fixation3.jpg></div></div>","null","","","","","","",""
"html-keyboard-response","51","256644","0.0-6.0-2.15","6340d2fa46f2d707e146b63b","bdp_sd","Mon Mar 27 2023 23:12:57 GMT-0400 (Eastern Daylight Time)","286246","","2195","","","","","offer","","<div class='trialBorder'><div class='vertical-center'><img style='vertical-align:center; align:center' src=img/fixation3.jpg></div><div class='cl'><div class='vertical-center'>$27<br>for<br>yourself</div></div><div class='cr'><div class='vertical-center'>$50<br>for<br>James N</div></div><div class='respDivL'><div class='vertical-center'>(E)</div></div><div class='respDivR'><div class='vertical-center'>(I)</div></div></div>","E","$27<br>for<br>yourself","$50<br>for<br>3","0","27","50","3","SELF"
"html-keyboard-response","52","256898","0.0-6.0-3.15","6340d2fa46f2d707e146b63b","bdp_sd","Mon Mar 27 2023 23:12:57 GMT-0400 (Eastern Daylight Time)","286246","","null","","","","","offerFB","","<div class='trialBorder'><div class='vertical-center'><img style='vertical-align:center; align:center' src=img/fixation3.jpg></div><div class='cl'><div class='vertical-center'><font style='color:orange'>$27<br>for<br>yourself</font></div></div><div class='cr'><div class='vertical-center'>$50<br>for<br>James N</div></div><div class='respDivL'><div class='vertical-center'><font style='color:orange'>(E)</font></div></div><div class='respDivR'><div class='vertical-center'>(I)</div></div></div>","null","$27<br>for<br>yourself","$50<br>for<br>3","0","27","50","3",""
"html-keyboard-response","53","257403","0.0-6.0-1.16","6340d2fa46f2d707e146b63b","bdp_sd","Mon Mar 27 2023 23:12:57 GMT-0400 (Eastern Daylight Time)","286246","","null","","","","","FIX","","<div class='trialBorder'><div class='vertical-center'><img style='vertical-align:center; align:center' src=img/fixation3.jpg></div></div>","null","","","","","","",""
"html-keyboard-response","54","259886","0.0-6.0-2.16","6340d2fa46f2d707e146b63b","bdp_sd","Mon Mar 27 2023 23:12:57 GMT-0400 (Eastern Daylight Time)","286246","","2481","","","","","offer","","<div class='trialBorder'><div class='vertical-center'><img style='vertical-align:center; align:center' src=img/fixation3.jpg></div><div class='cl'><div class='vertical-center'>$25<br>for<br>yourself</div></div><div class='cr'><div class='vertical-center'>$60<br>for<br>James N</div></div><div class='respDivL'><div class='vertical-center'>(E)</div></div><div class='respDivR'><div class='vertical-center'>(I)</div></div></div>","E","$25<br>for<br>yourself","$60<br>for<br>3","0","25","60","3","SELF"
"html-keyboard-response","55","260141","0.0-6.0-3.16","6340d2fa46f2d707e146b63b","bdp_sd","Mon Mar 27 2023 23:12:57 GMT-0400 (Eastern Daylight Time)","286246","","null","","","","","offerFB","","<div class='trialBorder'><div class='vertical-center'><img style='vertical-align:center; align:center' src=img/fixation3.jpg></div><div class='cl'><div class='vertical-center'><font style='color:orange'>$25<br>for<br>yourself</font></div></div><div class='cr'><div class='vertical-center'>$60<br>for<br>James N</div></div><div class='respDivL'><div class='vertical-center'><font style='color:orange'>(E)</font></div></div><div class='respDivR'><div class='vertical-center'>(I)</div></div></div>","null","$25<br>for<br>yourself","$60<br>for<br>3","0","25","60","3",""
"html-keyboard-response","56","260653","0.0-6.0-1.17","6340d2fa46f2d707e146b63b","bdp_sd","Mon Mar 27 2023 23:12:57 GMT-0400 (Eastern Daylight Time)","286246","","null","","","","","FIX","","<div class='trialBorder'><div class='vertical-center'><img style='vertical-align:center; align:center' src=img/fixation3.jpg></div></div>","null","","","","","","",""
"html-keyboard-response","57","263295","0.0-6.0-2.17","6340d2fa46f2d707e146b63b","bdp_sd","Mon Mar 27 2023 23:12:57 GMT-0400 (Eastern Daylight Time)","286246","","2640","","","","","offer","","<div class='trialBorder'><div class='vertical-center'><img style='vertical-align:center; align:center' src=img/fixation3.jpg></div><div class='cl'><div class='vertical-center'>$33<br>for<br>yourself</div></div><div class='cr'><div class='vertical-center'>$80<br>for<br>Singh K</div></div><div class='respDivL'><div class='vertical-center'>(E)</div></div><div class='respDivR'><div class='vertical-center'>(I)</div></div></div>","E","$33<br>for<br>yourself","$80<br>for<br>2","0","33","80","2","SELF"
"html-keyboard-response","58","263552","0.0-6.0-3.17","6340d2fa46f2d707e146b63b","bdp_sd","Mon Mar 27 2023 23:12:57 GMT-0400 (Eastern Daylight Time)","286246","","null","","","","","offerFB","","<div class='trialBorder'><div class='vertical-center'><img style='vertical-align:center; align:center' src=img/fixation3.jpg></div><div class='cl'><div class='vertical-center'><font style='color:orange'>$33<br>for<br>yourself</font></div></div><div class='cr'><div class='vertical-center'>$80<br>for<br>Singh K</div></div><div class='respDivL'><div class='vertical-center'><font style='color:orange'>(E)</font></div></div><div class='respDivR'><div class='vertical-center'>(I)</div></div></div>","null","$33<br>for<br>yourself","$80<br>for<br>2","0","33","80","2",""
"html-keyboard-response","59","264060","0.0-6.0-1.18","6340d2fa46f2d707e146b63b","bdp_sd","Mon Mar 27 2023 23:12:57 GMT-0400 (Eastern Daylight Time)","286246","","null","","","","","FIX","","<div class='trialBorder'><div class='vertical-center'><img style='vertical-align:center; align:center' src=img/fixation3.jpg></div></div>","null","","","","","","",""
"html-keyboard-response","60","265658","0.0-6.0-2.18","6340d2fa46f2d707e146b63b","bdp_sd","Mon Mar 27 2023 23:12:57 GMT-0400 (Eastern Daylight Time)","286246","","1595","","","","","offer","","<div class='trialBorder'><div class='vertical-center'><img style='vertical-align:center; align:center' src=img/fixation3.jpg></div><div class='cl'><div class='vertical-center'>$75<br>for<br>Joe T</div></div><div class='cr'><div class='vertical-center'>$55<br>for<br>yourself</div></div><div class='respDivL'><div class='vertical-center'>(E)</div></div><div class='respDivR'><div class='vertical-center'>(I)</div></div></div>","I","$55<br>for<br>yourself","$75<br>for<br>4","1","55","75","4","SELF"
"html-keyboard-response","61","265919","0.0-6.0-3.18","6340d2fa46f2d707e146b63b","bdp_sd","Mon Mar 27 2023 23:12:57 GMT-0400 (Eastern Daylight Time)","286246","","null","","","","","offerFB","","<div class='trialBorder'><div class='vertical-center'><img style='vertical-align:center; align:center' src=img/fixation3.jpg></div><div class='cl'><div class='vertical-center'>$75<br>for<br>Joe T</div></div><div class='cr'><div class='vertical-center'><font style='color:orange'>$55<br>for<br>yourself</font></div></div><div class='respDivL'><div class='vertical-center'>(E)</div></div><div class='respDivR'><div class='vertical-center'><font style='color:orange'>(I)</font></div></div></div>","null","$55<br>for<br>yourself","$75<br>for<br>4","1","55","75","4",""
"html-keyboard-response","62","266424","0.0-6.0-1.19","6340d2fa46f2d707e146b63b","bdp_sd","Mon Mar 27 2023 23:12:57 GMT-0400 (Eastern Daylight Time)","286246","","null","","","","","FIX","","<div class='trialBorder'><div class='vertical-center'><img style='vertical-align:center; align:center' src=img/fixation3.jpg></div></div>","null","","","","","","",""
"html-keyboard-response","63","268059","0.0-6.0-2.19","6340d2fa46f2d707e146b63b","bdp_sd","Mon Mar 27 2023 23:12:57 GMT-0400 (Eastern Daylight Time)","286246","","1632","","","","","offer","","<div class='trialBorder'><div class='vertical-center'><img style='vertical-align:center; align:center' src=img/fixation3.jpg></div><div class='cl'><div class='vertical-center'>$55<br>for<br>Joe T</div></div><div class='cr'><div class='vertical-center'>$40<br>for<br>yourself</div></div><div class='respDivL'><div class='vertical-center'>(E)</div></div><div class='respDivR'><div class='vertical-center'>(I)</div></div></div>","I","$40<br>for<br>yourself","$55<br>for<br>4","1","40","55","4","SELF"
"html-keyboard-response","64","268316","0.0-6.0-3.19","6340d2fa46f2d707e146b63b","bdp_sd","Mon Mar 27 2023 23:12:57 GMT-0400 (Eastern Daylight Time)","286246","","null","","","","","offerFB","","<div class='trialBorder'><div class='vertical-center'><img style='vertical-align:center; align:center' src=img/fixation3.jpg></div><div class='cl'><div class='vertical-center'>$55<br>for<br>Joe T</div></div><div class='cr'><div class='vertical-center'><font style='color:orange'>$40<br>for<br>yourself</font></div></div><div class='respDivL'><div class='vertical-center'>(E)</div></div><div class='respDivR'><div class='vertical-center'><font style='color:orange'>(I)</font></div></div></div>","null","$40<br>for<br>yourself","$55<br>for<br>4","1","40","55","4",""
"html-keyboard-response","65","268820","0.0-6.0-1.20","6340d2fa46f2d707e146b63b","bdp_sd","Mon Mar 27 2023 23:12:57 GMT-0400 (Eastern Daylight Time)","286246","","null","","","","","FIX","","<div class='trialBorder'><div class='vertical-center'><img style='vertical-align:center; align:center' src=img/fixation3.jpg></div></div>","null","","","","","","",""
"html-keyboard-response","66","270093","0.0-6.0-2.20","6340d2fa46f2d707e146b63b","bdp_sd","Mon Mar 27 2023 23:12:57 GMT-0400 (Eastern Daylight Time)","286246","","1272","","","","","offer","","<div class='trialBorder'><div class='vertical-center'><img style='vertical-align:center; align:center' src=img/fixation3.jpg></div><div class='cl'><div class='vertical-center'>$28<br>for<br>yourself</div></div><div class='cr'><div class='vertical-center'>$30<br>for<br>Larry H</div></div><div class='respDivL'><div class='vertical-center'>(E)</div></div><div class='respDivR'><div class='vertical-center'>(I)</div></div></div>","E","$28<br>for<br>yourself","$30<br>for<br>5","0","28","30","5","SELF"
"html-keyboard-response","67","270346","0.0-6.0-3.20","6340d2fa46f2d707e146b63b","bdp_sd","Mon Mar 27 2023 23:12:57 GMT-0400 (Eastern Daylight Time)","286246","","null","","","","","offerFB","","<div class='trialBorder'><div class='vertical-center'><img style='vertical-align:center; align:center' src=img/fixation3.jpg></div><div class='cl'><div class='vertical-center'><font style='color:orange'>$28<br>for<br>yourself</font></div></div><div class='cr'><div class='vertical-center'>$30<br>for<br>Larry H</div></div><div class='respDivL'><div class='vertical-center'><font style='color:orange'>(E)</font></div></div><div class='respDivR'><div class='vertical-center'>(I)</div></div></div>","null","$28<br>for<br>yourself","$30<br>for<br>5","0","28","30","5",""
"html-keyboard-response","68","270857","0.0-6.0-1.21","6340d2fa46f2d707e146b63b","bdp_sd","Mon Mar 27 2023 23:12:57 GMT-0400 (Eastern Daylight Time)","286246","","null","","","","","FIX","","<div class='trialBorder'><div class='vertical-center'><img style='vertical-align:center; align:center' src=img/fixation3.jpg></div></div>","null","","","","","","",""
"html-keyboard-response","69","271908","0.0-6.0-2.21","6340d2fa46f2d707e146b63b","bdp_sd","Mon Mar 27 2023 23:12:57 GMT-0400 (Eastern Daylight Time)","286246","","1048","","","","","offer","","<div class='trialBorder'><div class='vertical-center'><img style='vertical-align:center; align:center' src=img/fixation3.jpg></div><div class='cl'><div class='vertical-center'>$67<br>for<br>yourself</div></div><div class='cr'><div class='vertical-center'>$75<br>for<br>Larry H</div></div><div class='respDivL'><div class='vertical-center'>(E)</div></div><div class='respDivR'><div class='vertical-center'>(I)</div></div></div>","E","$67<br>for<br>yourself","$75<br>for<br>5","0","67","75","5","SELF"
"html-keyboard-response","70","272161","0.0-6.0-3.21","6340d2fa46f2d707e146b63b","bdp_sd","Mon Mar 27 2023 23:12:57 GMT-0400 (Eastern Daylight Time)","286246","","null","","","","","offerFB","","<div class='trialBorder'><div class='vertical-center'><img style='vertical-align:center; align:center' src=img/fixation3.jpg></div><div class='cl'><div class='vertical-center'><font style='color:orange'>$67<br>for<br>yourself</font></div></div><div class='cr'><div class='vertical-center'>$75<br>for<br>Larry H</div></div><div class='respDivL'><div class='vertical-center'><font style='color:orange'>(E)</font></div></div><div class='respDivR'><div class='vertical-center'>(I)</div></div></div>","null","$67<br>for<br>yourself","$75<br>for<br>5","0","67","75","5",""
"html-keyboard-response","71","272665","0.0-6.0-1.22","6340d2fa46f2d707e146b63b","bdp_sd","Mon Mar 27 2023 23:12:57 GMT-0400 (Eastern Daylight Time)","286246","","null","","","","","FIX","","<div class='trialBorder'><div class='vertical-center'><img style='vertical-align:center; align:center' src=img/fixation3.jpg></div></div>","null","","","","","","",""
"html-keyboard-response","72","273930","0.0-6.0-2.22","6340d2fa46f2d707e146b63b","bdp_sd","Mon Mar 27 2023 23:12:57 GMT-0400 (Eastern Daylight Time)","286246","","1264","","","","","offer","","<div class='trialBorder'><div class='vertical-center'><img style='vertical-align:center; align:center' src=img/fixation3.jpg></div><div class='cl'><div class='vertical-center'>$30<br>for<br>Joe T</div></div><div class='cr'><div class='vertical-center'>$25<br>for<br>yourself</div></div><div class='respDivL'><div class='vertical-center'>(E)</div></div><div class='respDivR'><div class='vertical-center'>(I)</div></div></div>","I","$25<br>for<br>yourself","$30<br>for<br>4","1","25","30","4","SELF"
"html-keyboard-response","73","274186","0.0-6.0-3.22","6340d2fa46f2d707e146b63b","bdp_sd","Mon Mar 27 2023 23:12:57 GMT-0400 (Eastern Daylight Time)","286246","","null","","","","","offerFB","","<div class='trialBorder'><div class='vertical-center'><img style='vertical-align:center; align:center' src=img/fixation3.jpg></div><div class='cl'><div class='vertical-center'>$30<br>for<br>Joe T</div></div><div class='cr'><div class='vertical-center'><font style='color:orange'>$25<br>for<br>yourself</font></div></div><div class='respDivL'><div class='vertical-center'>(E)</div></div><div class='respDivR'><div class='vertical-center'><font style='color:orange'>(I)</font></div></div></div>","null","$25<br>for<br>yourself","$30<br>for<br>4","1","25","30","4",""
"html-keyboard-response","74","274689","0.0-6.0-1.23","6340d2fa46f2d707e146b63b","bdp_sd","Mon Mar 27 2023 23:12:57 GMT-0400 (Eastern Daylight Time)","286246","","null","","","","","FIX","","<div class='trialBorder'><div class='vertical-center'><img style='vertical-align:center; align:center' src=img/fixation3.jpg></div></div>","null","","","","","","",""
"html-keyboard-response","75","275964","0.0-6.0-2.23","6340d2fa46f2d707e146b63b","bdp_sd","Mon Mar 27 2023 23:12:57 GMT-0400 (Eastern Daylight Time)","286246","","1274","","","","","offer","","<div class='trialBorder'><div class='vertical-center'><img style='vertical-align:center; align:center' src=img/fixation3.jpg></div><div class='cl'><div class='vertical-center'>$35<br>for<br>James N</div></div><div class='cr'><div class='vertical-center'>$24<br>for<br>yourself</div></div><div class='respDivL'><div class='vertical-center'>(E)</div></div><div class='respDivR'><div class='vertical-center'>(I)</div></div></div>","I","$24<br>for<br>yourself","$35<br>for<br>3","1","24","35","3","SELF"
"html-keyboard-response","76","276216","0.0-6.0-3.23","6340d2fa46f2d707e146b63b","bdp_sd","Mon Mar 27 2023 23:12:57 GMT-0400 (Eastern Daylight Time)","286246","","null","","","","","offerFB","","<div class='trialBorder'><div class='vertical-center'><img style='vertical-align:center; align:center' src=img/fixation3.jpg></div><div class='cl'><div class='vertical-center'>$35<br>for<br>James N</div></div><div class='cr'><div class='vertical-center'><font style='color:orange'>$24<br>for<br>yourself</font></div></div><div class='respDivL'><div class='vertical-center'>(E)</div></div><div class='respDivR'><div class='vertical-center'><font style='color:orange'>(I)</font></div></div></div>","null","$24<br>for<br>yourself","$35<br>for<br>3","1","24","35","3",""
"html-keyboard-response","77","276719","0.0-6.0-1.24","6340d2fa46f2d707e146b63b","bdp_sd","Mon Mar 27 2023 23:12:57 GMT-0400 (Eastern Daylight Time)","286246","","null","","","","","FIX","","<div class='trialBorder'><div class='vertical-center'><img style='vertical-align:center; align:center' src=img/fixation3.jpg></div></div>","null","","","","","","",""
"html-keyboard-response","78","280123","0.0-6.0-2.24","6340d2fa46f2d707e146b63b","bdp_sd","Mon Mar 27 2023 23:12:57 GMT-0400 (Eastern Daylight Time)","286246","","3402","","","","","offer","","<div class='trialBorder'><div class='vertical-center'><img style='vertical-align:center; align:center' src=img/fixation3.jpg></div><div class='cl'><div class='vertical-center'>$20<br>for<br>yourself</div></div><div class='cr'><div class='vertical-center'>$55<br>for<br>Alec D</div></div><div class='respDivL'><div class='vertical-center'>(E)</div></div><div class='respDivR'><div class='vertical-center'>(I)</div></div></div>","I","$20<br>for<br>yourself","$55<br>for<br>1","0","20","55","1","OTHER"
"html-keyboard-response","79","280378","0.0-6.0-3.24","6340d2fa46f2d707e146b63b","bdp_sd","Mon Mar 27 2023 23:12:57 GMT-0400 (Eastern Daylight Time)","286246","","null","","","","","offerFB","","<div class='trialBorder'><div class='vertical-center'><img style='vertical-align:center; align:center' src=img/fixation3.jpg></div><div class='cl'><div class='vertical-center'>$20<br>for<br>yourself</div></div><div class='cr'><div class='vertical-center'><font style='color:orange'>$55<br>for<br>Alec D</font></div></div><div class='respDivL'><div class='vertical-center'>(E)</div></div><div class='respDivR'><div class='vertical-center'><font style='color:orange'>(I)</font></div></div></div>","null","$20<br>for<br>yourself","$55<br>for<br>1","0","20","55","1",""
"html-keyboard-response","80","280888","0.0-6.0-1.25","6340d2fa46f2d707e146b63b","bdp_sd","Mon Mar 27 2023 23:12:57 GMT-0400 (Eastern Daylight Time)","286246","","null","","","","","FIX","","<div class='trialBorder'><div class='vertical-center'><img style='vertical-align:center; align:center' src=img/fixation3.jpg></div></div>","null","","","","","","",""
"html-keyboard-response","81","282853","0.0-6.0-2.25","6340d2fa46f2d707e146b63b","bdp_sd","Mon Mar 27 2023 23:12:57 GMT-0400 (Eastern Daylight Time)","286246","","1964","","","","","offer","","<div class='trialBorder'><div class='vertical-center'><img style='vertical-align:center; align:center' src=img/fixation3.jpg></div><div class='cl'><div class='vertical-center'>$25<br>for<br>Joe T</div></div><div class='cr'><div class='vertical-center'>$19<br>for<br>yourself</div></div><div class='respDivL'><div class='vertical-center'>(E)</div></div><div class='respDivR'><div class='vertical-center'>(I)</div></div></div>","I","$19<br>for<br>yourself","$25<br>for<br>4","1","19","25","4","SELF"
"html-keyboard-response","82","283115","0.0-6.0-3.25","6340d2fa46f2d707e146b63b","bdp_sd","Mon Mar 27 2023 23:12:57 GMT-0400 (Eastern Daylight Time)","286246","","null","","","","","offerFB","","<div class='trialBorder'><div class='vertical-center'><img style='vertical-align:center; align:center' src=img/fixation3.jpg></div><div class='cl'><div class='vertical-center'>$25<br>for<br>Joe T</div></div><div class='cr'><div class='vertical-center'><font style='color:orange'>$19<br>for<br>yourself</font></div></div><div class='respDivL'><div class='vertical-center'>(E)</div></div><div class='respDivR'><div class='vertical-center'><font style='color:orange'>(I)</font></div></div></div>","null","$19<br>for<br>yourself","$25<br>for<br>4","1","19","25","4",""
"html-keyboard-response","83","283619","0.0-6.0-1.26","6340d2fa46f2d707e146b63b","bdp_sd","Mon Mar 27 2023 23:12:57 GMT-0400 (Eastern Daylight Time)","286246","","null","","","","","FIX","","<div class='trialBorder'><div class='vertical-center'><img style='vertical-align:center; align:center' src=img/fixation3.jpg></div></div>","null","","","","","","",""
"html-keyboard-response","84","284970","0.0-6.0-2.26","6340d2fa46f2d707e146b63b","bdp_sd","Mon Mar 27 2023 23:12:57 GMT-0400 (Eastern Daylight Time)","286246","","1348","","","","","offer","","<div class='trialBorder'><div class='vertical-center'><img style='vertical-align:center; align:center' src=img/fixation3.jpg></div><div class='cl'><div class='vertical-center'>$30<br>for<br>Singh K</div></div><div class='cr'><div class='vertical-center'>$11<br>for<br>yourself</div></div><div class='respDivL'><div class='vertical-center'>(E)</div></div><div class='respDivR'><div class='vertical-center'>(I)</div></div></div>","E","$11<br>for<br>yourself","$30<br>for<br>2","1","11","30","2","OTHER"
"html-keyboard-response","85","285229","0.0-6.0-3.26","6340d2fa46f2d707e146b63b","bdp_sd","Mon Mar 27 2023 23:12:57 GMT-0400 (Eastern Daylight Time)","286246","","null","","","","","offerFB","","<div class='trialBorder'><div class='vertical-center'><img style='vertical-align:center; align:center' src=img/fixation3.jpg></div><div class='cl'><div class='vertical-center'><font style='color:orange'>$30<br>for<br>Singh K</font></div></div><div class='cr'><div class='vertical-center'>$11<br>for<br>yourself</div></div><div class='respDivL'><div class='vertical-center'><font style='color:orange'>(E)</font></div></div><div class='respDivR'><div class='vertical-center'>(I)</div></div></div>","null","$11<br>for<br>yourself","$30<br>for<br>2","1","11","30","2",""
"","","","","6340d2fa46f2d707e146b63b","bdp_sd","Mon Mar 27 2023 23:12:57 GMT-0400 (Eastern Daylight Time)","286246","","","","fullscreenexit","86","285273","fullscreenexit","","","","","","","","","",""
"fullscreen","86","286245","0.0-7.0","6340d2fa46f2d707e146b63b","bdp_sd","Mon Mar 27 2023 23:12:57 GMT-0400 (Eastern Daylight Time)","286246","","","","","","","","true","","","","","","","","",""
"html-keyboard-response","87","286750","0.0-8.0","","","","","","null","","","","","","","","null","","","","","","",""
