"event","trial","time","trialtype","subject_id","task","startTime","totalTime","trial_type","trial_index","time_elapsed","internal_node_id","view_history","rt","responses","success","stimulus","key_press","selfOffer","otherOffer","otherLeft","selfAmt","otherAmt","otherDist","chosen"
"focus","0","0","focusevent","6156a0460b95fa57be8312c4","bdp_sd","Wed Mar 29 2023 01:09:07 GMT-0700 (Pacific Daylight Time)","414065","","","","","","","","","","","","","","","","",""
"","","","","6156a0460b95fa57be8312c4","bdp_sd","Wed Mar 29 2023 01:09:07 GMT-0700 (Pacific Daylight Time)","414065","pavlovia","0","1","0.0-0.0","","","","","","","","","","","","",""
"","","","","6156a0460b95fa57be8312c4","bdp_sd","Wed Mar 29 2023 01:09:07 GMT-0700 (Pacific Daylight Time)","414065","instructions","1","137073","0.0-1.0","[{""page_index"":0,""viewing_time"":137072}]","137072","","","","","","","","","","",""
"","","","","6156a0460b95fa57be8312c4","bdp_sd","Wed Mar 29 2023 01:09:07 GMT-0700 (Pacific Daylight Time)","414065","survey-text","2","247553","0.0-2.0","","110479","{""Q0"":""Luka D"",""Q1"":""wolfy P"",""Q2"":""Olive F"",""Q3"":""Savannah B"",""Q4"":""Nickii B""}","","","","","","","","","",""
"fullscreenexit","3","250088","fullscreenexit","6156a0460b95fa57be8312c4","bdp_sd","Wed Mar 29 2023 01:09:07 GMT-0700 (Pacific Daylight Time)","414065","","","","","","","","","","","","","","","","",""
"","","","","6156a0460b95fa57be8312c4","bdp_sd","Wed Mar 29 2023 01:09:07 GMT-0700 (Pacific Daylight Time)","414065","fullscreen","3","251089","0.0-3.0","","","","true","","","","","","","","",""
"","","","fullscreenfail","6156a0460b95fa57be8312c4","bdp_sd","Wed Mar 29 2023 01:09:07 GMT-0700 (Pacific Daylight Time)","414065","image-keyboard-response","4","254548","0.0-4.0-0.0","","3458","","","","32","","","","","","",""
"","","","","6156a0460b95fa57be8312c4","bdp_sd","Wed Mar 29 2023 01:09:07 GMT-0700 (Pacific Daylight Time)","414065","instructions","5","294133","0.0-5.0","[{""page_index"":0,""viewing_time"":8033},{""page_index"":1,""viewing_time"":19178},{""page_index"":2,""viewing_time"":7858},{""page_index"":1,""viewing_time"":2470},{""page_index"":2,""viewing_time"":1789}]","39328","","","","","","","","","","",""
"","","","FIX","6156a0460b95fa57be8312c4","bdp_sd","Wed Mar 29 2023 01:09:07 GMT-0700 (Pacific Daylight Time)","414065","html-keyboard-response","6","294647","0.0-6.0-1.0","","null","","","<div class='trialBorder'><div class='vertical-center'><img style='vertical-align:center; align:center' src=img/fixation3.jpg></div></div>","null","","","","","","",""
"","","","offer","6156a0460b95fa57be8312c4","bdp_sd","Wed Mar 29 2023 01:09:07 GMT-0700 (Pacific Daylight Time)","414065","html-keyboard-response","7","298313","0.0-6.0-2.0","","3664","","","<div class='trialBorder'><div class='vertical-center'><img style='vertical-align:center; align:center' src=img/fixation3.jpg></div><div class='cl'><div class='vertical-center'>$80<br>for<br>wolfy P</div></div><div class='cr'><div class='vertical-center'>$33<br>for<br>yourself</div></div><div class='respDivL'><div class='vertical-center'>(E)</div></div><div class='respDivR'><div class='vertical-center'>(I)</div></div></div>","E","$33<br>for<br>yourself","$80<br>for<br>2","1","33","80","2","OTHER"
"","","","offerFB","6156a0460b95fa57be8312c4","bdp_sd","Wed Mar 29 2023 01:09:07 GMT-0700 (Pacific Daylight Time)","414065","html-keyboard-response","8","298570","0.0-6.0-3.0","","null","","","<div class='trialBorder'><div class='vertical-center'><img style='vertical-align:center; align:center' src=img/fixation3.jpg></div><div class='cl'><div class='vertical-center'><font style='color:orange'>$80<br>for<br>wolfy P</font></div></div><div class='cr'><div class='vertical-center'>$33<br>for<br>yourself</div></div><div class='respDivL'><div class='vertical-center'><font style='color:orange'>(E)</font></div></div><div class='respDivR'><div class='vertical-center'>(I)</div></div></div>","null","$33<br>for<br>yourself","$80<br>for<br>2","1","33","80","2",""
"","","","FIX","6156a0460b95fa57be8312c4","bdp_sd","Wed Mar 29 2023 01:09:07 GMT-0700 (Pacific Daylight Time)","414065","html-keyboard-response","9","299077","0.0-6.0-1.1","","null","","","<div class='trialBorder'><div class='vertical-center'><img style='vertical-align:center; align:center' src=img/fixation3.jpg></div></div>","null","","","","","","",""
"","","","offer","6156a0460b95fa57be8312c4","bdp_sd","Wed Mar 29 2023 01:09:07 GMT-0700 (Pacific Daylight Time)","414065","html-keyboard-response","10","306579","0.0-6.0-2.1","","7501","","","<div class='trialBorder'><div class='vertical-center'><img style='vertical-align:center; align:center' src=img/fixation3.jpg></div><div class='cl'><div class='vertical-center'>$54<br>for<br>yourself</div></div><div class='cr'><div class='vertical-center'>$60<br>for<br>Nickii B</div></div><div class='respDivL'><div class='vertical-center'>(E)</div></div><div class='respDivR'><div class='vertical-center'>(I)</div></div></div>","I","$54<br>for<br>yourself","$60<br>for<br>5","0","54","60","5","OTHER"
"","","","offerFB","6156a0460b95fa57be8312c4","bdp_sd","Wed Mar 29 2023 01:09:07 GMT-0700 (Pacific Daylight Time)","414065","html-keyboard-response","11","306844","0.0-6.0-3.1","","null","","","<div class='trialBorder'><div class='vertical-center'><img style='vertical-align:center; align:center' src=img/fixation3.jpg></div><div class='cl'><div class='vertical-center'>$54<br>for<br>yourself</div></div><div class='cr'><div class='vertical-center'><font style='color:orange'>$60<br>for<br>Nickii B</font></div></div><div class='respDivL'><div class='vertical-center'>(E)</div></div><div class='respDivR'><div class='vertical-center'><font style='color:orange'>(I)</font></div></div></div>","null","$54<br>for<br>yourself","$60<br>for<br>5","0","54","60","5",""
"","","","FIX","6156a0460b95fa57be8312c4","bdp_sd","Wed Mar 29 2023 01:09:07 GMT-0700 (Pacific Daylight Time)","414065","html-keyboard-response","12","307351","0.0-6.0-1.2","","null","","","<div class='trialBorder'><div class='vertical-center'><img style='vertical-align:center; align:center' src=img/fixation3.jpg></div></div>","null","","","","","","",""
"","","","offer","6156a0460b95fa57be8312c4","bdp_sd","Wed Mar 29 2023 01:09:07 GMT-0700 (Pacific Daylight Time)","414065","html-keyboard-response","13","313038","0.0-6.0-2.2","","5687","","","<div class='trialBorder'><div class='vertical-center'><img style='vertical-align:center; align:center' src=img/fixation3.jpg></div><div class='cl'><div class='vertical-center'>$60<br>for<br>Olive F</div></div><div class='cr'><div class='vertical-center'>$25<br>for<br>yourself</div></div><div class='respDivL'><div class='vertical-center'>(E)</div></div><div class='respDivR'><div class='vertical-center'>(I)</div></div></div>","I","$25<br>for<br>yourself","$60<br>for<br>3","1","25","60","3","SELF"
"","","","offerFB","6156a0460b95fa57be8312c4","bdp_sd","Wed Mar 29 2023 01:09:07 GMT-0700 (Pacific Daylight Time)","414065","html-keyboard-response","14","313299","0.0-6.0-3.2","","null","","","<div class='trialBorder'><div class='vertical-center'><img style='vertical-align:center; align:center' src=img/fixation3.jpg></div><div class='cl'><div class='vertical-center'>$60<br>for<br>Olive F</div></div><div class='cr'><div class='vertical-center'><font style='color:orange'>$25<br>for<br>yourself</font></div></div><div class='respDivL'><div class='vertical-center'>(E)</div></div><div class='respDivR'><div class='vertical-center'><font style='color:orange'>(I)</font></div></div></div>","null","$25<br>for<br>yourself","$60<br>for<br>3","1","25","60","3",""
"","","","FIX","6156a0460b95fa57be8312c4","bdp_sd","Wed Mar 29 2023 01:09:07 GMT-0700 (Pacific Daylight Time)","414065","html-keyboard-response","15","313808","0.0-6.0-1.3","","null","","","<div class='trialBorder'><div class='vertical-center'><img style='vertical-align:center; align:center' src=img/fixation3.jpg></div></div>","null","","","","","","",""
"","","","offer","6156a0460b95fa57be8312c4","bdp_sd","Wed Mar 29 2023 01:09:07 GMT-0700 (Pacific Daylight Time)","414065","html-keyboard-response","16","322128","0.0-6.0-2.3","","8319","","","<div class='trialBorder'><div class='vertical-center'><img style='vertical-align:center; align:center' src=img/fixation3.jpg></div><div class='cl'><div class='vertical-center'>$41<br>for<br>yourself</div></div><div class='cr'><div class='vertical-center'>$75<br>for<br>Olive F</div></div><div class='respDivL'><div class='vertical-center'>(E)</div></div><div class='respDivR'><div class='vertical-center'>(I)</div></div></div>","E","$41<br>for<br>yourself","$75<br>for<br>3","0","41","75","3","SELF"
"","","","offerFB","6156a0460b95fa57be8312c4","bdp_sd","Wed Mar 29 2023 01:09:07 GMT-0700 (Pacific Daylight Time)","414065","html-keyboard-response","17","322382","0.0-6.0-3.3","","null","","","<div class='trialBorder'><div class='vertical-center'><img style='vertical-align:center; align:center' src=img/fixation3.jpg></div><div class='cl'><div class='vertical-center'><font style='color:orange'>$41<br>for<br>yourself</font></div></div><div class='cr'><div class='vertical-center'>$75<br>for<br>Olive F</div></div><div class='respDivL'><div class='vertical-center'><font style='color:orange'>(E)</font></div></div><div class='respDivR'><div class='vertical-center'>(I)</div></div></div>","null","$41<br>for<br>yourself","$75<br>for<br>3","0","41","75","3",""
"","","","FIX","6156a0460b95fa57be8312c4","bdp_sd","Wed Mar 29 2023 01:09:07 GMT-0700 (Pacific Daylight Time)","414065","html-keyboard-response","18","322887","0.0-6.0-1.4","","null","","","<div class='trialBorder'><div class='vertical-center'><img style='vertical-align:center; align:center' src=img/fixation3.jpg></div></div>","null","","","","","","",""
"","","","offer","6156a0460b95fa57be8312c4","bdp_sd","Wed Mar 29 2023 01:09:07 GMT-0700 (Pacific Daylight Time)","414065","html-keyboard-response","19","327293","0.0-6.0-2.4","","4405","","","<div class='trialBorder'><div class='vertical-center'><img style='vertical-align:center; align:center' src=img/fixation3.jpg></div><div class='cl'><div class='vertical-center'>$34<br>for<br>yourself</div></div><div class='cr'><div class='vertical-center'>$50<br>for<br>Savannah B</div></div><div class='respDivL'><div class='vertical-center'>(E)</div></div><div class='respDivR'><div class='vertical-center'>(I)</div></div></div>","I","$34<br>for<br>yourself","$50<br>for<br>4","0","34","50","4","OTHER"
"","","","offerFB","6156a0460b95fa57be8312c4","bdp_sd","Wed Mar 29 2023 01:09:07 GMT-0700 (Pacific Daylight Time)","414065","html-keyboard-response","20","327546","0.0-6.0-3.4","","null","","","<div class='trialBorder'><div class='vertical-center'><img style='vertical-align:center; align:center' src=img/fixation3.jpg></div><div class='cl'><div class='vertical-center'>$34<br>for<br>yourself</div></div><div class='cr'><div class='vertical-center'><font style='color:orange'>$50<br>for<br>Savannah B</font></div></div><div class='respDivL'><div class='vertical-center'>(E)</div></div><div class='respDivR'><div class='vertical-center'><font style='color:orange'>(I)</font></div></div></div>","null","$34<br>for<br>yourself","$50<br>for<br>4","0","34","50","4",""
"","","","FIX","6156a0460b95fa57be8312c4","bdp_sd","Wed Mar 29 2023 01:09:07 GMT-0700 (Pacific Daylight Time)","414065","html-keyboard-response","21","328052","0.0-6.0-1.5","","null","","","<div class='trialBorder'><div class='vertical-center'><img style='vertical-align:center; align:center' src=img/fixation3.jpg></div></div>","null","","","","","","",""
"","","","offer","6156a0460b95fa57be8312c4","bdp_sd","Wed Mar 29 2023 01:09:07 GMT-0700 (Pacific Daylight Time)","414065","html-keyboard-response","22","330765","0.0-6.0-2.5","","2712","","","<div class='trialBorder'><div class='vertical-center'><img style='vertical-align:center; align:center' src=img/fixation3.jpg></div><div class='cl'><div class='vertical-center'>$55<br>for<br>yourself</div></div><div class='cr'><div class='vertical-center'>$75<br>for<br>Savannah B</div></div><div class='respDivL'><div class='vertical-center'>(E)</div></div><div class='respDivR'><div class='vertical-center'>(I)</div></div></div>","I","$55<br>for<br>yourself","$75<br>for<br>4","0","55","75","4","OTHER"
"","","","offerFB","6156a0460b95fa57be8312c4","bdp_sd","Wed Mar 29 2023 01:09:07 GMT-0700 (Pacific Daylight Time)","414065","html-keyboard-response","23","331022","0.0-6.0-3.5","","null","","","<div class='trialBorder'><div class='vertical-center'><img style='vertical-align:center; align:center' src=img/fixation3.jpg></div><div class='cl'><div class='vertical-center'>$55<br>for<br>yourself</div></div><div class='cr'><div class='vertical-center'><font style='color:orange'>$75<br>for<br>Savannah B</font></div></div><div class='respDivL'><div class='vertical-center'>(E)</div></div><div class='respDivR'><div class='vertical-center'><font style='color:orange'>(I)</font></div></div></div>","null","$55<br>for<br>yourself","$75<br>for<br>4","0","55","75","4",""
"","","","FIX","6156a0460b95fa57be8312c4","bdp_sd","Wed Mar 29 2023 01:09:07 GMT-0700 (Pacific Daylight Time)","414065","html-keyboard-response","24","331529","0.0-6.0-1.6","","null","","","<div class='trialBorder'><div class='vertical-center'><img style='vertical-align:center; align:center' src=img/fixation3.jpg></div></div>","null","","","","","","",""
"","","","offer","6156a0460b95fa57be8312c4","bdp_sd","Wed Mar 29 2023 01:09:07 GMT-0700 (Pacific Daylight Time)","414065","html-keyboard-response","25","334643","0.0-6.0-2.6","","3113","","","<div class='trialBorder'><div class='vertical-center'><img style='vertical-align:center; align:center' src=img/fixation3.jpg></div><div class='cl'><div class='vertical-center'>$50<br>for<br>Nickii B</div></div><div class='cr'><div class='vertical-center'>$47<br>for<br>yourself</div></div><div class='respDivL'><div class='vertical-center'>(E)</div></div><div class='respDivR'><div class='vertical-center'>(I)</div></div></div>","I","$47<br>for<br>yourself","$50<br>for<br>5","1","47","50","5","SELF"
"","","","offerFB","6156a0460b95fa57be8312c4","bdp_sd","Wed Mar 29 2023 01:09:07 GMT-0700 (Pacific Daylight Time)","414065","html-keyboard-response","26","334897","0.0-6.0-3.6","","null","","","<div class='trialBorder'><div class='vertical-center'><img style='vertical-align:center; align:center' src=img/fixation3.jpg></div><div class='cl'><div class='vertical-center'>$50<br>for<br>Nickii B</div></div><div class='cr'><div class='vertical-center'><font style='color:orange'>$47<br>for<br>yourself</font></div></div><div class='respDivL'><div class='vertical-center'>(E)</div></div><div class='respDivR'><div class='vertical-center'><font style='color:orange'>(I)</font></div></div></div>","null","$47<br>for<br>yourself","$50<br>for<br>5","1","47","50","5",""
"","","","FIX","6156a0460b95fa57be8312c4","bdp_sd","Wed Mar 29 2023 01:09:07 GMT-0700 (Pacific Daylight Time)","414065","html-keyboard-response","27","335407","0.0-6.0-1.7","","null","","","<div class='trialBorder'><div class='vertical-center'><img style='vertical-align:center; align:center' src=img/fixation3.jpg></div></div>","null","","","","","","",""
"","","","offer","6156a0460b95fa57be8312c4","bdp_sd","Wed Mar 29 2023 01:09:07 GMT-0700 (Pacific Daylight Time)","414065","html-keyboard-response","28","337960","0.0-6.0-2.7","","2553","","","<div class='trialBorder'><div class='vertical-center'><img style='vertical-align:center; align:center' src=img/fixation3.jpg></div><div class='cl'><div class='vertical-center'>$85<br>for<br>Savannah B</div></div><div class='cr'><div class='vertical-center'>$69<br>for<br>yourself</div></div><div class='respDivL'><div class='vertical-center'>(E)</div></div><div class='respDivR'><div class='vertical-center'>(I)</div></div></div>","I","$69<br>for<br>yourself","$85<br>for<br>4","1","69","85","4","SELF"
"","","","offerFB","6156a0460b95fa57be8312c4","bdp_sd","Wed Mar 29 2023 01:09:07 GMT-0700 (Pacific Daylight Time)","414065","html-keyboard-response","29","338220","0.0-6.0-3.7","","null","","","<div class='trialBorder'><div class='vertical-center'><img style='vertical-align:center; align:center' src=img/fixation3.jpg></div><div class='cl'><div class='vertical-center'>$85<br>for<br>Savannah B</div></div><div class='cr'><div class='vertical-center'><font style='color:orange'>$69<br>for<br>yourself</font></div></div><div class='respDivL'><div class='vertical-center'>(E)</div></div><div class='respDivR'><div class='vertical-center'><font style='color:orange'>(I)</font></div></div></div>","null","$69<br>for<br>yourself","$85<br>for<br>4","1","69","85","4",""
"","","","FIX","6156a0460b95fa57be8312c4","bdp_sd","Wed Mar 29 2023 01:09:07 GMT-0700 (Pacific Daylight Time)","414065","html-keyboard-response","30","338727","0.0-6.0-1.8","","null","","","<div class='trialBorder'><div class='vertical-center'><img style='vertical-align:center; align:center' src=img/fixation3.jpg></div></div>","null","","","","","","",""
"","","","offer","6156a0460b95fa57be8312c4","bdp_sd","Wed Mar 29 2023 01:09:07 GMT-0700 (Pacific Daylight Time)","414065","html-keyboard-response","31","340964","0.0-6.0-2.8","","2237","","","<div class='trialBorder'><div class='vertical-center'><img style='vertical-align:center; align:center' src=img/fixation3.jpg></div><div class='cl'><div class='vertical-center'>$20<br>for<br>yourself</div></div><div class='cr'><div class='vertical-center'>$55<br>for<br>Luka D</div></div><div class='respDivL'><div class='vertical-center'>(E)</div></div><div class='respDivR'><div class='vertical-center'>(I)</div></div></div>","I","$20<br>for<br>yourself","$55<br>for<br>1","0","20","55","1","OTHER"
"","","","offerFB","6156a0460b95fa57be8312c4","bdp_sd","Wed Mar 29 2023 01:09:07 GMT-0700 (Pacific Daylight Time)","414065","html-keyboard-response","32","341217","0.0-6.0-3.8","","null","","","<div class='trialBorder'><div class='vertical-center'><img style='vertical-align:center; align:center' src=img/fixation3.jpg></div><div class='cl'><div class='vertical-center'>$20<br>for<br>yourself</div></div><div class='cr'><div class='vertical-center'><font style='color:orange'>$55<br>for<br>Luka D</font></div></div><div class='respDivL'><div class='vertical-center'>(E)</div></div><div class='respDivR'><div class='vertical-center'><font style='color:orange'>(I)</font></div></div></div>","null","$20<br>for<br>yourself","$55<br>for<br>1","0","20","55","1",""
"","","","FIX","6156a0460b95fa57be8312c4","bdp_sd","Wed Mar 29 2023 01:09:07 GMT-0700 (Pacific Daylight Time)","414065","html-keyboard-response","33","341726","0.0-6.0-1.9","","null","","","<div class='trialBorder'><div class='vertical-center'><img style='vertical-align:center; align:center' src=img/fixation3.jpg></div></div>","null","","","","","","",""
"","","","offer","6156a0460b95fa57be8312c4","bdp_sd","Wed Mar 29 2023 01:09:07 GMT-0700 (Pacific Daylight Time)","414065","html-keyboard-response","34","344028","0.0-6.0-2.9","","2302","","","<div class='trialBorder'><div class='vertical-center'><img style='vertical-align:center; align:center' src=img/fixation3.jpg></div><div class='cl'><div class='vertical-center'>$30<br>for<br>Nickii B</div></div><div class='cr'><div class='vertical-center'>$28<br>for<br>yourself</div></div><div class='respDivL'><div class='vertical-center'>(E)</div></div><div class='respDivR'><div class='vertical-center'>(I)</div></div></div>","I","$28<br>for<br>yourself","$30<br>for<br>5","1","28","30","5","SELF"
"","","","offerFB","6156a0460b95fa57be8312c4","bdp_sd","Wed Mar 29 2023 01:09:07 GMT-0700 (Pacific Daylight Time)","414065","html-keyboard-response","35","344278","0.0-6.0-3.9","","null","","","<div class='trialBorder'><div class='vertical-center'><img style='vertical-align:center; align:center' src=img/fixation3.jpg></div><div class='cl'><div class='vertical-center'>$30<br>for<br>Nickii B</div></div><div class='cr'><div class='vertical-center'><font style='color:orange'>$28<br>for<br>yourself</font></div></div><div class='respDivL'><div class='vertical-center'>(E)</div></div><div class='respDivR'><div class='vertical-center'><font style='color:orange'>(I)</font></div></div></div>","null","$28<br>for<br>yourself","$30<br>for<br>5","1","28","30","5",""
"","","","FIX","6156a0460b95fa57be8312c4","bdp_sd","Wed Mar 29 2023 01:09:07 GMT-0700 (Pacific Daylight Time)","414065","html-keyboard-response","36","344786","0.0-6.0-1.10","","null","","","<div class='trialBorder'><div class='vertical-center'><img style='vertical-align:center; align:center' src=img/fixation3.jpg></div></div>","null","","","","","","",""
"","","","offer","6156a0460b95fa57be8312c4","bdp_sd","Wed Mar 29 2023 01:09:07 GMT-0700 (Pacific Daylight Time)","414065","html-keyboard-response","37","348284","0.0-6.0-2.10","","3498","","","<div class='trialBorder'><div class='vertical-center'><img style='vertical-align:center; align:center' src=img/fixation3.jpg></div><div class='cl'><div class='vertical-center'>$80<br>for<br>Olive F</div></div><div class='cr'><div class='vertical-center'>$54<br>for<br>yourself</div></div><div class='respDivL'><div class='vertical-center'>(E)</div></div><div class='respDivR'><div class='vertical-center'>(I)</div></div></div>","I","$54<br>for<br>yourself","$80<br>for<br>3","1","54","80","3","SELF"
"","","","offerFB","6156a0460b95fa57be8312c4","bdp_sd","Wed Mar 29 2023 01:09:07 GMT-0700 (Pacific Daylight Time)","414065","html-keyboard-response","38","348536","0.0-6.0-3.10","","null","","","<div class='trialBorder'><div class='vertical-center'><img style='vertical-align:center; align:center' src=img/fixation3.jpg></div><div class='cl'><div class='vertical-center'>$80<br>for<br>Olive F</div></div><div class='cr'><div class='vertical-center'><font style='color:orange'>$54<br>for<br>yourself</font></div></div><div class='respDivL'><div class='vertical-center'>(E)</div></div><div class='respDivR'><div class='vertical-center'><font style='color:orange'>(I)</font></div></div></div>","null","$54<br>for<br>yourself","$80<br>for<br>3","1","54","80","3",""
"","","","FIX","6156a0460b95fa57be8312c4","bdp_sd","Wed Mar 29 2023 01:09:07 GMT-0700 (Pacific Daylight Time)","414065","html-keyboard-response","39","349044","0.0-6.0-1.11","","null","","","<div class='trialBorder'><div class='vertical-center'><img style='vertical-align:center; align:center' src=img/fixation3.jpg></div></div>","null","","","","","","",""
"","","","offer","6156a0460b95fa57be8312c4","bdp_sd","Wed Mar 29 2023 01:09:07 GMT-0700 (Pacific Daylight Time)","414065","html-keyboard-response","40","353204","0.0-6.0-2.11","","4160","","","<div class='trialBorder'><div class='vertical-center'><img style='vertical-align:center; align:center' src=img/fixation3.jpg></div><div class='cl'><div class='vertical-center'>$55<br>for<br>Nickii B</div></div><div class='cr'><div class='vertical-center'>$54<br>for<br>yourself</div></div><div class='respDivL'><div class='vertical-center'>(E)</div></div><div class='respDivR'><div class='vertical-center'>(I)</div></div></div>","I","$54<br>for<br>yourself","$55<br>for<br>5","1","54","55","5","SELF"
"","","","offerFB","6156a0460b95fa57be8312c4","bdp_sd","Wed Mar 29 2023 01:09:07 GMT-0700 (Pacific Daylight Time)","414065","html-keyboard-response","41","353457","0.0-6.0-3.11","","null","","","<div class='trialBorder'><div class='vertical-center'><img style='vertical-align:center; align:center' src=img/fixation3.jpg></div><div class='cl'><div class='vertical-center'>$55<br>for<br>Nickii B</div></div><div class='cr'><div class='vertical-center'><font style='color:orange'>$54<br>for<br>yourself</font></div></div><div class='respDivL'><div class='vertical-center'>(E)</div></div><div class='respDivR'><div class='vertical-center'><font style='color:orange'>(I)</font></div></div></div>","null","$54<br>for<br>yourself","$55<br>for<br>5","1","54","55","5",""
"","","","FIX","6156a0460b95fa57be8312c4","bdp_sd","Wed Mar 29 2023 01:09:07 GMT-0700 (Pacific Daylight Time)","414065","html-keyboard-response","42","353965","0.0-6.0-1.12","","null","","","<div class='trialBorder'><div class='vertical-center'><img style='vertical-align:center; align:center' src=img/fixation3.jpg></div></div>","null","","","","","","",""
"","","","offer","6156a0460b95fa57be8312c4","bdp_sd","Wed Mar 29 2023 01:09:07 GMT-0700 (Pacific Daylight Time)","414065","html-keyboard-response","43","359284","0.0-6.0-2.12","","5319","","","<div class='trialBorder'><div class='vertical-center'><img style='vertical-align:center; align:center' src=img/fixation3.jpg></div><div class='cl'><div class='vertical-center'>$67<br>for<br>yourself</div></div><div class='cr'><div class='vertical-center'>$75<br>for<br>Nickii B</div></div><div class='respDivL'><div class='vertical-center'>(E)</div></div><div class='respDivR'><div class='vertical-center'>(I)</div></div></div>","E","$67<br>for<br>yourself","$75<br>for<br>5","0","67","75","5","SELF"
"","","","offerFB","6156a0460b95fa57be8312c4","bdp_sd","Wed Mar 29 2023 01:09:07 GMT-0700 (Pacific Daylight Time)","414065","html-keyboard-response","44","359549","0.0-6.0-3.12","","null","","","<div class='trialBorder'><div class='vertical-center'><img style='vertical-align:center; align:center' src=img/fixation3.jpg></div><div class='cl'><div class='vertical-center'><font style='color:orange'>$67<br>for<br>yourself</font></div></div><div class='cr'><div class='vertical-center'>$75<br>for<br>Nickii B</div></div><div class='respDivL'><div class='vertical-center'><font style='color:orange'>(E)</font></div></div><div class='respDivR'><div class='vertical-center'>(I)</div></div></div>","null","$67<br>for<br>yourself","$75<br>for<br>5","0","67","75","5",""
"","","","FIX","6156a0460b95fa57be8312c4","bdp_sd","Wed Mar 29 2023 01:09:07 GMT-0700 (Pacific Daylight Time)","414065","html-keyboard-response","45","360054","0.0-6.0-1.13","","null","","","<div class='trialBorder'><div class='vertical-center'><img style='vertical-align:center; align:center' src=img/fixation3.jpg></div></div>","null","","","","","","",""
"","","","offer","6156a0460b95fa57be8312c4","bdp_sd","Wed Mar 29 2023 01:09:07 GMT-0700 (Pacific Daylight Time)","414065","html-keyboard-response","46","362475","0.0-6.0-2.13","","2420","","","<div class='trialBorder'><div class='vertical-center'><img style='vertical-align:center; align:center' src=img/fixation3.jpg></div><div class='cl'><div class='vertical-center'>$25<br>for<br>Nickii B</div></div><div class='cr'><div class='vertical-center'>$22<br>for<br>yourself</div></div><div class='respDivL'><div class='vertical-center'>(E)</div></div><div class='respDivR'><div class='vertical-center'>(I)</div></div></div>","I","$22<br>for<br>yourself","$25<br>for<br>5","1","22","25","5","SELF"
"","","","offerFB","6156a0460b95fa57be8312c4","bdp_sd","Wed Mar 29 2023 01:09:07 GMT-0700 (Pacific Daylight Time)","414065","html-keyboard-response","47","362727","0.0-6.0-3.13","","null","","","<div class='trialBorder'><div class='vertical-center'><img style='vertical-align:center; align:center' src=img/fixation3.jpg></div><div class='cl'><div class='vertical-center'>$25<br>for<br>Nickii B</div></div><div class='cr'><div class='vertical-center'><font style='color:orange'>$22<br>for<br>yourself</font></div></div><div class='respDivL'><div class='vertical-center'>(E)</div></div><div class='respDivR'><div class='vertical-center'><font style='color:orange'>(I)</font></div></div></div>","null","$22<br>for<br>yourself","$25<br>for<br>5","1","22","25","5",""
"","","","FIX","6156a0460b95fa57be8312c4","bdp_sd","Wed Mar 29 2023 01:09:07 GMT-0700 (Pacific Daylight Time)","414065","html-keyboard-response","48","363234","0.0-6.0-1.14","","null","","","<div class='trialBorder'><div class='vertical-center'><img style='vertical-align:center; align:center' src=img/fixation3.jpg></div></div>","null","","","","","","",""
"","","","offer","6156a0460b95fa57be8312c4","bdp_sd","Wed Mar 29 2023 01:09:07 GMT-0700 (Pacific Daylight Time)","414065","html-keyboard-response","49","368034","0.0-6.0-2.14","","4800","","","<div class='trialBorder'><div class='vertical-center'><img style='vertical-align:center; align:center' src=img/fixation3.jpg></div><div class='cl'><div class='vertical-center'>$85<br>for<br>Nickii B</div></div><div class='cr'><div class='vertical-center'>$80<br>for<br>yourself</div></div><div class='respDivL'><div class='vertical-center'>(E)</div></div><div class='respDivR'><div class='vertical-center'>(I)</div></div></div>","I","$80<br>for<br>yourself","$85<br>for<br>5","1","80","85","5","SELF"
"","","","offerFB","6156a0460b95fa57be8312c4","bdp_sd","Wed Mar 29 2023 01:09:07 GMT-0700 (Pacific Daylight Time)","414065","html-keyboard-response","50","368290","0.0-6.0-3.14","","null","","","<div class='trialBorder'><div class='vertical-center'><img style='vertical-align:center; align:center' src=img/fixation3.jpg></div><div class='cl'><div class='vertical-center'>$85<br>for<br>Nickii B</div></div><div class='cr'><div class='vertical-center'><font style='color:orange'>$80<br>for<br>yourself</font></div></div><div class='respDivL'><div class='vertical-center'>(E)</div></div><div class='respDivR'><div class='vertical-center'><font style='color:orange'>(I)</font></div></div></div>","null","$80<br>for<br>yourself","$85<br>for<br>5","1","80","85","5",""
"","","","FIX","6156a0460b95fa57be8312c4","bdp_sd","Wed Mar 29 2023 01:09:07 GMT-0700 (Pacific Daylight Time)","414065","html-keyboard-response","51","368796","0.0-6.0-1.15","","null","","","<div class='trialBorder'><div class='vertical-center'><img style='vertical-align:center; align:center' src=img/fixation3.jpg></div></div>","null","","","","","","",""
"","","","offer","6156a0460b95fa57be8312c4","bdp_sd","Wed Mar 29 2023 01:09:07 GMT-0700 (Pacific Daylight Time)","414065","html-keyboard-response","52","371416","0.0-6.0-2.15","","2620","","","<div class='trialBorder'><div class='vertical-center'><img style='vertical-align:center; align:center' src=img/fixation3.jpg></div><div class='cl'><div class='vertical-center'>$31<br>for<br>yourself</div></div><div class='cr'><div class='vertical-center'>$85<br>for<br>Luka D</div></div><div class='respDivL'><div class='vertical-center'>(E)</div></div><div class='respDivR'><div class='vertical-center'>(I)</div></div></div>","I","$31<br>for<br>yourself","$85<br>for<br>1","0","31","85","1","OTHER"
"","","","offerFB","6156a0460b95fa57be8312c4","bdp_sd","Wed Mar 29 2023 01:09:07 GMT-0700 (Pacific Daylight Time)","414065","html-keyboard-response","53","371666","0.0-6.0-3.15","","null","","","<div class='trialBorder'><div class='vertical-center'><img style='vertical-align:center; align:center' src=img/fixation3.jpg></div><div class='cl'><div class='vertical-center'>$31<br>for<br>yourself</div></div><div class='cr'><div class='vertical-center'><font style='color:orange'>$85<br>for<br>Luka D</font></div></div><div class='respDivL'><div class='vertical-center'>(E)</div></div><div class='respDivR'><div class='vertical-center'><font style='color:orange'>(I)</font></div></div></div>","null","$31<br>for<br>yourself","$85<br>for<br>1","0","31","85","1",""
"","","","FIX","6156a0460b95fa57be8312c4","bdp_sd","Wed Mar 29 2023 01:09:07 GMT-0700 (Pacific Daylight Time)","414065","html-keyboard-response","54","372175","0.0-6.0-1.16","","null","","","<div class='trialBorder'><div class='vertical-center'><img style='vertical-align:center; align:center' src=img/fixation3.jpg></div></div>","null","","","","","","",""
"","","","offer","6156a0460b95fa57be8312c4","bdp_sd","Wed Mar 29 2023 01:09:07 GMT-0700 (Pacific Daylight Time)","414065","html-keyboard-response","55","375349","0.0-6.0-2.16","","3173","","","<div class='trialBorder'><div class='vertical-center'><img style='vertical-align:center; align:center' src=img/fixation3.jpg></div><div class='cl'><div class='vertical-center'>$14<br>for<br>yourself</div></div><div class='cr'><div class='vertical-center'>$25<br>for<br>Olive F</div></div><div class='respDivL'><div class='vertical-center'>(E)</div></div><div class='respDivR'><div class='vertical-center'>(I)</div></div></div>","I","$14<br>for<br>yourself","$25<br>for<br>3","0","14","25","3","OTHER"
"","","","offerFB","6156a0460b95fa57be8312c4","bdp_sd","Wed Mar 29 2023 01:09:07 GMT-0700 (Pacific Daylight Time)","414065","html-keyboard-response","56","375604","0.0-6.0-3.16","","null","","","<div class='trialBorder'><div class='vertical-center'><img style='vertical-align:center; align:center' src=img/fixation3.jpg></div><div class='cl'><div class='vertical-center'>$14<br>for<br>yourself</div></div><div class='cr'><div class='vertical-center'><font style='color:orange'>$25<br>for<br>Olive F</font></div></div><div class='respDivL'><div class='vertical-center'>(E)</div></div><div class='respDivR'><div class='vertical-center'><font style='color:orange'>(I)</font></div></div></div>","null","$14<br>for<br>yourself","$25<br>for<br>3","0","14","25","3",""
"","","","FIX","6156a0460b95fa57be8312c4","bdp_sd","Wed Mar 29 2023 01:09:07 GMT-0700 (Pacific Daylight Time)","414065","html-keyboard-response","57","376110","0.0-6.0-1.17","","null","","","<div class='trialBorder'><div class='vertical-center'><img style='vertical-align:center; align:center' src=img/fixation3.jpg></div></div>","null","","","","","","",""
"","","","offer","6156a0460b95fa57be8312c4","bdp_sd","Wed Mar 29 2023 01:09:07 GMT-0700 (Pacific Daylight Time)","414065","html-keyboard-response","58","377645","0.0-6.0-2.17","","1534","","","<div class='trialBorder'><div class='vertical-center'><img style='vertical-align:center; align:center' src=img/fixation3.jpg></div><div class='cl'><div class='vertical-center'>$15<br>for<br>yourself</div></div><div class='cr'><div class='vertical-center'>$35<br>for<br>wolfy P</div></div><div class='respDivL'><div class='vertical-center'>(E)</div></div><div class='respDivR'><div class='vertical-center'>(I)</div></div></div>","I","$15<br>for<br>yourself","$35<br>for<br>2","0","15","35","2","OTHER"
"","","","offerFB","6156a0460b95fa57be8312c4","bdp_sd","Wed Mar 29 2023 01:09:07 GMT-0700 (Pacific Daylight Time)","414065","html-keyboard-response","59","377909","0.0-6.0-3.17","","null","","","<div class='trialBorder'><div class='vertical-center'><img style='vertical-align:center; align:center' src=img/fixation3.jpg></div><div class='cl'><div class='vertical-center'>$15<br>for<br>yourself</div></div><div class='cr'><div class='vertical-center'><font style='color:orange'>$35<br>for<br>wolfy P</font></div></div><div class='respDivL'><div class='vertical-center'>(E)</div></div><div class='respDivR'><div class='vertical-center'><font style='color:orange'>(I)</font></div></div></div>","null","$15<br>for<br>yourself","$35<br>for<br>2","0","15","35","2",""
"","","","FIX","6156a0460b95fa57be8312c4","bdp_sd","Wed Mar 29 2023 01:09:07 GMT-0700 (Pacific Daylight Time)","414065","html-keyboard-response","60","378416","0.0-6.0-1.18","","null","","","<div class='trialBorder'><div class='vertical-center'><img style='vertical-align:center; align:center' src=img/fixation3.jpg></div></div>","null","","","","","","",""
"","","","offer","6156a0460b95fa57be8312c4","bdp_sd","Wed Mar 29 2023 01:09:07 GMT-0700 (Pacific Daylight Time)","414065","html-keyboard-response","61","380929","0.0-6.0-2.18","","2512","","","<div class='trialBorder'><div class='vertical-center'><img style='vertical-align:center; align:center' src=img/fixation3.jpg></div><div class='cl'><div class='vertical-center'>$24<br>for<br>yourself</div></div><div class='cr'><div class='vertical-center'>$35<br>for<br>Olive F</div></div><div class='respDivL'><div class='vertical-center'>(E)</div></div><div class='respDivR'><div class='vertical-center'>(I)</div></div></div>","E","$24<br>for<br>yourself","$35<br>for<br>3","0","24","35","3","SELF"
"","","","offerFB","6156a0460b95fa57be8312c4","bdp_sd","Wed Mar 29 2023 01:09:07 GMT-0700 (Pacific Daylight Time)","414065","html-keyboard-response","62","381186","0.0-6.0-3.18","","null","","","<div class='trialBorder'><div class='vertical-center'><img style='vertical-align:center; align:center' src=img/fixation3.jpg></div><div class='cl'><div class='vertical-center'><font style='color:orange'>$24<br>for<br>yourself</font></div></div><div class='cr'><div class='vertical-center'>$35<br>for<br>Olive F</div></div><div class='respDivL'><div class='vertical-center'><font style='color:orange'>(E)</font></div></div><div class='respDivR'><div class='vertical-center'>(I)</div></div></div>","null","$24<br>for<br>yourself","$35<br>for<br>3","0","24","35","3",""
"","","","FIX","6156a0460b95fa57be8312c4","bdp_sd","Wed Mar 29 2023 01:09:07 GMT-0700 (Pacific Daylight Time)","414065","html-keyboard-response","63","381693","0.0-6.0-1.19","","null","","","<div class='trialBorder'><div class='vertical-center'><img style='vertical-align:center; align:center' src=img/fixation3.jpg></div></div>","null","","","","","","",""
"","","","offer","6156a0460b95fa57be8312c4","bdp_sd","Wed Mar 29 2023 01:09:07 GMT-0700 (Pacific Daylight Time)","414065","html-keyboard-response","64","384634","0.0-6.0-2.19","","2940","","","<div class='trialBorder'><div class='vertical-center'><img style='vertical-align:center; align:center' src=img/fixation3.jpg></div><div class='cl'><div class='vertical-center'>$25<br>for<br>yourself</div></div><div class='cr'><div class='vertical-center'>$30<br>for<br>Savannah B</div></div><div class='respDivL'><div class='vertical-center'>(E)</div></div><div class='respDivR'><div class='vertical-center'>(I)</div></div></div>","E","$25<br>for<br>yourself","$30<br>for<br>4","0","25","30","4","SELF"
"","","","offerFB","6156a0460b95fa57be8312c4","bdp_sd","Wed Mar 29 2023 01:09:07 GMT-0700 (Pacific Daylight Time)","414065","html-keyboard-response","65","384890","0.0-6.0-3.19","","null","","","<div class='trialBorder'><div class='vertical-center'><img style='vertical-align:center; align:center' src=img/fixation3.jpg></div><div class='cl'><div class='vertical-center'><font style='color:orange'>$25<br>for<br>yourself</font></div></div><div class='cr'><div class='vertical-center'>$30<br>for<br>Savannah B</div></div><div class='respDivL'><div class='vertical-center'><font style='color:orange'>(E)</font></div></div><div class='respDivR'><div class='vertical-center'>(I)</div></div></div>","null","$25<br>for<br>yourself","$30<br>for<br>4","0","25","30","4",""
"","","","FIX","6156a0460b95fa57be8312c4","bdp_sd","Wed Mar 29 2023 01:09:07 GMT-0700 (Pacific Daylight Time)","414065","html-keyboard-response","66","385399","0.0-6.0-1.20","","null","","","<div class='trialBorder'><div class='vertical-center'><img style='vertical-align:center; align:center' src=img/fixation3.jpg></div></div>","null","","","","","","",""
"","","","offer","6156a0460b95fa57be8312c4","bdp_sd","Wed Mar 29 2023 01:09:07 GMT-0700 (Pacific Daylight Time)","414065","html-keyboard-response","67","387573","0.0-6.0-2.20","","2174","","","<div class='trialBorder'><div class='vertical-center'><img style='vertical-align:center; align:center' src=img/fixation3.jpg></div><div class='cl'><div class='vertical-center'>$49<br>for<br>yourself</div></div><div class='cr'><div class='vertical-center'>$60<br>for<br>Savannah B</div></div><div class='respDivL'><div class='vertical-center'>(E)</div></div><div class='respDivR'><div class='vertical-center'>(I)</div></div></div>","E","$49<br>for<br>yourself","$60<br>for<br>4","0","49","60","4","SELF"
"","","","offerFB","6156a0460b95fa57be8312c4","bdp_sd","Wed Mar 29 2023 01:09:07 GMT-0700 (Pacific Daylight Time)","414065","html-keyboard-response","68","387829","0.0-6.0-3.20","","null","","","<div class='trialBorder'><div class='vertical-center'><img style='vertical-align:center; align:center' src=img/fixation3.jpg></div><div class='cl'><div class='vertical-center'><font style='color:orange'>$49<br>for<br>yourself</font></div></div><div class='cr'><div class='vertical-center'>$60<br>for<br>Savannah B</div></div><div class='respDivL'><div class='vertical-center'><font style='color:orange'>(E)</font></div></div><div class='respDivR'><div class='vertical-center'>(I)</div></div></div>","null","$49<br>for<br>yourself","$60<br>for<br>4","0","49","60","4",""
"","","","FIX","6156a0460b95fa57be8312c4","bdp_sd","Wed Mar 29 2023 01:09:07 GMT-0700 (Pacific Daylight Time)","414065","html-keyboard-response","69","388336","0.0-6.0-1.21","","null","","","<div class='trialBorder'><div class='vertical-center'><img style='vertical-align:center; align:center' src=img/fixation3.jpg></div></div>","null","","","","","","",""
"","","","offer","6156a0460b95fa57be8312c4","bdp_sd","Wed Mar 29 2023 01:09:07 GMT-0700 (Pacific Daylight Time)","414065","html-keyboard-response","70","390782","0.0-6.0-2.21","","2446","","","<div class='trialBorder'><div class='vertical-center'><img style='vertical-align:center; align:center' src=img/fixation3.jpg></div><div class='cl'><div class='vertical-center'>$25<br>for<br>Savannah B</div></div><div class='cr'><div class='vertical-center'>$19<br>for<br>yourself</div></div><div class='respDivL'><div class='vertical-center'>(E)</div></div><div class='respDivR'><div class='vertical-center'>(I)</div></div></div>","I","$19<br>for<br>yourself","$25<br>for<br>4","1","19","25","4","SELF"
"","","","offerFB","6156a0460b95fa57be8312c4","bdp_sd","Wed Mar 29 2023 01:09:07 GMT-0700 (Pacific Daylight Time)","414065","html-keyboard-response","71","391042","0.0-6.0-3.21","","null","","","<div class='trialBorder'><div class='vertical-center'><img style='vertical-align:center; align:center' src=img/fixation3.jpg></div><div class='cl'><div class='vertical-center'>$25<br>for<br>Savannah B</div></div><div class='cr'><div class='vertical-center'><font style='color:orange'>$19<br>for<br>yourself</font></div></div><div class='respDivL'><div class='vertical-center'>(E)</div></div><div class='respDivR'><div class='vertical-center'><font style='color:orange'>(I)</font></div></div></div>","null","$19<br>for<br>yourself","$25<br>for<br>4","1","19","25","4",""
"","","","FIX","6156a0460b95fa57be8312c4","bdp_sd","Wed Mar 29 2023 01:09:07 GMT-0700 (Pacific Daylight Time)","414065","html-keyboard-response","72","391551","0.0-6.0-1.22","","null","","","<div class='trialBorder'><div class='vertical-center'><img style='vertical-align:center; align:center' src=img/fixation3.jpg></div></div>","null","","","","","","",""
"","","","offer","6156a0460b95fa57be8312c4","bdp_sd","Wed Mar 29 2023 01:09:07 GMT-0700 (Pacific Daylight Time)","414065","html-keyboard-response","73","394983","0.0-6.0-2.22","","3430","","","<div class='trialBorder'><div class='vertical-center'><img style='vertical-align:center; align:center' src=img/fixation3.jpg></div><div class='cl'><div class='vertical-center'>$50<br>for<br>Olive F</div></div><div class='cr'><div class='vertical-center'>$27<br>for<br>yourself</div></div><div class='respDivL'><div class='vertical-center'>(E)</div></div><div class='respDivR'><div class='vertical-center'>(I)</div></div></div>","E","$27<br>for<br>yourself","$50<br>for<br>3","1","27","50","3","OTHER"
"","","","offerFB","6156a0460b95fa57be8312c4","bdp_sd","Wed Mar 29 2023 01:09:07 GMT-0700 (Pacific Daylight Time)","414065","html-keyboard-response","74","395244","0.0-6.0-3.22","","null","","","<div class='trialBorder'><div class='vertical-center'><img style='vertical-align:center; align:center' src=img/fixation3.jpg></div><div class='cl'><div class='vertical-center'><font style='color:orange'>$50<br>for<br>Olive F</font></div></div><div class='cr'><div class='vertical-center'>$27<br>for<br>yourself</div></div><div class='respDivL'><div class='vertical-center'><font style='color:orange'>(E)</font></div></div><div class='respDivR'><div class='vertical-center'>(I)</div></div></div>","null","$27<br>for<br>yourself","$50<br>for<br>3","1","27","50","3",""
"","","","FIX","6156a0460b95fa57be8312c4","bdp_sd","Wed Mar 29 2023 01:09:07 GMT-0700 (Pacific Daylight Time)","414065","html-keyboard-response","75","395751","0.0-6.0-1.23","","null","","","<div class='trialBorder'><div class='vertical-center'><img style='vertical-align:center; align:center' src=img/fixation3.jpg></div></div>","null","","","","","","",""
"","","","offer","6156a0460b95fa57be8312c4","bdp_sd","Wed Mar 29 2023 01:09:07 GMT-0700 (Pacific Daylight Time)","414065","html-keyboard-response","76","398023","0.0-6.0-2.23","","2272","","","<div class='trialBorder'><div class='vertical-center'><img style='vertical-align:center; align:center' src=img/fixation3.jpg></div><div class='cl'><div class='vertical-center'>$40<br>for<br>yourself</div></div><div class='cr'><div class='vertical-center'>$55<br>for<br>Savannah B</div></div><div class='respDivL'><div class='vertical-center'>(E)</div></div><div class='respDivR'><div class='vertical-center'>(I)</div></div></div>","E","$40<br>for<br>yourself","$55<br>for<br>4","0","40","55","4","SELF"
"","","","offerFB","6156a0460b95fa57be8312c4","bdp_sd","Wed Mar 29 2023 01:09:07 GMT-0700 (Pacific Daylight Time)","414065","html-keyboard-response","77","398275","0.0-6.0-3.23","","null","","","<div class='trialBorder'><div class='vertical-center'><img style='vertical-align:center; align:center' src=img/fixation3.jpg></div><div class='cl'><div class='vertical-center'><font style='color:orange'>$40<br>for<br>yourself</font></div></div><div class='cr'><div class='vertical-center'>$55<br>for<br>Savannah B</div></div><div class='respDivL'><div class='vertical-center'><font style='color:orange'>(E)</font></div></div><div class='respDivR'><div class='vertical-center'>(I)</div></div></div>","null","$40<br>for<br>yourself","$55<br>for<br>4","0","40","55","4",""
"","","","FIX","6156a0460b95fa57be8312c4","bdp_sd","Wed Mar 29 2023 01:09:07 GMT-0700 (Pacific Daylight Time)","414065","html-keyboard-response","78","398783","0.0-6.0-1.24","","null","","","<div class='trialBorder'><div class='vertical-center'><img style='vertical-align:center; align:center' src=img/fixation3.jpg></div></div>","null","","","","","","",""
"","","","offer","6156a0460b95fa57be8312c4","bdp_sd","Wed Mar 29 2023 01:09:07 GMT-0700 (Pacific Daylight Time)","414065","html-keyboard-response","79","408037","0.0-6.0-2.24","","9254","","","<div class='trialBorder'><div class='vertical-center'><img style='vertical-align:center; align:center' src=img/fixation3.jpg></div><div class='cl'><div class='vertical-center'>$35<br>for<br>Nickii B</div></div><div class='cr'><div class='vertical-center'>$34<br>for<br>yourself</div></div><div class='respDivL'><div class='vertical-center'>(E)</div></div><div class='respDivR'><div class='vertical-center'>(I)</div></div></div>","I","$34<br>for<br>yourself","$35<br>for<br>5","1","34","35","5","SELF"
"","","","offerFB","6156a0460b95fa57be8312c4","bdp_sd","Wed Mar 29 2023 01:09:07 GMT-0700 (Pacific Daylight Time)","414065","html-keyboard-response","80","408301","0.0-6.0-3.24","","null","","","<div class='trialBorder'><div class='vertical-center'><img style='vertical-align:center; align:center' src=img/fixation3.jpg></div><div class='cl'><div class='vertical-center'>$35<br>for<br>Nickii B</div></div><div class='cr'><div class='vertical-center'><font style='color:orange'>$34<br>for<br>yourself</font></div></div><div class='respDivL'><div class='vertical-center'>(E)</div></div><div class='respDivR'><div class='vertical-center'><font style='color:orange'>(I)</font></div></div></div>","null","$34<br>for<br>yourself","$35<br>for<br>5","1","34","35","5",""
"","","","FIX","6156a0460b95fa57be8312c4","bdp_sd","Wed Mar 29 2023 01:09:07 GMT-0700 (Pacific Daylight Time)","414065","html-keyboard-response","81","408809","0.0-6.0-1.25","","null","","","<div class='trialBorder'><div class='vertical-center'><img style='vertical-align:center; align:center' src=img/fixation3.jpg></div></div>","null","","","","","","",""
"","","","offer","6156a0460b95fa57be8312c4","bdp_sd","Wed Mar 29 2023 01:09:07 GMT-0700 (Pacific Daylight Time)","414065","html-keyboard-response","82","410538","0.0-6.0-2.25","","1728","","","<div class='trialBorder'><div class='vertical-center'><img style='vertical-align:center; align:center' src=img/fixation3.jpg></div><div class='cl'><div class='vertical-center'>$11<br>for<br>yourself</div></div><div class='cr'><div class='vertical-center'>$30<br>for<br>wolfy P</div></div><div class='respDivL'><div class='vertical-center'>(E)</div></div><div class='respDivR'><div class='vertical-center'>(I)</div></div></div>","I","$11<br>for<br>yourself","$30<br>for<br>2","0","11","30","2","OTHER"
"","","","offerFB","6156a0460b95fa57be8312c4","bdp_sd","Wed Mar 29 2023 01:09:07 GMT-0700 (Pacific Daylight Time)","414065","html-keyboard-response","83","410793","0.0-6.0-3.25","","null","","","<div class='trialBorder'><div class='vertical-center'><img style='vertical-align:center; align:center' src=img/fixation3.jpg></div><div class='cl'><div class='vertical-center'>$11<br>for<br>yourself</div></div><div class='cr'><div class='vertical-center'><font style='color:orange'>$30<br>for<br>wolfy P</font></div></div><div class='respDivL'><div class='vertical-center'>(E)</div></div><div class='respDivR'><div class='vertical-center'><font style='color:orange'>(I)</font></div></div></div>","null","$11<br>for<br>yourself","$30<br>for<br>2","0","11","30","2",""
"","","","FIX","6156a0460b95fa57be8312c4","bdp_sd","Wed Mar 29 2023 01:09:07 GMT-0700 (Pacific Daylight Time)","414065","html-keyboard-response","84","411299","0.0-6.0-1.26","","null","","","<div class='trialBorder'><div class='vertical-center'><img style='vertical-align:center; align:center' src=img/fixation3.jpg></div></div>","null","","","","","","",""
"","","","offer","6156a0460b95fa57be8312c4","bdp_sd","Wed Mar 29 2023 01:09:07 GMT-0700 (Pacific Daylight Time)","414065","html-keyboard-response","85","412790","0.0-6.0-2.26","","1490","","","<div class='trialBorder'><div class='vertical-center'><img style='vertical-align:center; align:center' src=img/fixation3.jpg></div><div class='cl'><div class='vertical-center'>$80<br>for<br>Nickii B</div></div><div class='cr'><div class='vertical-center'>$78<br>for<br>yourself</div></div><div class='respDivL'><div class='vertical-center'>(E)</div></div><div class='respDivR'><div class='vertical-center'>(I)</div></div></div>","I","$78<br>for<br>yourself","$80<br>for<br>5","1","78","80","5","SELF"
"","","","offerFB","6156a0460b95fa57be8312c4","bdp_sd","Wed Mar 29 2023 01:09:07 GMT-0700 (Pacific Daylight Time)","414065","html-keyboard-response","86","413050","0.0-6.0-3.26","","null","","","<div class='trialBorder'><div class='vertical-center'><img style='vertical-align:center; align:center' src=img/fixation3.jpg></div><div class='cl'><div class='vertical-center'>$80<br>for<br>Nickii B</div></div><div class='cr'><div class='vertical-center'><font style='color:orange'>$78<br>for<br>yourself</font></div></div><div class='respDivL'><div class='vertical-center'>(E)</div></div><div class='respDivR'><div class='vertical-center'><font style='color:orange'>(I)</font></div></div></div>","null","$78<br>for<br>yourself","$80<br>for<br>5","1","78","80","5",""
"fullscreenexit","87","413051","fullscreenexit","6156a0460b95fa57be8312c4","bdp_sd","Wed Mar 29 2023 01:09:07 GMT-0700 (Pacific Daylight Time)","414065","","","","","","","","","","","","","","","","",""
"","","","","6156a0460b95fa57be8312c4","bdp_sd","Wed Mar 29 2023 01:09:07 GMT-0700 (Pacific Daylight Time)","414065","fullscreen","87","414065","0.0-7.0","","","","true","","","","","","","","",""
"","","","","","","","","html-keyboard-response","88","414571","0.0-8.0","","null","","","","null","","","","","","",""
