"trial_type","trial_index","time_elapsed","internal_node_id","subject_id","task","startTime","totalTime","view_history","rt","responses","event","trial","time","trialtype","success","stimulus","key_press","selfOffer","otherOffer","otherLeft","selfAmt","otherAmt","otherDist","chosen"
"pavlovia","0","8","0.0-0.0","63d40528f7676637efbd18eb","bdp_sd","Sat Mar 25 2023 16:53:47 GMT-0700 (Pacific Daylight Time)","183487","","","","","","","","","","","","","","","","",""
"instructions","1","2342","0.0-1.0","63d40528f7676637efbd18eb","bdp_sd","Sat Mar 25 2023 16:53:47 GMT-0700 (Pacific Daylight Time)","183487","[{""page_index"":0,""viewing_time"":2332}]","2333","","","","","","","","","","","","","","",""
"survey-text","2","90352","0.0-2.0","63d40528f7676637efbd18eb","bdp_sd","Sat Mar 25 2023 16:53:47 GMT-0700 (Pacific Daylight Time)","183487","","88007","{""Q0"":""Andrew L"",""Q1"":""Salvador S"",""Q2"":""Rocky G"",""Q3"":""Gilbert C"",""Q4"":""Dwayne J""}","","","","","","","","","","","","","",""
"","","","","63d40528f7676637efbd18eb","bdp_sd","Sat Mar 25 2023 16:53:47 GMT-0700 (Pacific Daylight Time)","183487","","","","fullscreenenter","3","92078","fullscreenenter","","","","","","","","","",""
"fullscreen","3","93070","0.0-3.0","63d40528f7676637efbd18eb","bdp_sd","Sat Mar 25 2023 16:53:47 GMT-0700 (Pacific Daylight Time)","183487","","","","","","","","true","","","","","","","","",""
"instructions","4","116750","0.0-5.0","63d40528f7676637efbd18eb","bdp_sd","Sat Mar 25 2023 16:53:47 GMT-0700 (Pacific Daylight Time)","183487","[{""page_index"":0,""viewing_time"":7517},{""page_index"":1,""viewing_time"":12416},{""page_index"":2,""viewing_time"":3743}]","23677","","","","","","","","","","","","","","",""
"html-keyboard-response","5","117256","0.0-6.0-1.0","63d40528f7676637efbd18eb","bdp_sd","Sat Mar 25 2023 16:53:47 GMT-0700 (Pacific Daylight Time)","183487","","null","","","","","FIX","","<div class='trialBorder'><div class='vertical-center'><img style='vertical-align:center; align:center' src=img/fixation3.jpg></div></div>","null","","","","","","",""
"html-keyboard-response","6","121030","0.0-6.0-2.0","63d40528f7676637efbd18eb","bdp_sd","Sat Mar 25 2023 16:53:47 GMT-0700 (Pacific Daylight Time)","183487","","3771","","","","","offer","","<div class='trialBorder'><div class='vertical-center'><img style='vertical-align:center; align:center' src=img/fixation3.jpg></div><div class='cl'><div class='vertical-center'>$60<br>for<br>Gilbert C</div></div><div class='cr'><div class='vertical-center'>$49<br>for<br>yourself</div></div><div class='respDivL'><div class='vertical-center'>(E)</div></div><div class='respDivR'><div class='vertical-center'>(I)</div></div></div>","I","$49<br>for<br>yourself","$60<br>for<br>4","1","49","60","4","SELF"
"html-keyboard-response","7","121286","0.0-6.0-3.0","63d40528f7676637efbd18eb","bdp_sd","Sat Mar 25 2023 16:53:47 GMT-0700 (Pacific Daylight Time)","183487","","null","","","","","offerFB","","<div class='trialBorder'><div class='vertical-center'><img style='vertical-align:center; align:center' src=img/fixation3.jpg></div><div class='cl'><div class='vertical-center'>$60<br>for<br>Gilbert C</div></div><div class='cr'><div class='vertical-center'><font style='color:orange'>$49<br>for<br>yourself</font></div></div><div class='respDivL'><div class='vertical-center'>(E)</div></div><div class='respDivR'><div class='vertical-center'><font style='color:orange'>(I)</font></div></div></div>","null","$49<br>for<br>yourself","$60<br>for<br>4","1","49","60","4",""
"html-keyboard-response","8","121789","0.0-6.0-1.1","63d40528f7676637efbd18eb","bdp_sd","Sat Mar 25 2023 16:53:47 GMT-0700 (Pacific Daylight Time)","183487","","null","","","","","FIX","","<div class='trialBorder'><div class='vertical-center'><img style='vertical-align:center; align:center' src=img/fixation3.jpg></div></div>","null","","","","","","",""
"html-keyboard-response","9","124695","0.0-6.0-2.1","63d40528f7676637efbd18eb","bdp_sd","Sat Mar 25 2023 16:53:47 GMT-0700 (Pacific Daylight Time)","183487","","2903","","","","","offer","","<div class='trialBorder'><div class='vertical-center'><img style='vertical-align:center; align:center' src=img/fixation3.jpg></div><div class='cl'><div class='vertical-center'>$25<br>for<br>Gilbert C</div></div><div class='cr'><div class='vertical-center'>$19<br>for<br>yourself</div></div><div class='respDivL'><div class='vertical-center'>(E)</div></div><div class='respDivR'><div class='vertical-center'>(I)</div></div></div>","I","$19<br>for<br>yourself","$25<br>for<br>4","1","19","25","4","SELF"
"html-keyboard-response","10","124947","0.0-6.0-3.1","63d40528f7676637efbd18eb","bdp_sd","Sat Mar 25 2023 16:53:47 GMT-0700 (Pacific Daylight Time)","183487","","null","","","","","offerFB","","<div class='trialBorder'><div class='vertical-center'><img style='vertical-align:center; align:center' src=img/fixation3.jpg></div><div class='cl'><div class='vertical-center'>$25<br>for<br>Gilbert C</div></div><div class='cr'><div class='vertical-center'><font style='color:orange'>$19<br>for<br>yourself</font></div></div><div class='respDivL'><div class='vertical-center'>(E)</div></div><div class='respDivR'><div class='vertical-center'><font style='color:orange'>(I)</font></div></div></div>","null","$19<br>for<br>yourself","$25<br>for<br>4","1","19","25","4",""
"html-keyboard-response","11","125449","0.0-6.0-1.2","63d40528f7676637efbd18eb","bdp_sd","Sat Mar 25 2023 16:53:47 GMT-0700 (Pacific Daylight Time)","183487","","null","","","","","FIX","","<div class='trialBorder'><div class='vertical-center'><img style='vertical-align:center; align:center' src=img/fixation3.jpg></div></div>","null","","","","","","",""
"html-keyboard-response","12","127270","0.0-6.0-2.2","63d40528f7676637efbd18eb","bdp_sd","Sat Mar 25 2023 16:53:47 GMT-0700 (Pacific Daylight Time)","183487","","1818","","","","","offer","","<div class='trialBorder'><div class='vertical-center'><img style='vertical-align:center; align:center' src=img/fixation3.jpg></div><div class='cl'><div class='vertical-center'>$80<br>for<br>Rocky G</div></div><div class='cr'><div class='vertical-center'>$54<br>for<br>yourself</div></div><div class='respDivL'><div class='vertical-center'>(E)</div></div><div class='respDivR'><div class='vertical-center'>(I)</div></div></div>","E","$54<br>for<br>yourself","$80<br>for<br>3","1","54","80","3","OTHER"
"html-keyboard-response","13","127522","0.0-6.0-3.2","63d40528f7676637efbd18eb","bdp_sd","Sat Mar 25 2023 16:53:47 GMT-0700 (Pacific Daylight Time)","183487","","null","","","","","offerFB","","<div class='trialBorder'><div class='vertical-center'><img style='vertical-align:center; align:center' src=img/fixation3.jpg></div><div class='cl'><div class='vertical-center'><font style='color:orange'>$80<br>for<br>Rocky G</font></div></div><div class='cr'><div class='vertical-center'>$54<br>for<br>yourself</div></div><div class='respDivL'><div class='vertical-center'><font style='color:orange'>(E)</font></div></div><div class='respDivR'><div class='vertical-center'>(I)</div></div></div>","null","$54<br>for<br>yourself","$80<br>for<br>3","1","54","80","3",""
"html-keyboard-response","14","128026","0.0-6.0-1.3","63d40528f7676637efbd18eb","bdp_sd","Sat Mar 25 2023 16:53:47 GMT-0700 (Pacific Daylight Time)","183487","","null","","","","","FIX","","<div class='trialBorder'><div class='vertical-center'><img style='vertical-align:center; align:center' src=img/fixation3.jpg></div></div>","null","","","","","","",""
"html-keyboard-response","15","129806","0.0-6.0-2.3","63d40528f7676637efbd18eb","bdp_sd","Sat Mar 25 2023 16:53:47 GMT-0700 (Pacific Daylight Time)","183487","","1777","","","","","offer","","<div class='trialBorder'><div class='vertical-center'><img style='vertical-align:center; align:center' src=img/fixation3.jpg></div><div class='cl'><div class='vertical-center'>$31<br>for<br>yourself</div></div><div class='cr'><div class='vertical-center'>$85<br>for<br>Andrew L</div></div><div class='respDivL'><div class='vertical-center'>(E)</div></div><div class='respDivR'><div class='vertical-center'>(I)</div></div></div>","I","$31<br>for<br>yourself","$85<br>for<br>1","0","31","85","1","OTHER"
"html-keyboard-response","16","130060","0.0-6.0-3.3","63d40528f7676637efbd18eb","bdp_sd","Sat Mar 25 2023 16:53:47 GMT-0700 (Pacific Daylight Time)","183487","","null","","","","","offerFB","","<div class='trialBorder'><div class='vertical-center'><img style='vertical-align:center; align:center' src=img/fixation3.jpg></div><div class='cl'><div class='vertical-center'>$31<br>for<br>yourself</div></div><div class='cr'><div class='vertical-center'><font style='color:orange'>$85<br>for<br>Andrew L</font></div></div><div class='respDivL'><div class='vertical-center'>(E)</div></div><div class='respDivR'><div class='vertical-center'><font style='color:orange'>(I)</font></div></div></div>","null","$31<br>for<br>yourself","$85<br>for<br>1","0","31","85","1",""
"html-keyboard-response","17","130562","0.0-6.0-1.4","63d40528f7676637efbd18eb","bdp_sd","Sat Mar 25 2023 16:53:47 GMT-0700 (Pacific Daylight Time)","183487","","null","","","","","FIX","","<div class='trialBorder'><div class='vertical-center'><img style='vertical-align:center; align:center' src=img/fixation3.jpg></div></div>","null","","","","","","",""
"html-keyboard-response","18","132222","0.0-6.0-2.4","63d40528f7676637efbd18eb","bdp_sd","Sat Mar 25 2023 16:53:47 GMT-0700 (Pacific Daylight Time)","183487","","1657","","","","","offer","","<div class='trialBorder'><div class='vertical-center'><img style='vertical-align:center; align:center' src=img/fixation3.jpg></div><div class='cl'><div class='vertical-center'>$54<br>for<br>yourself</div></div><div class='cr'><div class='vertical-center'>$60<br>for<br>Dwayne J</div></div><div class='respDivL'><div class='vertical-center'>(E)</div></div><div class='respDivR'><div class='vertical-center'>(I)</div></div></div>","E","$54<br>for<br>yourself","$60<br>for<br>5","0","54","60","5","SELF"
"html-keyboard-response","19","132475","0.0-6.0-3.4","63d40528f7676637efbd18eb","bdp_sd","Sat Mar 25 2023 16:53:47 GMT-0700 (Pacific Daylight Time)","183487","","null","","","","","offerFB","","<div class='trialBorder'><div class='vertical-center'><img style='vertical-align:center; align:center' src=img/fixation3.jpg></div><div class='cl'><div class='vertical-center'><font style='color:orange'>$54<br>for<br>yourself</font></div></div><div class='cr'><div class='vertical-center'>$60<br>for<br>Dwayne J</div></div><div class='respDivL'><div class='vertical-center'><font style='color:orange'>(E)</font></div></div><div class='respDivR'><div class='vertical-center'>(I)</div></div></div>","null","$54<br>for<br>yourself","$60<br>for<br>5","0","54","60","5",""
"html-keyboard-response","20","132977","0.0-6.0-1.5","63d40528f7676637efbd18eb","bdp_sd","Sat Mar 25 2023 16:53:47 GMT-0700 (Pacific Daylight Time)","183487","","null","","","","","FIX","","<div class='trialBorder'><div class='vertical-center'><img style='vertical-align:center; align:center' src=img/fixation3.jpg></div></div>","null","","","","","","",""
"html-keyboard-response","21","134262","0.0-6.0-2.5","63d40528f7676637efbd18eb","bdp_sd","Sat Mar 25 2023 16:53:47 GMT-0700 (Pacific Daylight Time)","183487","","1282","","","","","offer","","<div class='trialBorder'><div class='vertical-center'><img style='vertical-align:center; align:center' src=img/fixation3.jpg></div><div class='cl'><div class='vertical-center'>$22<br>for<br>yourself</div></div><div class='cr'><div class='vertical-center'>$25<br>for<br>Dwayne J</div></div><div class='respDivL'><div class='vertical-center'>(E)</div></div><div class='respDivR'><div class='vertical-center'>(I)</div></div></div>","E","$22<br>for<br>yourself","$25<br>for<br>5","0","22","25","5","SELF"
"html-keyboard-response","22","134515","0.0-6.0-3.5","63d40528f7676637efbd18eb","bdp_sd","Sat Mar 25 2023 16:53:47 GMT-0700 (Pacific Daylight Time)","183487","","null","","","","","offerFB","","<div class='trialBorder'><div class='vertical-center'><img style='vertical-align:center; align:center' src=img/fixation3.jpg></div><div class='cl'><div class='vertical-center'><font style='color:orange'>$22<br>for<br>yourself</font></div></div><div class='cr'><div class='vertical-center'>$25<br>for<br>Dwayne J</div></div><div class='respDivL'><div class='vertical-center'><font style='color:orange'>(E)</font></div></div><div class='respDivR'><div class='vertical-center'>(I)</div></div></div>","null","$22<br>for<br>yourself","$25<br>for<br>5","0","22","25","5",""
"html-keyboard-response","23","135016","0.0-6.0-1.6","63d40528f7676637efbd18eb","bdp_sd","Sat Mar 25 2023 16:53:47 GMT-0700 (Pacific Daylight Time)","183487","","null","","","","","FIX","","<div class='trialBorder'><div class='vertical-center'><img style='vertical-align:center; align:center' src=img/fixation3.jpg></div></div>","null","","","","","","",""
"html-keyboard-response","24","137023","0.0-6.0-2.6","63d40528f7676637efbd18eb","bdp_sd","Sat Mar 25 2023 16:53:47 GMT-0700 (Pacific Daylight Time)","183487","","2005","","","","","offer","","<div class='trialBorder'><div class='vertical-center'><img style='vertical-align:center; align:center' src=img/fixation3.jpg></div><div class='cl'><div class='vertical-center'>$69<br>for<br>yourself</div></div><div class='cr'><div class='vertical-center'>$85<br>for<br>Gilbert C</div></div><div class='respDivL'><div class='vertical-center'>(E)</div></div><div class='respDivR'><div class='vertical-center'>(I)</div></div></div>","E","$69<br>for<br>yourself","$85<br>for<br>4","0","69","85","4","SELF"
"html-keyboard-response","25","137276","0.0-6.0-3.6","63d40528f7676637efbd18eb","bdp_sd","Sat Mar 25 2023 16:53:47 GMT-0700 (Pacific Daylight Time)","183487","","null","","","","","offerFB","","<div class='trialBorder'><div class='vertical-center'><img style='vertical-align:center; align:center' src=img/fixation3.jpg></div><div class='cl'><div class='vertical-center'><font style='color:orange'>$69<br>for<br>yourself</font></div></div><div class='cr'><div class='vertical-center'>$85<br>for<br>Gilbert C</div></div><div class='respDivL'><div class='vertical-center'><font style='color:orange'>(E)</font></div></div><div class='respDivR'><div class='vertical-center'>(I)</div></div></div>","null","$69<br>for<br>yourself","$85<br>for<br>4","0","69","85","4",""
"html-keyboard-response","26","137778","0.0-6.0-1.7","63d40528f7676637efbd18eb","bdp_sd","Sat Mar 25 2023 16:53:47 GMT-0700 (Pacific Daylight Time)","183487","","null","","","","","FIX","","<div class='trialBorder'><div class='vertical-center'><img style='vertical-align:center; align:center' src=img/fixation3.jpg></div></div>","null","","","","","","",""
"html-keyboard-response","27","139118","0.0-6.0-2.7","63d40528f7676637efbd18eb","bdp_sd","Sat Mar 25 2023 16:53:47 GMT-0700 (Pacific Daylight Time)","183487","","1337","","","","","offer","","<div class='trialBorder'><div class='vertical-center'><img style='vertical-align:center; align:center' src=img/fixation3.jpg></div><div class='cl'><div class='vertical-center'>$35<br>for<br>Dwayne J</div></div><div class='cr'><div class='vertical-center'>$34<br>for<br>yourself</div></div><div class='respDivL'><div class='vertical-center'>(E)</div></div><div class='respDivR'><div class='vertical-center'>(I)</div></div></div>","I","$34<br>for<br>yourself","$35<br>for<br>5","1","34","35","5","SELF"
"html-keyboard-response","28","139376","0.0-6.0-3.7","63d40528f7676637efbd18eb","bdp_sd","Sat Mar 25 2023 16:53:47 GMT-0700 (Pacific Daylight Time)","183487","","null","","","","","offerFB","","<div class='trialBorder'><div class='vertical-center'><img style='vertical-align:center; align:center' src=img/fixation3.jpg></div><div class='cl'><div class='vertical-center'>$35<br>for<br>Dwayne J</div></div><div class='cr'><div class='vertical-center'><font style='color:orange'>$34<br>for<br>yourself</font></div></div><div class='respDivL'><div class='vertical-center'>(E)</div></div><div class='respDivR'><div class='vertical-center'><font style='color:orange'>(I)</font></div></div></div>","null","$34<br>for<br>yourself","$35<br>for<br>5","1","34","35","5",""
"html-keyboard-response","29","139878","0.0-6.0-1.8","63d40528f7676637efbd18eb","bdp_sd","Sat Mar 25 2023 16:53:47 GMT-0700 (Pacific Daylight Time)","183487","","null","","","","","FIX","","<div class='trialBorder'><div class='vertical-center'><img style='vertical-align:center; align:center' src=img/fixation3.jpg></div></div>","null","","","","","","",""
"html-keyboard-response","30","141463","0.0-6.0-2.8","63d40528f7676637efbd18eb","bdp_sd","Sat Mar 25 2023 16:53:47 GMT-0700 (Pacific Daylight Time)","183487","","1584","","","","","offer","","<div class='trialBorder'><div class='vertical-center'><img style='vertical-align:center; align:center' src=img/fixation3.jpg></div><div class='cl'><div class='vertical-center'>$28<br>for<br>yourself</div></div><div class='cr'><div class='vertical-center'>$30<br>for<br>Dwayne J</div></div><div class='respDivL'><div class='vertical-center'>(E)</div></div><div class='respDivR'><div class='vertical-center'>(I)</div></div></div>","E","$28<br>for<br>yourself","$30<br>for<br>5","0","28","30","5","SELF"
"html-keyboard-response","31","141716","0.0-6.0-3.8","63d40528f7676637efbd18eb","bdp_sd","Sat Mar 25 2023 16:53:47 GMT-0700 (Pacific Daylight Time)","183487","","null","","","","","offerFB","","<div class='trialBorder'><div class='vertical-center'><img style='vertical-align:center; align:center' src=img/fixation3.jpg></div><div class='cl'><div class='vertical-center'><font style='color:orange'>$28<br>for<br>yourself</font></div></div><div class='cr'><div class='vertical-center'>$30<br>for<br>Dwayne J</div></div><div class='respDivL'><div class='vertical-center'><font style='color:orange'>(E)</font></div></div><div class='respDivR'><div class='vertical-center'>(I)</div></div></div>","null","$28<br>for<br>yourself","$30<br>for<br>5","0","28","30","5",""
"html-keyboard-response","32","142219","0.0-6.0-1.9","63d40528f7676637efbd18eb","bdp_sd","Sat Mar 25 2023 16:53:47 GMT-0700 (Pacific Daylight Time)","183487","","null","","","","","FIX","","<div class='trialBorder'><div class='vertical-center'><img style='vertical-align:center; align:center' src=img/fixation3.jpg></div></div>","null","","","","","","",""
"html-keyboard-response","33","143935","0.0-6.0-2.9","63d40528f7676637efbd18eb","bdp_sd","Sat Mar 25 2023 16:53:47 GMT-0700 (Pacific Daylight Time)","183487","","1715","","","","","offer","","<div class='trialBorder'><div class='vertical-center'><img style='vertical-align:center; align:center' src=img/fixation3.jpg></div><div class='cl'><div class='vertical-center'>$30<br>for<br>Salvador S</div></div><div class='cr'><div class='vertical-center'>$11<br>for<br>yourself</div></div><div class='respDivL'><div class='vertical-center'>(E)</div></div><div class='respDivR'><div class='vertical-center'>(I)</div></div></div>","E","$11<br>for<br>yourself","$30<br>for<br>2","1","11","30","2","OTHER"
"html-keyboard-response","34","144188","0.0-6.0-3.9","63d40528f7676637efbd18eb","bdp_sd","Sat Mar 25 2023 16:53:47 GMT-0700 (Pacific Daylight Time)","183487","","null","","","","","offerFB","","<div class='trialBorder'><div class='vertical-center'><img style='vertical-align:center; align:center' src=img/fixation3.jpg></div><div class='cl'><div class='vertical-center'><font style='color:orange'>$30<br>for<br>Salvador S</font></div></div><div class='cr'><div class='vertical-center'>$11<br>for<br>yourself</div></div><div class='respDivL'><div class='vertical-center'><font style='color:orange'>(E)</font></div></div><div class='respDivR'><div class='vertical-center'>(I)</div></div></div>","null","$11<br>for<br>yourself","$30<br>for<br>2","1","11","30","2",""
"html-keyboard-response","35","144691","0.0-6.0-1.10","63d40528f7676637efbd18eb","bdp_sd","Sat Mar 25 2023 16:53:47 GMT-0700 (Pacific Daylight Time)","183487","","null","","","","","FIX","","<div class='trialBorder'><div class='vertical-center'><img style='vertical-align:center; align:center' src=img/fixation3.jpg></div></div>","null","","","","","","",""
"html-keyboard-response","36","146095","0.0-6.0-2.10","63d40528f7676637efbd18eb","bdp_sd","Sat Mar 25 2023 16:53:47 GMT-0700 (Pacific Daylight Time)","183487","","1401","","","","","offer","","<div class='trialBorder'><div class='vertical-center'><img style='vertical-align:center; align:center' src=img/fixation3.jpg></div><div class='cl'><div class='vertical-center'>$27<br>for<br>yourself</div></div><div class='cr'><div class='vertical-center'>$50<br>for<br>Rocky G</div></div><div class='respDivL'><div class='vertical-center'>(E)</div></div><div class='respDivR'><div class='vertical-center'>(I)</div></div></div>","I","$27<br>for<br>yourself","$50<br>for<br>3","0","27","50","3","OTHER"
"html-keyboard-response","37","146347","0.0-6.0-3.10","63d40528f7676637efbd18eb","bdp_sd","Sat Mar 25 2023 16:53:47 GMT-0700 (Pacific Daylight Time)","183487","","null","","","","","offerFB","","<div class='trialBorder'><div class='vertical-center'><img style='vertical-align:center; align:center' src=img/fixation3.jpg></div><div class='cl'><div class='vertical-center'>$27<br>for<br>yourself</div></div><div class='cr'><div class='vertical-center'><font style='color:orange'>$50<br>for<br>Rocky G</font></div></div><div class='respDivL'><div class='vertical-center'>(E)</div></div><div class='respDivR'><div class='vertical-center'><font style='color:orange'>(I)</font></div></div></div>","null","$27<br>for<br>yourself","$50<br>for<br>3","0","27","50","3",""
"html-keyboard-response","38","146850","0.0-6.0-1.11","63d40528f7676637efbd18eb","bdp_sd","Sat Mar 25 2023 16:53:47 GMT-0700 (Pacific Daylight Time)","183487","","null","","","","","FIX","","<div class='trialBorder'><div class='vertical-center'><img style='vertical-align:center; align:center' src=img/fixation3.jpg></div></div>","null","","","","","","",""
"html-keyboard-response","39","148569","0.0-6.0-2.11","63d40528f7676637efbd18eb","bdp_sd","Sat Mar 25 2023 16:53:47 GMT-0700 (Pacific Daylight Time)","183487","","1717","","","","","offer","","<div class='trialBorder'><div class='vertical-center'><img style='vertical-align:center; align:center' src=img/fixation3.jpg></div><div class='cl'><div class='vertical-center'>$30<br>for<br>Gilbert C</div></div><div class='cr'><div class='vertical-center'>$25<br>for<br>yourself</div></div><div class='respDivL'><div class='vertical-center'>(E)</div></div><div class='respDivR'><div class='vertical-center'>(I)</div></div></div>","I","$25<br>for<br>yourself","$30<br>for<br>4","1","25","30","4","SELF"
"html-keyboard-response","40","148822","0.0-6.0-3.11","63d40528f7676637efbd18eb","bdp_sd","Sat Mar 25 2023 16:53:47 GMT-0700 (Pacific Daylight Time)","183487","","null","","","","","offerFB","","<div class='trialBorder'><div class='vertical-center'><img style='vertical-align:center; align:center' src=img/fixation3.jpg></div><div class='cl'><div class='vertical-center'>$30<br>for<br>Gilbert C</div></div><div class='cr'><div class='vertical-center'><font style='color:orange'>$25<br>for<br>yourself</font></div></div><div class='respDivL'><div class='vertical-center'>(E)</div></div><div class='respDivR'><div class='vertical-center'><font style='color:orange'>(I)</font></div></div></div>","null","$25<br>for<br>yourself","$30<br>for<br>4","1","25","30","4",""
"html-keyboard-response","41","149325","0.0-6.0-1.12","63d40528f7676637efbd18eb","bdp_sd","Sat Mar 25 2023 16:53:47 GMT-0700 (Pacific Daylight Time)","183487","","null","","","","","FIX","","<div class='trialBorder'><div class='vertical-center'><img style='vertical-align:center; align:center' src=img/fixation3.jpg></div></div>","null","","","","","","",""
"html-keyboard-response","42","150695","0.0-6.0-2.12","63d40528f7676637efbd18eb","bdp_sd","Sat Mar 25 2023 16:53:47 GMT-0700 (Pacific Daylight Time)","183487","","1368","","","","","offer","","<div class='trialBorder'><div class='vertical-center'><img style='vertical-align:center; align:center' src=img/fixation3.jpg></div><div class='cl'><div class='vertical-center'>$80<br>for<br>Salvador S</div></div><div class='cr'><div class='vertical-center'>$33<br>for<br>yourself</div></div><div class='respDivL'><div class='vertical-center'>(E)</div></div><div class='respDivR'><div class='vertical-center'>(I)</div></div></div>","E","$33<br>for<br>yourself","$80<br>for<br>2","1","33","80","2","OTHER"
"html-keyboard-response","43","150947","0.0-6.0-3.12","63d40528f7676637efbd18eb","bdp_sd","Sat Mar 25 2023 16:53:47 GMT-0700 (Pacific Daylight Time)","183487","","null","","","","","offerFB","","<div class='trialBorder'><div class='vertical-center'><img style='vertical-align:center; align:center' src=img/fixation3.jpg></div><div class='cl'><div class='vertical-center'><font style='color:orange'>$80<br>for<br>Salvador S</font></div></div><div class='cr'><div class='vertical-center'>$33<br>for<br>yourself</div></div><div class='respDivL'><div class='vertical-center'><font style='color:orange'>(E)</font></div></div><div class='respDivR'><div class='vertical-center'>(I)</div></div></div>","null","$33<br>for<br>yourself","$80<br>for<br>2","1","33","80","2",""
"html-keyboard-response","44","151492","0.0-6.0-1.13","63d40528f7676637efbd18eb","bdp_sd","Sat Mar 25 2023 16:53:47 GMT-0700 (Pacific Daylight Time)","183487","","null","","","","","FIX","","<div class='trialBorder'><div class='vertical-center'><img style='vertical-align:center; align:center' src=img/fixation3.jpg></div></div>","null","","","","","","",""
"html-keyboard-response","45","152479","0.0-6.0-2.13","63d40528f7676637efbd18eb","bdp_sd","Sat Mar 25 2023 16:53:47 GMT-0700 (Pacific Daylight Time)","183487","","984","","","","","offer","","<div class='trialBorder'><div class='vertical-center'><img style='vertical-align:center; align:center' src=img/fixation3.jpg></div><div class='cl'><div class='vertical-center'>$67<br>for<br>yourself</div></div><div class='cr'><div class='vertical-center'>$75<br>for<br>Dwayne J</div></div><div class='respDivL'><div class='vertical-center'>(E)</div></div><div class='respDivR'><div class='vertical-center'>(I)</div></div></div>","E","$67<br>for<br>yourself","$75<br>for<br>5","0","67","75","5","SELF"
"html-keyboard-response","46","152732","0.0-6.0-3.13","63d40528f7676637efbd18eb","bdp_sd","Sat Mar 25 2023 16:53:47 GMT-0700 (Pacific Daylight Time)","183487","","null","","","","","offerFB","","<div class='trialBorder'><div class='vertical-center'><img style='vertical-align:center; align:center' src=img/fixation3.jpg></div><div class='cl'><div class='vertical-center'><font style='color:orange'>$67<br>for<br>yourself</font></div></div><div class='cr'><div class='vertical-center'>$75<br>for<br>Dwayne J</div></div><div class='respDivL'><div class='vertical-center'><font style='color:orange'>(E)</font></div></div><div class='respDivR'><div class='vertical-center'>(I)</div></div></div>","null","$67<br>for<br>yourself","$75<br>for<br>5","0","67","75","5",""
"html-keyboard-response","47","153235","0.0-6.0-1.14","63d40528f7676637efbd18eb","bdp_sd","Sat Mar 25 2023 16:53:47 GMT-0700 (Pacific Daylight Time)","183487","","null","","","","","FIX","","<div class='trialBorder'><div class='vertical-center'><img style='vertical-align:center; align:center' src=img/fixation3.jpg></div></div>","null","","","","","","",""
"html-keyboard-response","48","154647","0.0-6.0-2.14","63d40528f7676637efbd18eb","bdp_sd","Sat Mar 25 2023 16:53:47 GMT-0700 (Pacific Daylight Time)","183487","","1411","","","","","offer","","<div class='trialBorder'><div class='vertical-center'><img style='vertical-align:center; align:center' src=img/fixation3.jpg></div><div class='cl'><div class='vertical-center'>$78<br>for<br>yourself</div></div><div class='cr'><div class='vertical-center'>$80<br>for<br>Dwayne J</div></div><div class='respDivL'><div class='vertical-center'>(E)</div></div><div class='respDivR'><div class='vertical-center'>(I)</div></div></div>","E","$78<br>for<br>yourself","$80<br>for<br>5","0","78","80","5","SELF"
"html-keyboard-response","49","154901","0.0-6.0-3.14","63d40528f7676637efbd18eb","bdp_sd","Sat Mar 25 2023 16:53:47 GMT-0700 (Pacific Daylight Time)","183487","","null","","","","","offerFB","","<div class='trialBorder'><div class='vertical-center'><img style='vertical-align:center; align:center' src=img/fixation3.jpg></div><div class='cl'><div class='vertical-center'><font style='color:orange'>$78<br>for<br>yourself</font></div></div><div class='cr'><div class='vertical-center'>$80<br>for<br>Dwayne J</div></div><div class='respDivL'><div class='vertical-center'><font style='color:orange'>(E)</font></div></div><div class='respDivR'><div class='vertical-center'>(I)</div></div></div>","null","$78<br>for<br>yourself","$80<br>for<br>5","0","78","80","5",""
"html-keyboard-response","50","155404","0.0-6.0-1.15","63d40528f7676637efbd18eb","bdp_sd","Sat Mar 25 2023 16:53:47 GMT-0700 (Pacific Daylight Time)","183487","","null","","","","","FIX","","<div class='trialBorder'><div class='vertical-center'><img style='vertical-align:center; align:center' src=img/fixation3.jpg></div></div>","null","","","","","","",""
"html-keyboard-response","51","156815","0.0-6.0-2.15","63d40528f7676637efbd18eb","bdp_sd","Sat Mar 25 2023 16:53:47 GMT-0700 (Pacific Daylight Time)","183487","","1409","","","","","offer","","<div class='trialBorder'><div class='vertical-center'><img style='vertical-align:center; align:center' src=img/fixation3.jpg></div><div class='cl'><div class='vertical-center'>$35<br>for<br>Rocky G</div></div><div class='cr'><div class='vertical-center'>$24<br>for<br>yourself</div></div><div class='respDivL'><div class='vertical-center'>(E)</div></div><div class='respDivR'><div class='vertical-center'>(I)</div></div></div>","I","$24<br>for<br>yourself","$35<br>for<br>3","1","24","35","3","SELF"
"html-keyboard-response","52","157068","0.0-6.0-3.15","63d40528f7676637efbd18eb","bdp_sd","Sat Mar 25 2023 16:53:47 GMT-0700 (Pacific Daylight Time)","183487","","null","","","","","offerFB","","<div class='trialBorder'><div class='vertical-center'><img style='vertical-align:center; align:center' src=img/fixation3.jpg></div><div class='cl'><div class='vertical-center'>$35<br>for<br>Rocky G</div></div><div class='cr'><div class='vertical-center'><font style='color:orange'>$24<br>for<br>yourself</font></div></div><div class='respDivL'><div class='vertical-center'>(E)</div></div><div class='respDivR'><div class='vertical-center'><font style='color:orange'>(I)</font></div></div></div>","null","$24<br>for<br>yourself","$35<br>for<br>3","1","24","35","3",""
"html-keyboard-response","53","157571","0.0-6.0-1.16","63d40528f7676637efbd18eb","bdp_sd","Sat Mar 25 2023 16:53:47 GMT-0700 (Pacific Daylight Time)","183487","","null","","","","","FIX","","<div class='trialBorder'><div class='vertical-center'><img style='vertical-align:center; align:center' src=img/fixation3.jpg></div></div>","null","","","","","","",""
"html-keyboard-response","54","159375","0.0-6.0-2.16","63d40528f7676637efbd18eb","bdp_sd","Sat Mar 25 2023 16:53:47 GMT-0700 (Pacific Daylight Time)","183487","","1803","","","","","offer","","<div class='trialBorder'><div class='vertical-center'><img style='vertical-align:center; align:center' src=img/fixation3.jpg></div><div class='cl'><div class='vertical-center'>$55<br>for<br>Dwayne J</div></div><div class='cr'><div class='vertical-center'>$54<br>for<br>yourself</div></div><div class='respDivL'><div class='vertical-center'>(E)</div></div><div class='respDivR'><div class='vertical-center'>(I)</div></div></div>","I","$54<br>for<br>yourself","$55<br>for<br>5","1","54","55","5","SELF"
"html-keyboard-response","55","159628","0.0-6.0-3.16","63d40528f7676637efbd18eb","bdp_sd","Sat Mar 25 2023 16:53:47 GMT-0700 (Pacific Daylight Time)","183487","","null","","","","","offerFB","","<div class='trialBorder'><div class='vertical-center'><img style='vertical-align:center; align:center' src=img/fixation3.jpg></div><div class='cl'><div class='vertical-center'>$55<br>for<br>Dwayne J</div></div><div class='cr'><div class='vertical-center'><font style='color:orange'>$54<br>for<br>yourself</font></div></div><div class='respDivL'><div class='vertical-center'>(E)</div></div><div class='respDivR'><div class='vertical-center'><font style='color:orange'>(I)</font></div></div></div>","null","$54<br>for<br>yourself","$55<br>for<br>5","1","54","55","5",""
"html-keyboard-response","56","160131","0.0-6.0-1.17","63d40528f7676637efbd18eb","bdp_sd","Sat Mar 25 2023 16:53:47 GMT-0700 (Pacific Daylight Time)","183487","","null","","","","","FIX","","<div class='trialBorder'><div class='vertical-center'><img style='vertical-align:center; align:center' src=img/fixation3.jpg></div></div>","null","","","","","","",""
"html-keyboard-response","57","161912","0.0-6.0-2.17","63d40528f7676637efbd18eb","bdp_sd","Sat Mar 25 2023 16:53:47 GMT-0700 (Pacific Daylight Time)","183487","","1778","","","","","offer","","<div class='trialBorder'><div class='vertical-center'><img style='vertical-align:center; align:center' src=img/fixation3.jpg></div><div class='cl'><div class='vertical-center'>$15<br>for<br>yourself</div></div><div class='cr'><div class='vertical-center'>$35<br>for<br>Salvador S</div></div><div class='respDivL'><div class='vertical-center'>(E)</div></div><div class='respDivR'><div class='vertical-center'>(I)</div></div></div>","I","$15<br>for<br>yourself","$35<br>for<br>2","0","15","35","2","OTHER"
"html-keyboard-response","58","162166","0.0-6.0-3.17","63d40528f7676637efbd18eb","bdp_sd","Sat Mar 25 2023 16:53:47 GMT-0700 (Pacific Daylight Time)","183487","","null","","","","","offerFB","","<div class='trialBorder'><div class='vertical-center'><img style='vertical-align:center; align:center' src=img/fixation3.jpg></div><div class='cl'><div class='vertical-center'>$15<br>for<br>yourself</div></div><div class='cr'><div class='vertical-center'><font style='color:orange'>$35<br>for<br>Salvador S</font></div></div><div class='respDivL'><div class='vertical-center'>(E)</div></div><div class='respDivR'><div class='vertical-center'><font style='color:orange'>(I)</font></div></div></div>","null","$15<br>for<br>yourself","$35<br>for<br>2","0","15","35","2",""
"html-keyboard-response","59","162669","0.0-6.0-1.18","63d40528f7676637efbd18eb","bdp_sd","Sat Mar 25 2023 16:53:47 GMT-0700 (Pacific Daylight Time)","183487","","null","","","","","FIX","","<div class='trialBorder'><div class='vertical-center'><img style='vertical-align:center; align:center' src=img/fixation3.jpg></div></div>","null","","","","","","",""
"html-keyboard-response","60","163734","0.0-6.0-2.18","63d40528f7676637efbd18eb","bdp_sd","Sat Mar 25 2023 16:53:47 GMT-0700 (Pacific Daylight Time)","183487","","1064","","","","","offer","","<div class='trialBorder'><div class='vertical-center'><img style='vertical-align:center; align:center' src=img/fixation3.jpg></div><div class='cl'><div class='vertical-center'>$40<br>for<br>yourself</div></div><div class='cr'><div class='vertical-center'>$55<br>for<br>Gilbert C</div></div><div class='respDivL'><div class='vertical-center'>(E)</div></div><div class='respDivR'><div class='vertical-center'>(I)</div></div></div>","I","$40<br>for<br>yourself","$55<br>for<br>4","0","40","55","4","OTHER"
"html-keyboard-response","61","163987","0.0-6.0-3.18","63d40528f7676637efbd18eb","bdp_sd","Sat Mar 25 2023 16:53:47 GMT-0700 (Pacific Daylight Time)","183487","","null","","","","","offerFB","","<div class='trialBorder'><div class='vertical-center'><img style='vertical-align:center; align:center' src=img/fixation3.jpg></div><div class='cl'><div class='vertical-center'>$40<br>for<br>yourself</div></div><div class='cr'><div class='vertical-center'><font style='color:orange'>$55<br>for<br>Gilbert C</font></div></div><div class='respDivL'><div class='vertical-center'>(E)</div></div><div class='respDivR'><div class='vertical-center'><font style='color:orange'>(I)</font></div></div></div>","null","$40<br>for<br>yourself","$55<br>for<br>4","0","40","55","4",""
"html-keyboard-response","62","164490","0.0-6.0-1.19","63d40528f7676637efbd18eb","bdp_sd","Sat Mar 25 2023 16:53:47 GMT-0700 (Pacific Daylight Time)","183487","","null","","","","","FIX","","<div class='trialBorder'><div class='vertical-center'><img style='vertical-align:center; align:center' src=img/fixation3.jpg></div></div>","null","","","","","","",""
"html-keyboard-response","63","166526","0.0-6.0-2.19","63d40528f7676637efbd18eb","bdp_sd","Sat Mar 25 2023 16:53:47 GMT-0700 (Pacific Daylight Time)","183487","","2035","","","","","offer","","<div class='trialBorder'><div class='vertical-center'><img style='vertical-align:center; align:center' src=img/fixation3.jpg></div><div class='cl'><div class='vertical-center'>$14<br>for<br>yourself</div></div><div class='cr'><div class='vertical-center'>$25<br>for<br>Rocky G</div></div><div class='respDivL'><div class='vertical-center'>(E)</div></div><div class='respDivR'><div class='vertical-center'>(I)</div></div></div>","E","$14<br>for<br>yourself","$25<br>for<br>3","0","14","25","3","SELF"
"html-keyboard-response","64","166778","0.0-6.0-3.19","63d40528f7676637efbd18eb","bdp_sd","Sat Mar 25 2023 16:53:47 GMT-0700 (Pacific Daylight Time)","183487","","null","","","","","offerFB","","<div class='trialBorder'><div class='vertical-center'><img style='vertical-align:center; align:center' src=img/fixation3.jpg></div><div class='cl'><div class='vertical-center'><font style='color:orange'>$14<br>for<br>yourself</font></div></div><div class='cr'><div class='vertical-center'>$25<br>for<br>Rocky G</div></div><div class='respDivL'><div class='vertical-center'><font style='color:orange'>(E)</font></div></div><div class='respDivR'><div class='vertical-center'>(I)</div></div></div>","null","$14<br>for<br>yourself","$25<br>for<br>3","0","14","25","3",""
"html-keyboard-response","65","167281","0.0-6.0-1.20","63d40528f7676637efbd18eb","bdp_sd","Sat Mar 25 2023 16:53:47 GMT-0700 (Pacific Daylight Time)","183487","","null","","","","","FIX","","<div class='trialBorder'><div class='vertical-center'><img style='vertical-align:center; align:center' src=img/fixation3.jpg></div></div>","null","","","","","","",""
"html-keyboard-response","66","168446","0.0-6.0-2.20","63d40528f7676637efbd18eb","bdp_sd","Sat Mar 25 2023 16:53:47 GMT-0700 (Pacific Daylight Time)","183487","","1163","","","","","offer","","<div class='trialBorder'><div class='vertical-center'><img style='vertical-align:center; align:center' src=img/fixation3.jpg></div><div class='cl'><div class='vertical-center'>$25<br>for<br>yourself</div></div><div class='cr'><div class='vertical-center'>$60<br>for<br>Rocky G</div></div><div class='respDivL'><div class='vertical-center'>(E)</div></div><div class='respDivR'><div class='vertical-center'>(I)</div></div></div>","I","$25<br>for<br>yourself","$60<br>for<br>3","0","25","60","3","OTHER"
"html-keyboard-response","67","168699","0.0-6.0-3.20","63d40528f7676637efbd18eb","bdp_sd","Sat Mar 25 2023 16:53:47 GMT-0700 (Pacific Daylight Time)","183487","","null","","","","","offerFB","","<div class='trialBorder'><div class='vertical-center'><img style='vertical-align:center; align:center' src=img/fixation3.jpg></div><div class='cl'><div class='vertical-center'>$25<br>for<br>yourself</div></div><div class='cr'><div class='vertical-center'><font style='color:orange'>$60<br>for<br>Rocky G</font></div></div><div class='respDivL'><div class='vertical-center'>(E)</div></div><div class='respDivR'><div class='vertical-center'><font style='color:orange'>(I)</font></div></div></div>","null","$25<br>for<br>yourself","$60<br>for<br>3","0","25","60","3",""
"html-keyboard-response","68","169202","0.0-6.0-1.21","63d40528f7676637efbd18eb","bdp_sd","Sat Mar 25 2023 16:53:47 GMT-0700 (Pacific Daylight Time)","183487","","null","","","","","FIX","","<div class='trialBorder'><div class='vertical-center'><img style='vertical-align:center; align:center' src=img/fixation3.jpg></div></div>","null","","","","","","",""
"html-keyboard-response","69","170351","0.0-6.0-2.21","63d40528f7676637efbd18eb","bdp_sd","Sat Mar 25 2023 16:53:47 GMT-0700 (Pacific Daylight Time)","183487","","1147","","","","","offer","","<div class='trialBorder'><div class='vertical-center'><img style='vertical-align:center; align:center' src=img/fixation3.jpg></div><div class='cl'><div class='vertical-center'>$75<br>for<br>Rocky G</div></div><div class='cr'><div class='vertical-center'>$41<br>for<br>yourself</div></div><div class='respDivL'><div class='vertical-center'>(E)</div></div><div class='respDivR'><div class='vertical-center'>(I)</div></div></div>","E","$41<br>for<br>yourself","$75<br>for<br>3","1","41","75","3","OTHER"
"html-keyboard-response","70","170603","0.0-6.0-3.21","63d40528f7676637efbd18eb","bdp_sd","Sat Mar 25 2023 16:53:47 GMT-0700 (Pacific Daylight Time)","183487","","null","","","","","offerFB","","<div class='trialBorder'><div class='vertical-center'><img style='vertical-align:center; align:center' src=img/fixation3.jpg></div><div class='cl'><div class='vertical-center'><font style='color:orange'>$75<br>for<br>Rocky G</font></div></div><div class='cr'><div class='vertical-center'>$41<br>for<br>yourself</div></div><div class='respDivL'><div class='vertical-center'><font style='color:orange'>(E)</font></div></div><div class='respDivR'><div class='vertical-center'>(I)</div></div></div>","null","$41<br>for<br>yourself","$75<br>for<br>3","1","41","75","3",""
"html-keyboard-response","71","171105","0.0-6.0-1.22","63d40528f7676637efbd18eb","bdp_sd","Sat Mar 25 2023 16:53:47 GMT-0700 (Pacific Daylight Time)","183487","","null","","","","","FIX","","<div class='trialBorder'><div class='vertical-center'><img style='vertical-align:center; align:center' src=img/fixation3.jpg></div></div>","null","","","","","","",""
"html-keyboard-response","72","172438","0.0-6.0-2.22","63d40528f7676637efbd18eb","bdp_sd","Sat Mar 25 2023 16:53:47 GMT-0700 (Pacific Daylight Time)","183487","","1331","","","","","offer","","<div class='trialBorder'><div class='vertical-center'><img style='vertical-align:center; align:center' src=img/fixation3.jpg></div><div class='cl'><div class='vertical-center'>$50<br>for<br>Dwayne J</div></div><div class='cr'><div class='vertical-center'>$47<br>for<br>yourself</div></div><div class='respDivL'><div class='vertical-center'>(E)</div></div><div class='respDivR'><div class='vertical-center'>(I)</div></div></div>","I","$47<br>for<br>yourself","$50<br>for<br>5","1","47","50","5","SELF"
"html-keyboard-response","73","172692","0.0-6.0-3.22","63d40528f7676637efbd18eb","bdp_sd","Sat Mar 25 2023 16:53:47 GMT-0700 (Pacific Daylight Time)","183487","","null","","","","","offerFB","","<div class='trialBorder'><div class='vertical-center'><img style='vertical-align:center; align:center' src=img/fixation3.jpg></div><div class='cl'><div class='vertical-center'>$50<br>for<br>Dwayne J</div></div><div class='cr'><div class='vertical-center'><font style='color:orange'>$47<br>for<br>yourself</font></div></div><div class='respDivL'><div class='vertical-center'>(E)</div></div><div class='respDivR'><div class='vertical-center'><font style='color:orange'>(I)</font></div></div></div>","null","$47<br>for<br>yourself","$50<br>for<br>5","1","47","50","5",""
"html-keyboard-response","74","173194","0.0-6.0-1.23","63d40528f7676637efbd18eb","bdp_sd","Sat Mar 25 2023 16:53:47 GMT-0700 (Pacific Daylight Time)","183487","","null","","","","","FIX","","<div class='trialBorder'><div class='vertical-center'><img style='vertical-align:center; align:center' src=img/fixation3.jpg></div></div>","null","","","","","","",""
"html-keyboard-response","75","174390","0.0-6.0-2.23","63d40528f7676637efbd18eb","bdp_sd","Sat Mar 25 2023 16:53:47 GMT-0700 (Pacific Daylight Time)","183487","","1193","","","","","offer","","<div class='trialBorder'><div class='vertical-center'><img style='vertical-align:center; align:center' src=img/fixation3.jpg></div><div class='cl'><div class='vertical-center'>$55<br>for<br>Andrew L</div></div><div class='cr'><div class='vertical-center'>$20<br>for<br>yourself</div></div><div class='respDivL'><div class='vertical-center'>(E)</div></div><div class='respDivR'><div class='vertical-center'>(I)</div></div></div>","E","$20<br>for<br>yourself","$55<br>for<br>1","1","20","55","1","OTHER"
"html-keyboard-response","76","174642","0.0-6.0-3.23","63d40528f7676637efbd18eb","bdp_sd","Sat Mar 25 2023 16:53:47 GMT-0700 (Pacific Daylight Time)","183487","","null","","","","","offerFB","","<div class='trialBorder'><div class='vertical-center'><img style='vertical-align:center; align:center' src=img/fixation3.jpg></div><div class='cl'><div class='vertical-center'><font style='color:orange'>$55<br>for<br>Andrew L</font></div></div><div class='cr'><div class='vertical-center'>$20<br>for<br>yourself</div></div><div class='respDivL'><div class='vertical-center'><font style='color:orange'>(E)</font></div></div><div class='respDivR'><div class='vertical-center'>(I)</div></div></div>","null","$20<br>for<br>yourself","$55<br>for<br>1","1","20","55","1",""
"html-keyboard-response","77","175145","0.0-6.0-1.24","63d40528f7676637efbd18eb","bdp_sd","Sat Mar 25 2023 16:53:47 GMT-0700 (Pacific Daylight Time)","183487","","null","","","","","FIX","","<div class='trialBorder'><div class='vertical-center'><img style='vertical-align:center; align:center' src=img/fixation3.jpg></div></div>","null","","","","","","",""
"html-keyboard-response","78","176574","0.0-6.0-2.24","63d40528f7676637efbd18eb","bdp_sd","Sat Mar 25 2023 16:53:47 GMT-0700 (Pacific Daylight Time)","183487","","1427","","","","","offer","","<div class='trialBorder'><div class='vertical-center'><img style='vertical-align:center; align:center' src=img/fixation3.jpg></div><div class='cl'><div class='vertical-center'>$80<br>for<br>yourself</div></div><div class='cr'><div class='vertical-center'>$85<br>for<br>Dwayne J</div></div><div class='respDivL'><div class='vertical-center'>(E)</div></div><div class='respDivR'><div class='vertical-center'>(I)</div></div></div>","E","$80<br>for<br>yourself","$85<br>for<br>5","0","80","85","5","SELF"
"html-keyboard-response","79","176827","0.0-6.0-3.24","63d40528f7676637efbd18eb","bdp_sd","Sat Mar 25 2023 16:53:47 GMT-0700 (Pacific Daylight Time)","183487","","null","","","","","offerFB","","<div class='trialBorder'><div class='vertical-center'><img style='vertical-align:center; align:center' src=img/fixation3.jpg></div><div class='cl'><div class='vertical-center'><font style='color:orange'>$80<br>for<br>yourself</font></div></div><div class='cr'><div class='vertical-center'>$85<br>for<br>Dwayne J</div></div><div class='respDivL'><div class='vertical-center'><font style='color:orange'>(E)</font></div></div><div class='respDivR'><div class='vertical-center'>(I)</div></div></div>","null","$80<br>for<br>yourself","$85<br>for<br>5","0","80","85","5",""
"html-keyboard-response","80","177330","0.0-6.0-1.25","63d40528f7676637efbd18eb","bdp_sd","Sat Mar 25 2023 16:53:47 GMT-0700 (Pacific Daylight Time)","183487","","null","","","","","FIX","","<div class='trialBorder'><div class='vertical-center'><img style='vertical-align:center; align:center' src=img/fixation3.jpg></div></div>","null","","","","","","",""
"html-keyboard-response","81","179294","0.0-6.0-2.25","63d40528f7676637efbd18eb","bdp_sd","Sat Mar 25 2023 16:53:47 GMT-0700 (Pacific Daylight Time)","183487","","1963","","","","","offer","","<div class='trialBorder'><div class='vertical-center'><img style='vertical-align:center; align:center' src=img/fixation3.jpg></div><div class='cl'><div class='vertical-center'>$55<br>for<br>yourself</div></div><div class='cr'><div class='vertical-center'>$75<br>for<br>Gilbert C</div></div><div class='respDivL'><div class='vertical-center'>(E)</div></div><div class='respDivR'><div class='vertical-center'>(I)</div></div></div>","E","$55<br>for<br>yourself","$75<br>for<br>4","0","55","75","4","SELF"
"html-keyboard-response","82","179547","0.0-6.0-3.25","63d40528f7676637efbd18eb","bdp_sd","Sat Mar 25 2023 16:53:47 GMT-0700 (Pacific Daylight Time)","183487","","null","","","","","offerFB","","<div class='trialBorder'><div class='vertical-center'><img style='vertical-align:center; align:center' src=img/fixation3.jpg></div><div class='cl'><div class='vertical-center'><font style='color:orange'>$55<br>for<br>yourself</font></div></div><div class='cr'><div class='vertical-center'>$75<br>for<br>Gilbert C</div></div><div class='respDivL'><div class='vertical-center'><font style='color:orange'>(E)</font></div></div><div class='respDivR'><div class='vertical-center'>(I)</div></div></div>","null","$55<br>for<br>yourself","$75<br>for<br>4","0","55","75","4",""
"html-keyboard-response","83","180049","0.0-6.0-1.26","63d40528f7676637efbd18eb","bdp_sd","Sat Mar 25 2023 16:53:47 GMT-0700 (Pacific Daylight Time)","183487","","null","","","","","FIX","","<div class='trialBorder'><div class='vertical-center'><img style='vertical-align:center; align:center' src=img/fixation3.jpg></div></div>","null","","","","","","",""
"html-keyboard-response","84","182231","0.0-6.0-2.26","63d40528f7676637efbd18eb","bdp_sd","Sat Mar 25 2023 16:53:47 GMT-0700 (Pacific Daylight Time)","183487","","2179","","","","","offer","","<div class='trialBorder'><div class='vertical-center'><img style='vertical-align:center; align:center' src=img/fixation3.jpg></div><div class='cl'><div class='vertical-center'>$50<br>for<br>Gilbert C</div></div><div class='cr'><div class='vertical-center'>$34<br>for<br>yourself</div></div><div class='respDivL'><div class='vertical-center'>(E)</div></div><div class='respDivR'><div class='vertical-center'>(I)</div></div></div>","I","$34<br>for<br>yourself","$50<br>for<br>4","1","34","50","4","SELF"
"html-keyboard-response","85","182484","0.0-6.0-3.26","63d40528f7676637efbd18eb","bdp_sd","Sat Mar 25 2023 16:53:47 GMT-0700 (Pacific Daylight Time)","183487","","null","","","","","offerFB","","<div class='trialBorder'><div class='vertical-center'><img style='vertical-align:center; align:center' src=img/fixation3.jpg></div><div class='cl'><div class='vertical-center'>$50<br>for<br>Gilbert C</div></div><div class='cr'><div class='vertical-center'><font style='color:orange'>$34<br>for<br>yourself</font></div></div><div class='respDivL'><div class='vertical-center'>(E)</div></div><div class='respDivR'><div class='vertical-center'><font style='color:orange'>(I)</font></div></div></div>","null","$34<br>for<br>yourself","$50<br>for<br>4","1","34","50","4",""
"","","","","63d40528f7676637efbd18eb","bdp_sd","Sat Mar 25 2023 16:53:47 GMT-0700 (Pacific Daylight Time)","183487","","","","fullscreenexit","86","182505","fullscreenexit","","","","","","","","","",""
"fullscreen","86","183486","0.0-7.0","63d40528f7676637efbd18eb","bdp_sd","Sat Mar 25 2023 16:53:47 GMT-0700 (Pacific Daylight Time)","183487","","","","","","","","true","","","","","","","","",""
"html-keyboard-response","87","183989","0.0-8.0","","","","","","null","","","","","","","","null","","","","","","",""
