"trial_type","trial_index","time_elapsed","internal_node_id","subject_id","task","startTime","totalTime","view_history","rt","responses","event","trial","time","trialtype","success","stimulus","key_press","selfOffer","otherOffer","otherLeft","selfAmt","otherAmt","otherDist","chosen"
"pavlovia","0","3","0.0-0.0","63eeaedb26e599e86e8f7929","bdp_sd","Sat Apr 15 2023 22:16:17 GMT-0400 (Eastern Daylight Time)","314224","","","","","","","","","","","","","","","","",""
"instructions","1","2315","0.0-1.0","63eeaedb26e599e86e8f7929","bdp_sd","Sat Apr 15 2023 22:16:17 GMT-0400 (Eastern Daylight Time)","314224","[{""page_index"":0,""viewing_time"":2311}]","2312","","","","","","","","","","","","","","",""
"survey-text","2","151936","0.0-2.0","63eeaedb26e599e86e8f7929","bdp_sd","Sat Apr 15 2023 22:16:17 GMT-0400 (Eastern Daylight Time)","314224","","149619","{""Q0"":""E B"",""Q1"":""S F"",""Q2"":""W M"",""Q3"":""S J"",""Q4"":""P W""}","","","","","","","","","","","","","",""
"","","","","63eeaedb26e599e86e8f7929","bdp_sd","Sat Apr 15 2023 22:16:17 GMT-0400 (Eastern Daylight Time)","314224","","","","fullscreenenter","3","154023","fullscreenenter","","","","","","","","","",""
"fullscreen","3","154963","0.0-3.0","63eeaedb26e599e86e8f7929","bdp_sd","Sat Apr 15 2023 22:16:17 GMT-0400 (Eastern Daylight Time)","314224","","","","","","","","true","","","","","","","","",""
"instructions","4","175563","0.0-5.0","63eeaedb26e599e86e8f7929","bdp_sd","Sat Apr 15 2023 22:16:17 GMT-0400 (Eastern Daylight Time)","314224","[{""page_index"":0,""viewing_time"":5345},{""page_index"":1,""viewing_time"":8983},{""page_index"":2,""viewing_time"":6270}]","20599","","","","","","","","","","","","","","",""
"html-keyboard-response","5","176065","0.0-6.0-1.0","63eeaedb26e599e86e8f7929","bdp_sd","Sat Apr 15 2023 22:16:17 GMT-0400 (Eastern Daylight Time)","314224","","null","","","","","FIX","","<div class='trialBorder'><div class='vertical-center'><img style='vertical-align:center; align:center' src=img/fixation3.jpg></div></div>","null","","","","","","",""
"html-keyboard-response","6","180600","0.0-6.0-2.0","63eeaedb26e599e86e8f7929","bdp_sd","Sat Apr 15 2023 22:16:17 GMT-0400 (Eastern Daylight Time)","314224","","4534","","","","","offer","","<div class='trialBorder'><div class='vertical-center'><img style='vertical-align:center; align:center' src=img/fixation3.jpg></div><div class='cl'><div class='vertical-center'>$80<br>for<br>W M</div></div><div class='cr'><div class='vertical-center'>$54<br>for<br>yourself</div></div><div class='respDivL'><div class='vertical-center'>(E)</div></div><div class='respDivR'><div class='vertical-center'>(I)</div></div></div>","E","$54<br>for<br>yourself","$80<br>for<br>3","1","54","80","3","OTHER"
"html-keyboard-response","7","180852","0.0-6.0-3.0","63eeaedb26e599e86e8f7929","bdp_sd","Sat Apr 15 2023 22:16:17 GMT-0400 (Eastern Daylight Time)","314224","","null","","","","","offerFB","","<div class='trialBorder'><div class='vertical-center'><img style='vertical-align:center; align:center' src=img/fixation3.jpg></div><div class='cl'><div class='vertical-center'><font style='color:orange'>$80<br>for<br>W M</font></div></div><div class='cr'><div class='vertical-center'>$54<br>for<br>yourself</div></div><div class='respDivL'><div class='vertical-center'><font style='color:orange'>(E)</font></div></div><div class='respDivR'><div class='vertical-center'>(I)</div></div></div>","null","$54<br>for<br>yourself","$80<br>for<br>3","1","54","80","3",""
"html-keyboard-response","8","181355","0.0-6.0-1.1","63eeaedb26e599e86e8f7929","bdp_sd","Sat Apr 15 2023 22:16:17 GMT-0400 (Eastern Daylight Time)","314224","","null","","","","","FIX","","<div class='trialBorder'><div class='vertical-center'><img style='vertical-align:center; align:center' src=img/fixation3.jpg></div></div>","null","","","","","","",""
"html-keyboard-response","9","189329","0.0-6.0-2.1","63eeaedb26e599e86e8f7929","bdp_sd","Sat Apr 15 2023 22:16:17 GMT-0400 (Eastern Daylight Time)","314224","","7971","","","","","offer","","<div class='trialBorder'><div class='vertical-center'><img style='vertical-align:center; align:center' src=img/fixation3.jpg></div><div class='cl'><div class='vertical-center'>$55<br>for<br>S J</div></div><div class='cr'><div class='vertical-center'>$40<br>for<br>yourself</div></div><div class='respDivL'><div class='vertical-center'>(E)</div></div><div class='respDivR'><div class='vertical-center'>(I)</div></div></div>","I","$40<br>for<br>yourself","$55<br>for<br>4","1","40","55","4","SELF"
"html-keyboard-response","10","189585","0.0-6.0-3.1","63eeaedb26e599e86e8f7929","bdp_sd","Sat Apr 15 2023 22:16:17 GMT-0400 (Eastern Daylight Time)","314224","","null","","","","","offerFB","","<div class='trialBorder'><div class='vertical-center'><img style='vertical-align:center; align:center' src=img/fixation3.jpg></div><div class='cl'><div class='vertical-center'>$55<br>for<br>S J</div></div><div class='cr'><div class='vertical-center'><font style='color:orange'>$40<br>for<br>yourself</font></div></div><div class='respDivL'><div class='vertical-center'>(E)</div></div><div class='respDivR'><div class='vertical-center'><font style='color:orange'>(I)</font></div></div></div>","null","$40<br>for<br>yourself","$55<br>for<br>4","1","40","55","4",""
"html-keyboard-response","11","190086","0.0-6.0-1.2","63eeaedb26e599e86e8f7929","bdp_sd","Sat Apr 15 2023 22:16:17 GMT-0400 (Eastern Daylight Time)","314224","","null","","","","","FIX","","<div class='trialBorder'><div class='vertical-center'><img style='vertical-align:center; align:center' src=img/fixation3.jpg></div></div>","null","","","","","","",""
"html-keyboard-response","12","192398","0.0-6.0-2.2","63eeaedb26e599e86e8f7929","bdp_sd","Sat Apr 15 2023 22:16:17 GMT-0400 (Eastern Daylight Time)","314224","","2310","","","","","offer","","<div class='trialBorder'><div class='vertical-center'><img style='vertical-align:center; align:center' src=img/fixation3.jpg></div><div class='cl'><div class='vertical-center'>$80<br>for<br>yourself</div></div><div class='cr'><div class='vertical-center'>$85<br>for<br>P W</div></div><div class='respDivL'><div class='vertical-center'>(E)</div></div><div class='respDivR'><div class='vertical-center'>(I)</div></div></div>","E","$80<br>for<br>yourself","$85<br>for<br>5","0","80","85","5","SELF"
"html-keyboard-response","13","192652","0.0-6.0-3.2","63eeaedb26e599e86e8f7929","bdp_sd","Sat Apr 15 2023 22:16:17 GMT-0400 (Eastern Daylight Time)","314224","","null","","","","","offerFB","","<div class='trialBorder'><div class='vertical-center'><img style='vertical-align:center; align:center' src=img/fixation3.jpg></div><div class='cl'><div class='vertical-center'><font style='color:orange'>$80<br>for<br>yourself</font></div></div><div class='cr'><div class='vertical-center'>$85<br>for<br>P W</div></div><div class='respDivL'><div class='vertical-center'><font style='color:orange'>(E)</font></div></div><div class='respDivR'><div class='vertical-center'>(I)</div></div></div>","null","$80<br>for<br>yourself","$85<br>for<br>5","0","80","85","5",""
"html-keyboard-response","14","193156","0.0-6.0-1.3","63eeaedb26e599e86e8f7929","bdp_sd","Sat Apr 15 2023 22:16:17 GMT-0400 (Eastern Daylight Time)","314224","","null","","","","","FIX","","<div class='trialBorder'><div class='vertical-center'><img style='vertical-align:center; align:center' src=img/fixation3.jpg></div></div>","null","","","","","","",""
"html-keyboard-response","15","195818","0.0-6.0-2.3","63eeaedb26e599e86e8f7929","bdp_sd","Sat Apr 15 2023 22:16:17 GMT-0400 (Eastern Daylight Time)","314224","","2659","","","","","offer","","<div class='trialBorder'><div class='vertical-center'><img style='vertical-align:center; align:center' src=img/fixation3.jpg></div><div class='cl'><div class='vertical-center'>$25<br>for<br>P W</div></div><div class='cr'><div class='vertical-center'>$22<br>for<br>yourself</div></div><div class='respDivL'><div class='vertical-center'>(E)</div></div><div class='respDivR'><div class='vertical-center'>(I)</div></div></div>","I","$22<br>for<br>yourself","$25<br>for<br>5","1","22","25","5","SELF"
"html-keyboard-response","16","196072","0.0-6.0-3.3","63eeaedb26e599e86e8f7929","bdp_sd","Sat Apr 15 2023 22:16:17 GMT-0400 (Eastern Daylight Time)","314224","","null","","","","","offerFB","","<div class='trialBorder'><div class='vertical-center'><img style='vertical-align:center; align:center' src=img/fixation3.jpg></div><div class='cl'><div class='vertical-center'>$25<br>for<br>P W</div></div><div class='cr'><div class='vertical-center'><font style='color:orange'>$22<br>for<br>yourself</font></div></div><div class='respDivL'><div class='vertical-center'>(E)</div></div><div class='respDivR'><div class='vertical-center'><font style='color:orange'>(I)</font></div></div></div>","null","$22<br>for<br>yourself","$25<br>for<br>5","1","22","25","5",""
"html-keyboard-response","17","196575","0.0-6.0-1.4","63eeaedb26e599e86e8f7929","bdp_sd","Sat Apr 15 2023 22:16:17 GMT-0400 (Eastern Daylight Time)","314224","","null","","","","","FIX","","<div class='trialBorder'><div class='vertical-center'><img style='vertical-align:center; align:center' src=img/fixation3.jpg></div></div>","null","","","","","","",""
"html-keyboard-response","18","199133","0.0-6.0-2.4","63eeaedb26e599e86e8f7929","bdp_sd","Sat Apr 15 2023 22:16:17 GMT-0400 (Eastern Daylight Time)","314224","","2556","","","","","offer","","<div class='trialBorder'><div class='vertical-center'><img style='vertical-align:center; align:center' src=img/fixation3.jpg></div><div class='cl'><div class='vertical-center'>$35<br>for<br>W M</div></div><div class='cr'><div class='vertical-center'>$24<br>for<br>yourself</div></div><div class='respDivL'><div class='vertical-center'>(E)</div></div><div class='respDivR'><div class='vertical-center'>(I)</div></div></div>","E","$24<br>for<br>yourself","$35<br>for<br>3","1","24","35","3","OTHER"
"html-keyboard-response","19","199386","0.0-6.0-3.4","63eeaedb26e599e86e8f7929","bdp_sd","Sat Apr 15 2023 22:16:17 GMT-0400 (Eastern Daylight Time)","314224","","null","","","","","offerFB","","<div class='trialBorder'><div class='vertical-center'><img style='vertical-align:center; align:center' src=img/fixation3.jpg></div><div class='cl'><div class='vertical-center'><font style='color:orange'>$35<br>for<br>W M</font></div></div><div class='cr'><div class='vertical-center'>$24<br>for<br>yourself</div></div><div class='respDivL'><div class='vertical-center'><font style='color:orange'>(E)</font></div></div><div class='respDivR'><div class='vertical-center'>(I)</div></div></div>","null","$24<br>for<br>yourself","$35<br>for<br>3","1","24","35","3",""
"html-keyboard-response","20","199888","0.0-6.0-1.5","63eeaedb26e599e86e8f7929","bdp_sd","Sat Apr 15 2023 22:16:17 GMT-0400 (Eastern Daylight Time)","314224","","null","","","","","FIX","","<div class='trialBorder'><div class='vertical-center'><img style='vertical-align:center; align:center' src=img/fixation3.jpg></div></div>","null","","","","","","",""
"html-keyboard-response","21","205896","0.0-6.0-2.5","63eeaedb26e599e86e8f7929","bdp_sd","Sat Apr 15 2023 22:16:17 GMT-0400 (Eastern Daylight Time)","314224","","6006","","","","","offer","","<div class='trialBorder'><div class='vertical-center'><img style='vertical-align:center; align:center' src=img/fixation3.jpg></div><div class='cl'><div class='vertical-center'>$60<br>for<br>S J</div></div><div class='cr'><div class='vertical-center'>$49<br>for<br>yourself</div></div><div class='respDivL'><div class='vertical-center'>(E)</div></div><div class='respDivR'><div class='vertical-center'>(I)</div></div></div>","I","$49<br>for<br>yourself","$60<br>for<br>4","1","49","60","4","SELF"
"html-keyboard-response","22","206151","0.0-6.0-3.5","63eeaedb26e599e86e8f7929","bdp_sd","Sat Apr 15 2023 22:16:17 GMT-0400 (Eastern Daylight Time)","314224","","null","","","","","offerFB","","<div class='trialBorder'><div class='vertical-center'><img style='vertical-align:center; align:center' src=img/fixation3.jpg></div><div class='cl'><div class='vertical-center'>$60<br>for<br>S J</div></div><div class='cr'><div class='vertical-center'><font style='color:orange'>$49<br>for<br>yourself</font></div></div><div class='respDivL'><div class='vertical-center'>(E)</div></div><div class='respDivR'><div class='vertical-center'><font style='color:orange'>(I)</font></div></div></div>","null","$49<br>for<br>yourself","$60<br>for<br>4","1","49","60","4",""
"html-keyboard-response","23","206653","0.0-6.0-1.6","63eeaedb26e599e86e8f7929","bdp_sd","Sat Apr 15 2023 22:16:17 GMT-0400 (Eastern Daylight Time)","314224","","null","","","","","FIX","","<div class='trialBorder'><div class='vertical-center'><img style='vertical-align:center; align:center' src=img/fixation3.jpg></div></div>","null","","","","","","",""
"html-keyboard-response","24","208807","0.0-6.0-2.6","63eeaedb26e599e86e8f7929","bdp_sd","Sat Apr 15 2023 22:16:17 GMT-0400 (Eastern Daylight Time)","314224","","2152","","","","","offer","","<div class='trialBorder'><div class='vertical-center'><img style='vertical-align:center; align:center' src=img/fixation3.jpg></div><div class='cl'><div class='vertical-center'>$54<br>for<br>yourself</div></div><div class='cr'><div class='vertical-center'>$60<br>for<br>P W</div></div><div class='respDivL'><div class='vertical-center'>(E)</div></div><div class='respDivR'><div class='vertical-center'>(I)</div></div></div>","E","$54<br>for<br>yourself","$60<br>for<br>5","0","54","60","5","SELF"
"html-keyboard-response","25","209059","0.0-6.0-3.6","63eeaedb26e599e86e8f7929","bdp_sd","Sat Apr 15 2023 22:16:17 GMT-0400 (Eastern Daylight Time)","314224","","null","","","","","offerFB","","<div class='trialBorder'><div class='vertical-center'><img style='vertical-align:center; align:center' src=img/fixation3.jpg></div><div class='cl'><div class='vertical-center'><font style='color:orange'>$54<br>for<br>yourself</font></div></div><div class='cr'><div class='vertical-center'>$60<br>for<br>P W</div></div><div class='respDivL'><div class='vertical-center'><font style='color:orange'>(E)</font></div></div><div class='respDivR'><div class='vertical-center'>(I)</div></div></div>","null","$54<br>for<br>yourself","$60<br>for<br>5","0","54","60","5",""
"html-keyboard-response","26","209562","0.0-6.0-1.7","63eeaedb26e599e86e8f7929","bdp_sd","Sat Apr 15 2023 22:16:17 GMT-0400 (Eastern Daylight Time)","314224","","null","","","","","FIX","","<div class='trialBorder'><div class='vertical-center'><img style='vertical-align:center; align:center' src=img/fixation3.jpg></div></div>","null","","","","","","",""
"html-keyboard-response","27","213308","0.0-6.0-2.7","63eeaedb26e599e86e8f7929","bdp_sd","Sat Apr 15 2023 22:16:17 GMT-0400 (Eastern Daylight Time)","314224","","3744","","","","","offer","","<div class='trialBorder'><div class='vertical-center'><img style='vertical-align:center; align:center' src=img/fixation3.jpg></div><div class='cl'><div class='vertical-center'>$35<br>for<br>P W</div></div><div class='cr'><div class='vertical-center'>$34<br>for<br>yourself</div></div><div class='respDivL'><div class='vertical-center'>(E)</div></div><div class='respDivR'><div class='vertical-center'>(I)</div></div></div>","I","$34<br>for<br>yourself","$35<br>for<br>5","1","34","35","5","SELF"
"html-keyboard-response","28","213561","0.0-6.0-3.7","63eeaedb26e599e86e8f7929","bdp_sd","Sat Apr 15 2023 22:16:17 GMT-0400 (Eastern Daylight Time)","314224","","null","","","","","offerFB","","<div class='trialBorder'><div class='vertical-center'><img style='vertical-align:center; align:center' src=img/fixation3.jpg></div><div class='cl'><div class='vertical-center'>$35<br>for<br>P W</div></div><div class='cr'><div class='vertical-center'><font style='color:orange'>$34<br>for<br>yourself</font></div></div><div class='respDivL'><div class='vertical-center'>(E)</div></div><div class='respDivR'><div class='vertical-center'><font style='color:orange'>(I)</font></div></div></div>","null","$34<br>for<br>yourself","$35<br>for<br>5","1","34","35","5",""
"html-keyboard-response","29","214064","0.0-6.0-1.8","63eeaedb26e599e86e8f7929","bdp_sd","Sat Apr 15 2023 22:16:17 GMT-0400 (Eastern Daylight Time)","314224","","null","","","","","FIX","","<div class='trialBorder'><div class='vertical-center'><img style='vertical-align:center; align:center' src=img/fixation3.jpg></div></div>","null","","","","","","",""
"html-keyboard-response","30","216661","0.0-6.0-2.8","63eeaedb26e599e86e8f7929","bdp_sd","Sat Apr 15 2023 22:16:17 GMT-0400 (Eastern Daylight Time)","314224","","2595","","","","","offer","","<div class='trialBorder'><div class='vertical-center'><img style='vertical-align:center; align:center' src=img/fixation3.jpg></div><div class='cl'><div class='vertical-center'>$20<br>for<br>yourself</div></div><div class='cr'><div class='vertical-center'>$55<br>for<br>E B</div></div><div class='respDivL'><div class='vertical-center'>(E)</div></div><div class='respDivR'><div class='vertical-center'>(I)</div></div></div>","I","$20<br>for<br>yourself","$55<br>for<br>1","0","20","55","1","OTHER"
"html-keyboard-response","31","216913","0.0-6.0-3.8","63eeaedb26e599e86e8f7929","bdp_sd","Sat Apr 15 2023 22:16:17 GMT-0400 (Eastern Daylight Time)","314224","","null","","","","","offerFB","","<div class='trialBorder'><div class='vertical-center'><img style='vertical-align:center; align:center' src=img/fixation3.jpg></div><div class='cl'><div class='vertical-center'>$20<br>for<br>yourself</div></div><div class='cr'><div class='vertical-center'><font style='color:orange'>$55<br>for<br>E B</font></div></div><div class='respDivL'><div class='vertical-center'>(E)</div></div><div class='respDivR'><div class='vertical-center'><font style='color:orange'>(I)</font></div></div></div>","null","$20<br>for<br>yourself","$55<br>for<br>1","0","20","55","1",""
"html-keyboard-response","32","217415","0.0-6.0-1.9","63eeaedb26e599e86e8f7929","bdp_sd","Sat Apr 15 2023 22:16:17 GMT-0400 (Eastern Daylight Time)","314224","","null","","","","","FIX","","<div class='trialBorder'><div class='vertical-center'><img style='vertical-align:center; align:center' src=img/fixation3.jpg></div></div>","null","","","","","","",""
"html-keyboard-response","33","227595","0.0-6.0-2.9","63eeaedb26e599e86e8f7929","bdp_sd","Sat Apr 15 2023 22:16:17 GMT-0400 (Eastern Daylight Time)","314224","","10178","","","","","offer","","<div class='trialBorder'><div class='vertical-center'><img style='vertical-align:center; align:center' src=img/fixation3.jpg></div><div class='cl'><div class='vertical-center'>$11<br>for<br>yourself</div></div><div class='cr'><div class='vertical-center'>$30<br>for<br>S F</div></div><div class='respDivL'><div class='vertical-center'>(E)</div></div><div class='respDivR'><div class='vertical-center'>(I)</div></div></div>","I","$11<br>for<br>yourself","$30<br>for<br>2","0","11","30","2","OTHER"
"html-keyboard-response","34","227849","0.0-6.0-3.9","63eeaedb26e599e86e8f7929","bdp_sd","Sat Apr 15 2023 22:16:17 GMT-0400 (Eastern Daylight Time)","314224","","null","","","","","offerFB","","<div class='trialBorder'><div class='vertical-center'><img style='vertical-align:center; align:center' src=img/fixation3.jpg></div><div class='cl'><div class='vertical-center'>$11<br>for<br>yourself</div></div><div class='cr'><div class='vertical-center'><font style='color:orange'>$30<br>for<br>S F</font></div></div><div class='respDivL'><div class='vertical-center'>(E)</div></div><div class='respDivR'><div class='vertical-center'><font style='color:orange'>(I)</font></div></div></div>","null","$11<br>for<br>yourself","$30<br>for<br>2","0","11","30","2",""
"html-keyboard-response","35","228351","0.0-6.0-1.10","63eeaedb26e599e86e8f7929","bdp_sd","Sat Apr 15 2023 22:16:17 GMT-0400 (Eastern Daylight Time)","314224","","null","","","","","FIX","","<div class='trialBorder'><div class='vertical-center'><img style='vertical-align:center; align:center' src=img/fixation3.jpg></div></div>","null","","","","","","",""
"html-keyboard-response","36","232412","0.0-6.0-2.10","63eeaedb26e599e86e8f7929","bdp_sd","Sat Apr 15 2023 22:16:17 GMT-0400 (Eastern Daylight Time)","314224","","4059","","","","","offer","","<div class='trialBorder'><div class='vertical-center'><img style='vertical-align:center; align:center' src=img/fixation3.jpg></div><div class='cl'><div class='vertical-center'>$69<br>for<br>yourself</div></div><div class='cr'><div class='vertical-center'>$85<br>for<br>S J</div></div><div class='respDivL'><div class='vertical-center'>(E)</div></div><div class='respDivR'><div class='vertical-center'>(I)</div></div></div>","E","$69<br>for<br>yourself","$85<br>for<br>4","0","69","85","4","SELF"
"html-keyboard-response","37","232666","0.0-6.0-3.10","63eeaedb26e599e86e8f7929","bdp_sd","Sat Apr 15 2023 22:16:17 GMT-0400 (Eastern Daylight Time)","314224","","null","","","","","offerFB","","<div class='trialBorder'><div class='vertical-center'><img style='vertical-align:center; align:center' src=img/fixation3.jpg></div><div class='cl'><div class='vertical-center'><font style='color:orange'>$69<br>for<br>yourself</font></div></div><div class='cr'><div class='vertical-center'>$85<br>for<br>S J</div></div><div class='respDivL'><div class='vertical-center'><font style='color:orange'>(E)</font></div></div><div class='respDivR'><div class='vertical-center'>(I)</div></div></div>","null","$69<br>for<br>yourself","$85<br>for<br>4","0","69","85","4",""
"html-keyboard-response","38","233169","0.0-6.0-1.11","63eeaedb26e599e86e8f7929","bdp_sd","Sat Apr 15 2023 22:16:17 GMT-0400 (Eastern Daylight Time)","314224","","null","","","","","FIX","","<div class='trialBorder'><div class='vertical-center'><img style='vertical-align:center; align:center' src=img/fixation3.jpg></div></div>","null","","","","","","",""
"html-keyboard-response","39","236055","0.0-6.0-2.11","63eeaedb26e599e86e8f7929","bdp_sd","Sat Apr 15 2023 22:16:17 GMT-0400 (Eastern Daylight Time)","314224","","2884","","","","","offer","","<div class='trialBorder'><div class='vertical-center'><img style='vertical-align:center; align:center' src=img/fixation3.jpg></div><div class='cl'><div class='vertical-center'>$60<br>for<br>W M</div></div><div class='cr'><div class='vertical-center'>$25<br>for<br>yourself</div></div><div class='respDivL'><div class='vertical-center'>(E)</div></div><div class='respDivR'><div class='vertical-center'>(I)</div></div></div>","E","$25<br>for<br>yourself","$60<br>for<br>3","1","25","60","3","OTHER"
"html-keyboard-response","40","236307","0.0-6.0-3.11","63eeaedb26e599e86e8f7929","bdp_sd","Sat Apr 15 2023 22:16:17 GMT-0400 (Eastern Daylight Time)","314224","","null","","","","","offerFB","","<div class='trialBorder'><div class='vertical-center'><img style='vertical-align:center; align:center' src=img/fixation3.jpg></div><div class='cl'><div class='vertical-center'><font style='color:orange'>$60<br>for<br>W M</font></div></div><div class='cr'><div class='vertical-center'>$25<br>for<br>yourself</div></div><div class='respDivL'><div class='vertical-center'><font style='color:orange'>(E)</font></div></div><div class='respDivR'><div class='vertical-center'>(I)</div></div></div>","null","$25<br>for<br>yourself","$60<br>for<br>3","1","25","60","3",""
"html-keyboard-response","41","236810","0.0-6.0-1.12","63eeaedb26e599e86e8f7929","bdp_sd","Sat Apr 15 2023 22:16:17 GMT-0400 (Eastern Daylight Time)","314224","","null","","","","","FIX","","<div class='trialBorder'><div class='vertical-center'><img style='vertical-align:center; align:center' src=img/fixation3.jpg></div></div>","null","","","","","","",""
"html-keyboard-response","42","239477","0.0-6.0-2.12","63eeaedb26e599e86e8f7929","bdp_sd","Sat Apr 15 2023 22:16:17 GMT-0400 (Eastern Daylight Time)","314224","","2664","","","","","offer","","<div class='trialBorder'><div class='vertical-center'><img style='vertical-align:center; align:center' src=img/fixation3.jpg></div><div class='cl'><div class='vertical-center'>$14<br>for<br>yourself</div></div><div class='cr'><div class='vertical-center'>$25<br>for<br>W M</div></div><div class='respDivL'><div class='vertical-center'>(E)</div></div><div class='respDivR'><div class='vertical-center'>(I)</div></div></div>","I","$14<br>for<br>yourself","$25<br>for<br>3","0","14","25","3","OTHER"
"html-keyboard-response","43","239729","0.0-6.0-3.12","63eeaedb26e599e86e8f7929","bdp_sd","Sat Apr 15 2023 22:16:17 GMT-0400 (Eastern Daylight Time)","314224","","null","","","","","offerFB","","<div class='trialBorder'><div class='vertical-center'><img style='vertical-align:center; align:center' src=img/fixation3.jpg></div><div class='cl'><div class='vertical-center'>$14<br>for<br>yourself</div></div><div class='cr'><div class='vertical-center'><font style='color:orange'>$25<br>for<br>W M</font></div></div><div class='respDivL'><div class='vertical-center'>(E)</div></div><div class='respDivR'><div class='vertical-center'><font style='color:orange'>(I)</font></div></div></div>","null","$14<br>for<br>yourself","$25<br>for<br>3","0","14","25","3",""
"html-keyboard-response","44","240232","0.0-6.0-1.13","63eeaedb26e599e86e8f7929","bdp_sd","Sat Apr 15 2023 22:16:17 GMT-0400 (Eastern Daylight Time)","314224","","null","","","","","FIX","","<div class='trialBorder'><div class='vertical-center'><img style='vertical-align:center; align:center' src=img/fixation3.jpg></div></div>","null","","","","","","",""
"html-keyboard-response","45","249110","0.0-6.0-2.13","63eeaedb26e599e86e8f7929","bdp_sd","Sat Apr 15 2023 22:16:17 GMT-0400 (Eastern Daylight Time)","314224","","8877","","","","","offer","","<div class='trialBorder'><div class='vertical-center'><img style='vertical-align:center; align:center' src=img/fixation3.jpg></div><div class='cl'><div class='vertical-center'>$25<br>for<br>yourself</div></div><div class='cr'><div class='vertical-center'>$30<br>for<br>S J</div></div><div class='respDivL'><div class='vertical-center'>(E)</div></div><div class='respDivR'><div class='vertical-center'>(I)</div></div></div>","E","$25<br>for<br>yourself","$30<br>for<br>4","0","25","30","4","SELF"
"html-keyboard-response","46","249365","0.0-6.0-3.13","63eeaedb26e599e86e8f7929","bdp_sd","Sat Apr 15 2023 22:16:17 GMT-0400 (Eastern Daylight Time)","314224","","null","","","","","offerFB","","<div class='trialBorder'><div class='vertical-center'><img style='vertical-align:center; align:center' src=img/fixation3.jpg></div><div class='cl'><div class='vertical-center'><font style='color:orange'>$25<br>for<br>yourself</font></div></div><div class='cr'><div class='vertical-center'>$30<br>for<br>S J</div></div><div class='respDivL'><div class='vertical-center'><font style='color:orange'>(E)</font></div></div><div class='respDivR'><div class='vertical-center'>(I)</div></div></div>","null","$25<br>for<br>yourself","$30<br>for<br>4","0","25","30","4",""
"html-keyboard-response","47","249868","0.0-6.0-1.14","63eeaedb26e599e86e8f7929","bdp_sd","Sat Apr 15 2023 22:16:17 GMT-0400 (Eastern Daylight Time)","314224","","null","","","","","FIX","","<div class='trialBorder'><div class='vertical-center'><img style='vertical-align:center; align:center' src=img/fixation3.jpg></div></div>","null","","","","","","",""
"html-keyboard-response","48","261426","0.0-6.0-2.14","63eeaedb26e599e86e8f7929","bdp_sd","Sat Apr 15 2023 22:16:17 GMT-0400 (Eastern Daylight Time)","314224","","11558","","","","","offer","","<div class='trialBorder'><div class='vertical-center'><img style='vertical-align:center; align:center' src=img/fixation3.jpg></div><div class='cl'><div class='vertical-center'>$19<br>for<br>yourself</div></div><div class='cr'><div class='vertical-center'>$25<br>for<br>S J</div></div><div class='respDivL'><div class='vertical-center'>(E)</div></div><div class='respDivR'><div class='vertical-center'>(I)</div></div></div>","E","$19<br>for<br>yourself","$25<br>for<br>4","0","19","25","4","SELF"
"html-keyboard-response","49","261680","0.0-6.0-3.14","63eeaedb26e599e86e8f7929","bdp_sd","Sat Apr 15 2023 22:16:17 GMT-0400 (Eastern Daylight Time)","314224","","null","","","","","offerFB","","<div class='trialBorder'><div class='vertical-center'><img style='vertical-align:center; align:center' src=img/fixation3.jpg></div><div class='cl'><div class='vertical-center'><font style='color:orange'>$19<br>for<br>yourself</font></div></div><div class='cr'><div class='vertical-center'>$25<br>for<br>S J</div></div><div class='respDivL'><div class='vertical-center'><font style='color:orange'>(E)</font></div></div><div class='respDivR'><div class='vertical-center'>(I)</div></div></div>","null","$19<br>for<br>yourself","$25<br>for<br>4","0","19","25","4",""
"html-keyboard-response","50","262182","0.0-6.0-1.15","63eeaedb26e599e86e8f7929","bdp_sd","Sat Apr 15 2023 22:16:17 GMT-0400 (Eastern Daylight Time)","314224","","null","","","","","FIX","","<div class='trialBorder'><div class='vertical-center'><img style='vertical-align:center; align:center' src=img/fixation3.jpg></div></div>","null","","","","","","",""
"html-keyboard-response","51","264246","0.0-6.0-2.15","63eeaedb26e599e86e8f7929","bdp_sd","Sat Apr 15 2023 22:16:17 GMT-0400 (Eastern Daylight Time)","314224","","2062","","","","","offer","","<div class='trialBorder'><div class='vertical-center'><img style='vertical-align:center; align:center' src=img/fixation3.jpg></div><div class='cl'><div class='vertical-center'>$27<br>for<br>yourself</div></div><div class='cr'><div class='vertical-center'>$50<br>for<br>W M</div></div><div class='respDivL'><div class='vertical-center'>(E)</div></div><div class='respDivR'><div class='vertical-center'>(I)</div></div></div>","I","$27<br>for<br>yourself","$50<br>for<br>3","0","27","50","3","OTHER"
"html-keyboard-response","52","264498","0.0-6.0-3.15","63eeaedb26e599e86e8f7929","bdp_sd","Sat Apr 15 2023 22:16:17 GMT-0400 (Eastern Daylight Time)","314224","","null","","","","","offerFB","","<div class='trialBorder'><div class='vertical-center'><img style='vertical-align:center; align:center' src=img/fixation3.jpg></div><div class='cl'><div class='vertical-center'>$27<br>for<br>yourself</div></div><div class='cr'><div class='vertical-center'><font style='color:orange'>$50<br>for<br>W M</font></div></div><div class='respDivL'><div class='vertical-center'>(E)</div></div><div class='respDivR'><div class='vertical-center'><font style='color:orange'>(I)</font></div></div></div>","null","$27<br>for<br>yourself","$50<br>for<br>3","0","27","50","3",""
"html-keyboard-response","53","265000","0.0-6.0-1.16","63eeaedb26e599e86e8f7929","bdp_sd","Sat Apr 15 2023 22:16:17 GMT-0400 (Eastern Daylight Time)","314224","","null","","","","","FIX","","<div class='trialBorder'><div class='vertical-center'><img style='vertical-align:center; align:center' src=img/fixation3.jpg></div></div>","null","","","","","","",""
"html-keyboard-response","54","268180","0.0-6.0-2.16","63eeaedb26e599e86e8f7929","bdp_sd","Sat Apr 15 2023 22:16:17 GMT-0400 (Eastern Daylight Time)","314224","","3177","","","","","offer","","<div class='trialBorder'><div class='vertical-center'><img style='vertical-align:center; align:center' src=img/fixation3.jpg></div><div class='cl'><div class='vertical-center'>$50<br>for<br>S J</div></div><div class='cr'><div class='vertical-center'>$34<br>for<br>yourself</div></div><div class='respDivL'><div class='vertical-center'>(E)</div></div><div class='respDivR'><div class='vertical-center'>(I)</div></div></div>","E","$34<br>for<br>yourself","$50<br>for<br>4","1","34","50","4","OTHER"
"html-keyboard-response","55","268433","0.0-6.0-3.16","63eeaedb26e599e86e8f7929","bdp_sd","Sat Apr 15 2023 22:16:17 GMT-0400 (Eastern Daylight Time)","314224","","null","","","","","offerFB","","<div class='trialBorder'><div class='vertical-center'><img style='vertical-align:center; align:center' src=img/fixation3.jpg></div><div class='cl'><div class='vertical-center'><font style='color:orange'>$50<br>for<br>S J</font></div></div><div class='cr'><div class='vertical-center'>$34<br>for<br>yourself</div></div><div class='respDivL'><div class='vertical-center'><font style='color:orange'>(E)</font></div></div><div class='respDivR'><div class='vertical-center'>(I)</div></div></div>","null","$34<br>for<br>yourself","$50<br>for<br>4","1","34","50","4",""
"html-keyboard-response","56","268936","0.0-6.0-1.17","63eeaedb26e599e86e8f7929","bdp_sd","Sat Apr 15 2023 22:16:17 GMT-0400 (Eastern Daylight Time)","314224","","null","","","","","FIX","","<div class='trialBorder'><div class='vertical-center'><img style='vertical-align:center; align:center' src=img/fixation3.jpg></div></div>","null","","","","","","",""
"html-keyboard-response","57","270986","0.0-6.0-2.17","63eeaedb26e599e86e8f7929","bdp_sd","Sat Apr 15 2023 22:16:17 GMT-0400 (Eastern Daylight Time)","314224","","2048","","","","","offer","","<div class='trialBorder'><div class='vertical-center'><img style='vertical-align:center; align:center' src=img/fixation3.jpg></div><div class='cl'><div class='vertical-center'>$15<br>for<br>yourself</div></div><div class='cr'><div class='vertical-center'>$35<br>for<br>S F</div></div><div class='respDivL'><div class='vertical-center'>(E)</div></div><div class='respDivR'><div class='vertical-center'>(I)</div></div></div>","I","$15<br>for<br>yourself","$35<br>for<br>2","0","15","35","2","OTHER"
"html-keyboard-response","58","271238","0.0-6.0-3.17","63eeaedb26e599e86e8f7929","bdp_sd","Sat Apr 15 2023 22:16:17 GMT-0400 (Eastern Daylight Time)","314224","","null","","","","","offerFB","","<div class='trialBorder'><div class='vertical-center'><img style='vertical-align:center; align:center' src=img/fixation3.jpg></div><div class='cl'><div class='vertical-center'>$15<br>for<br>yourself</div></div><div class='cr'><div class='vertical-center'><font style='color:orange'>$35<br>for<br>S F</font></div></div><div class='respDivL'><div class='vertical-center'>(E)</div></div><div class='respDivR'><div class='vertical-center'><font style='color:orange'>(I)</font></div></div></div>","null","$15<br>for<br>yourself","$35<br>for<br>2","0","15","35","2",""
"html-keyboard-response","59","271742","0.0-6.0-1.18","63eeaedb26e599e86e8f7929","bdp_sd","Sat Apr 15 2023 22:16:17 GMT-0400 (Eastern Daylight Time)","314224","","null","","","","","FIX","","<div class='trialBorder'><div class='vertical-center'><img style='vertical-align:center; align:center' src=img/fixation3.jpg></div></div>","null","","","","","","",""
"html-keyboard-response","60","274729","0.0-6.0-2.18","63eeaedb26e599e86e8f7929","bdp_sd","Sat Apr 15 2023 22:16:17 GMT-0400 (Eastern Daylight Time)","314224","","2984","","","","","offer","","<div class='trialBorder'><div class='vertical-center'><img style='vertical-align:center; align:center' src=img/fixation3.jpg></div><div class='cl'><div class='vertical-center'>$55<br>for<br>P W</div></div><div class='cr'><div class='vertical-center'>$54<br>for<br>yourself</div></div><div class='respDivL'><div class='vertical-center'>(E)</div></div><div class='respDivR'><div class='vertical-center'>(I)</div></div></div>","I","$54<br>for<br>yourself","$55<br>for<br>5","1","54","55","5","SELF"
"html-keyboard-response","61","274982","0.0-6.0-3.18","63eeaedb26e599e86e8f7929","bdp_sd","Sat Apr 15 2023 22:16:17 GMT-0400 (Eastern Daylight Time)","314224","","null","","","","","offerFB","","<div class='trialBorder'><div class='vertical-center'><img style='vertical-align:center; align:center' src=img/fixation3.jpg></div><div class='cl'><div class='vertical-center'>$55<br>for<br>P W</div></div><div class='cr'><div class='vertical-center'><font style='color:orange'>$54<br>for<br>yourself</font></div></div><div class='respDivL'><div class='vertical-center'>(E)</div></div><div class='respDivR'><div class='vertical-center'><font style='color:orange'>(I)</font></div></div></div>","null","$54<br>for<br>yourself","$55<br>for<br>5","1","54","55","5",""
"html-keyboard-response","62","275485","0.0-6.0-1.19","63eeaedb26e599e86e8f7929","bdp_sd","Sat Apr 15 2023 22:16:17 GMT-0400 (Eastern Daylight Time)","314224","","null","","","","","FIX","","<div class='trialBorder'><div class='vertical-center'><img style='vertical-align:center; align:center' src=img/fixation3.jpg></div></div>","null","","","","","","",""
"html-keyboard-response","63","277599","0.0-6.0-2.19","63eeaedb26e599e86e8f7929","bdp_sd","Sat Apr 15 2023 22:16:17 GMT-0400 (Eastern Daylight Time)","314224","","2114","","","","","offer","","<div class='trialBorder'><div class='vertical-center'><img style='vertical-align:center; align:center' src=img/fixation3.jpg></div><div class='cl'><div class='vertical-center'>$75<br>for<br>W M</div></div><div class='cr'><div class='vertical-center'>$41<br>for<br>yourself</div></div><div class='respDivL'><div class='vertical-center'>(E)</div></div><div class='respDivR'><div class='vertical-center'>(I)</div></div></div>","E","$41<br>for<br>yourself","$75<br>for<br>3","1","41","75","3","OTHER"
"html-keyboard-response","64","277853","0.0-6.0-3.19","63eeaedb26e599e86e8f7929","bdp_sd","Sat Apr 15 2023 22:16:17 GMT-0400 (Eastern Daylight Time)","314224","","null","","","","","offerFB","","<div class='trialBorder'><div class='vertical-center'><img style='vertical-align:center; align:center' src=img/fixation3.jpg></div><div class='cl'><div class='vertical-center'><font style='color:orange'>$75<br>for<br>W M</font></div></div><div class='cr'><div class='vertical-center'>$41<br>for<br>yourself</div></div><div class='respDivL'><div class='vertical-center'><font style='color:orange'>(E)</font></div></div><div class='respDivR'><div class='vertical-center'>(I)</div></div></div>","null","$41<br>for<br>yourself","$75<br>for<br>3","1","41","75","3",""
"html-keyboard-response","65","278356","0.0-6.0-1.20","63eeaedb26e599e86e8f7929","bdp_sd","Sat Apr 15 2023 22:16:17 GMT-0400 (Eastern Daylight Time)","314224","","null","","","","","FIX","","<div class='trialBorder'><div class='vertical-center'><img style='vertical-align:center; align:center' src=img/fixation3.jpg></div></div>","null","","","","","","",""
"html-keyboard-response","66","280895","0.0-6.0-2.20","63eeaedb26e599e86e8f7929","bdp_sd","Sat Apr 15 2023 22:16:17 GMT-0400 (Eastern Daylight Time)","314224","","2536","","","","","offer","","<div class='trialBorder'><div class='vertical-center'><img style='vertical-align:center; align:center' src=img/fixation3.jpg></div><div class='cl'><div class='vertical-center'>$50<br>for<br>P W</div></div><div class='cr'><div class='vertical-center'>$47<br>for<br>yourself</div></div><div class='respDivL'><div class='vertical-center'>(E)</div></div><div class='respDivR'><div class='vertical-center'>(I)</div></div></div>","I","$47<br>for<br>yourself","$50<br>for<br>5","1","47","50","5","SELF"
"html-keyboard-response","67","281147","0.0-6.0-3.20","63eeaedb26e599e86e8f7929","bdp_sd","Sat Apr 15 2023 22:16:17 GMT-0400 (Eastern Daylight Time)","314224","","null","","","","","offerFB","","<div class='trialBorder'><div class='vertical-center'><img style='vertical-align:center; align:center' src=img/fixation3.jpg></div><div class='cl'><div class='vertical-center'>$50<br>for<br>P W</div></div><div class='cr'><div class='vertical-center'><font style='color:orange'>$47<br>for<br>yourself</font></div></div><div class='respDivL'><div class='vertical-center'>(E)</div></div><div class='respDivR'><div class='vertical-center'><font style='color:orange'>(I)</font></div></div></div>","null","$47<br>for<br>yourself","$50<br>for<br>5","1","47","50","5",""
"html-keyboard-response","68","281648","0.0-6.0-1.21","63eeaedb26e599e86e8f7929","bdp_sd","Sat Apr 15 2023 22:16:17 GMT-0400 (Eastern Daylight Time)","314224","","null","","","","","FIX","","<div class='trialBorder'><div class='vertical-center'><img style='vertical-align:center; align:center' src=img/fixation3.jpg></div></div>","null","","","","","","",""
"html-keyboard-response","69","284300","0.0-6.0-2.21","63eeaedb26e599e86e8f7929","bdp_sd","Sat Apr 15 2023 22:16:17 GMT-0400 (Eastern Daylight Time)","314224","","2649","","","","","offer","","<div class='trialBorder'><div class='vertical-center'><img style='vertical-align:center; align:center' src=img/fixation3.jpg></div><div class='cl'><div class='vertical-center'>$31<br>for<br>yourself</div></div><div class='cr'><div class='vertical-center'>$85<br>for<br>E B</div></div><div class='respDivL'><div class='vertical-center'>(E)</div></div><div class='respDivR'><div class='vertical-center'>(I)</div></div></div>","I","$31<br>for<br>yourself","$85<br>for<br>1","0","31","85","1","OTHER"
"html-keyboard-response","70","284553","0.0-6.0-3.21","63eeaedb26e599e86e8f7929","bdp_sd","Sat Apr 15 2023 22:16:17 GMT-0400 (Eastern Daylight Time)","314224","","null","","","","","offerFB","","<div class='trialBorder'><div class='vertical-center'><img style='vertical-align:center; align:center' src=img/fixation3.jpg></div><div class='cl'><div class='vertical-center'>$31<br>for<br>yourself</div></div><div class='cr'><div class='vertical-center'><font style='color:orange'>$85<br>for<br>E B</font></div></div><div class='respDivL'><div class='vertical-center'>(E)</div></div><div class='respDivR'><div class='vertical-center'><font style='color:orange'>(I)</font></div></div></div>","null","$31<br>for<br>yourself","$85<br>for<br>1","0","31","85","1",""
"html-keyboard-response","71","285055","0.0-6.0-1.22","63eeaedb26e599e86e8f7929","bdp_sd","Sat Apr 15 2023 22:16:17 GMT-0400 (Eastern Daylight Time)","314224","","null","","","","","FIX","","<div class='trialBorder'><div class='vertical-center'><img style='vertical-align:center; align:center' src=img/fixation3.jpg></div></div>","null","","","","","","",""
"html-keyboard-response","72","287611","0.0-6.0-2.22","63eeaedb26e599e86e8f7929","bdp_sd","Sat Apr 15 2023 22:16:17 GMT-0400 (Eastern Daylight Time)","314224","","2554","","","","","offer","","<div class='trialBorder'><div class='vertical-center'><img style='vertical-align:center; align:center' src=img/fixation3.jpg></div><div class='cl'><div class='vertical-center'>$78<br>for<br>yourself</div></div><div class='cr'><div class='vertical-center'>$80<br>for<br>P W</div></div><div class='respDivL'><div class='vertical-center'>(E)</div></div><div class='respDivR'><div class='vertical-center'>(I)</div></div></div>","E","$78<br>for<br>yourself","$80<br>for<br>5","0","78","80","5","SELF"
"html-keyboard-response","73","287866","0.0-6.0-3.22","63eeaedb26e599e86e8f7929","bdp_sd","Sat Apr 15 2023 22:16:17 GMT-0400 (Eastern Daylight Time)","314224","","null","","","","","offerFB","","<div class='trialBorder'><div class='vertical-center'><img style='vertical-align:center; align:center' src=img/fixation3.jpg></div><div class='cl'><div class='vertical-center'><font style='color:orange'>$78<br>for<br>yourself</font></div></div><div class='cr'><div class='vertical-center'>$80<br>for<br>P W</div></div><div class='respDivL'><div class='vertical-center'><font style='color:orange'>(E)</font></div></div><div class='respDivR'><div class='vertical-center'>(I)</div></div></div>","null","$78<br>for<br>yourself","$80<br>for<br>5","0","78","80","5",""
"html-keyboard-response","74","288368","0.0-6.0-1.23","63eeaedb26e599e86e8f7929","bdp_sd","Sat Apr 15 2023 22:16:17 GMT-0400 (Eastern Daylight Time)","314224","","null","","","","","FIX","","<div class='trialBorder'><div class='vertical-center'><img style='vertical-align:center; align:center' src=img/fixation3.jpg></div></div>","null","","","","","","",""
"html-keyboard-response","75","294445","0.0-6.0-2.23","63eeaedb26e599e86e8f7929","bdp_sd","Sat Apr 15 2023 22:16:17 GMT-0400 (Eastern Daylight Time)","314224","","6075","","","","","offer","","<div class='trialBorder'><div class='vertical-center'><img style='vertical-align:center; align:center' src=img/fixation3.jpg></div><div class='cl'><div class='vertical-center'>$75<br>for<br>S J</div></div><div class='cr'><div class='vertical-center'>$55<br>for<br>yourself</div></div><div class='respDivL'><div class='vertical-center'>(E)</div></div><div class='respDivR'><div class='vertical-center'>(I)</div></div></div>","E","$55<br>for<br>yourself","$75<br>for<br>4","1","55","75","4","OTHER"
"html-keyboard-response","76","294697","0.0-6.0-3.23","63eeaedb26e599e86e8f7929","bdp_sd","Sat Apr 15 2023 22:16:17 GMT-0400 (Eastern Daylight Time)","314224","","null","","","","","offerFB","","<div class='trialBorder'><div class='vertical-center'><img style='vertical-align:center; align:center' src=img/fixation3.jpg></div><div class='cl'><div class='vertical-center'><font style='color:orange'>$75<br>for<br>S J</font></div></div><div class='cr'><div class='vertical-center'>$55<br>for<br>yourself</div></div><div class='respDivL'><div class='vertical-center'><font style='color:orange'>(E)</font></div></div><div class='respDivR'><div class='vertical-center'>(I)</div></div></div>","null","$55<br>for<br>yourself","$75<br>for<br>4","1","55","75","4",""
"html-keyboard-response","77","295200","0.0-6.0-1.24","63eeaedb26e599e86e8f7929","bdp_sd","Sat Apr 15 2023 22:16:17 GMT-0400 (Eastern Daylight Time)","314224","","null","","","","","FIX","","<div class='trialBorder'><div class='vertical-center'><img style='vertical-align:center; align:center' src=img/fixation3.jpg></div></div>","null","","","","","","",""
"html-keyboard-response","78","298021","0.0-6.0-2.24","63eeaedb26e599e86e8f7929","bdp_sd","Sat Apr 15 2023 22:16:17 GMT-0400 (Eastern Daylight Time)","314224","","2819","","","","","offer","","<div class='trialBorder'><div class='vertical-center'><img style='vertical-align:center; align:center' src=img/fixation3.jpg></div><div class='cl'><div class='vertical-center'>$30<br>for<br>P W</div></div><div class='cr'><div class='vertical-center'>$28<br>for<br>yourself</div></div><div class='respDivL'><div class='vertical-center'>(E)</div></div><div class='respDivR'><div class='vertical-center'>(I)</div></div></div>","I","$28<br>for<br>yourself","$30<br>for<br>5","1","28","30","5","SELF"
"html-keyboard-response","79","298275","0.0-6.0-3.24","63eeaedb26e599e86e8f7929","bdp_sd","Sat Apr 15 2023 22:16:17 GMT-0400 (Eastern Daylight Time)","314224","","null","","","","","offerFB","","<div class='trialBorder'><div class='vertical-center'><img style='vertical-align:center; align:center' src=img/fixation3.jpg></div><div class='cl'><div class='vertical-center'>$30<br>for<br>P W</div></div><div class='cr'><div class='vertical-center'><font style='color:orange'>$28<br>for<br>yourself</font></div></div><div class='respDivL'><div class='vertical-center'>(E)</div></div><div class='respDivR'><div class='vertical-center'><font style='color:orange'>(I)</font></div></div></div>","null","$28<br>for<br>yourself","$30<br>for<br>5","1","28","30","5",""
"html-keyboard-response","80","298776","0.0-6.0-1.25","63eeaedb26e599e86e8f7929","bdp_sd","Sat Apr 15 2023 22:16:17 GMT-0400 (Eastern Daylight Time)","314224","","null","","","","","FIX","","<div class='trialBorder'><div class='vertical-center'><img style='vertical-align:center; align:center' src=img/fixation3.jpg></div></div>","null","","","","","","",""
"html-keyboard-response","81","301655","0.0-6.0-2.25","63eeaedb26e599e86e8f7929","bdp_sd","Sat Apr 15 2023 22:16:17 GMT-0400 (Eastern Daylight Time)","314224","","2876","","","","","offer","","<div class='trialBorder'><div class='vertical-center'><img style='vertical-align:center; align:center' src=img/fixation3.jpg></div><div class='cl'><div class='vertical-center'>$33<br>for<br>yourself</div></div><div class='cr'><div class='vertical-center'>$80<br>for<br>S F</div></div><div class='respDivL'><div class='vertical-center'>(E)</div></div><div class='respDivR'><div class='vertical-center'>(I)</div></div></div>","I","$33<br>for<br>yourself","$80<br>for<br>2","0","33","80","2","OTHER"
"html-keyboard-response","82","301908","0.0-6.0-3.25","63eeaedb26e599e86e8f7929","bdp_sd","Sat Apr 15 2023 22:16:17 GMT-0400 (Eastern Daylight Time)","314224","","null","","","","","offerFB","","<div class='trialBorder'><div class='vertical-center'><img style='vertical-align:center; align:center' src=img/fixation3.jpg></div><div class='cl'><div class='vertical-center'>$33<br>for<br>yourself</div></div><div class='cr'><div class='vertical-center'><font style='color:orange'>$80<br>for<br>S F</font></div></div><div class='respDivL'><div class='vertical-center'>(E)</div></div><div class='respDivR'><div class='vertical-center'><font style='color:orange'>(I)</font></div></div></div>","null","$33<br>for<br>yourself","$80<br>for<br>2","0","33","80","2",""
"html-keyboard-response","83","302411","0.0-6.0-1.26","63eeaedb26e599e86e8f7929","bdp_sd","Sat Apr 15 2023 22:16:17 GMT-0400 (Eastern Daylight Time)","314224","","null","","","","","FIX","","<div class='trialBorder'><div class='vertical-center'><img style='vertical-align:center; align:center' src=img/fixation3.jpg></div></div>","null","","","","","","",""
"html-keyboard-response","84","312966","0.0-6.0-2.26","63eeaedb26e599e86e8f7929","bdp_sd","Sat Apr 15 2023 22:16:17 GMT-0400 (Eastern Daylight Time)","314224","","10554","","","","","offer","","<div class='trialBorder'><div class='vertical-center'><img style='vertical-align:center; align:center' src=img/fixation3.jpg></div><div class='cl'><div class='vertical-center'>$67<br>for<br>yourself</div></div><div class='cr'><div class='vertical-center'>$75<br>for<br>P W</div></div><div class='respDivL'><div class='vertical-center'>(E)</div></div><div class='respDivR'><div class='vertical-center'>(I)</div></div></div>","E","$67<br>for<br>yourself","$75<br>for<br>5","0","67","75","5","SELF"
"html-keyboard-response","85","313221","0.0-6.0-3.26","63eeaedb26e599e86e8f7929","bdp_sd","Sat Apr 15 2023 22:16:17 GMT-0400 (Eastern Daylight Time)","314224","","null","","","","","offerFB","","<div class='trialBorder'><div class='vertical-center'><img style='vertical-align:center; align:center' src=img/fixation3.jpg></div><div class='cl'><div class='vertical-center'><font style='color:orange'>$67<br>for<br>yourself</font></div></div><div class='cr'><div class='vertical-center'>$75<br>for<br>P W</div></div><div class='respDivL'><div class='vertical-center'><font style='color:orange'>(E)</font></div></div><div class='respDivR'><div class='vertical-center'>(I)</div></div></div>","null","$67<br>for<br>yourself","$75<br>for<br>5","0","67","75","5",""
"","","","","63eeaedb26e599e86e8f7929","bdp_sd","Sat Apr 15 2023 22:16:17 GMT-0400 (Eastern Daylight Time)","314224","","","","fullscreenexit","86","313284","fullscreenexit","","","","","","","","","",""
"fullscreen","86","314223","0.0-7.0","63eeaedb26e599e86e8f7929","bdp_sd","Sat Apr 15 2023 22:16:17 GMT-0400 (Eastern Daylight Time)","314224","","","","","","","","true","","","","","","","","",""
"html-keyboard-response","87","314725","0.0-8.0","","","","","","null","","","","","","","","null","","","","","","",""
