"trial_type","trial_index","time_elapsed","internal_node_id","subject_id","task","startTime","totalTime","view_history","rt","responses","event","trial","time","trialtype","success","stimulus","key_press","selfOffer","otherOffer","otherLeft","selfAmt","otherAmt","otherDist","chosen"
"pavlovia","0","6","0.0-0.0","6108027a71236aa28a407666","bdp_sd","Mon Mar 27 2023 20:46:58 GMT-0400 (Eastern Daylight Time)","179356","","","","","","","","","","","","","","","","",""
"instructions","1","3891","0.0-1.0","6108027a71236aa28a407666","bdp_sd","Mon Mar 27 2023 20:46:58 GMT-0400 (Eastern Daylight Time)","179356","[{""page_index"":0,""viewing_time"":3883}]","3884","","","","","","","","","","","","","","",""
"survey-text","2","47759","0.0-2.0","6108027a71236aa28a407666","bdp_sd","Mon Mar 27 2023 20:46:58 GMT-0400 (Eastern Daylight Time)","179356","","43866","{""Q0"":""AG"",""Q1"":""ML"",""Q2"":""SL"",""Q3"":""EG"",""Q4"":""SF""}","","","","","","","","","","","","","",""
"","","","","6108027a71236aa28a407666","bdp_sd","Mon Mar 27 2023 20:46:58 GMT-0400 (Eastern Daylight Time)","179356","","","","fullscreenenter","3","49478","fullscreenenter","","","","","","","","","",""
"fullscreen","3","50478","0.0-3.0","6108027a71236aa28a407666","bdp_sd","Mon Mar 27 2023 20:46:58 GMT-0400 (Eastern Daylight Time)","179356","","","","","","","","true","","","","","","","","",""
"instructions","4","83108","0.0-5.0","6108027a71236aa28a407666","bdp_sd","Mon Mar 27 2023 20:46:58 GMT-0400 (Eastern Daylight Time)","179356","[{""page_index"":0,""viewing_time"":6241},{""page_index"":1,""viewing_time"":13951},{""page_index"":2,""viewing_time"":12436}]","32628","","","","","","","","","","","","","","",""
"html-keyboard-response","5","83615","0.0-6.0-1.0","6108027a71236aa28a407666","bdp_sd","Mon Mar 27 2023 20:46:58 GMT-0400 (Eastern Daylight Time)","179356","","null","","","","","FIX","","<div class='trialBorder'><div class='vertical-center'><img style='vertical-align:center; align:center' src=img/fixation3.jpg></div></div>","null","","","","","","",""
"html-keyboard-response","6","86991","0.0-6.0-2.0","6108027a71236aa28a407666","bdp_sd","Mon Mar 27 2023 20:46:58 GMT-0400 (Eastern Daylight Time)","179356","","3373","","","","","offer","","<div class='trialBorder'><div class='vertical-center'><img style='vertical-align:center; align:center' src=img/fixation3.jpg></div><div class='cl'><div class='vertical-center'>$80<br>for<br>ML</div></div><div class='cr'><div class='vertical-center'>$33<br>for<br>yourself</div></div><div class='respDivL'><div class='vertical-center'>(E)</div></div><div class='respDivR'><div class='vertical-center'>(I)</div></div></div>","E","$33<br>for<br>yourself","$80<br>for<br>2","1","33","80","2","OTHER"
"html-keyboard-response","7","87251","0.0-6.0-3.0","6108027a71236aa28a407666","bdp_sd","Mon Mar 27 2023 20:46:58 GMT-0400 (Eastern Daylight Time)","179356","","null","","","","","offerFB","","<div class='trialBorder'><div class='vertical-center'><img style='vertical-align:center; align:center' src=img/fixation3.jpg></div><div class='cl'><div class='vertical-center'><font style='color:orange'>$80<br>for<br>ML</font></div></div><div class='cr'><div class='vertical-center'>$33<br>for<br>yourself</div></div><div class='respDivL'><div class='vertical-center'><font style='color:orange'>(E)</font></div></div><div class='respDivR'><div class='vertical-center'>(I)</div></div></div>","null","$33<br>for<br>yourself","$80<br>for<br>2","1","33","80","2",""
"html-keyboard-response","8","87757","0.0-6.0-1.1","6108027a71236aa28a407666","bdp_sd","Mon Mar 27 2023 20:46:58 GMT-0400 (Eastern Daylight Time)","179356","","null","","","","","FIX","","<div class='trialBorder'><div class='vertical-center'><img style='vertical-align:center; align:center' src=img/fixation3.jpg></div></div>","null","","","","","","",""
"html-keyboard-response","9","91229","0.0-6.0-2.1","6108027a71236aa28a407666","bdp_sd","Mon Mar 27 2023 20:46:58 GMT-0400 (Eastern Daylight Time)","179356","","3470","","","","","offer","","<div class='trialBorder'><div class='vertical-center'><img style='vertical-align:center; align:center' src=img/fixation3.jpg></div><div class='cl'><div class='vertical-center'>$35<br>for<br>SL</div></div><div class='cr'><div class='vertical-center'>$24<br>for<br>yourself</div></div><div class='respDivL'><div class='vertical-center'>(E)</div></div><div class='respDivR'><div class='vertical-center'>(I)</div></div></div>","I","$24<br>for<br>yourself","$35<br>for<br>3","1","24","35","3","SELF"
"html-keyboard-response","10","91484","0.0-6.0-3.1","6108027a71236aa28a407666","bdp_sd","Mon Mar 27 2023 20:46:58 GMT-0400 (Eastern Daylight Time)","179356","","null","","","","","offerFB","","<div class='trialBorder'><div class='vertical-center'><img style='vertical-align:center; align:center' src=img/fixation3.jpg></div><div class='cl'><div class='vertical-center'>$35<br>for<br>SL</div></div><div class='cr'><div class='vertical-center'><font style='color:orange'>$24<br>for<br>yourself</font></div></div><div class='respDivL'><div class='vertical-center'>(E)</div></div><div class='respDivR'><div class='vertical-center'><font style='color:orange'>(I)</font></div></div></div>","null","$24<br>for<br>yourself","$35<br>for<br>3","1","24","35","3",""
"html-keyboard-response","11","91997","0.0-6.0-1.2","6108027a71236aa28a407666","bdp_sd","Mon Mar 27 2023 20:46:58 GMT-0400 (Eastern Daylight Time)","179356","","null","","","","","FIX","","<div class='trialBorder'><div class='vertical-center'><img style='vertical-align:center; align:center' src=img/fixation3.jpg></div></div>","null","","","","","","",""
"html-keyboard-response","12","95057","0.0-6.0-2.2","6108027a71236aa28a407666","bdp_sd","Mon Mar 27 2023 20:46:58 GMT-0400 (Eastern Daylight Time)","179356","","3059","","","","","offer","","<div class='trialBorder'><div class='vertical-center'><img style='vertical-align:center; align:center' src=img/fixation3.jpg></div><div class='cl'><div class='vertical-center'>$34<br>for<br>yourself</div></div><div class='cr'><div class='vertical-center'>$35<br>for<br>SF</div></div><div class='respDivL'><div class='vertical-center'>(E)</div></div><div class='respDivR'><div class='vertical-center'>(I)</div></div></div>","E","$34<br>for<br>yourself","$35<br>for<br>5","0","34","35","5","SELF"
"html-keyboard-response","13","95314","0.0-6.0-3.2","6108027a71236aa28a407666","bdp_sd","Mon Mar 27 2023 20:46:58 GMT-0400 (Eastern Daylight Time)","179356","","null","","","","","offerFB","","<div class='trialBorder'><div class='vertical-center'><img style='vertical-align:center; align:center' src=img/fixation3.jpg></div><div class='cl'><div class='vertical-center'><font style='color:orange'>$34<br>for<br>yourself</font></div></div><div class='cr'><div class='vertical-center'>$35<br>for<br>SF</div></div><div class='respDivL'><div class='vertical-center'><font style='color:orange'>(E)</font></div></div><div class='respDivR'><div class='vertical-center'>(I)</div></div></div>","null","$34<br>for<br>yourself","$35<br>for<br>5","0","34","35","5",""
"html-keyboard-response","14","95821","0.0-6.0-1.3","6108027a71236aa28a407666","bdp_sd","Mon Mar 27 2023 20:46:58 GMT-0400 (Eastern Daylight Time)","179356","","null","","","","","FIX","","<div class='trialBorder'><div class='vertical-center'><img style='vertical-align:center; align:center' src=img/fixation3.jpg></div></div>","null","","","","","","",""
"html-keyboard-response","15","98210","0.0-6.0-2.3","6108027a71236aa28a407666","bdp_sd","Mon Mar 27 2023 20:46:58 GMT-0400 (Eastern Daylight Time)","179356","","2388","","","","","offer","","<div class='trialBorder'><div class='vertical-center'><img style='vertical-align:center; align:center' src=img/fixation3.jpg></div><div class='cl'><div class='vertical-center'>$80<br>for<br>yourself</div></div><div class='cr'><div class='vertical-center'>$85<br>for<br>SF</div></div><div class='respDivL'><div class='vertical-center'>(E)</div></div><div class='respDivR'><div class='vertical-center'>(I)</div></div></div>","E","$80<br>for<br>yourself","$85<br>for<br>5","0","80","85","5","SELF"
"html-keyboard-response","16","98466","0.0-6.0-3.3","6108027a71236aa28a407666","bdp_sd","Mon Mar 27 2023 20:46:58 GMT-0400 (Eastern Daylight Time)","179356","","null","","","","","offerFB","","<div class='trialBorder'><div class='vertical-center'><img style='vertical-align:center; align:center' src=img/fixation3.jpg></div><div class='cl'><div class='vertical-center'><font style='color:orange'>$80<br>for<br>yourself</font></div></div><div class='cr'><div class='vertical-center'>$85<br>for<br>SF</div></div><div class='respDivL'><div class='vertical-center'><font style='color:orange'>(E)</font></div></div><div class='respDivR'><div class='vertical-center'>(I)</div></div></div>","null","$80<br>for<br>yourself","$85<br>for<br>5","0","80","85","5",""
"html-keyboard-response","17","98972","0.0-6.0-1.4","6108027a71236aa28a407666","bdp_sd","Mon Mar 27 2023 20:46:58 GMT-0400 (Eastern Daylight Time)","179356","","null","","","","","FIX","","<div class='trialBorder'><div class='vertical-center'><img style='vertical-align:center; align:center' src=img/fixation3.jpg></div></div>","null","","","","","","",""
"html-keyboard-response","18","101493","0.0-6.0-2.4","6108027a71236aa28a407666","bdp_sd","Mon Mar 27 2023 20:46:58 GMT-0400 (Eastern Daylight Time)","179356","","2518","","","","","offer","","<div class='trialBorder'><div class='vertical-center'><img style='vertical-align:center; align:center' src=img/fixation3.jpg></div><div class='cl'><div class='vertical-center'>$25<br>for<br>EG</div></div><div class='cr'><div class='vertical-center'>$19<br>for<br>yourself</div></div><div class='respDivL'><div class='vertical-center'>(E)</div></div><div class='respDivR'><div class='vertical-center'>(I)</div></div></div>","I","$19<br>for<br>yourself","$25<br>for<br>4","1","19","25","4","SELF"
"html-keyboard-response","19","101757","0.0-6.0-3.4","6108027a71236aa28a407666","bdp_sd","Mon Mar 27 2023 20:46:58 GMT-0400 (Eastern Daylight Time)","179356","","null","","","","","offerFB","","<div class='trialBorder'><div class='vertical-center'><img style='vertical-align:center; align:center' src=img/fixation3.jpg></div><div class='cl'><div class='vertical-center'>$25<br>for<br>EG</div></div><div class='cr'><div class='vertical-center'><font style='color:orange'>$19<br>for<br>yourself</font></div></div><div class='respDivL'><div class='vertical-center'>(E)</div></div><div class='respDivR'><div class='vertical-center'><font style='color:orange'>(I)</font></div></div></div>","null","$19<br>for<br>yourself","$25<br>for<br>4","1","19","25","4",""
"html-keyboard-response","20","102269","0.0-6.0-1.5","6108027a71236aa28a407666","bdp_sd","Mon Mar 27 2023 20:46:58 GMT-0400 (Eastern Daylight Time)","179356","","null","","","","","FIX","","<div class='trialBorder'><div class='vertical-center'><img style='vertical-align:center; align:center' src=img/fixation3.jpg></div></div>","null","","","","","","",""
"html-keyboard-response","21","106046","0.0-6.0-2.5","6108027a71236aa28a407666","bdp_sd","Mon Mar 27 2023 20:46:58 GMT-0400 (Eastern Daylight Time)","179356","","3776","","","","","offer","","<div class='trialBorder'><div class='vertical-center'><img style='vertical-align:center; align:center' src=img/fixation3.jpg></div><div class='cl'><div class='vertical-center'>$41<br>for<br>yourself</div></div><div class='cr'><div class='vertical-center'>$75<br>for<br>SL</div></div><div class='respDivL'><div class='vertical-center'>(E)</div></div><div class='respDivR'><div class='vertical-center'>(I)</div></div></div>","E","$41<br>for<br>yourself","$75<br>for<br>3","0","41","75","3","SELF"
"html-keyboard-response","22","106306","0.0-6.0-3.5","6108027a71236aa28a407666","bdp_sd","Mon Mar 27 2023 20:46:58 GMT-0400 (Eastern Daylight Time)","179356","","null","","","","","offerFB","","<div class='trialBorder'><div class='vertical-center'><img style='vertical-align:center; align:center' src=img/fixation3.jpg></div><div class='cl'><div class='vertical-center'><font style='color:orange'>$41<br>for<br>yourself</font></div></div><div class='cr'><div class='vertical-center'>$75<br>for<br>SL</div></div><div class='respDivL'><div class='vertical-center'><font style='color:orange'>(E)</font></div></div><div class='respDivR'><div class='vertical-center'>(I)</div></div></div>","null","$41<br>for<br>yourself","$75<br>for<br>3","0","41","75","3",""
"html-keyboard-response","23","106813","0.0-6.0-1.6","6108027a71236aa28a407666","bdp_sd","Mon Mar 27 2023 20:46:58 GMT-0400 (Eastern Daylight Time)","179356","","null","","","","","FIX","","<div class='trialBorder'><div class='vertical-center'><img style='vertical-align:center; align:center' src=img/fixation3.jpg></div></div>","null","","","","","","",""
"html-keyboard-response","24","109039","0.0-6.0-2.6","6108027a71236aa28a407666","bdp_sd","Mon Mar 27 2023 20:46:58 GMT-0400 (Eastern Daylight Time)","179356","","2225","","","","","offer","","<div class='trialBorder'><div class='vertical-center'><img style='vertical-align:center; align:center' src=img/fixation3.jpg></div><div class='cl'><div class='vertical-center'>$55<br>for<br>EG</div></div><div class='cr'><div class='vertical-center'>$40<br>for<br>yourself</div></div><div class='respDivL'><div class='vertical-center'>(E)</div></div><div class='respDivR'><div class='vertical-center'>(I)</div></div></div>","I","$40<br>for<br>yourself","$55<br>for<br>4","1","40","55","4","SELF"
"html-keyboard-response","25","109298","0.0-6.0-3.6","6108027a71236aa28a407666","bdp_sd","Mon Mar 27 2023 20:46:58 GMT-0400 (Eastern Daylight Time)","179356","","null","","","","","offerFB","","<div class='trialBorder'><div class='vertical-center'><img style='vertical-align:center; align:center' src=img/fixation3.jpg></div><div class='cl'><div class='vertical-center'>$55<br>for<br>EG</div></div><div class='cr'><div class='vertical-center'><font style='color:orange'>$40<br>for<br>yourself</font></div></div><div class='respDivL'><div class='vertical-center'>(E)</div></div><div class='respDivR'><div class='vertical-center'><font style='color:orange'>(I)</font></div></div></div>","null","$40<br>for<br>yourself","$55<br>for<br>4","1","40","55","4",""
"html-keyboard-response","26","109804","0.0-6.0-1.7","6108027a71236aa28a407666","bdp_sd","Mon Mar 27 2023 20:46:58 GMT-0400 (Eastern Daylight Time)","179356","","null","","","","","FIX","","<div class='trialBorder'><div class='vertical-center'><img style='vertical-align:center; align:center' src=img/fixation3.jpg></div></div>","null","","","","","","",""
"html-keyboard-response","27","112026","0.0-6.0-2.7","6108027a71236aa28a407666","bdp_sd","Mon Mar 27 2023 20:46:58 GMT-0400 (Eastern Daylight Time)","179356","","2219","","","","","offer","","<div class='trialBorder'><div class='vertical-center'><img style='vertical-align:center; align:center' src=img/fixation3.jpg></div><div class='cl'><div class='vertical-center'>$11<br>for<br>yourself</div></div><div class='cr'><div class='vertical-center'>$30<br>for<br>ML</div></div><div class='respDivL'><div class='vertical-center'>(E)</div></div><div class='respDivR'><div class='vertical-center'>(I)</div></div></div>","I","$11<br>for<br>yourself","$30<br>for<br>2","0","11","30","2","OTHER"
"html-keyboard-response","28","112284","0.0-6.0-3.7","6108027a71236aa28a407666","bdp_sd","Mon Mar 27 2023 20:46:58 GMT-0400 (Eastern Daylight Time)","179356","","null","","","","","offerFB","","<div class='trialBorder'><div class='vertical-center'><img style='vertical-align:center; align:center' src=img/fixation3.jpg></div><div class='cl'><div class='vertical-center'>$11<br>for<br>yourself</div></div><div class='cr'><div class='vertical-center'><font style='color:orange'>$30<br>for<br>ML</font></div></div><div class='respDivL'><div class='vertical-center'>(E)</div></div><div class='respDivR'><div class='vertical-center'><font style='color:orange'>(I)</font></div></div></div>","null","$11<br>for<br>yourself","$30<br>for<br>2","0","11","30","2",""
"html-keyboard-response","29","112793","0.0-6.0-1.8","6108027a71236aa28a407666","bdp_sd","Mon Mar 27 2023 20:46:58 GMT-0400 (Eastern Daylight Time)","179356","","null","","","","","FIX","","<div class='trialBorder'><div class='vertical-center'><img style='vertical-align:center; align:center' src=img/fixation3.jpg></div></div>","null","","","","","","",""
"html-keyboard-response","30","114705","0.0-6.0-2.8","6108027a71236aa28a407666","bdp_sd","Mon Mar 27 2023 20:46:58 GMT-0400 (Eastern Daylight Time)","179356","","1910","","","","","offer","","<div class='trialBorder'><div class='vertical-center'><img style='vertical-align:center; align:center' src=img/fixation3.jpg></div><div class='cl'><div class='vertical-center'>$60<br>for<br>EG</div></div><div class='cr'><div class='vertical-center'>$49<br>for<br>yourself</div></div><div class='respDivL'><div class='vertical-center'>(E)</div></div><div class='respDivR'><div class='vertical-center'>(I)</div></div></div>","I","$49<br>for<br>yourself","$60<br>for<br>4","1","49","60","4","SELF"
"html-keyboard-response","31","114962","0.0-6.0-3.8","6108027a71236aa28a407666","bdp_sd","Mon Mar 27 2023 20:46:58 GMT-0400 (Eastern Daylight Time)","179356","","null","","","","","offerFB","","<div class='trialBorder'><div class='vertical-center'><img style='vertical-align:center; align:center' src=img/fixation3.jpg></div><div class='cl'><div class='vertical-center'>$60<br>for<br>EG</div></div><div class='cr'><div class='vertical-center'><font style='color:orange'>$49<br>for<br>yourself</font></div></div><div class='respDivL'><div class='vertical-center'>(E)</div></div><div class='respDivR'><div class='vertical-center'><font style='color:orange'>(I)</font></div></div></div>","null","$49<br>for<br>yourself","$60<br>for<br>4","1","49","60","4",""
"html-keyboard-response","32","115468","0.0-6.0-1.9","6108027a71236aa28a407666","bdp_sd","Mon Mar 27 2023 20:46:58 GMT-0400 (Eastern Daylight Time)","179356","","null","","","","","FIX","","<div class='trialBorder'><div class='vertical-center'><img style='vertical-align:center; align:center' src=img/fixation3.jpg></div></div>","null","","","","","","",""
"html-keyboard-response","33","117289","0.0-6.0-2.9","6108027a71236aa28a407666","bdp_sd","Mon Mar 27 2023 20:46:58 GMT-0400 (Eastern Daylight Time)","179356","","1819","","","","","offer","","<div class='trialBorder'><div class='vertical-center'><img style='vertical-align:center; align:center' src=img/fixation3.jpg></div><div class='cl'><div class='vertical-center'>$54<br>for<br>yourself</div></div><div class='cr'><div class='vertical-center'>$55<br>for<br>SF</div></div><div class='respDivL'><div class='vertical-center'>(E)</div></div><div class='respDivR'><div class='vertical-center'>(I)</div></div></div>","E","$54<br>for<br>yourself","$55<br>for<br>5","0","54","55","5","SELF"
"html-keyboard-response","34","117548","0.0-6.0-3.9","6108027a71236aa28a407666","bdp_sd","Mon Mar 27 2023 20:46:58 GMT-0400 (Eastern Daylight Time)","179356","","null","","","","","offerFB","","<div class='trialBorder'><div class='vertical-center'><img style='vertical-align:center; align:center' src=img/fixation3.jpg></div><div class='cl'><div class='vertical-center'><font style='color:orange'>$54<br>for<br>yourself</font></div></div><div class='cr'><div class='vertical-center'>$55<br>for<br>SF</div></div><div class='respDivL'><div class='vertical-center'><font style='color:orange'>(E)</font></div></div><div class='respDivR'><div class='vertical-center'>(I)</div></div></div>","null","$54<br>for<br>yourself","$55<br>for<br>5","0","54","55","5",""
"html-keyboard-response","35","118060","0.0-6.0-1.10","6108027a71236aa28a407666","bdp_sd","Mon Mar 27 2023 20:46:58 GMT-0400 (Eastern Daylight Time)","179356","","null","","","","","FIX","","<div class='trialBorder'><div class='vertical-center'><img style='vertical-align:center; align:center' src=img/fixation3.jpg></div></div>","null","","","","","","",""
"html-keyboard-response","36","119999","0.0-6.0-2.10","6108027a71236aa28a407666","bdp_sd","Mon Mar 27 2023 20:46:58 GMT-0400 (Eastern Daylight Time)","179356","","1939","","","","","offer","","<div class='trialBorder'><div class='vertical-center'><img style='vertical-align:center; align:center' src=img/fixation3.jpg></div><div class='cl'><div class='vertical-center'>$15<br>for<br>yourself</div></div><div class='cr'><div class='vertical-center'>$35<br>for<br>ML</div></div><div class='respDivL'><div class='vertical-center'>(E)</div></div><div class='respDivR'><div class='vertical-center'>(I)</div></div></div>","E","$15<br>for<br>yourself","$35<br>for<br>2","0","15","35","2","SELF"
"html-keyboard-response","37","120260","0.0-6.0-3.10","6108027a71236aa28a407666","bdp_sd","Mon Mar 27 2023 20:46:58 GMT-0400 (Eastern Daylight Time)","179356","","null","","","","","offerFB","","<div class='trialBorder'><div class='vertical-center'><img style='vertical-align:center; align:center' src=img/fixation3.jpg></div><div class='cl'><div class='vertical-center'><font style='color:orange'>$15<br>for<br>yourself</font></div></div><div class='cr'><div class='vertical-center'>$35<br>for<br>ML</div></div><div class='respDivL'><div class='vertical-center'><font style='color:orange'>(E)</font></div></div><div class='respDivR'><div class='vertical-center'>(I)</div></div></div>","null","$15<br>for<br>yourself","$35<br>for<br>2","0","15","35","2",""
"html-keyboard-response","38","120770","0.0-6.0-1.11","6108027a71236aa28a407666","bdp_sd","Mon Mar 27 2023 20:46:58 GMT-0400 (Eastern Daylight Time)","179356","","null","","","","","FIX","","<div class='trialBorder'><div class='vertical-center'><img style='vertical-align:center; align:center' src=img/fixation3.jpg></div></div>","null","","","","","","",""
"html-keyboard-response","39","122372","0.0-6.0-2.11","6108027a71236aa28a407666","bdp_sd","Mon Mar 27 2023 20:46:58 GMT-0400 (Eastern Daylight Time)","179356","","1600","","","","","offer","","<div class='trialBorder'><div class='vertical-center'><img style='vertical-align:center; align:center' src=img/fixation3.jpg></div><div class='cl'><div class='vertical-center'>$30<br>for<br>EG</div></div><div class='cr'><div class='vertical-center'>$25<br>for<br>yourself</div></div><div class='respDivL'><div class='vertical-center'>(E)</div></div><div class='respDivR'><div class='vertical-center'>(I)</div></div></div>","I","$25<br>for<br>yourself","$30<br>for<br>4","1","25","30","4","SELF"
"html-keyboard-response","40","122627","0.0-6.0-3.11","6108027a71236aa28a407666","bdp_sd","Mon Mar 27 2023 20:46:58 GMT-0400 (Eastern Daylight Time)","179356","","null","","","","","offerFB","","<div class='trialBorder'><div class='vertical-center'><img style='vertical-align:center; align:center' src=img/fixation3.jpg></div><div class='cl'><div class='vertical-center'>$30<br>for<br>EG</div></div><div class='cr'><div class='vertical-center'><font style='color:orange'>$25<br>for<br>yourself</font></div></div><div class='respDivL'><div class='vertical-center'>(E)</div></div><div class='respDivR'><div class='vertical-center'><font style='color:orange'>(I)</font></div></div></div>","null","$25<br>for<br>yourself","$30<br>for<br>4","1","25","30","4",""
"html-keyboard-response","41","123137","0.0-6.0-1.12","6108027a71236aa28a407666","bdp_sd","Mon Mar 27 2023 20:46:58 GMT-0400 (Eastern Daylight Time)","179356","","null","","","","","FIX","","<div class='trialBorder'><div class='vertical-center'><img style='vertical-align:center; align:center' src=img/fixation3.jpg></div></div>","null","","","","","","",""
"html-keyboard-response","42","126467","0.0-6.0-2.12","6108027a71236aa28a407666","bdp_sd","Mon Mar 27 2023 20:46:58 GMT-0400 (Eastern Daylight Time)","179356","","3328","","","","","offer","","<div class='trialBorder'><div class='vertical-center'><img style='vertical-align:center; align:center' src=img/fixation3.jpg></div><div class='cl'><div class='vertical-center'>$30<br>for<br>SF</div></div><div class='cr'><div class='vertical-center'>$28<br>for<br>yourself</div></div><div class='respDivL'><div class='vertical-center'>(E)</div></div><div class='respDivR'><div class='vertical-center'>(I)</div></div></div>","I","$28<br>for<br>yourself","$30<br>for<br>5","1","28","30","5","SELF"
"html-keyboard-response","43","126722","0.0-6.0-3.12","6108027a71236aa28a407666","bdp_sd","Mon Mar 27 2023 20:46:58 GMT-0400 (Eastern Daylight Time)","179356","","null","","","","","offerFB","","<div class='trialBorder'><div class='vertical-center'><img style='vertical-align:center; align:center' src=img/fixation3.jpg></div><div class='cl'><div class='vertical-center'>$30<br>for<br>SF</div></div><div class='cr'><div class='vertical-center'><font style='color:orange'>$28<br>for<br>yourself</font></div></div><div class='respDivL'><div class='vertical-center'>(E)</div></div><div class='respDivR'><div class='vertical-center'><font style='color:orange'>(I)</font></div></div></div>","null","$28<br>for<br>yourself","$30<br>for<br>5","1","28","30","5",""
"html-keyboard-response","44","127228","0.0-6.0-1.13","6108027a71236aa28a407666","bdp_sd","Mon Mar 27 2023 20:46:58 GMT-0400 (Eastern Daylight Time)","179356","","null","","","","","FIX","","<div class='trialBorder'><div class='vertical-center'><img style='vertical-align:center; align:center' src=img/fixation3.jpg></div></div>","null","","","","","","",""
"html-keyboard-response","45","128444","0.0-6.0-2.13","6108027a71236aa28a407666","bdp_sd","Mon Mar 27 2023 20:46:58 GMT-0400 (Eastern Daylight Time)","179356","","1215","","","","","offer","","<div class='trialBorder'><div class='vertical-center'><img style='vertical-align:center; align:center' src=img/fixation3.jpg></div><div class='cl'><div class='vertical-center'>$25<br>for<br>SF</div></div><div class='cr'><div class='vertical-center'>$22<br>for<br>yourself</div></div><div class='respDivL'><div class='vertical-center'>(E)</div></div><div class='respDivR'><div class='vertical-center'>(I)</div></div></div>","I","$22<br>for<br>yourself","$25<br>for<br>5","1","22","25","5","SELF"
"html-keyboard-response","46","128700","0.0-6.0-3.13","6108027a71236aa28a407666","bdp_sd","Mon Mar 27 2023 20:46:58 GMT-0400 (Eastern Daylight Time)","179356","","null","","","","","offerFB","","<div class='trialBorder'><div class='vertical-center'><img style='vertical-align:center; align:center' src=img/fixation3.jpg></div><div class='cl'><div class='vertical-center'>$25<br>for<br>SF</div></div><div class='cr'><div class='vertical-center'><font style='color:orange'>$22<br>for<br>yourself</font></div></div><div class='respDivL'><div class='vertical-center'>(E)</div></div><div class='respDivR'><div class='vertical-center'><font style='color:orange'>(I)</font></div></div></div>","null","$22<br>for<br>yourself","$25<br>for<br>5","1","22","25","5",""
"html-keyboard-response","47","129212","0.0-6.0-1.14","6108027a71236aa28a407666","bdp_sd","Mon Mar 27 2023 20:46:58 GMT-0400 (Eastern Daylight Time)","179356","","null","","","","","FIX","","<div class='trialBorder'><div class='vertical-center'><img style='vertical-align:center; align:center' src=img/fixation3.jpg></div></div>","null","","","","","","",""
"html-keyboard-response","48","130335","0.0-6.0-2.14","6108027a71236aa28a407666","bdp_sd","Mon Mar 27 2023 20:46:58 GMT-0400 (Eastern Daylight Time)","179356","","1121","","","","","offer","","<div class='trialBorder'><div class='vertical-center'><img style='vertical-align:center; align:center' src=img/fixation3.jpg></div><div class='cl'><div class='vertical-center'>$34<br>for<br>yourself</div></div><div class='cr'><div class='vertical-center'>$50<br>for<br>EG</div></div><div class='respDivL'><div class='vertical-center'>(E)</div></div><div class='respDivR'><div class='vertical-center'>(I)</div></div></div>","E","$34<br>for<br>yourself","$50<br>for<br>4","0","34","50","4","SELF"
"html-keyboard-response","49","130593","0.0-6.0-3.14","6108027a71236aa28a407666","bdp_sd","Mon Mar 27 2023 20:46:58 GMT-0400 (Eastern Daylight Time)","179356","","null","","","","","offerFB","","<div class='trialBorder'><div class='vertical-center'><img style='vertical-align:center; align:center' src=img/fixation3.jpg></div><div class='cl'><div class='vertical-center'><font style='color:orange'>$34<br>for<br>yourself</font></div></div><div class='cr'><div class='vertical-center'>$50<br>for<br>EG</div></div><div class='respDivL'><div class='vertical-center'><font style='color:orange'>(E)</font></div></div><div class='respDivR'><div class='vertical-center'>(I)</div></div></div>","null","$34<br>for<br>yourself","$50<br>for<br>4","0","34","50","4",""
"html-keyboard-response","50","131100","0.0-6.0-1.15","6108027a71236aa28a407666","bdp_sd","Mon Mar 27 2023 20:46:58 GMT-0400 (Eastern Daylight Time)","179356","","null","","","","","FIX","","<div class='trialBorder'><div class='vertical-center'><img style='vertical-align:center; align:center' src=img/fixation3.jpg></div></div>","null","","","","","","",""
"html-keyboard-response","51","131835","0.0-6.0-2.15","6108027a71236aa28a407666","bdp_sd","Mon Mar 27 2023 20:46:58 GMT-0400 (Eastern Daylight Time)","179356","","733","","","","","offer","","<div class='trialBorder'><div class='vertical-center'><img style='vertical-align:center; align:center' src=img/fixation3.jpg></div><div class='cl'><div class='vertical-center'>$47<br>for<br>yourself</div></div><div class='cr'><div class='vertical-center'>$50<br>for<br>SF</div></div><div class='respDivL'><div class='vertical-center'>(E)</div></div><div class='respDivR'><div class='vertical-center'>(I)</div></div></div>","E","$47<br>for<br>yourself","$50<br>for<br>5","0","47","50","5","SELF"
"html-keyboard-response","52","132093","0.0-6.0-3.15","6108027a71236aa28a407666","bdp_sd","Mon Mar 27 2023 20:46:58 GMT-0400 (Eastern Daylight Time)","179356","","null","","","","","offerFB","","<div class='trialBorder'><div class='vertical-center'><img style='vertical-align:center; align:center' src=img/fixation3.jpg></div><div class='cl'><div class='vertical-center'><font style='color:orange'>$47<br>for<br>yourself</font></div></div><div class='cr'><div class='vertical-center'>$50<br>for<br>SF</div></div><div class='respDivL'><div class='vertical-center'><font style='color:orange'>(E)</font></div></div><div class='respDivR'><div class='vertical-center'>(I)</div></div></div>","null","$47<br>for<br>yourself","$50<br>for<br>5","0","47","50","5",""
"html-keyboard-response","53","132604","0.0-6.0-1.16","6108027a71236aa28a407666","bdp_sd","Mon Mar 27 2023 20:46:58 GMT-0400 (Eastern Daylight Time)","179356","","null","","","","","FIX","","<div class='trialBorder'><div class='vertical-center'><img style='vertical-align:center; align:center' src=img/fixation3.jpg></div></div>","null","","","","","","",""
"html-keyboard-response","54","135434","0.0-6.0-2.16","6108027a71236aa28a407666","bdp_sd","Mon Mar 27 2023 20:46:58 GMT-0400 (Eastern Daylight Time)","179356","","2829","","","","","offer","","<div class='trialBorder'><div class='vertical-center'><img style='vertical-align:center; align:center' src=img/fixation3.jpg></div><div class='cl'><div class='vertical-center'>$80<br>for<br>SL</div></div><div class='cr'><div class='vertical-center'>$54<br>for<br>yourself</div></div><div class='respDivL'><div class='vertical-center'>(E)</div></div><div class='respDivR'><div class='vertical-center'>(I)</div></div></div>","I","$54<br>for<br>yourself","$80<br>for<br>3","1","54","80","3","SELF"
"html-keyboard-response","55","135692","0.0-6.0-3.16","6108027a71236aa28a407666","bdp_sd","Mon Mar 27 2023 20:46:58 GMT-0400 (Eastern Daylight Time)","179356","","null","","","","","offerFB","","<div class='trialBorder'><div class='vertical-center'><img style='vertical-align:center; align:center' src=img/fixation3.jpg></div><div class='cl'><div class='vertical-center'>$80<br>for<br>SL</div></div><div class='cr'><div class='vertical-center'><font style='color:orange'>$54<br>for<br>yourself</font></div></div><div class='respDivL'><div class='vertical-center'>(E)</div></div><div class='respDivR'><div class='vertical-center'><font style='color:orange'>(I)</font></div></div></div>","null","$54<br>for<br>yourself","$80<br>for<br>3","1","54","80","3",""
"html-keyboard-response","56","136204","0.0-6.0-1.17","6108027a71236aa28a407666","bdp_sd","Mon Mar 27 2023 20:46:58 GMT-0400 (Eastern Daylight Time)","179356","","null","","","","","FIX","","<div class='trialBorder'><div class='vertical-center'><img style='vertical-align:center; align:center' src=img/fixation3.jpg></div></div>","null","","","","","","",""
"html-keyboard-response","57","137565","0.0-6.0-2.17","6108027a71236aa28a407666","bdp_sd","Mon Mar 27 2023 20:46:58 GMT-0400 (Eastern Daylight Time)","179356","","1359","","","","","offer","","<div class='trialBorder'><div class='vertical-center'><img style='vertical-align:center; align:center' src=img/fixation3.jpg></div><div class='cl'><div class='vertical-center'>$67<br>for<br>yourself</div></div><div class='cr'><div class='vertical-center'>$75<br>for<br>SF</div></div><div class='respDivL'><div class='vertical-center'>(E)</div></div><div class='respDivR'><div class='vertical-center'>(I)</div></div></div>","E","$67<br>for<br>yourself","$75<br>for<br>5","0","67","75","5","SELF"
"html-keyboard-response","58","137827","0.0-6.0-3.17","6108027a71236aa28a407666","bdp_sd","Mon Mar 27 2023 20:46:58 GMT-0400 (Eastern Daylight Time)","179356","","null","","","","","offerFB","","<div class='trialBorder'><div class='vertical-center'><img style='vertical-align:center; align:center' src=img/fixation3.jpg></div><div class='cl'><div class='vertical-center'><font style='color:orange'>$67<br>for<br>yourself</font></div></div><div class='cr'><div class='vertical-center'>$75<br>for<br>SF</div></div><div class='respDivL'><div class='vertical-center'><font style='color:orange'>(E)</font></div></div><div class='respDivR'><div class='vertical-center'>(I)</div></div></div>","null","$67<br>for<br>yourself","$75<br>for<br>5","0","67","75","5",""
"html-keyboard-response","59","138337","0.0-6.0-1.18","6108027a71236aa28a407666","bdp_sd","Mon Mar 27 2023 20:46:58 GMT-0400 (Eastern Daylight Time)","179356","","null","","","","","FIX","","<div class='trialBorder'><div class='vertical-center'><img style='vertical-align:center; align:center' src=img/fixation3.jpg></div></div>","null","","","","","","",""
"html-keyboard-response","60","152496","0.0-6.0-2.18","6108027a71236aa28a407666","bdp_sd","Mon Mar 27 2023 20:46:58 GMT-0400 (Eastern Daylight Time)","179356","","14157","","","","","offer","","<div class='trialBorder'><div class='vertical-center'><img style='vertical-align:center; align:center' src=img/fixation3.jpg></div><div class='cl'><div class='vertical-center'>$25<br>for<br>yourself</div></div><div class='cr'><div class='vertical-center'>$60<br>for<br>SL</div></div><div class='respDivL'><div class='vertical-center'>(E)</div></div><div class='respDivR'><div class='vertical-center'>(I)</div></div></div>","E","$25<br>for<br>yourself","$60<br>for<br>3","0","25","60","3","SELF"
"html-keyboard-response","61","152753","0.0-6.0-3.18","6108027a71236aa28a407666","bdp_sd","Mon Mar 27 2023 20:46:58 GMT-0400 (Eastern Daylight Time)","179356","","null","","","","","offerFB","","<div class='trialBorder'><div class='vertical-center'><img style='vertical-align:center; align:center' src=img/fixation3.jpg></div><div class='cl'><div class='vertical-center'><font style='color:orange'>$25<br>for<br>yourself</font></div></div><div class='cr'><div class='vertical-center'>$60<br>for<br>SL</div></div><div class='respDivL'><div class='vertical-center'><font style='color:orange'>(E)</font></div></div><div class='respDivR'><div class='vertical-center'>(I)</div></div></div>","null","$25<br>for<br>yourself","$60<br>for<br>3","0","25","60","3",""
"html-keyboard-response","62","153260","0.0-6.0-1.19","6108027a71236aa28a407666","bdp_sd","Mon Mar 27 2023 20:46:58 GMT-0400 (Eastern Daylight Time)","179356","","null","","","","","FIX","","<div class='trialBorder'><div class='vertical-center'><img style='vertical-align:center; align:center' src=img/fixation3.jpg></div></div>","null","","","","","","",""
"html-keyboard-response","63","154352","0.0-6.0-2.19","6108027a71236aa28a407666","bdp_sd","Mon Mar 27 2023 20:46:58 GMT-0400 (Eastern Daylight Time)","179356","","1090","","","","","offer","","<div class='trialBorder'><div class='vertical-center'><img style='vertical-align:center; align:center' src=img/fixation3.jpg></div><div class='cl'><div class='vertical-center'>$75<br>for<br>EG</div></div><div class='cr'><div class='vertical-center'>$55<br>for<br>yourself</div></div><div class='respDivL'><div class='vertical-center'>(E)</div></div><div class='respDivR'><div class='vertical-center'>(I)</div></div></div>","E","$55<br>for<br>yourself","$75<br>for<br>4","1","55","75","4","OTHER"
"html-keyboard-response","64","154611","0.0-6.0-3.19","6108027a71236aa28a407666","bdp_sd","Mon Mar 27 2023 20:46:58 GMT-0400 (Eastern Daylight Time)","179356","","null","","","","","offerFB","","<div class='trialBorder'><div class='vertical-center'><img style='vertical-align:center; align:center' src=img/fixation3.jpg></div><div class='cl'><div class='vertical-center'><font style='color:orange'>$75<br>for<br>EG</font></div></div><div class='cr'><div class='vertical-center'>$55<br>for<br>yourself</div></div><div class='respDivL'><div class='vertical-center'><font style='color:orange'>(E)</font></div></div><div class='respDivR'><div class='vertical-center'>(I)</div></div></div>","null","$55<br>for<br>yourself","$75<br>for<br>4","1","55","75","4",""
"html-keyboard-response","65","155121","0.0-6.0-1.20","6108027a71236aa28a407666","bdp_sd","Mon Mar 27 2023 20:46:58 GMT-0400 (Eastern Daylight Time)","179356","","null","","","","","FIX","","<div class='trialBorder'><div class='vertical-center'><img style='vertical-align:center; align:center' src=img/fixation3.jpg></div></div>","null","","","","","","",""
"html-keyboard-response","66","157247","0.0-6.0-2.20","6108027a71236aa28a407666","bdp_sd","Mon Mar 27 2023 20:46:58 GMT-0400 (Eastern Daylight Time)","179356","","2125","","","","","offer","","<div class='trialBorder'><div class='vertical-center'><img style='vertical-align:center; align:center' src=img/fixation3.jpg></div><div class='cl'><div class='vertical-center'>$69<br>for<br>yourself</div></div><div class='cr'><div class='vertical-center'>$85<br>for<br>EG</div></div><div class='respDivL'><div class='vertical-center'>(E)</div></div><div class='respDivR'><div class='vertical-center'>(I)</div></div></div>","E","$69<br>for<br>yourself","$85<br>for<br>4","0","69","85","4","SELF"
"html-keyboard-response","67","157505","0.0-6.0-3.20","6108027a71236aa28a407666","bdp_sd","Mon Mar 27 2023 20:46:58 GMT-0400 (Eastern Daylight Time)","179356","","null","","","","","offerFB","","<div class='trialBorder'><div class='vertical-center'><img style='vertical-align:center; align:center' src=img/fixation3.jpg></div><div class='cl'><div class='vertical-center'><font style='color:orange'>$69<br>for<br>yourself</font></div></div><div class='cr'><div class='vertical-center'>$85<br>for<br>EG</div></div><div class='respDivL'><div class='vertical-center'><font style='color:orange'>(E)</font></div></div><div class='respDivR'><div class='vertical-center'>(I)</div></div></div>","null","$69<br>for<br>yourself","$85<br>for<br>4","0","69","85","4",""
"html-keyboard-response","68","158011","0.0-6.0-1.21","6108027a71236aa28a407666","bdp_sd","Mon Mar 27 2023 20:46:58 GMT-0400 (Eastern Daylight Time)","179356","","null","","","","","FIX","","<div class='trialBorder'><div class='vertical-center'><img style='vertical-align:center; align:center' src=img/fixation3.jpg></div></div>","null","","","","","","",""
"html-keyboard-response","69","159960","0.0-6.0-2.21","6108027a71236aa28a407666","bdp_sd","Mon Mar 27 2023 20:46:58 GMT-0400 (Eastern Daylight Time)","179356","","1947","","","","","offer","","<div class='trialBorder'><div class='vertical-center'><img style='vertical-align:center; align:center' src=img/fixation3.jpg></div><div class='cl'><div class='vertical-center'>$85<br>for<br>AG</div></div><div class='cr'><div class='vertical-center'>$31<br>for<br>yourself</div></div><div class='respDivL'><div class='vertical-center'>(E)</div></div><div class='respDivR'><div class='vertical-center'>(I)</div></div></div>","E","$31<br>for<br>yourself","$85<br>for<br>1","1","31","85","1","OTHER"
"html-keyboard-response","70","160219","0.0-6.0-3.21","6108027a71236aa28a407666","bdp_sd","Mon Mar 27 2023 20:46:58 GMT-0400 (Eastern Daylight Time)","179356","","null","","","","","offerFB","","<div class='trialBorder'><div class='vertical-center'><img style='vertical-align:center; align:center' src=img/fixation3.jpg></div><div class='cl'><div class='vertical-center'><font style='color:orange'>$85<br>for<br>AG</font></div></div><div class='cr'><div class='vertical-center'>$31<br>for<br>yourself</div></div><div class='respDivL'><div class='vertical-center'><font style='color:orange'>(E)</font></div></div><div class='respDivR'><div class='vertical-center'>(I)</div></div></div>","null","$31<br>for<br>yourself","$85<br>for<br>1","1","31","85","1",""
"html-keyboard-response","71","160731","0.0-6.0-1.22","6108027a71236aa28a407666","bdp_sd","Mon Mar 27 2023 20:46:58 GMT-0400 (Eastern Daylight Time)","179356","","null","","","","","FIX","","<div class='trialBorder'><div class='vertical-center'><img style='vertical-align:center; align:center' src=img/fixation3.jpg></div></div>","null","","","","","","",""
"html-keyboard-response","72","162984","0.0-6.0-2.22","6108027a71236aa28a407666","bdp_sd","Mon Mar 27 2023 20:46:58 GMT-0400 (Eastern Daylight Time)","179356","","2251","","","","","offer","","<div class='trialBorder'><div class='vertical-center'><img style='vertical-align:center; align:center' src=img/fixation3.jpg></div><div class='cl'><div class='vertical-center'>$14<br>for<br>yourself</div></div><div class='cr'><div class='vertical-center'>$25<br>for<br>SL</div></div><div class='respDivL'><div class='vertical-center'>(E)</div></div><div class='respDivR'><div class='vertical-center'>(I)</div></div></div>","E","$14<br>for<br>yourself","$25<br>for<br>3","0","14","25","3","SELF"
"html-keyboard-response","73","163244","0.0-6.0-3.22","6108027a71236aa28a407666","bdp_sd","Mon Mar 27 2023 20:46:58 GMT-0400 (Eastern Daylight Time)","179356","","null","","","","","offerFB","","<div class='trialBorder'><div class='vertical-center'><img style='vertical-align:center; align:center' src=img/fixation3.jpg></div><div class='cl'><div class='vertical-center'><font style='color:orange'>$14<br>for<br>yourself</font></div></div><div class='cr'><div class='vertical-center'>$25<br>for<br>SL</div></div><div class='respDivL'><div class='vertical-center'><font style='color:orange'>(E)</font></div></div><div class='respDivR'><div class='vertical-center'>(I)</div></div></div>","null","$14<br>for<br>yourself","$25<br>for<br>3","0","14","25","3",""
"html-keyboard-response","74","163755","0.0-6.0-1.23","6108027a71236aa28a407666","bdp_sd","Mon Mar 27 2023 20:46:58 GMT-0400 (Eastern Daylight Time)","179356","","null","","","","","FIX","","<div class='trialBorder'><div class='vertical-center'><img style='vertical-align:center; align:center' src=img/fixation3.jpg></div></div>","null","","","","","","",""
"html-keyboard-response","75","165633","0.0-6.0-2.23","6108027a71236aa28a407666","bdp_sd","Mon Mar 27 2023 20:46:58 GMT-0400 (Eastern Daylight Time)","179356","","1876","","","","","offer","","<div class='trialBorder'><div class='vertical-center'><img style='vertical-align:center; align:center' src=img/fixation3.jpg></div><div class='cl'><div class='vertical-center'>$55<br>for<br>AG</div></div><div class='cr'><div class='vertical-center'>$20<br>for<br>yourself</div></div><div class='respDivL'><div class='vertical-center'>(E)</div></div><div class='respDivR'><div class='vertical-center'>(I)</div></div></div>","E","$20<br>for<br>yourself","$55<br>for<br>1","1","20","55","1","OTHER"
"html-keyboard-response","76","165888","0.0-6.0-3.23","6108027a71236aa28a407666","bdp_sd","Mon Mar 27 2023 20:46:58 GMT-0400 (Eastern Daylight Time)","179356","","null","","","","","offerFB","","<div class='trialBorder'><div class='vertical-center'><img style='vertical-align:center; align:center' src=img/fixation3.jpg></div><div class='cl'><div class='vertical-center'><font style='color:orange'>$55<br>for<br>AG</font></div></div><div class='cr'><div class='vertical-center'>$20<br>for<br>yourself</div></div><div class='respDivL'><div class='vertical-center'><font style='color:orange'>(E)</font></div></div><div class='respDivR'><div class='vertical-center'>(I)</div></div></div>","null","$20<br>for<br>yourself","$55<br>for<br>1","1","20","55","1",""
"html-keyboard-response","77","166395","0.0-6.0-1.24","6108027a71236aa28a407666","bdp_sd","Mon Mar 27 2023 20:46:58 GMT-0400 (Eastern Daylight Time)","179356","","null","","","","","FIX","","<div class='trialBorder'><div class='vertical-center'><img style='vertical-align:center; align:center' src=img/fixation3.jpg></div></div>","null","","","","","","",""
"html-keyboard-response","78","167677","0.0-6.0-2.24","6108027a71236aa28a407666","bdp_sd","Mon Mar 27 2023 20:46:58 GMT-0400 (Eastern Daylight Time)","179356","","1282","","","","","offer","","<div class='trialBorder'><div class='vertical-center'><img style='vertical-align:center; align:center' src=img/fixation3.jpg></div><div class='cl'><div class='vertical-center'>$80<br>for<br>SF</div></div><div class='cr'><div class='vertical-center'>$78<br>for<br>yourself</div></div><div class='respDivL'><div class='vertical-center'>(E)</div></div><div class='respDivR'><div class='vertical-center'>(I)</div></div></div>","I","$78<br>for<br>yourself","$80<br>for<br>5","1","78","80","5","SELF"
"html-keyboard-response","79","167936","0.0-6.0-3.24","6108027a71236aa28a407666","bdp_sd","Mon Mar 27 2023 20:46:58 GMT-0400 (Eastern Daylight Time)","179356","","null","","","","","offerFB","","<div class='trialBorder'><div class='vertical-center'><img style='vertical-align:center; align:center' src=img/fixation3.jpg></div><div class='cl'><div class='vertical-center'>$80<br>for<br>SF</div></div><div class='cr'><div class='vertical-center'><font style='color:orange'>$78<br>for<br>yourself</font></div></div><div class='respDivL'><div class='vertical-center'>(E)</div></div><div class='respDivR'><div class='vertical-center'><font style='color:orange'>(I)</font></div></div></div>","null","$78<br>for<br>yourself","$80<br>for<br>5","1","78","80","5",""
"html-keyboard-response","80","168443","0.0-6.0-1.25","6108027a71236aa28a407666","bdp_sd","Mon Mar 27 2023 20:46:58 GMT-0400 (Eastern Daylight Time)","179356","","null","","","","","FIX","","<div class='trialBorder'><div class='vertical-center'><img style='vertical-align:center; align:center' src=img/fixation3.jpg></div></div>","null","","","","","","",""
"html-keyboard-response","81","173364","0.0-6.0-2.25","6108027a71236aa28a407666","bdp_sd","Mon Mar 27 2023 20:46:58 GMT-0400 (Eastern Daylight Time)","179356","","4920","","","","","offer","","<div class='trialBorder'><div class='vertical-center'><img style='vertical-align:center; align:center' src=img/fixation3.jpg></div><div class='cl'><div class='vertical-center'>$54<br>for<br>yourself</div></div><div class='cr'><div class='vertical-center'>$60<br>for<br>SF</div></div><div class='respDivL'><div class='vertical-center'>(E)</div></div><div class='respDivR'><div class='vertical-center'>(I)</div></div></div>","E","$54<br>for<br>yourself","$60<br>for<br>5","0","54","60","5","SELF"
"html-keyboard-response","82","173617","0.0-6.0-3.25","6108027a71236aa28a407666","bdp_sd","Mon Mar 27 2023 20:46:58 GMT-0400 (Eastern Daylight Time)","179356","","null","","","","","offerFB","","<div class='trialBorder'><div class='vertical-center'><img style='vertical-align:center; align:center' src=img/fixation3.jpg></div><div class='cl'><div class='vertical-center'><font style='color:orange'>$54<br>for<br>yourself</font></div></div><div class='cr'><div class='vertical-center'>$60<br>for<br>SF</div></div><div class='respDivL'><div class='vertical-center'><font style='color:orange'>(E)</font></div></div><div class='respDivR'><div class='vertical-center'>(I)</div></div></div>","null","$54<br>for<br>yourself","$60<br>for<br>5","0","54","60","5",""
"html-keyboard-response","83","174123","0.0-6.0-1.26","6108027a71236aa28a407666","bdp_sd","Mon Mar 27 2023 20:46:58 GMT-0400 (Eastern Daylight Time)","179356","","null","","","","","FIX","","<div class='trialBorder'><div class='vertical-center'><img style='vertical-align:center; align:center' src=img/fixation3.jpg></div></div>","null","","","","","","",""
"html-keyboard-response","84","178088","0.0-6.0-2.26","6108027a71236aa28a407666","bdp_sd","Mon Mar 27 2023 20:46:58 GMT-0400 (Eastern Daylight Time)","179356","","3965","","","","","offer","","<div class='trialBorder'><div class='vertical-center'><img style='vertical-align:center; align:center' src=img/fixation3.jpg></div><div class='cl'><div class='vertical-center'>$50<br>for<br>SL</div></div><div class='cr'><div class='vertical-center'>$27<br>for<br>yourself</div></div><div class='respDivL'><div class='vertical-center'>(E)</div></div><div class='respDivR'><div class='vertical-center'>(I)</div></div></div>","I","$27<br>for<br>yourself","$50<br>for<br>3","1","27","50","3","SELF"
"html-keyboard-response","85","178347","0.0-6.0-3.26","6108027a71236aa28a407666","bdp_sd","Mon Mar 27 2023 20:46:58 GMT-0400 (Eastern Daylight Time)","179356","","null","","","","","offerFB","","<div class='trialBorder'><div class='vertical-center'><img style='vertical-align:center; align:center' src=img/fixation3.jpg></div><div class='cl'><div class='vertical-center'>$50<br>for<br>SL</div></div><div class='cr'><div class='vertical-center'><font style='color:orange'>$27<br>for<br>yourself</font></div></div><div class='respDivL'><div class='vertical-center'>(E)</div></div><div class='respDivR'><div class='vertical-center'><font style='color:orange'>(I)</font></div></div></div>","null","$27<br>for<br>yourself","$50<br>for<br>3","1","27","50","3",""
"","","","","6108027a71236aa28a407666","bdp_sd","Mon Mar 27 2023 20:46:58 GMT-0400 (Eastern Daylight Time)","179356","","","","fullscreenexit","86","178366","fullscreenexit","","","","","","","","","",""
"fullscreen","86","179355","0.0-7.0","6108027a71236aa28a407666","bdp_sd","Mon Mar 27 2023 20:46:58 GMT-0400 (Eastern Daylight Time)","179356","","","","","","","","true","","","","","","","","",""
"html-keyboard-response","87","179867","0.0-8.0","","","","","","null","","","","","","","","null","","","","","","",""
