"trial_type","trial_index","time_elapsed","internal_node_id","subject_id","task","startTime","totalTime","view_history","rt","responses","event","trial","time","trialtype","success","stimulus","key_press","selfOffer","otherOffer","otherLeft","selfAmt","otherAmt","otherDist","chosen"
"pavlovia","0","2","0.0-0.0","63d80145d2f0da3ee6a8d523","bdp_sd","Sun Mar 26 2023 09:11:39 GMT-0500 (Central Daylight Time)","103402","","","","","","","","","","","","","","","","",""
"instructions","1","1069","0.0-1.0","63d80145d2f0da3ee6a8d523","bdp_sd","Sun Mar 26 2023 09:11:39 GMT-0500 (Central Daylight Time)","103402","[{""page_index"":0,""viewing_time"":1066}]","1066","","","","","","","","","","","","","","",""
"survey-text","2","52756","0.0-2.0","63d80145d2f0da3ee6a8d523","bdp_sd","Sun Mar 26 2023 09:11:39 GMT-0500 (Central Daylight Time)","103402","","51686","{""Q0"":""David G"",""Q1"":""Nicholas G"",""Q2"":""Nicky G"",""Q3"":""Micky G"",""Q4"":""Tianamen S""}","","","","","","","","","","","","","",""
"","","","","63d80145d2f0da3ee6a8d523","bdp_sd","Sun Mar 26 2023 09:11:39 GMT-0500 (Central Daylight Time)","103402","","","","fullscreenenter","3","54213","fullscreenenter","","","","","","","","","",""
"fullscreen","3","55196","0.0-3.0","63d80145d2f0da3ee6a8d523","bdp_sd","Sun Mar 26 2023 09:11:39 GMT-0500 (Central Daylight Time)","103402","","","","","","","","true","","","","","","","","",""
"instructions","4","61690","0.0-5.0","63d80145d2f0da3ee6a8d523","bdp_sd","Sun Mar 26 2023 09:11:39 GMT-0500 (Central Daylight Time)","103402","[{""page_index"":0,""viewing_time"":1707},{""page_index"":1,""viewing_time"":2828},{""page_index"":2,""viewing_time"":1957}]","6493","","","","","","","","","","","","","","",""
"html-keyboard-response","5","62191","0.0-6.0-1.0","63d80145d2f0da3ee6a8d523","bdp_sd","Sun Mar 26 2023 09:11:39 GMT-0500 (Central Daylight Time)","103402","","null","","","","","FIX","","<div class='trialBorder'><div class='vertical-center'><img style='vertical-align:center; align:center' src=img/fixation3.jpg></div></div>","null","","","","","","",""
"html-keyboard-response","6","63667","0.0-6.0-2.0","63d80145d2f0da3ee6a8d523","bdp_sd","Sun Mar 26 2023 09:11:39 GMT-0500 (Central Daylight Time)","103402","","1475","","","","","offer","","<div class='trialBorder'><div class='vertical-center'><img style='vertical-align:center; align:center' src=img/fixation3.jpg></div><div class='cl'><div class='vertical-center'>$80<br>for<br>Tianamen S</div></div><div class='cr'><div class='vertical-center'>$78<br>for<br>yourself</div></div><div class='respDivL'><div class='vertical-center'>(E)</div></div><div class='respDivR'><div class='vertical-center'>(I)</div></div></div>","I","$78<br>for<br>yourself","$80<br>for<br>5","1","78","80","5","SELF"
"html-keyboard-response","7","63918","0.0-6.0-3.0","63d80145d2f0da3ee6a8d523","bdp_sd","Sun Mar 26 2023 09:11:39 GMT-0500 (Central Daylight Time)","103402","","null","","","","","offerFB","","<div class='trialBorder'><div class='vertical-center'><img style='vertical-align:center; align:center' src=img/fixation3.jpg></div><div class='cl'><div class='vertical-center'>$80<br>for<br>Tianamen S</div></div><div class='cr'><div class='vertical-center'><font style='color:orange'>$78<br>for<br>yourself</font></div></div><div class='respDivL'><div class='vertical-center'>(E)</div></div><div class='respDivR'><div class='vertical-center'><font style='color:orange'>(I)</font></div></div></div>","null","$78<br>for<br>yourself","$80<br>for<br>5","1","78","80","5",""
"html-keyboard-response","8","64420","0.0-6.0-1.1","63d80145d2f0da3ee6a8d523","bdp_sd","Sun Mar 26 2023 09:11:39 GMT-0500 (Central Daylight Time)","103402","","null","","","","","FIX","","<div class='trialBorder'><div class='vertical-center'><img style='vertical-align:center; align:center' src=img/fixation3.jpg></div></div>","null","","","","","","",""
"html-keyboard-response","9","65825","0.0-6.0-2.1","63d80145d2f0da3ee6a8d523","bdp_sd","Sun Mar 26 2023 09:11:39 GMT-0500 (Central Daylight Time)","103402","","1405","","","","","offer","","<div class='trialBorder'><div class='vertical-center'><img style='vertical-align:center; align:center' src=img/fixation3.jpg></div><div class='cl'><div class='vertical-center'>$54<br>for<br>yourself</div></div><div class='cr'><div class='vertical-center'>$80<br>for<br>Nicky G</div></div><div class='respDivL'><div class='vertical-center'>(E)</div></div><div class='respDivR'><div class='vertical-center'>(I)</div></div></div>","E","$54<br>for<br>yourself","$80<br>for<br>3","0","54","80","3","SELF"
"html-keyboard-response","10","66076","0.0-6.0-3.1","63d80145d2f0da3ee6a8d523","bdp_sd","Sun Mar 26 2023 09:11:39 GMT-0500 (Central Daylight Time)","103402","","null","","","","","offerFB","","<div class='trialBorder'><div class='vertical-center'><img style='vertical-align:center; align:center' src=img/fixation3.jpg></div><div class='cl'><div class='vertical-center'><font style='color:orange'>$54<br>for<br>yourself</font></div></div><div class='cr'><div class='vertical-center'>$80<br>for<br>Nicky G</div></div><div class='respDivL'><div class='vertical-center'><font style='color:orange'>(E)</font></div></div><div class='respDivR'><div class='vertical-center'>(I)</div></div></div>","null","$54<br>for<br>yourself","$80<br>for<br>3","0","54","80","3",""
"html-keyboard-response","11","66578","0.0-6.0-1.2","63d80145d2f0da3ee6a8d523","bdp_sd","Sun Mar 26 2023 09:11:39 GMT-0500 (Central Daylight Time)","103402","","null","","","","","FIX","","<div class='trialBorder'><div class='vertical-center'><img style='vertical-align:center; align:center' src=img/fixation3.jpg></div></div>","null","","","","","","",""
"html-keyboard-response","12","67554","0.0-6.0-2.2","63d80145d2f0da3ee6a8d523","bdp_sd","Sun Mar 26 2023 09:11:39 GMT-0500 (Central Daylight Time)","103402","","976","","","","","offer","","<div class='trialBorder'><div class='vertical-center'><img style='vertical-align:center; align:center' src=img/fixation3.jpg></div><div class='cl'><div class='vertical-center'>$67<br>for<br>yourself</div></div><div class='cr'><div class='vertical-center'>$75<br>for<br>Tianamen S</div></div><div class='respDivL'><div class='vertical-center'>(E)</div></div><div class='respDivR'><div class='vertical-center'>(I)</div></div></div>","E","$67<br>for<br>yourself","$75<br>for<br>5","0","67","75","5","SELF"
"html-keyboard-response","13","67805","0.0-6.0-3.2","63d80145d2f0da3ee6a8d523","bdp_sd","Sun Mar 26 2023 09:11:39 GMT-0500 (Central Daylight Time)","103402","","null","","","","","offerFB","","<div class='trialBorder'><div class='vertical-center'><img style='vertical-align:center; align:center' src=img/fixation3.jpg></div><div class='cl'><div class='vertical-center'><font style='color:orange'>$67<br>for<br>yourself</font></div></div><div class='cr'><div class='vertical-center'>$75<br>for<br>Tianamen S</div></div><div class='respDivL'><div class='vertical-center'><font style='color:orange'>(E)</font></div></div><div class='respDivR'><div class='vertical-center'>(I)</div></div></div>","null","$67<br>for<br>yourself","$75<br>for<br>5","0","67","75","5",""
"html-keyboard-response","14","68306","0.0-6.0-1.3","63d80145d2f0da3ee6a8d523","bdp_sd","Sun Mar 26 2023 09:11:39 GMT-0500 (Central Daylight Time)","103402","","null","","","","","FIX","","<div class='trialBorder'><div class='vertical-center'><img style='vertical-align:center; align:center' src=img/fixation3.jpg></div></div>","null","","","","","","",""
"html-keyboard-response","15","69025","0.0-6.0-2.3","63d80145d2f0da3ee6a8d523","bdp_sd","Sun Mar 26 2023 09:11:39 GMT-0500 (Central Daylight Time)","103402","","719","","","","","offer","","<div class='trialBorder'><div class='vertical-center'><img style='vertical-align:center; align:center' src=img/fixation3.jpg></div><div class='cl'><div class='vertical-center'>$60<br>for<br>Nicky G</div></div><div class='cr'><div class='vertical-center'>$25<br>for<br>yourself</div></div><div class='respDivL'><div class='vertical-center'>(E)</div></div><div class='respDivR'><div class='vertical-center'>(I)</div></div></div>","I","$25<br>for<br>yourself","$60<br>for<br>3","1","25","60","3","SELF"
"html-keyboard-response","16","69276","0.0-6.0-3.3","63d80145d2f0da3ee6a8d523","bdp_sd","Sun Mar 26 2023 09:11:39 GMT-0500 (Central Daylight Time)","103402","","null","","","","","offerFB","","<div class='trialBorder'><div class='vertical-center'><img style='vertical-align:center; align:center' src=img/fixation3.jpg></div><div class='cl'><div class='vertical-center'>$60<br>for<br>Nicky G</div></div><div class='cr'><div class='vertical-center'><font style='color:orange'>$25<br>for<br>yourself</font></div></div><div class='respDivL'><div class='vertical-center'>(E)</div></div><div class='respDivR'><div class='vertical-center'><font style='color:orange'>(I)</font></div></div></div>","null","$25<br>for<br>yourself","$60<br>for<br>3","1","25","60","3",""
"html-keyboard-response","17","69777","0.0-6.0-1.4","63d80145d2f0da3ee6a8d523","bdp_sd","Sun Mar 26 2023 09:11:39 GMT-0500 (Central Daylight Time)","103402","","null","","","","","FIX","","<div class='trialBorder'><div class='vertical-center'><img style='vertical-align:center; align:center' src=img/fixation3.jpg></div></div>","null","","","","","","",""
"html-keyboard-response","18","70364","0.0-6.0-2.4","63d80145d2f0da3ee6a8d523","bdp_sd","Sun Mar 26 2023 09:11:39 GMT-0500 (Central Daylight Time)","103402","","586","","","","","offer","","<div class='trialBorder'><div class='vertical-center'><img style='vertical-align:center; align:center' src=img/fixation3.jpg></div><div class='cl'><div class='vertical-center'>$41<br>for<br>yourself</div></div><div class='cr'><div class='vertical-center'>$75<br>for<br>Nicky G</div></div><div class='respDivL'><div class='vertical-center'>(E)</div></div><div class='respDivR'><div class='vertical-center'>(I)</div></div></div>","E","$41<br>for<br>yourself","$75<br>for<br>3","0","41","75","3","SELF"
"html-keyboard-response","19","70615","0.0-6.0-3.4","63d80145d2f0da3ee6a8d523","bdp_sd","Sun Mar 26 2023 09:11:39 GMT-0500 (Central Daylight Time)","103402","","null","","","","","offerFB","","<div class='trialBorder'><div class='vertical-center'><img style='vertical-align:center; align:center' src=img/fixation3.jpg></div><div class='cl'><div class='vertical-center'><font style='color:orange'>$41<br>for<br>yourself</font></div></div><div class='cr'><div class='vertical-center'>$75<br>for<br>Nicky G</div></div><div class='respDivL'><div class='vertical-center'><font style='color:orange'>(E)</font></div></div><div class='respDivR'><div class='vertical-center'>(I)</div></div></div>","null","$41<br>for<br>yourself","$75<br>for<br>3","0","41","75","3",""
"html-keyboard-response","20","71117","0.0-6.0-1.5","63d80145d2f0da3ee6a8d523","bdp_sd","Sun Mar 26 2023 09:11:39 GMT-0500 (Central Daylight Time)","103402","","null","","","","","FIX","","<div class='trialBorder'><div class='vertical-center'><img style='vertical-align:center; align:center' src=img/fixation3.jpg></div></div>","null","","","","","","",""
"html-keyboard-response","21","71783","0.0-6.0-2.5","63d80145d2f0da3ee6a8d523","bdp_sd","Sun Mar 26 2023 09:11:39 GMT-0500 (Central Daylight Time)","103402","","666","","","","","offer","","<div class='trialBorder'><div class='vertical-center'><img style='vertical-align:center; align:center' src=img/fixation3.jpg></div><div class='cl'><div class='vertical-center'>$27<br>for<br>yourself</div></div><div class='cr'><div class='vertical-center'>$50<br>for<br>Nicky G</div></div><div class='respDivL'><div class='vertical-center'>(E)</div></div><div class='respDivR'><div class='vertical-center'>(I)</div></div></div>","E","$27<br>for<br>yourself","$50<br>for<br>3","0","27","50","3","SELF"
"html-keyboard-response","22","72034","0.0-6.0-3.5","63d80145d2f0da3ee6a8d523","bdp_sd","Sun Mar 26 2023 09:11:39 GMT-0500 (Central Daylight Time)","103402","","null","","","","","offerFB","","<div class='trialBorder'><div class='vertical-center'><img style='vertical-align:center; align:center' src=img/fixation3.jpg></div><div class='cl'><div class='vertical-center'><font style='color:orange'>$27<br>for<br>yourself</font></div></div><div class='cr'><div class='vertical-center'>$50<br>for<br>Nicky G</div></div><div class='respDivL'><div class='vertical-center'><font style='color:orange'>(E)</font></div></div><div class='respDivR'><div class='vertical-center'>(I)</div></div></div>","null","$27<br>for<br>yourself","$50<br>for<br>3","0","27","50","3",""
"html-keyboard-response","23","72535","0.0-6.0-1.6","63d80145d2f0da3ee6a8d523","bdp_sd","Sun Mar 26 2023 09:11:39 GMT-0500 (Central Daylight Time)","103402","","null","","","","","FIX","","<div class='trialBorder'><div class='vertical-center'><img style='vertical-align:center; align:center' src=img/fixation3.jpg></div></div>","null","","","","","","",""
"html-keyboard-response","24","72996","0.0-6.0-2.6","63d80145d2f0da3ee6a8d523","bdp_sd","Sun Mar 26 2023 09:11:39 GMT-0500 (Central Daylight Time)","103402","","459","","","","","offer","","<div class='trialBorder'><div class='vertical-center'><img style='vertical-align:center; align:center' src=img/fixation3.jpg></div><div class='cl'><div class='vertical-center'>$25<br>for<br>Nicky G</div></div><div class='cr'><div class='vertical-center'>$14<br>for<br>yourself</div></div><div class='respDivL'><div class='vertical-center'>(E)</div></div><div class='respDivR'><div class='vertical-center'>(I)</div></div></div>","I","$14<br>for<br>yourself","$25<br>for<br>3","1","14","25","3","SELF"
"html-keyboard-response","25","73247","0.0-6.0-3.6","63d80145d2f0da3ee6a8d523","bdp_sd","Sun Mar 26 2023 09:11:39 GMT-0500 (Central Daylight Time)","103402","","null","","","","","offerFB","","<div class='trialBorder'><div class='vertical-center'><img style='vertical-align:center; align:center' src=img/fixation3.jpg></div><div class='cl'><div class='vertical-center'>$25<br>for<br>Nicky G</div></div><div class='cr'><div class='vertical-center'><font style='color:orange'>$14<br>for<br>yourself</font></div></div><div class='respDivL'><div class='vertical-center'>(E)</div></div><div class='respDivR'><div class='vertical-center'><font style='color:orange'>(I)</font></div></div></div>","null","$14<br>for<br>yourself","$25<br>for<br>3","1","14","25","3",""
"html-keyboard-response","26","73748","0.0-6.0-1.7","63d80145d2f0da3ee6a8d523","bdp_sd","Sun Mar 26 2023 09:11:39 GMT-0500 (Central Daylight Time)","103402","","null","","","","","FIX","","<div class='trialBorder'><div class='vertical-center'><img style='vertical-align:center; align:center' src=img/fixation3.jpg></div></div>","null","","","","","","",""
"html-keyboard-response","27","74327","0.0-6.0-2.7","63d80145d2f0da3ee6a8d523","bdp_sd","Sun Mar 26 2023 09:11:39 GMT-0500 (Central Daylight Time)","103402","","578","","","","","offer","","<div class='trialBorder'><div class='vertical-center'><img style='vertical-align:center; align:center' src=img/fixation3.jpg></div><div class='cl'><div class='vertical-center'>$25<br>for<br>yourself</div></div><div class='cr'><div class='vertical-center'>$30<br>for<br>Micky G</div></div><div class='respDivL'><div class='vertical-center'>(E)</div></div><div class='respDivR'><div class='vertical-center'>(I)</div></div></div>","E","$25<br>for<br>yourself","$30<br>for<br>4","0","25","30","4","SELF"
"html-keyboard-response","28","74578","0.0-6.0-3.7","63d80145d2f0da3ee6a8d523","bdp_sd","Sun Mar 26 2023 09:11:39 GMT-0500 (Central Daylight Time)","103402","","null","","","","","offerFB","","<div class='trialBorder'><div class='vertical-center'><img style='vertical-align:center; align:center' src=img/fixation3.jpg></div><div class='cl'><div class='vertical-center'><font style='color:orange'>$25<br>for<br>yourself</font></div></div><div class='cr'><div class='vertical-center'>$30<br>for<br>Micky G</div></div><div class='respDivL'><div class='vertical-center'><font style='color:orange'>(E)</font></div></div><div class='respDivR'><div class='vertical-center'>(I)</div></div></div>","null","$25<br>for<br>yourself","$30<br>for<br>4","0","25","30","4",""
"html-keyboard-response","29","75080","0.0-6.0-1.8","63d80145d2f0da3ee6a8d523","bdp_sd","Sun Mar 26 2023 09:11:39 GMT-0500 (Central Daylight Time)","103402","","null","","","","","FIX","","<div class='trialBorder'><div class='vertical-center'><img style='vertical-align:center; align:center' src=img/fixation3.jpg></div></div>","null","","","","","","",""
"html-keyboard-response","30","75892","0.0-6.0-2.8","63d80145d2f0da3ee6a8d523","bdp_sd","Sun Mar 26 2023 09:11:39 GMT-0500 (Central Daylight Time)","103402","","811","","","","","offer","","<div class='trialBorder'><div class='vertical-center'><img style='vertical-align:center; align:center' src=img/fixation3.jpg></div><div class='cl'><div class='vertical-center'>$80<br>for<br>yourself</div></div><div class='cr'><div class='vertical-center'>$85<br>for<br>Tianamen S</div></div><div class='respDivL'><div class='vertical-center'>(E)</div></div><div class='respDivR'><div class='vertical-center'>(I)</div></div></div>","E","$80<br>for<br>yourself","$85<br>for<br>5","0","80","85","5","SELF"
"html-keyboard-response","31","76143","0.0-6.0-3.8","63d80145d2f0da3ee6a8d523","bdp_sd","Sun Mar 26 2023 09:11:39 GMT-0500 (Central Daylight Time)","103402","","null","","","","","offerFB","","<div class='trialBorder'><div class='vertical-center'><img style='vertical-align:center; align:center' src=img/fixation3.jpg></div><div class='cl'><div class='vertical-center'><font style='color:orange'>$80<br>for<br>yourself</font></div></div><div class='cr'><div class='vertical-center'>$85<br>for<br>Tianamen S</div></div><div class='respDivL'><div class='vertical-center'><font style='color:orange'>(E)</font></div></div><div class='respDivR'><div class='vertical-center'>(I)</div></div></div>","null","$80<br>for<br>yourself","$85<br>for<br>5","0","80","85","5",""
"html-keyboard-response","32","76644","0.0-6.0-1.9","63d80145d2f0da3ee6a8d523","bdp_sd","Sun Mar 26 2023 09:11:39 GMT-0500 (Central Daylight Time)","103402","","null","","","","","FIX","","<div class='trialBorder'><div class='vertical-center'><img style='vertical-align:center; align:center' src=img/fixation3.jpg></div></div>","null","","","","","","",""
"html-keyboard-response","33","77278","0.0-6.0-2.9","63d80145d2f0da3ee6a8d523","bdp_sd","Sun Mar 26 2023 09:11:39 GMT-0500 (Central Daylight Time)","103402","","633","","","","","offer","","<div class='trialBorder'><div class='vertical-center'><img style='vertical-align:center; align:center' src=img/fixation3.jpg></div><div class='cl'><div class='vertical-center'>$35<br>for<br>Tianamen S</div></div><div class='cr'><div class='vertical-center'>$34<br>for<br>yourself</div></div><div class='respDivL'><div class='vertical-center'>(E)</div></div><div class='respDivR'><div class='vertical-center'>(I)</div></div></div>","I","$34<br>for<br>yourself","$35<br>for<br>5","1","34","35","5","SELF"
"html-keyboard-response","34","77531","0.0-6.0-3.9","63d80145d2f0da3ee6a8d523","bdp_sd","Sun Mar 26 2023 09:11:39 GMT-0500 (Central Daylight Time)","103402","","null","","","","","offerFB","","<div class='trialBorder'><div class='vertical-center'><img style='vertical-align:center; align:center' src=img/fixation3.jpg></div><div class='cl'><div class='vertical-center'>$35<br>for<br>Tianamen S</div></div><div class='cr'><div class='vertical-center'><font style='color:orange'>$34<br>for<br>yourself</font></div></div><div class='respDivL'><div class='vertical-center'>(E)</div></div><div class='respDivR'><div class='vertical-center'><font style='color:orange'>(I)</font></div></div></div>","null","$34<br>for<br>yourself","$35<br>for<br>5","1","34","35","5",""
"html-keyboard-response","35","78032","0.0-6.0-1.10","63d80145d2f0da3ee6a8d523","bdp_sd","Sun Mar 26 2023 09:11:39 GMT-0500 (Central Daylight Time)","103402","","null","","","","","FIX","","<div class='trialBorder'><div class='vertical-center'><img style='vertical-align:center; align:center' src=img/fixation3.jpg></div></div>","null","","","","","","",""
"html-keyboard-response","36","79084","0.0-6.0-2.10","63d80145d2f0da3ee6a8d523","bdp_sd","Sun Mar 26 2023 09:11:39 GMT-0500 (Central Daylight Time)","103402","","1050","","","","","offer","","<div class='trialBorder'><div class='vertical-center'><img style='vertical-align:center; align:center' src=img/fixation3.jpg></div><div class='cl'><div class='vertical-center'>$54<br>for<br>yourself</div></div><div class='cr'><div class='vertical-center'>$60<br>for<br>Tianamen S</div></div><div class='respDivL'><div class='vertical-center'>(E)</div></div><div class='respDivR'><div class='vertical-center'>(I)</div></div></div>","E","$54<br>for<br>yourself","$60<br>for<br>5","0","54","60","5","SELF"
"html-keyboard-response","37","79335","0.0-6.0-3.10","63d80145d2f0da3ee6a8d523","bdp_sd","Sun Mar 26 2023 09:11:39 GMT-0500 (Central Daylight Time)","103402","","null","","","","","offerFB","","<div class='trialBorder'><div class='vertical-center'><img style='vertical-align:center; align:center' src=img/fixation3.jpg></div><div class='cl'><div class='vertical-center'><font style='color:orange'>$54<br>for<br>yourself</font></div></div><div class='cr'><div class='vertical-center'>$60<br>for<br>Tianamen S</div></div><div class='respDivL'><div class='vertical-center'><font style='color:orange'>(E)</font></div></div><div class='respDivR'><div class='vertical-center'>(I)</div></div></div>","null","$54<br>for<br>yourself","$60<br>for<br>5","0","54","60","5",""
"html-keyboard-response","38","79836","0.0-6.0-1.11","63d80145d2f0da3ee6a8d523","bdp_sd","Sun Mar 26 2023 09:11:39 GMT-0500 (Central Daylight Time)","103402","","null","","","","","FIX","","<div class='trialBorder'><div class='vertical-center'><img style='vertical-align:center; align:center' src=img/fixation3.jpg></div></div>","null","","","","","","",""
"html-keyboard-response","39","80410","0.0-6.0-2.11","63d80145d2f0da3ee6a8d523","bdp_sd","Sun Mar 26 2023 09:11:39 GMT-0500 (Central Daylight Time)","103402","","574","","","","","offer","","<div class='trialBorder'><div class='vertical-center'><img style='vertical-align:center; align:center' src=img/fixation3.jpg></div><div class='cl'><div class='vertical-center'>$35<br>for<br>Nicholas G</div></div><div class='cr'><div class='vertical-center'>$15<br>for<br>yourself</div></div><div class='respDivL'><div class='vertical-center'>(E)</div></div><div class='respDivR'><div class='vertical-center'>(I)</div></div></div>","I","$15<br>for<br>yourself","$35<br>for<br>2","1","15","35","2","SELF"
"html-keyboard-response","40","80662","0.0-6.0-3.11","63d80145d2f0da3ee6a8d523","bdp_sd","Sun Mar 26 2023 09:11:39 GMT-0500 (Central Daylight Time)","103402","","null","","","","","offerFB","","<div class='trialBorder'><div class='vertical-center'><img style='vertical-align:center; align:center' src=img/fixation3.jpg></div><div class='cl'><div class='vertical-center'>$35<br>for<br>Nicholas G</div></div><div class='cr'><div class='vertical-center'><font style='color:orange'>$15<br>for<br>yourself</font></div></div><div class='respDivL'><div class='vertical-center'>(E)</div></div><div class='respDivR'><div class='vertical-center'><font style='color:orange'>(I)</font></div></div></div>","null","$15<br>for<br>yourself","$35<br>for<br>2","1","15","35","2",""
"html-keyboard-response","41","81163","0.0-6.0-1.12","63d80145d2f0da3ee6a8d523","bdp_sd","Sun Mar 26 2023 09:11:39 GMT-0500 (Central Daylight Time)","103402","","null","","","","","FIX","","<div class='trialBorder'><div class='vertical-center'><img style='vertical-align:center; align:center' src=img/fixation3.jpg></div></div>","null","","","","","","",""
"html-keyboard-response","42","81752","0.0-6.0-2.12","63d80145d2f0da3ee6a8d523","bdp_sd","Sun Mar 26 2023 09:11:39 GMT-0500 (Central Daylight Time)","103402","","587","","","","","offer","","<div class='trialBorder'><div class='vertical-center'><img style='vertical-align:center; align:center' src=img/fixation3.jpg></div><div class='cl'><div class='vertical-center'>$22<br>for<br>yourself</div></div><div class='cr'><div class='vertical-center'>$25<br>for<br>Tianamen S</div></div><div class='respDivL'><div class='vertical-center'>(E)</div></div><div class='respDivR'><div class='vertical-center'>(I)</div></div></div>","E","$22<br>for<br>yourself","$25<br>for<br>5","0","22","25","5","SELF"
"html-keyboard-response","43","82003","0.0-6.0-3.12","63d80145d2f0da3ee6a8d523","bdp_sd","Sun Mar 26 2023 09:11:39 GMT-0500 (Central Daylight Time)","103402","","null","","","","","offerFB","","<div class='trialBorder'><div class='vertical-center'><img style='vertical-align:center; align:center' src=img/fixation3.jpg></div><div class='cl'><div class='vertical-center'><font style='color:orange'>$22<br>for<br>yourself</font></div></div><div class='cr'><div class='vertical-center'>$25<br>for<br>Tianamen S</div></div><div class='respDivL'><div class='vertical-center'><font style='color:orange'>(E)</font></div></div><div class='respDivR'><div class='vertical-center'>(I)</div></div></div>","null","$22<br>for<br>yourself","$25<br>for<br>5","0","22","25","5",""
"html-keyboard-response","44","82504","0.0-6.0-1.13","63d80145d2f0da3ee6a8d523","bdp_sd","Sun Mar 26 2023 09:11:39 GMT-0500 (Central Daylight Time)","103402","","null","","","","","FIX","","<div class='trialBorder'><div class='vertical-center'><img style='vertical-align:center; align:center' src=img/fixation3.jpg></div></div>","null","","","","","","",""
"html-keyboard-response","45","83020","0.0-6.0-2.13","63d80145d2f0da3ee6a8d523","bdp_sd","Sun Mar 26 2023 09:11:39 GMT-0500 (Central Daylight Time)","103402","","515","","","","","offer","","<div class='trialBorder'><div class='vertical-center'><img style='vertical-align:center; align:center' src=img/fixation3.jpg></div><div class='cl'><div class='vertical-center'>$75<br>for<br>Micky G</div></div><div class='cr'><div class='vertical-center'>$55<br>for<br>yourself</div></div><div class='respDivL'><div class='vertical-center'>(E)</div></div><div class='respDivR'><div class='vertical-center'>(I)</div></div></div>","I","$55<br>for<br>yourself","$75<br>for<br>4","1","55","75","4","SELF"
"html-keyboard-response","46","83271","0.0-6.0-3.13","63d80145d2f0da3ee6a8d523","bdp_sd","Sun Mar 26 2023 09:11:39 GMT-0500 (Central Daylight Time)","103402","","null","","","","","offerFB","","<div class='trialBorder'><div class='vertical-center'><img style='vertical-align:center; align:center' src=img/fixation3.jpg></div><div class='cl'><div class='vertical-center'>$75<br>for<br>Micky G</div></div><div class='cr'><div class='vertical-center'><font style='color:orange'>$55<br>for<br>yourself</font></div></div><div class='respDivL'><div class='vertical-center'>(E)</div></div><div class='respDivR'><div class='vertical-center'><font style='color:orange'>(I)</font></div></div></div>","null","$55<br>for<br>yourself","$75<br>for<br>4","1","55","75","4",""
"html-keyboard-response","47","83773","0.0-6.0-1.14","63d80145d2f0da3ee6a8d523","bdp_sd","Sun Mar 26 2023 09:11:39 GMT-0500 (Central Daylight Time)","103402","","null","","","","","FIX","","<div class='trialBorder'><div class='vertical-center'><img style='vertical-align:center; align:center' src=img/fixation3.jpg></div></div>","null","","","","","","",""
"html-keyboard-response","48","84421","0.0-6.0-2.14","63d80145d2f0da3ee6a8d523","bdp_sd","Sun Mar 26 2023 09:11:39 GMT-0500 (Central Daylight Time)","103402","","648","","","","","offer","","<div class='trialBorder'><div class='vertical-center'><img style='vertical-align:center; align:center' src=img/fixation3.jpg></div><div class='cl'><div class='vertical-center'>$25<br>for<br>Micky G</div></div><div class='cr'><div class='vertical-center'>$19<br>for<br>yourself</div></div><div class='respDivL'><div class='vertical-center'>(E)</div></div><div class='respDivR'><div class='vertical-center'>(I)</div></div></div>","I","$19<br>for<br>yourself","$25<br>for<br>4","1","19","25","4","SELF"
"html-keyboard-response","49","84673","0.0-6.0-3.14","63d80145d2f0da3ee6a8d523","bdp_sd","Sun Mar 26 2023 09:11:39 GMT-0500 (Central Daylight Time)","103402","","null","","","","","offerFB","","<div class='trialBorder'><div class='vertical-center'><img style='vertical-align:center; align:center' src=img/fixation3.jpg></div><div class='cl'><div class='vertical-center'>$25<br>for<br>Micky G</div></div><div class='cr'><div class='vertical-center'><font style='color:orange'>$19<br>for<br>yourself</font></div></div><div class='respDivL'><div class='vertical-center'>(E)</div></div><div class='respDivR'><div class='vertical-center'><font style='color:orange'>(I)</font></div></div></div>","null","$19<br>for<br>yourself","$25<br>for<br>4","1","19","25","4",""
"html-keyboard-response","50","85174","0.0-6.0-1.15","63d80145d2f0da3ee6a8d523","bdp_sd","Sun Mar 26 2023 09:11:39 GMT-0500 (Central Daylight Time)","103402","","null","","","","","FIX","","<div class='trialBorder'><div class='vertical-center'><img style='vertical-align:center; align:center' src=img/fixation3.jpg></div></div>","null","","","","","","",""
"html-keyboard-response","51","86220","0.0-6.0-2.15","63d80145d2f0da3ee6a8d523","bdp_sd","Sun Mar 26 2023 09:11:39 GMT-0500 (Central Daylight Time)","103402","","1045","","","","","offer","","<div class='trialBorder'><div class='vertical-center'><img style='vertical-align:center; align:center' src=img/fixation3.jpg></div><div class='cl'><div class='vertical-center'>$69<br>for<br>yourself</div></div><div class='cr'><div class='vertical-center'>$85<br>for<br>Micky G</div></div><div class='respDivL'><div class='vertical-center'>(E)</div></div><div class='respDivR'><div class='vertical-center'>(I)</div></div></div>","E","$69<br>for<br>yourself","$85<br>for<br>4","0","69","85","4","SELF"
"html-keyboard-response","52","86472","0.0-6.0-3.15","63d80145d2f0da3ee6a8d523","bdp_sd","Sun Mar 26 2023 09:11:39 GMT-0500 (Central Daylight Time)","103402","","null","","","","","offerFB","","<div class='trialBorder'><div class='vertical-center'><img style='vertical-align:center; align:center' src=img/fixation3.jpg></div><div class='cl'><div class='vertical-center'><font style='color:orange'>$69<br>for<br>yourself</font></div></div><div class='cr'><div class='vertical-center'>$85<br>for<br>Micky G</div></div><div class='respDivL'><div class='vertical-center'><font style='color:orange'>(E)</font></div></div><div class='respDivR'><div class='vertical-center'>(I)</div></div></div>","null","$69<br>for<br>yourself","$85<br>for<br>4","0","69","85","4",""
"html-keyboard-response","53","86973","0.0-6.0-1.16","63d80145d2f0da3ee6a8d523","bdp_sd","Sun Mar 26 2023 09:11:39 GMT-0500 (Central Daylight Time)","103402","","null","","","","","FIX","","<div class='trialBorder'><div class='vertical-center'><img style='vertical-align:center; align:center' src=img/fixation3.jpg></div></div>","null","","","","","","",""
"html-keyboard-response","54","87571","0.0-6.0-2.16","63d80145d2f0da3ee6a8d523","bdp_sd","Sun Mar 26 2023 09:11:39 GMT-0500 (Central Daylight Time)","103402","","598","","","","","offer","","<div class='trialBorder'><div class='vertical-center'><img style='vertical-align:center; align:center' src=img/fixation3.jpg></div><div class='cl'><div class='vertical-center'>$50<br>for<br>Tianamen S</div></div><div class='cr'><div class='vertical-center'>$47<br>for<br>yourself</div></div><div class='respDivL'><div class='vertical-center'>(E)</div></div><div class='respDivR'><div class='vertical-center'>(I)</div></div></div>","I","$47<br>for<br>yourself","$50<br>for<br>5","1","47","50","5","SELF"
"html-keyboard-response","55","87823","0.0-6.0-3.16","63d80145d2f0da3ee6a8d523","bdp_sd","Sun Mar 26 2023 09:11:39 GMT-0500 (Central Daylight Time)","103402","","null","","","","","offerFB","","<div class='trialBorder'><div class='vertical-center'><img style='vertical-align:center; align:center' src=img/fixation3.jpg></div><div class='cl'><div class='vertical-center'>$50<br>for<br>Tianamen S</div></div><div class='cr'><div class='vertical-center'><font style='color:orange'>$47<br>for<br>yourself</font></div></div><div class='respDivL'><div class='vertical-center'>(E)</div></div><div class='respDivR'><div class='vertical-center'><font style='color:orange'>(I)</font></div></div></div>","null","$47<br>for<br>yourself","$50<br>for<br>5","1","47","50","5",""
"html-keyboard-response","56","88324","0.0-6.0-1.17","63d80145d2f0da3ee6a8d523","bdp_sd","Sun Mar 26 2023 09:11:39 GMT-0500 (Central Daylight Time)","103402","","null","","","","","FIX","","<div class='trialBorder'><div class='vertical-center'><img style='vertical-align:center; align:center' src=img/fixation3.jpg></div></div>","null","","","","","","",""
"html-keyboard-response","57","89284","0.0-6.0-2.17","63d80145d2f0da3ee6a8d523","bdp_sd","Sun Mar 26 2023 09:11:39 GMT-0500 (Central Daylight Time)","103402","","958","","","","","offer","","<div class='trialBorder'><div class='vertical-center'><img style='vertical-align:center; align:center' src=img/fixation3.jpg></div><div class='cl'><div class='vertical-center'>$33<br>for<br>yourself</div></div><div class='cr'><div class='vertical-center'>$80<br>for<br>Nicholas G</div></div><div class='respDivL'><div class='vertical-center'>(E)</div></div><div class='respDivR'><div class='vertical-center'>(I)</div></div></div>","E","$33<br>for<br>yourself","$80<br>for<br>2","0","33","80","2","SELF"
"html-keyboard-response","58","89534","0.0-6.0-3.17","63d80145d2f0da3ee6a8d523","bdp_sd","Sun Mar 26 2023 09:11:39 GMT-0500 (Central Daylight Time)","103402","","null","","","","","offerFB","","<div class='trialBorder'><div class='vertical-center'><img style='vertical-align:center; align:center' src=img/fixation3.jpg></div><div class='cl'><div class='vertical-center'><font style='color:orange'>$33<br>for<br>yourself</font></div></div><div class='cr'><div class='vertical-center'>$80<br>for<br>Nicholas G</div></div><div class='respDivL'><div class='vertical-center'><font style='color:orange'>(E)</font></div></div><div class='respDivR'><div class='vertical-center'>(I)</div></div></div>","null","$33<br>for<br>yourself","$80<br>for<br>2","0","33","80","2",""
"html-keyboard-response","59","90036","0.0-6.0-1.18","63d80145d2f0da3ee6a8d523","bdp_sd","Sun Mar 26 2023 09:11:39 GMT-0500 (Central Daylight Time)","103402","","null","","","","","FIX","","<div class='trialBorder'><div class='vertical-center'><img style='vertical-align:center; align:center' src=img/fixation3.jpg></div></div>","null","","","","","","",""
"html-keyboard-response","60","91089","0.0-6.0-2.18","63d80145d2f0da3ee6a8d523","bdp_sd","Sun Mar 26 2023 09:11:39 GMT-0500 (Central Daylight Time)","103402","","1053","","","","","offer","","<div class='trialBorder'><div class='vertical-center'><img style='vertical-align:center; align:center' src=img/fixation3.jpg></div><div class='cl'><div class='vertical-center'>$28<br>for<br>yourself</div></div><div class='cr'><div class='vertical-center'>$30<br>for<br>Tianamen S</div></div><div class='respDivL'><div class='vertical-center'>(E)</div></div><div class='respDivR'><div class='vertical-center'>(I)</div></div></div>","E","$28<br>for<br>yourself","$30<br>for<br>5","0","28","30","5","SELF"
"html-keyboard-response","61","91341","0.0-6.0-3.18","63d80145d2f0da3ee6a8d523","bdp_sd","Sun Mar 26 2023 09:11:39 GMT-0500 (Central Daylight Time)","103402","","null","","","","","offerFB","","<div class='trialBorder'><div class='vertical-center'><img style='vertical-align:center; align:center' src=img/fixation3.jpg></div><div class='cl'><div class='vertical-center'><font style='color:orange'>$28<br>for<br>yourself</font></div></div><div class='cr'><div class='vertical-center'>$30<br>for<br>Tianamen S</div></div><div class='respDivL'><div class='vertical-center'><font style='color:orange'>(E)</font></div></div><div class='respDivR'><div class='vertical-center'>(I)</div></div></div>","null","$28<br>for<br>yourself","$30<br>for<br>5","0","28","30","5",""
"html-keyboard-response","62","91842","0.0-6.0-1.19","63d80145d2f0da3ee6a8d523","bdp_sd","Sun Mar 26 2023 09:11:39 GMT-0500 (Central Daylight Time)","103402","","null","","","","","FIX","","<div class='trialBorder'><div class='vertical-center'><img style='vertical-align:center; align:center' src=img/fixation3.jpg></div></div>","null","","","","","","",""
"html-keyboard-response","63","92493","0.0-6.0-2.19","63d80145d2f0da3ee6a8d523","bdp_sd","Sun Mar 26 2023 09:11:39 GMT-0500 (Central Daylight Time)","103402","","650","","","","","offer","","<div class='trialBorder'><div class='vertical-center'><img style='vertical-align:center; align:center' src=img/fixation3.jpg></div><div class='cl'><div class='vertical-center'>$30<br>for<br>Nicholas G</div></div><div class='cr'><div class='vertical-center'>$11<br>for<br>yourself</div></div><div class='respDivL'><div class='vertical-center'>(E)</div></div><div class='respDivR'><div class='vertical-center'>(I)</div></div></div>","I","$11<br>for<br>yourself","$30<br>for<br>2","1","11","30","2","SELF"
"html-keyboard-response","64","92744","0.0-6.0-3.19","63d80145d2f0da3ee6a8d523","bdp_sd","Sun Mar 26 2023 09:11:39 GMT-0500 (Central Daylight Time)","103402","","null","","","","","offerFB","","<div class='trialBorder'><div class='vertical-center'><img style='vertical-align:center; align:center' src=img/fixation3.jpg></div><div class='cl'><div class='vertical-center'>$30<br>for<br>Nicholas G</div></div><div class='cr'><div class='vertical-center'><font style='color:orange'>$11<br>for<br>yourself</font></div></div><div class='respDivL'><div class='vertical-center'>(E)</div></div><div class='respDivR'><div class='vertical-center'><font style='color:orange'>(I)</font></div></div></div>","null","$11<br>for<br>yourself","$30<br>for<br>2","1","11","30","2",""
"html-keyboard-response","65","93246","0.0-6.0-1.20","63d80145d2f0da3ee6a8d523","bdp_sd","Sun Mar 26 2023 09:11:39 GMT-0500 (Central Daylight Time)","103402","","null","","","","","FIX","","<div class='trialBorder'><div class='vertical-center'><img style='vertical-align:center; align:center' src=img/fixation3.jpg></div></div>","null","","","","","","",""
"html-keyboard-response","66","93826","0.0-6.0-2.20","63d80145d2f0da3ee6a8d523","bdp_sd","Sun Mar 26 2023 09:11:39 GMT-0500 (Central Daylight Time)","103402","","580","","","","","offer","","<div class='trialBorder'><div class='vertical-center'><img style='vertical-align:center; align:center' src=img/fixation3.jpg></div><div class='cl'><div class='vertical-center'>$55<br>for<br>David G</div></div><div class='cr'><div class='vertical-center'>$20<br>for<br>yourself</div></div><div class='respDivL'><div class='vertical-center'>(E)</div></div><div class='respDivR'><div class='vertical-center'>(I)</div></div></div>","I","$20<br>for<br>yourself","$55<br>for<br>1","1","20","55","1","SELF"
"html-keyboard-response","67","94077","0.0-6.0-3.20","63d80145d2f0da3ee6a8d523","bdp_sd","Sun Mar 26 2023 09:11:39 GMT-0500 (Central Daylight Time)","103402","","null","","","","","offerFB","","<div class='trialBorder'><div class='vertical-center'><img style='vertical-align:center; align:center' src=img/fixation3.jpg></div><div class='cl'><div class='vertical-center'>$55<br>for<br>David G</div></div><div class='cr'><div class='vertical-center'><font style='color:orange'>$20<br>for<br>yourself</font></div></div><div class='respDivL'><div class='vertical-center'>(E)</div></div><div class='respDivR'><div class='vertical-center'><font style='color:orange'>(I)</font></div></div></div>","null","$20<br>for<br>yourself","$55<br>for<br>1","1","20","55","1",""
"html-keyboard-response","68","94579","0.0-6.0-1.21","63d80145d2f0da3ee6a8d523","bdp_sd","Sun Mar 26 2023 09:11:39 GMT-0500 (Central Daylight Time)","103402","","null","","","","","FIX","","<div class='trialBorder'><div class='vertical-center'><img style='vertical-align:center; align:center' src=img/fixation3.jpg></div></div>","null","","","","","","",""
"html-keyboard-response","69","95065","0.0-6.0-2.21","63d80145d2f0da3ee6a8d523","bdp_sd","Sun Mar 26 2023 09:11:39 GMT-0500 (Central Daylight Time)","103402","","486","","","","","offer","","<div class='trialBorder'><div class='vertical-center'><img style='vertical-align:center; align:center' src=img/fixation3.jpg></div><div class='cl'><div class='vertical-center'>$55<br>for<br>Micky G</div></div><div class='cr'><div class='vertical-center'>$40<br>for<br>yourself</div></div><div class='respDivL'><div class='vertical-center'>(E)</div></div><div class='respDivR'><div class='vertical-center'>(I)</div></div></div>","I","$40<br>for<br>yourself","$55<br>for<br>4","1","40","55","4","SELF"
"html-keyboard-response","70","95317","0.0-6.0-3.21","63d80145d2f0da3ee6a8d523","bdp_sd","Sun Mar 26 2023 09:11:39 GMT-0500 (Central Daylight Time)","103402","","null","","","","","offerFB","","<div class='trialBorder'><div class='vertical-center'><img style='vertical-align:center; align:center' src=img/fixation3.jpg></div><div class='cl'><div class='vertical-center'>$55<br>for<br>Micky G</div></div><div class='cr'><div class='vertical-center'><font style='color:orange'>$40<br>for<br>yourself</font></div></div><div class='respDivL'><div class='vertical-center'>(E)</div></div><div class='respDivR'><div class='vertical-center'><font style='color:orange'>(I)</font></div></div></div>","null","$40<br>for<br>yourself","$55<br>for<br>4","1","40","55","4",""
"html-keyboard-response","71","95818","0.0-6.0-1.22","63d80145d2f0da3ee6a8d523","bdp_sd","Sun Mar 26 2023 09:11:39 GMT-0500 (Central Daylight Time)","103402","","null","","","","","FIX","","<div class='trialBorder'><div class='vertical-center'><img style='vertical-align:center; align:center' src=img/fixation3.jpg></div></div>","null","","","","","","",""
"html-keyboard-response","72","96232","0.0-6.0-2.22","63d80145d2f0da3ee6a8d523","bdp_sd","Sun Mar 26 2023 09:11:39 GMT-0500 (Central Daylight Time)","103402","","414","","","","","offer","","<div class='trialBorder'><div class='vertical-center'><img style='vertical-align:center; align:center' src=img/fixation3.jpg></div><div class='cl'><div class='vertical-center'>$54<br>for<br>yourself</div></div><div class='cr'><div class='vertical-center'>$55<br>for<br>Tianamen S</div></div><div class='respDivL'><div class='vertical-center'>(E)</div></div><div class='respDivR'><div class='vertical-center'>(I)</div></div></div>","E","$54<br>for<br>yourself","$55<br>for<br>5","0","54","55","5","SELF"
"html-keyboard-response","73","96484","0.0-6.0-3.22","63d80145d2f0da3ee6a8d523","bdp_sd","Sun Mar 26 2023 09:11:39 GMT-0500 (Central Daylight Time)","103402","","null","","","","","offerFB","","<div class='trialBorder'><div class='vertical-center'><img style='vertical-align:center; align:center' src=img/fixation3.jpg></div><div class='cl'><div class='vertical-center'><font style='color:orange'>$54<br>for<br>yourself</font></div></div><div class='cr'><div class='vertical-center'>$55<br>for<br>Tianamen S</div></div><div class='respDivL'><div class='vertical-center'><font style='color:orange'>(E)</font></div></div><div class='respDivR'><div class='vertical-center'>(I)</div></div></div>","null","$54<br>for<br>yourself","$55<br>for<br>5","0","54","55","5",""
"html-keyboard-response","74","96985","0.0-6.0-1.23","63d80145d2f0da3ee6a8d523","bdp_sd","Sun Mar 26 2023 09:11:39 GMT-0500 (Central Daylight Time)","103402","","null","","","","","FIX","","<div class='trialBorder'><div class='vertical-center'><img style='vertical-align:center; align:center' src=img/fixation3.jpg></div></div>","null","","","","","","",""
"html-keyboard-response","75","97633","0.0-6.0-2.23","63d80145d2f0da3ee6a8d523","bdp_sd","Sun Mar 26 2023 09:11:39 GMT-0500 (Central Daylight Time)","103402","","648","","","","","offer","","<div class='trialBorder'><div class='vertical-center'><img style='vertical-align:center; align:center' src=img/fixation3.jpg></div><div class='cl'><div class='vertical-center'>$60<br>for<br>Micky G</div></div><div class='cr'><div class='vertical-center'>$49<br>for<br>yourself</div></div><div class='respDivL'><div class='vertical-center'>(E)</div></div><div class='respDivR'><div class='vertical-center'>(I)</div></div></div>","I","$49<br>for<br>yourself","$60<br>for<br>4","1","49","60","4","SELF"
"html-keyboard-response","76","97885","0.0-6.0-3.23","63d80145d2f0da3ee6a8d523","bdp_sd","Sun Mar 26 2023 09:11:39 GMT-0500 (Central Daylight Time)","103402","","null","","","","","offerFB","","<div class='trialBorder'><div class='vertical-center'><img style='vertical-align:center; align:center' src=img/fixation3.jpg></div><div class='cl'><div class='vertical-center'>$60<br>for<br>Micky G</div></div><div class='cr'><div class='vertical-center'><font style='color:orange'>$49<br>for<br>yourself</font></div></div><div class='respDivL'><div class='vertical-center'>(E)</div></div><div class='respDivR'><div class='vertical-center'><font style='color:orange'>(I)</font></div></div></div>","null","$49<br>for<br>yourself","$60<br>for<br>4","1","49","60","4",""
"html-keyboard-response","77","98386","0.0-6.0-1.24","63d80145d2f0da3ee6a8d523","bdp_sd","Sun Mar 26 2023 09:11:39 GMT-0500 (Central Daylight Time)","103402","","null","","","","","FIX","","<div class='trialBorder'><div class='vertical-center'><img style='vertical-align:center; align:center' src=img/fixation3.jpg></div></div>","null","","","","","","",""
"html-keyboard-response","78","98955","0.0-6.0-2.24","63d80145d2f0da3ee6a8d523","bdp_sd","Sun Mar 26 2023 09:11:39 GMT-0500 (Central Daylight Time)","103402","","569","","","","","offer","","<div class='trialBorder'><div class='vertical-center'><img style='vertical-align:center; align:center' src=img/fixation3.jpg></div><div class='cl'><div class='vertical-center'>$50<br>for<br>Micky G</div></div><div class='cr'><div class='vertical-center'>$34<br>for<br>yourself</div></div><div class='respDivL'><div class='vertical-center'>(E)</div></div><div class='respDivR'><div class='vertical-center'>(I)</div></div></div>","I","$34<br>for<br>yourself","$50<br>for<br>4","1","34","50","4","SELF"
"html-keyboard-response","79","99206","0.0-6.0-3.24","63d80145d2f0da3ee6a8d523","bdp_sd","Sun Mar 26 2023 09:11:39 GMT-0500 (Central Daylight Time)","103402","","null","","","","","offerFB","","<div class='trialBorder'><div class='vertical-center'><img style='vertical-align:center; align:center' src=img/fixation3.jpg></div><div class='cl'><div class='vertical-center'>$50<br>for<br>Micky G</div></div><div class='cr'><div class='vertical-center'><font style='color:orange'>$34<br>for<br>yourself</font></div></div><div class='respDivL'><div class='vertical-center'>(E)</div></div><div class='respDivR'><div class='vertical-center'><font style='color:orange'>(I)</font></div></div></div>","null","$34<br>for<br>yourself","$50<br>for<br>4","1","34","50","4",""
"html-keyboard-response","80","99707","0.0-6.0-1.25","63d80145d2f0da3ee6a8d523","bdp_sd","Sun Mar 26 2023 09:11:39 GMT-0500 (Central Daylight Time)","103402","","null","","","","","FIX","","<div class='trialBorder'><div class='vertical-center'><img style='vertical-align:center; align:center' src=img/fixation3.jpg></div></div>","null","","","","","","",""
"html-keyboard-response","81","100381","0.0-6.0-2.25","63d80145d2f0da3ee6a8d523","bdp_sd","Sun Mar 26 2023 09:11:39 GMT-0500 (Central Daylight Time)","103402","","673","","","","","offer","","<div class='trialBorder'><div class='vertical-center'><img style='vertical-align:center; align:center' src=img/fixation3.jpg></div><div class='cl'><div class='vertical-center'>$35<br>for<br>Nicky G</div></div><div class='cr'><div class='vertical-center'>$24<br>for<br>yourself</div></div><div class='respDivL'><div class='vertical-center'>(E)</div></div><div class='respDivR'><div class='vertical-center'>(I)</div></div></div>","I","$24<br>for<br>yourself","$35<br>for<br>3","1","24","35","3","SELF"
"html-keyboard-response","82","100632","0.0-6.0-3.25","63d80145d2f0da3ee6a8d523","bdp_sd","Sun Mar 26 2023 09:11:39 GMT-0500 (Central Daylight Time)","103402","","null","","","","","offerFB","","<div class='trialBorder'><div class='vertical-center'><img style='vertical-align:center; align:center' src=img/fixation3.jpg></div><div class='cl'><div class='vertical-center'>$35<br>for<br>Nicky G</div></div><div class='cr'><div class='vertical-center'><font style='color:orange'>$24<br>for<br>yourself</font></div></div><div class='respDivL'><div class='vertical-center'>(E)</div></div><div class='respDivR'><div class='vertical-center'><font style='color:orange'>(I)</font></div></div></div>","null","$24<br>for<br>yourself","$35<br>for<br>3","1","24","35","3",""
"html-keyboard-response","83","101133","0.0-6.0-1.26","63d80145d2f0da3ee6a8d523","bdp_sd","Sun Mar 26 2023 09:11:39 GMT-0500 (Central Daylight Time)","103402","","null","","","","","FIX","","<div class='trialBorder'><div class='vertical-center'><img style='vertical-align:center; align:center' src=img/fixation3.jpg></div></div>","null","","","","","","",""
"html-keyboard-response","84","102149","0.0-6.0-2.26","63d80145d2f0da3ee6a8d523","bdp_sd","Sun Mar 26 2023 09:11:39 GMT-0500 (Central Daylight Time)","103402","","1015","","","","","offer","","<div class='trialBorder'><div class='vertical-center'><img style='vertical-align:center; align:center' src=img/fixation3.jpg></div><div class='cl'><div class='vertical-center'>$31<br>for<br>yourself</div></div><div class='cr'><div class='vertical-center'>$85<br>for<br>David G</div></div><div class='respDivL'><div class='vertical-center'>(E)</div></div><div class='respDivR'><div class='vertical-center'>(I)</div></div></div>","E","$31<br>for<br>yourself","$85<br>for<br>1","0","31","85","1","SELF"
"html-keyboard-response","85","102401","0.0-6.0-3.26","63d80145d2f0da3ee6a8d523","bdp_sd","Sun Mar 26 2023 09:11:39 GMT-0500 (Central Daylight Time)","103402","","null","","","","","offerFB","","<div class='trialBorder'><div class='vertical-center'><img style='vertical-align:center; align:center' src=img/fixation3.jpg></div><div class='cl'><div class='vertical-center'><font style='color:orange'>$31<br>for<br>yourself</font></div></div><div class='cr'><div class='vertical-center'>$85<br>for<br>David G</div></div><div class='respDivL'><div class='vertical-center'><font style='color:orange'>(E)</font></div></div><div class='respDivR'><div class='vertical-center'>(I)</div></div></div>","null","$31<br>for<br>yourself","$85<br>for<br>1","0","31","85","1",""
"","","","","63d80145d2f0da3ee6a8d523","bdp_sd","Sun Mar 26 2023 09:11:39 GMT-0500 (Central Daylight Time)","103402","","","","fullscreenexit","86","102418","fullscreenexit","","","","","","","","","",""
"fullscreen","86","103401","0.0-7.0","63d80145d2f0da3ee6a8d523","bdp_sd","Sun Mar 26 2023 09:11:39 GMT-0500 (Central Daylight Time)","103402","","","","","","","","true","","","","","","","","",""
"html-keyboard-response","87","103903","0.0-8.0","","","","","","null","","","","","","","","null","","","","","","",""
