"trial_type","trial_index","time_elapsed","internal_node_id","subject_id","task","startTime","totalTime","view_history","rt","responses","event","trial","time","trialtype","success","stimulus","key_press","selfOffer","otherOffer","otherLeft","selfAmt","otherAmt","otherDist","chosen"
"pavlovia","0","6","0.0-0.0","taskTesting","bdp_sd","Sat Jan 28 2023 15:32:12 GMT-0500 (Eastern Standard Time)","279009","","","","","","","","","","","","","","","","",""
"instructions","1","4963","0.0-1.0","taskTesting","bdp_sd","Sat Jan 28 2023 15:32:12 GMT-0500 (Eastern Standard Time)","279009","[{""page_index"":0,""viewing_time"":4956}]","4956","","","","","","","","","","","","","","",""
"survey-text","2","154037","0.0-2.0","taskTesting","bdp_sd","Sat Jan 28 2023 15:32:12 GMT-0500 (Eastern Standard Time)","279009","","149071","{""Q0"":""Chuck L."",""Q1"":""Amanda I."",""Q2"":""Rachel T."",""Q3"":""Alexa T."",""Q4"":""Favia M.""}","","","","","","","","","","","","","",""
"","","","","taskTesting","bdp_sd","Sat Jan 28 2023 15:32:12 GMT-0500 (Eastern Standard Time)","279009","","","","fullscreenenter","3","155721","fullscreenenter","","","","","","","","","",""
"fullscreen","3","156711","0.0-3.0","taskTesting","bdp_sd","Sat Jan 28 2023 15:32:12 GMT-0500 (Eastern Standard Time)","279009","","","","","","","","true","","","","","","","","",""
"instructions","4","186044","0.0-5.0","taskTesting","bdp_sd","Sat Jan 28 2023 15:32:12 GMT-0500 (Eastern Standard Time)","279009","[{""page_index"":0,""viewing_time"":7825},{""page_index"":1,""viewing_time"":13947},{""page_index"":2,""viewing_time"":7559}]","29331","","","","","","","","","","","","","","",""
"html-keyboard-response","5","186551","0.0-6.0-1.0","taskTesting","bdp_sd","Sat Jan 28 2023 15:32:12 GMT-0500 (Eastern Standard Time)","279009","","null","","","","","FIX","","<div class='trialBorder'><div class='vertical-center'><img style='vertical-align:center; align:center' src=img/fixation3.jpg></div></div>","null","","","","","","",""
"html-keyboard-response","6","192663","0.0-6.0-2.0","taskTesting","bdp_sd","Sat Jan 28 2023 15:32:12 GMT-0500 (Eastern Standard Time)","279009","","6112","","","","","offer","","<div class='trialBorder'><div class='vertical-center'><img style='vertical-align:center; align:center' src=img/fixation3.jpg></div><div class='cl'><div class='vertical-center'>$75<br>for<br>Favia M.</div></div><div class='cr'><div class='vertical-center'>$67<br>for<br>yourself</div></div><div class='respDivL'><div class='vertical-center'>(E)</div></div><div class='respDivR'><div class='vertical-center'>(I)</div></div></div>","I","$67<br>for<br>yourself","$75<br>for<br>5","1","67","75","5","SELF"
"html-keyboard-response","7","192930","0.0-6.0-3.0","taskTesting","bdp_sd","Sat Jan 28 2023 15:32:12 GMT-0500 (Eastern Standard Time)","279009","","null","","","","","offer","","<div class='trialBorder'><div class='vertical-center'><img style='vertical-align:center; align:center' src=img/fixation3.jpg></div><div class='cl'><div class='vertical-center'>$75<br>for<br>Favia M.</div></div><div class='cr'><div class='vertical-center'><font style='color:orange'>$67<br>for<br>yourself</font></div></div><div class='respDivL'><div class='vertical-center'>(E)</div></div><div class='respDivR'><div class='vertical-center'><font style='color:orange'>(I)</font></div></div></div>","null","$67<br>for<br>yourself","$75<br>for<br>5","1","67","75","5",""
"html-keyboard-response","8","193438","0.0-6.0-1.1","taskTesting","bdp_sd","Sat Jan 28 2023 15:32:12 GMT-0500 (Eastern Standard Time)","279009","","null","","","","","FIX","","<div class='trialBorder'><div class='vertical-center'><img style='vertical-align:center; align:center' src=img/fixation3.jpg></div></div>","null","","","","","","",""
"html-keyboard-response","9","195925","0.0-6.0-2.1","taskTesting","bdp_sd","Sat Jan 28 2023 15:32:12 GMT-0500 (Eastern Standard Time)","279009","","2485","","","","","offer","","<div class='trialBorder'><div class='vertical-center'><img style='vertical-align:center; align:center' src=img/fixation3.jpg></div><div class='cl'><div class='vertical-center'>$25<br>for<br>Alexa T.</div></div><div class='cr'><div class='vertical-center'>$19<br>for<br>yourself</div></div><div class='respDivL'><div class='vertical-center'>(E)</div></div><div class='respDivR'><div class='vertical-center'>(I)</div></div></div>","E","$19<br>for<br>yourself","$25<br>for<br>4","1","19","25","4","OTHER"
"html-keyboard-response","10","196180","0.0-6.0-3.1","taskTesting","bdp_sd","Sat Jan 28 2023 15:32:12 GMT-0500 (Eastern Standard Time)","279009","","null","","","","","offer","","<div class='trialBorder'><div class='vertical-center'><img style='vertical-align:center; align:center' src=img/fixation3.jpg></div><div class='cl'><div class='vertical-center'><font style='color:orange'>$25<br>for<br>Alexa T.</font></div></div><div class='cr'><div class='vertical-center'>$19<br>for<br>yourself</div></div><div class='respDivL'><div class='vertical-center'><font style='color:orange'>(E)</font></div></div><div class='respDivR'><div class='vertical-center'>(I)</div></div></div>","null","$19<br>for<br>yourself","$25<br>for<br>4","1","19","25","4",""
"html-keyboard-response","11","196686","0.0-6.0-1.2","taskTesting","bdp_sd","Sat Jan 28 2023 15:32:12 GMT-0500 (Eastern Standard Time)","279009","","null","","","","","FIX","","<div class='trialBorder'><div class='vertical-center'><img style='vertical-align:center; align:center' src=img/fixation3.jpg></div></div>","null","","","","","","",""
"html-keyboard-response","12","198872","0.0-6.0-2.2","taskTesting","bdp_sd","Sat Jan 28 2023 15:32:12 GMT-0500 (Eastern Standard Time)","279009","","2183","","","","","offer","","<div class='trialBorder'><div class='vertical-center'><img style='vertical-align:center; align:center' src=img/fixation3.jpg></div><div class='cl'><div class='vertical-center'>$80<br>for<br>Amanda I.</div></div><div class='cr'><div class='vertical-center'>$33<br>for<br>yourself</div></div><div class='respDivL'><div class='vertical-center'>(E)</div></div><div class='respDivR'><div class='vertical-center'>(I)</div></div></div>","E","$33<br>for<br>yourself","$80<br>for<br>2","1","33","80","2","OTHER"
"html-keyboard-response","13","199126","0.0-6.0-3.2","taskTesting","bdp_sd","Sat Jan 28 2023 15:32:12 GMT-0500 (Eastern Standard Time)","279009","","null","","","","","offer","","<div class='trialBorder'><div class='vertical-center'><img style='vertical-align:center; align:center' src=img/fixation3.jpg></div><div class='cl'><div class='vertical-center'><font style='color:orange'>$80<br>for<br>Amanda I.</font></div></div><div class='cr'><div class='vertical-center'>$33<br>for<br>yourself</div></div><div class='respDivL'><div class='vertical-center'><font style='color:orange'>(E)</font></div></div><div class='respDivR'><div class='vertical-center'>(I)</div></div></div>","null","$33<br>for<br>yourself","$80<br>for<br>2","1","33","80","2",""
"html-keyboard-response","14","199634","0.0-6.0-1.3","taskTesting","bdp_sd","Sat Jan 28 2023 15:32:12 GMT-0500 (Eastern Standard Time)","279009","","null","","","","","FIX","","<div class='trialBorder'><div class='vertical-center'><img style='vertical-align:center; align:center' src=img/fixation3.jpg></div></div>","null","","","","","","",""
"html-keyboard-response","15","201595","0.0-6.0-2.3","taskTesting","bdp_sd","Sat Jan 28 2023 15:32:12 GMT-0500 (Eastern Standard Time)","279009","","1960","","","","","offer","","<div class='trialBorder'><div class='vertical-center'><img style='vertical-align:center; align:center' src=img/fixation3.jpg></div><div class='cl'><div class='vertical-center'>$80<br>for<br>yourself</div></div><div class='cr'><div class='vertical-center'>$85<br>for<br>Favia M.</div></div><div class='respDivL'><div class='vertical-center'>(E)</div></div><div class='respDivR'><div class='vertical-center'>(I)</div></div></div>","E","$80<br>for<br>yourself","$85<br>for<br>5","0","80","85","5","SELF"
"html-keyboard-response","16","201854","0.0-6.0-3.3","taskTesting","bdp_sd","Sat Jan 28 2023 15:32:12 GMT-0500 (Eastern Standard Time)","279009","","null","","","","","offer","","<div class='trialBorder'><div class='vertical-center'><img style='vertical-align:center; align:center' src=img/fixation3.jpg></div><div class='cl'><div class='vertical-center'><font style='color:orange'>$80<br>for<br>yourself</font></div></div><div class='cr'><div class='vertical-center'>$85<br>for<br>Favia M.</div></div><div class='respDivL'><div class='vertical-center'><font style='color:orange'>(E)</font></div></div><div class='respDivR'><div class='vertical-center'>(I)</div></div></div>","null","$80<br>for<br>yourself","$85<br>for<br>5","0","80","85","5",""
"html-keyboard-response","17","202359","0.0-6.0-1.4","taskTesting","bdp_sd","Sat Jan 28 2023 15:32:12 GMT-0500 (Eastern Standard Time)","279009","","null","","","","","FIX","","<div class='trialBorder'><div class='vertical-center'><img style='vertical-align:center; align:center' src=img/fixation3.jpg></div></div>","null","","","","","","",""
"html-keyboard-response","18","204296","0.0-6.0-2.4","taskTesting","bdp_sd","Sat Jan 28 2023 15:32:12 GMT-0500 (Eastern Standard Time)","279009","","1936","","","","","offer","","<div class='trialBorder'><div class='vertical-center'><img style='vertical-align:center; align:center' src=img/fixation3.jpg></div><div class='cl'><div class='vertical-center'>$14<br>for<br>yourself</div></div><div class='cr'><div class='vertical-center'>$25<br>for<br>Rachel T.</div></div><div class='respDivL'><div class='vertical-center'>(E)</div></div><div class='respDivR'><div class='vertical-center'>(I)</div></div></div>","I","$14<br>for<br>yourself","$25<br>for<br>3","0","14","25","3","OTHER"
"html-keyboard-response","19","204562","0.0-6.0-3.4","taskTesting","bdp_sd","Sat Jan 28 2023 15:32:12 GMT-0500 (Eastern Standard Time)","279009","","null","","","","","offer","","<div class='trialBorder'><div class='vertical-center'><img style='vertical-align:center; align:center' src=img/fixation3.jpg></div><div class='cl'><div class='vertical-center'>$14<br>for<br>yourself</div></div><div class='cr'><div class='vertical-center'><font style='color:orange'>$25<br>for<br>Rachel T.</font></div></div><div class='respDivL'><div class='vertical-center'>(E)</div></div><div class='respDivR'><div class='vertical-center'><font style='color:orange'>(I)</font></div></div></div>","null","$14<br>for<br>yourself","$25<br>for<br>3","0","14","25","3",""
"html-keyboard-response","20","205074","0.0-6.0-1.5","taskTesting","bdp_sd","Sat Jan 28 2023 15:32:12 GMT-0500 (Eastern Standard Time)","279009","","null","","","","","FIX","","<div class='trialBorder'><div class='vertical-center'><img style='vertical-align:center; align:center' src=img/fixation3.jpg></div></div>","null","","","","","","",""
"html-keyboard-response","21","208143","0.0-6.0-2.5","taskTesting","bdp_sd","Sat Jan 28 2023 15:32:12 GMT-0500 (Eastern Standard Time)","279009","","3067","","","","","offer","","<div class='trialBorder'><div class='vertical-center'><img style='vertical-align:center; align:center' src=img/fixation3.jpg></div><div class='cl'><div class='vertical-center'>$22<br>for<br>yourself</div></div><div class='cr'><div class='vertical-center'>$25<br>for<br>Favia M.</div></div><div class='respDivL'><div class='vertical-center'>(E)</div></div><div class='respDivR'><div class='vertical-center'>(I)</div></div></div>","E","$22<br>for<br>yourself","$25<br>for<br>5","0","22","25","5","SELF"
"html-keyboard-response","22","208397","0.0-6.0-3.5","taskTesting","bdp_sd","Sat Jan 28 2023 15:32:12 GMT-0500 (Eastern Standard Time)","279009","","null","","","","","offer","","<div class='trialBorder'><div class='vertical-center'><img style='vertical-align:center; align:center' src=img/fixation3.jpg></div><div class='cl'><div class='vertical-center'><font style='color:orange'>$22<br>for<br>yourself</font></div></div><div class='cr'><div class='vertical-center'>$25<br>for<br>Favia M.</div></div><div class='respDivL'><div class='vertical-center'><font style='color:orange'>(E)</font></div></div><div class='respDivR'><div class='vertical-center'>(I)</div></div></div>","null","$22<br>for<br>yourself","$25<br>for<br>5","0","22","25","5",""
"html-keyboard-response","23","208905","0.0-6.0-1.6","taskTesting","bdp_sd","Sat Jan 28 2023 15:32:12 GMT-0500 (Eastern Standard Time)","279009","","null","","","","","FIX","","<div class='trialBorder'><div class='vertical-center'><img style='vertical-align:center; align:center' src=img/fixation3.jpg></div></div>","null","","","","","","",""
"html-keyboard-response","24","211305","0.0-6.0-2.6","taskTesting","bdp_sd","Sat Jan 28 2023 15:32:12 GMT-0500 (Eastern Standard Time)","279009","","2397","","","","","offer","","<div class='trialBorder'><div class='vertical-center'><img style='vertical-align:center; align:center' src=img/fixation3.jpg></div><div class='cl'><div class='vertical-center'>$60<br>for<br>Alexa T.</div></div><div class='cr'><div class='vertical-center'>$49<br>for<br>yourself</div></div><div class='respDivL'><div class='vertical-center'>(E)</div></div><div class='respDivR'><div class='vertical-center'>(I)</div></div></div>","E","$49<br>for<br>yourself","$60<br>for<br>4","1","49","60","4","OTHER"
"html-keyboard-response","25","211567","0.0-6.0-3.6","taskTesting","bdp_sd","Sat Jan 28 2023 15:32:12 GMT-0500 (Eastern Standard Time)","279009","","null","","","","","offer","","<div class='trialBorder'><div class='vertical-center'><img style='vertical-align:center; align:center' src=img/fixation3.jpg></div><div class='cl'><div class='vertical-center'><font style='color:orange'>$60<br>for<br>Alexa T.</font></div></div><div class='cr'><div class='vertical-center'>$49<br>for<br>yourself</div></div><div class='respDivL'><div class='vertical-center'><font style='color:orange'>(E)</font></div></div><div class='respDivR'><div class='vertical-center'>(I)</div></div></div>","null","$49<br>for<br>yourself","$60<br>for<br>4","1","49","60","4",""
"html-keyboard-response","26","212081","0.0-6.0-1.7","taskTesting","bdp_sd","Sat Jan 28 2023 15:32:12 GMT-0500 (Eastern Standard Time)","279009","","null","","","","","FIX","","<div class='trialBorder'><div class='vertical-center'><img style='vertical-align:center; align:center' src=img/fixation3.jpg></div></div>","null","","","","","","",""
"html-keyboard-response","27","213848","0.0-6.0-2.7","taskTesting","bdp_sd","Sat Jan 28 2023 15:32:12 GMT-0500 (Eastern Standard Time)","279009","","1764","","","","","offer","","<div class='trialBorder'><div class='vertical-center'><img style='vertical-align:center; align:center' src=img/fixation3.jpg></div><div class='cl'><div class='vertical-center'>$54<br>for<br>yourself</div></div><div class='cr'><div class='vertical-center'>$55<br>for<br>Favia M.</div></div><div class='respDivL'><div class='vertical-center'>(E)</div></div><div class='respDivR'><div class='vertical-center'>(I)</div></div></div>","E","$54<br>for<br>yourself","$55<br>for<br>5","0","54","55","5","SELF"
"html-keyboard-response","28","214105","0.0-6.0-3.7","taskTesting","bdp_sd","Sat Jan 28 2023 15:32:12 GMT-0500 (Eastern Standard Time)","279009","","null","","","","","offer","","<div class='trialBorder'><div class='vertical-center'><img style='vertical-align:center; align:center' src=img/fixation3.jpg></div><div class='cl'><div class='vertical-center'><font style='color:orange'>$54<br>for<br>yourself</font></div></div><div class='cr'><div class='vertical-center'>$55<br>for<br>Favia M.</div></div><div class='respDivL'><div class='vertical-center'><font style='color:orange'>(E)</font></div></div><div class='respDivR'><div class='vertical-center'>(I)</div></div></div>","null","$54<br>for<br>yourself","$55<br>for<br>5","0","54","55","5",""
"html-keyboard-response","29","214613","0.0-6.0-1.8","taskTesting","bdp_sd","Sat Jan 28 2023 15:32:12 GMT-0500 (Eastern Standard Time)","279009","","null","","","","","FIX","","<div class='trialBorder'><div class='vertical-center'><img style='vertical-align:center; align:center' src=img/fixation3.jpg></div></div>","null","","","","","","",""
"html-keyboard-response","30","219337","0.0-6.0-2.8","taskTesting","bdp_sd","Sat Jan 28 2023 15:32:12 GMT-0500 (Eastern Standard Time)","279009","","4723","","","","","offer","","<div class='trialBorder'><div class='vertical-center'><img style='vertical-align:center; align:center' src=img/fixation3.jpg></div><div class='cl'><div class='vertical-center'>$30<br>for<br>Alexa T.</div></div><div class='cr'><div class='vertical-center'>$25<br>for<br>yourself</div></div><div class='respDivL'><div class='vertical-center'>(E)</div></div><div class='respDivR'><div class='vertical-center'>(I)</div></div></div>","I","$25<br>for<br>yourself","$30<br>for<br>4","1","25","30","4","SELF"
"html-keyboard-response","31","219596","0.0-6.0-3.8","taskTesting","bdp_sd","Sat Jan 28 2023 15:32:12 GMT-0500 (Eastern Standard Time)","279009","","null","","","","","offer","","<div class='trialBorder'><div class='vertical-center'><img style='vertical-align:center; align:center' src=img/fixation3.jpg></div><div class='cl'><div class='vertical-center'>$30<br>for<br>Alexa T.</div></div><div class='cr'><div class='vertical-center'><font style='color:orange'>$25<br>for<br>yourself</font></div></div><div class='respDivL'><div class='vertical-center'>(E)</div></div><div class='respDivR'><div class='vertical-center'><font style='color:orange'>(I)</font></div></div></div>","null","$25<br>for<br>yourself","$30<br>for<br>4","1","25","30","4",""
"html-keyboard-response","32","220105","0.0-6.0-1.9","taskTesting","bdp_sd","Sat Jan 28 2023 15:32:12 GMT-0500 (Eastern Standard Time)","279009","","null","","","","","FIX","","<div class='trialBorder'><div class='vertical-center'><img style='vertical-align:center; align:center' src=img/fixation3.jpg></div></div>","null","","","","","","",""
"html-keyboard-response","33","222732","0.0-6.0-2.9","taskTesting","bdp_sd","Sat Jan 28 2023 15:32:12 GMT-0500 (Eastern Standard Time)","279009","","2626","","","","","offer","","<div class='trialBorder'><div class='vertical-center'><img style='vertical-align:center; align:center' src=img/fixation3.jpg></div><div class='cl'><div class='vertical-center'>$30<br>for<br>Favia M.</div></div><div class='cr'><div class='vertical-center'>$28<br>for<br>yourself</div></div><div class='respDivL'><div class='vertical-center'>(E)</div></div><div class='respDivR'><div class='vertical-center'>(I)</div></div></div>","I","$28<br>for<br>yourself","$30<br>for<br>5","1","28","30","5","SELF"
"html-keyboard-response","34","222991","0.0-6.0-3.9","taskTesting","bdp_sd","Sat Jan 28 2023 15:32:12 GMT-0500 (Eastern Standard Time)","279009","","null","","","","","offer","","<div class='trialBorder'><div class='vertical-center'><img style='vertical-align:center; align:center' src=img/fixation3.jpg></div><div class='cl'><div class='vertical-center'>$30<br>for<br>Favia M.</div></div><div class='cr'><div class='vertical-center'><font style='color:orange'>$28<br>for<br>yourself</font></div></div><div class='respDivL'><div class='vertical-center'>(E)</div></div><div class='respDivR'><div class='vertical-center'><font style='color:orange'>(I)</font></div></div></div>","null","$28<br>for<br>yourself","$30<br>for<br>5","1","28","30","5",""
"html-keyboard-response","35","223505","0.0-6.0-1.10","taskTesting","bdp_sd","Sat Jan 28 2023 15:32:12 GMT-0500 (Eastern Standard Time)","279009","","null","","","","","FIX","","<div class='trialBorder'><div class='vertical-center'><img style='vertical-align:center; align:center' src=img/fixation3.jpg></div></div>","null","","","","","","",""
"html-keyboard-response","36","226739","0.0-6.0-2.10","taskTesting","bdp_sd","Sat Jan 28 2023 15:32:12 GMT-0500 (Eastern Standard Time)","279009","","3233","","","","","offer","","<div class='trialBorder'><div class='vertical-center'><img style='vertical-align:center; align:center' src=img/fixation3.jpg></div><div class='cl'><div class='vertical-center'>$80<br>for<br>Rachel T.</div></div><div class='cr'><div class='vertical-center'>$54<br>for<br>yourself</div></div><div class='respDivL'><div class='vertical-center'>(E)</div></div><div class='respDivR'><div class='vertical-center'>(I)</div></div></div>","E","$54<br>for<br>yourself","$80<br>for<br>3","1","54","80","3","OTHER"
"html-keyboard-response","37","226998","0.0-6.0-3.10","taskTesting","bdp_sd","Sat Jan 28 2023 15:32:12 GMT-0500 (Eastern Standard Time)","279009","","null","","","","","offer","","<div class='trialBorder'><div class='vertical-center'><img style='vertical-align:center; align:center' src=img/fixation3.jpg></div><div class='cl'><div class='vertical-center'><font style='color:orange'>$80<br>for<br>Rachel T.</font></div></div><div class='cr'><div class='vertical-center'>$54<br>for<br>yourself</div></div><div class='respDivL'><div class='vertical-center'><font style='color:orange'>(E)</font></div></div><div class='respDivR'><div class='vertical-center'>(I)</div></div></div>","null","$54<br>for<br>yourself","$80<br>for<br>3","1","54","80","3",""
"html-keyboard-response","38","227504","0.0-6.0-1.11","taskTesting","bdp_sd","Sat Jan 28 2023 15:32:12 GMT-0500 (Eastern Standard Time)","279009","","null","","","","","FIX","","<div class='trialBorder'><div class='vertical-center'><img style='vertical-align:center; align:center' src=img/fixation3.jpg></div></div>","null","","","","","","",""
"html-keyboard-response","39","232118","0.0-6.0-2.11","taskTesting","bdp_sd","Sat Jan 28 2023 15:32:12 GMT-0500 (Eastern Standard Time)","279009","","4613","","","","","offer","","<div class='trialBorder'><div class='vertical-center'><img style='vertical-align:center; align:center' src=img/fixation3.jpg></div><div class='cl'><div class='vertical-center'>$69<br>for<br>yourself</div></div><div class='cr'><div class='vertical-center'>$85<br>for<br>Alexa T.</div></div><div class='respDivL'><div class='vertical-center'>(E)</div></div><div class='respDivR'><div class='vertical-center'>(I)</div></div></div>","I","$69<br>for<br>yourself","$85<br>for<br>4","0","69","85","4","OTHER"
"html-keyboard-response","40","232374","0.0-6.0-3.11","taskTesting","bdp_sd","Sat Jan 28 2023 15:32:12 GMT-0500 (Eastern Standard Time)","279009","","null","","","","","offer","","<div class='trialBorder'><div class='vertical-center'><img style='vertical-align:center; align:center' src=img/fixation3.jpg></div><div class='cl'><div class='vertical-center'>$69<br>for<br>yourself</div></div><div class='cr'><div class='vertical-center'><font style='color:orange'>$85<br>for<br>Alexa T.</font></div></div><div class='respDivL'><div class='vertical-center'>(E)</div></div><div class='respDivR'><div class='vertical-center'><font style='color:orange'>(I)</font></div></div></div>","null","$69<br>for<br>yourself","$85<br>for<br>4","0","69","85","4",""
"html-keyboard-response","41","232876","0.0-6.0-1.12","taskTesting","bdp_sd","Sat Jan 28 2023 15:32:12 GMT-0500 (Eastern Standard Time)","279009","","null","","","","","FIX","","<div class='trialBorder'><div class='vertical-center'><img style='vertical-align:center; align:center' src=img/fixation3.jpg></div></div>","null","","","","","","",""
"html-keyboard-response","42","234273","0.0-6.0-2.12","taskTesting","bdp_sd","Sat Jan 28 2023 15:32:12 GMT-0500 (Eastern Standard Time)","279009","","1397","","","","","offer","","<div class='trialBorder'><div class='vertical-center'><img style='vertical-align:center; align:center' src=img/fixation3.jpg></div><div class='cl'><div class='vertical-center'>$85<br>for<br>Chuck L.</div></div><div class='cr'><div class='vertical-center'>$31<br>for<br>yourself</div></div><div class='respDivL'><div class='vertical-center'>(E)</div></div><div class='respDivR'><div class='vertical-center'>(I)</div></div></div>","E","$31<br>for<br>yourself","$85<br>for<br>1","1","31","85","1","OTHER"
"html-keyboard-response","43","234533","0.0-6.0-3.12","taskTesting","bdp_sd","Sat Jan 28 2023 15:32:12 GMT-0500 (Eastern Standard Time)","279009","","null","","","","","offer","","<div class='trialBorder'><div class='vertical-center'><img style='vertical-align:center; align:center' src=img/fixation3.jpg></div><div class='cl'><div class='vertical-center'><font style='color:orange'>$85<br>for<br>Chuck L.</font></div></div><div class='cr'><div class='vertical-center'>$31<br>for<br>yourself</div></div><div class='respDivL'><div class='vertical-center'><font style='color:orange'>(E)</font></div></div><div class='respDivR'><div class='vertical-center'>(I)</div></div></div>","null","$31<br>for<br>yourself","$85<br>for<br>1","1","31","85","1",""
"html-keyboard-response","44","235036","0.0-6.0-1.13","taskTesting","bdp_sd","Sat Jan 28 2023 15:32:12 GMT-0500 (Eastern Standard Time)","279009","","null","","","","","FIX","","<div class='trialBorder'><div class='vertical-center'><img style='vertical-align:center; align:center' src=img/fixation3.jpg></div></div>","null","","","","","","",""
"html-keyboard-response","45","236752","0.0-6.0-2.13","taskTesting","bdp_sd","Sat Jan 28 2023 15:32:12 GMT-0500 (Eastern Standard Time)","279009","","1716","","","","","offer","","<div class='trialBorder'><div class='vertical-center'><img style='vertical-align:center; align:center' src=img/fixation3.jpg></div><div class='cl'><div class='vertical-center'>$35<br>for<br>Rachel T.</div></div><div class='cr'><div class='vertical-center'>$24<br>for<br>yourself</div></div><div class='respDivL'><div class='vertical-center'>(E)</div></div><div class='respDivR'><div class='vertical-center'>(I)</div></div></div>","E","$24<br>for<br>yourself","$35<br>for<br>3","1","24","35","3","OTHER"
"html-keyboard-response","46","237009","0.0-6.0-3.13","taskTesting","bdp_sd","Sat Jan 28 2023 15:32:12 GMT-0500 (Eastern Standard Time)","279009","","null","","","","","offer","","<div class='trialBorder'><div class='vertical-center'><img style='vertical-align:center; align:center' src=img/fixation3.jpg></div><div class='cl'><div class='vertical-center'><font style='color:orange'>$35<br>for<br>Rachel T.</font></div></div><div class='cr'><div class='vertical-center'>$24<br>for<br>yourself</div></div><div class='respDivL'><div class='vertical-center'><font style='color:orange'>(E)</font></div></div><div class='respDivR'><div class='vertical-center'>(I)</div></div></div>","null","$24<br>for<br>yourself","$35<br>for<br>3","1","24","35","3",""
"html-keyboard-response","47","237521","0.0-6.0-1.14","taskTesting","bdp_sd","Sat Jan 28 2023 15:32:12 GMT-0500 (Eastern Standard Time)","279009","","null","","","","","FIX","","<div class='trialBorder'><div class='vertical-center'><img style='vertical-align:center; align:center' src=img/fixation3.jpg></div></div>","null","","","","","","",""
"html-keyboard-response","48","238800","0.0-6.0-2.14","taskTesting","bdp_sd","Sat Jan 28 2023 15:32:12 GMT-0500 (Eastern Standard Time)","279009","","1277","","","","","offer","","<div class='trialBorder'><div class='vertical-center'><img style='vertical-align:center; align:center' src=img/fixation3.jpg></div><div class='cl'><div class='vertical-center'>$75<br>for<br>Rachel T.</div></div><div class='cr'><div class='vertical-center'>$41<br>for<br>yourself</div></div><div class='respDivL'><div class='vertical-center'>(E)</div></div><div class='respDivR'><div class='vertical-center'>(I)</div></div></div>","E","$41<br>for<br>yourself","$75<br>for<br>3","1","41","75","3","OTHER"
"html-keyboard-response","49","239053","0.0-6.0-3.14","taskTesting","bdp_sd","Sat Jan 28 2023 15:32:12 GMT-0500 (Eastern Standard Time)","279009","","null","","","","","offer","","<div class='trialBorder'><div class='vertical-center'><img style='vertical-align:center; align:center' src=img/fixation3.jpg></div><div class='cl'><div class='vertical-center'><font style='color:orange'>$75<br>for<br>Rachel T.</font></div></div><div class='cr'><div class='vertical-center'>$41<br>for<br>yourself</div></div><div class='respDivL'><div class='vertical-center'><font style='color:orange'>(E)</font></div></div><div class='respDivR'><div class='vertical-center'>(I)</div></div></div>","null","$41<br>for<br>yourself","$75<br>for<br>3","1","41","75","3",""
"html-keyboard-response","50","239557","0.0-6.0-1.15","taskTesting","bdp_sd","Sat Jan 28 2023 15:32:12 GMT-0500 (Eastern Standard Time)","279009","","null","","","","","FIX","","<div class='trialBorder'><div class='vertical-center'><img style='vertical-align:center; align:center' src=img/fixation3.jpg></div></div>","null","","","","","","",""
"html-keyboard-response","51","244065","0.0-6.0-2.15","taskTesting","bdp_sd","Sat Jan 28 2023 15:32:12 GMT-0500 (Eastern Standard Time)","279009","","4507","","","","","offer","","<div class='trialBorder'><div class='vertical-center'><img style='vertical-align:center; align:center' src=img/fixation3.jpg></div><div class='cl'><div class='vertical-center'>$40<br>for<br>yourself</div></div><div class='cr'><div class='vertical-center'>$55<br>for<br>Alexa T.</div></div><div class='respDivL'><div class='vertical-center'>(E)</div></div><div class='respDivR'><div class='vertical-center'>(I)</div></div></div>","E","$40<br>for<br>yourself","$55<br>for<br>4","0","40","55","4","SELF"
"html-keyboard-response","52","244327","0.0-6.0-3.15","taskTesting","bdp_sd","Sat Jan 28 2023 15:32:12 GMT-0500 (Eastern Standard Time)","279009","","null","","","","","offer","","<div class='trialBorder'><div class='vertical-center'><img style='vertical-align:center; align:center' src=img/fixation3.jpg></div><div class='cl'><div class='vertical-center'><font style='color:orange'>$40<br>for<br>yourself</font></div></div><div class='cr'><div class='vertical-center'>$55<br>for<br>Alexa T.</div></div><div class='respDivL'><div class='vertical-center'><font style='color:orange'>(E)</font></div></div><div class='respDivR'><div class='vertical-center'>(I)</div></div></div>","null","$40<br>for<br>yourself","$55<br>for<br>4","0","40","55","4",""
"html-keyboard-response","53","244840","0.0-6.0-1.16","taskTesting","bdp_sd","Sat Jan 28 2023 15:32:12 GMT-0500 (Eastern Standard Time)","279009","","null","","","","","FIX","","<div class='trialBorder'><div class='vertical-center'><img style='vertical-align:center; align:center' src=img/fixation3.jpg></div></div>","null","","","","","","",""
"html-keyboard-response","54","248497","0.0-6.0-2.16","taskTesting","bdp_sd","Sat Jan 28 2023 15:32:12 GMT-0500 (Eastern Standard Time)","279009","","3656","","","","","offer","","<div class='trialBorder'><div class='vertical-center'><img style='vertical-align:center; align:center' src=img/fixation3.jpg></div><div class='cl'><div class='vertical-center'>$25<br>for<br>yourself</div></div><div class='cr'><div class='vertical-center'>$60<br>for<br>Rachel T.</div></div><div class='respDivL'><div class='vertical-center'>(E)</div></div><div class='respDivR'><div class='vertical-center'>(I)</div></div></div>","I","$25<br>for<br>yourself","$60<br>for<br>3","0","25","60","3","OTHER"
"html-keyboard-response","55","248758","0.0-6.0-3.16","taskTesting","bdp_sd","Sat Jan 28 2023 15:32:12 GMT-0500 (Eastern Standard Time)","279009","","null","","","","","offer","","<div class='trialBorder'><div class='vertical-center'><img style='vertical-align:center; align:center' src=img/fixation3.jpg></div><div class='cl'><div class='vertical-center'>$25<br>for<br>yourself</div></div><div class='cr'><div class='vertical-center'><font style='color:orange'>$60<br>for<br>Rachel T.</font></div></div><div class='respDivL'><div class='vertical-center'>(E)</div></div><div class='respDivR'><div class='vertical-center'><font style='color:orange'>(I)</font></div></div></div>","null","$25<br>for<br>yourself","$60<br>for<br>3","0","25","60","3",""
"html-keyboard-response","56","249265","0.0-6.0-1.17","taskTesting","bdp_sd","Sat Jan 28 2023 15:32:12 GMT-0500 (Eastern Standard Time)","279009","","null","","","","","FIX","","<div class='trialBorder'><div class='vertical-center'><img style='vertical-align:center; align:center' src=img/fixation3.jpg></div></div>","null","","","","","","",""
"html-keyboard-response","57","251377","0.0-6.0-2.17","taskTesting","bdp_sd","Sat Jan 28 2023 15:32:12 GMT-0500 (Eastern Standard Time)","279009","","2111","","","","","offer","","<div class='trialBorder'><div class='vertical-center'><img style='vertical-align:center; align:center' src=img/fixation3.jpg></div><div class='cl'><div class='vertical-center'>$34<br>for<br>yourself</div></div><div class='cr'><div class='vertical-center'>$50<br>for<br>Alexa T.</div></div><div class='respDivL'><div class='vertical-center'>(E)</div></div><div class='respDivR'><div class='vertical-center'>(I)</div></div></div>","I","$34<br>for<br>yourself","$50<br>for<br>4","0","34","50","4","OTHER"
"html-keyboard-response","58","251637","0.0-6.0-3.17","taskTesting","bdp_sd","Sat Jan 28 2023 15:32:12 GMT-0500 (Eastern Standard Time)","279009","","null","","","","","offer","","<div class='trialBorder'><div class='vertical-center'><img style='vertical-align:center; align:center' src=img/fixation3.jpg></div><div class='cl'><div class='vertical-center'>$34<br>for<br>yourself</div></div><div class='cr'><div class='vertical-center'><font style='color:orange'>$50<br>for<br>Alexa T.</font></div></div><div class='respDivL'><div class='vertical-center'>(E)</div></div><div class='respDivR'><div class='vertical-center'><font style='color:orange'>(I)</font></div></div></div>","null","$34<br>for<br>yourself","$50<br>for<br>4","0","34","50","4",""
"html-keyboard-response","59","252142","0.0-6.0-1.18","taskTesting","bdp_sd","Sat Jan 28 2023 15:32:12 GMT-0500 (Eastern Standard Time)","279009","","null","","","","","FIX","","<div class='trialBorder'><div class='vertical-center'><img style='vertical-align:center; align:center' src=img/fixation3.jpg></div></div>","null","","","","","","",""
"html-keyboard-response","60","253538","0.0-6.0-2.18","taskTesting","bdp_sd","Sat Jan 28 2023 15:32:12 GMT-0500 (Eastern Standard Time)","279009","","1394","","","","","offer","","<div class='trialBorder'><div class='vertical-center'><img style='vertical-align:center; align:center' src=img/fixation3.jpg></div><div class='cl'><div class='vertical-center'>$27<br>for<br>yourself</div></div><div class='cr'><div class='vertical-center'>$50<br>for<br>Rachel T.</div></div><div class='respDivL'><div class='vertical-center'>(E)</div></div><div class='respDivR'><div class='vertical-center'>(I)</div></div></div>","I","$27<br>for<br>yourself","$50<br>for<br>3","0","27","50","3","OTHER"
"html-keyboard-response","61","253796","0.0-6.0-3.18","taskTesting","bdp_sd","Sat Jan 28 2023 15:32:12 GMT-0500 (Eastern Standard Time)","279009","","null","","","","","offer","","<div class='trialBorder'><div class='vertical-center'><img style='vertical-align:center; align:center' src=img/fixation3.jpg></div><div class='cl'><div class='vertical-center'>$27<br>for<br>yourself</div></div><div class='cr'><div class='vertical-center'><font style='color:orange'>$50<br>for<br>Rachel T.</font></div></div><div class='respDivL'><div class='vertical-center'>(E)</div></div><div class='respDivR'><div class='vertical-center'><font style='color:orange'>(I)</font></div></div></div>","null","$27<br>for<br>yourself","$50<br>for<br>3","0","27","50","3",""
"html-keyboard-response","62","254305","0.0-6.0-1.19","taskTesting","bdp_sd","Sat Jan 28 2023 15:32:12 GMT-0500 (Eastern Standard Time)","279009","","null","","","","","FIX","","<div class='trialBorder'><div class='vertical-center'><img style='vertical-align:center; align:center' src=img/fixation3.jpg></div></div>","null","","","","","","",""
"html-keyboard-response","63","255575","0.0-6.0-2.19","taskTesting","bdp_sd","Sat Jan 28 2023 15:32:12 GMT-0500 (Eastern Standard Time)","279009","","1269","","","","","offer","","<div class='trialBorder'><div class='vertical-center'><img style='vertical-align:center; align:center' src=img/fixation3.jpg></div><div class='cl'><div class='vertical-center'>$15<br>for<br>yourself</div></div><div class='cr'><div class='vertical-center'>$35<br>for<br>Amanda I.</div></div><div class='respDivL'><div class='vertical-center'>(E)</div></div><div class='respDivR'><div class='vertical-center'>(I)</div></div></div>","I","$15<br>for<br>yourself","$35<br>for<br>2","0","15","35","2","OTHER"
"html-keyboard-response","64","255833","0.0-6.0-3.19","taskTesting","bdp_sd","Sat Jan 28 2023 15:32:12 GMT-0500 (Eastern Standard Time)","279009","","null","","","","","offer","","<div class='trialBorder'><div class='vertical-center'><img style='vertical-align:center; align:center' src=img/fixation3.jpg></div><div class='cl'><div class='vertical-center'>$15<br>for<br>yourself</div></div><div class='cr'><div class='vertical-center'><font style='color:orange'>$35<br>for<br>Amanda I.</font></div></div><div class='respDivL'><div class='vertical-center'>(E)</div></div><div class='respDivR'><div class='vertical-center'><font style='color:orange'>(I)</font></div></div></div>","null","$15<br>for<br>yourself","$35<br>for<br>2","0","15","35","2",""
"html-keyboard-response","65","256345","0.0-6.0-1.20","taskTesting","bdp_sd","Sat Jan 28 2023 15:32:12 GMT-0500 (Eastern Standard Time)","279009","","null","","","","","FIX","","<div class='trialBorder'><div class='vertical-center'><img style='vertical-align:center; align:center' src=img/fixation3.jpg></div></div>","null","","","","","","",""
"html-keyboard-response","66","258679","0.0-6.0-2.20","taskTesting","bdp_sd","Sat Jan 28 2023 15:32:12 GMT-0500 (Eastern Standard Time)","279009","","2333","","","","","offer","","<div class='trialBorder'><div class='vertical-center'><img style='vertical-align:center; align:center' src=img/fixation3.jpg></div><div class='cl'><div class='vertical-center'>$60<br>for<br>Favia M.</div></div><div class='cr'><div class='vertical-center'>$54<br>for<br>yourself</div></div><div class='respDivL'><div class='vertical-center'>(E)</div></div><div class='respDivR'><div class='vertical-center'>(I)</div></div></div>","I","$54<br>for<br>yourself","$60<br>for<br>5","1","54","60","5","SELF"
"html-keyboard-response","67","258937","0.0-6.0-3.20","taskTesting","bdp_sd","Sat Jan 28 2023 15:32:12 GMT-0500 (Eastern Standard Time)","279009","","null","","","","","offer","","<div class='trialBorder'><div class='vertical-center'><img style='vertical-align:center; align:center' src=img/fixation3.jpg></div><div class='cl'><div class='vertical-center'>$60<br>for<br>Favia M.</div></div><div class='cr'><div class='vertical-center'><font style='color:orange'>$54<br>for<br>yourself</font></div></div><div class='respDivL'><div class='vertical-center'>(E)</div></div><div class='respDivR'><div class='vertical-center'><font style='color:orange'>(I)</font></div></div></div>","null","$54<br>for<br>yourself","$60<br>for<br>5","1","54","60","5",""
"html-keyboard-response","68","259444","0.0-6.0-1.21","taskTesting","bdp_sd","Sat Jan 28 2023 15:32:12 GMT-0500 (Eastern Standard Time)","279009","","null","","","","","FIX","","<div class='trialBorder'><div class='vertical-center'><img style='vertical-align:center; align:center' src=img/fixation3.jpg></div></div>","null","","","","","","",""
"html-keyboard-response","69","260997","0.0-6.0-2.21","taskTesting","bdp_sd","Sat Jan 28 2023 15:32:12 GMT-0500 (Eastern Standard Time)","279009","","1550","","","","","offer","","<div class='trialBorder'><div class='vertical-center'><img style='vertical-align:center; align:center' src=img/fixation3.jpg></div><div class='cl'><div class='vertical-center'>$80<br>for<br>Favia M.</div></div><div class='cr'><div class='vertical-center'>$78<br>for<br>yourself</div></div><div class='respDivL'><div class='vertical-center'>(E)</div></div><div class='respDivR'><div class='vertical-center'>(I)</div></div></div>","I","$78<br>for<br>yourself","$80<br>for<br>5","1","78","80","5","SELF"
"html-keyboard-response","70","261256","0.0-6.0-3.21","taskTesting","bdp_sd","Sat Jan 28 2023 15:32:12 GMT-0500 (Eastern Standard Time)","279009","","null","","","","","offer","","<div class='trialBorder'><div class='vertical-center'><img style='vertical-align:center; align:center' src=img/fixation3.jpg></div><div class='cl'><div class='vertical-center'>$80<br>for<br>Favia M.</div></div><div class='cr'><div class='vertical-center'><font style='color:orange'>$78<br>for<br>yourself</font></div></div><div class='respDivL'><div class='vertical-center'>(E)</div></div><div class='respDivR'><div class='vertical-center'><font style='color:orange'>(I)</font></div></div></div>","null","$78<br>for<br>yourself","$80<br>for<br>5","1","78","80","5",""
"html-keyboard-response","71","261768","0.0-6.0-1.22","taskTesting","bdp_sd","Sat Jan 28 2023 15:32:12 GMT-0500 (Eastern Standard Time)","279009","","null","","","","","FIX","","<div class='trialBorder'><div class='vertical-center'><img style='vertical-align:center; align:center' src=img/fixation3.jpg></div></div>","null","","","","","","",""
"html-keyboard-response","72","264033","0.0-6.0-2.22","taskTesting","bdp_sd","Sat Jan 28 2023 15:32:12 GMT-0500 (Eastern Standard Time)","279009","","2264","","","","","offer","","<div class='trialBorder'><div class='vertical-center'><img style='vertical-align:center; align:center' src=img/fixation3.jpg></div><div class='cl'><div class='vertical-center'>$30<br>for<br>Amanda I.</div></div><div class='cr'><div class='vertical-center'>$11<br>for<br>yourself</div></div><div class='respDivL'><div class='vertical-center'>(E)</div></div><div class='respDivR'><div class='vertical-center'>(I)</div></div></div>","E","$11<br>for<br>yourself","$30<br>for<br>2","1","11","30","2","OTHER"
"html-keyboard-response","73","264296","0.0-6.0-3.22","taskTesting","bdp_sd","Sat Jan 28 2023 15:32:12 GMT-0500 (Eastern Standard Time)","279009","","null","","","","","offer","","<div class='trialBorder'><div class='vertical-center'><img style='vertical-align:center; align:center' src=img/fixation3.jpg></div><div class='cl'><div class='vertical-center'><font style='color:orange'>$30<br>for<br>Amanda I.</font></div></div><div class='cr'><div class='vertical-center'>$11<br>for<br>yourself</div></div><div class='respDivL'><div class='vertical-center'><font style='color:orange'>(E)</font></div></div><div class='respDivR'><div class='vertical-center'>(I)</div></div></div>","null","$11<br>for<br>yourself","$30<br>for<br>2","1","11","30","2",""
"html-keyboard-response","74","264803","0.0-6.0-1.23","taskTesting","bdp_sd","Sat Jan 28 2023 15:32:12 GMT-0500 (Eastern Standard Time)","279009","","null","","","","","FIX","","<div class='trialBorder'><div class='vertical-center'><img style='vertical-align:center; align:center' src=img/fixation3.jpg></div></div>","null","","","","","","",""
"html-keyboard-response","75","266486","0.0-6.0-2.23","taskTesting","bdp_sd","Sat Jan 28 2023 15:32:12 GMT-0500 (Eastern Standard Time)","279009","","1681","","","","","offer","","<div class='trialBorder'><div class='vertical-center'><img style='vertical-align:center; align:center' src=img/fixation3.jpg></div><div class='cl'><div class='vertical-center'>$34<br>for<br>yourself</div></div><div class='cr'><div class='vertical-center'>$35<br>for<br>Favia M.</div></div><div class='respDivL'><div class='vertical-center'>(E)</div></div><div class='respDivR'><div class='vertical-center'>(I)</div></div></div>","E","$34<br>for<br>yourself","$35<br>for<br>5","0","34","35","5","SELF"
"html-keyboard-response","76","266740","0.0-6.0-3.23","taskTesting","bdp_sd","Sat Jan 28 2023 15:32:12 GMT-0500 (Eastern Standard Time)","279009","","null","","","","","offer","","<div class='trialBorder'><div class='vertical-center'><img style='vertical-align:center; align:center' src=img/fixation3.jpg></div><div class='cl'><div class='vertical-center'><font style='color:orange'>$34<br>for<br>yourself</font></div></div><div class='cr'><div class='vertical-center'>$35<br>for<br>Favia M.</div></div><div class='respDivL'><div class='vertical-center'><font style='color:orange'>(E)</font></div></div><div class='respDivR'><div class='vertical-center'>(I)</div></div></div>","null","$34<br>for<br>yourself","$35<br>for<br>5","0","34","35","5",""
"html-keyboard-response","77","267248","0.0-6.0-1.24","taskTesting","bdp_sd","Sat Jan 28 2023 15:32:12 GMT-0500 (Eastern Standard Time)","279009","","null","","","","","FIX","","<div class='trialBorder'><div class='vertical-center'><img style='vertical-align:center; align:center' src=img/fixation3.jpg></div></div>","null","","","","","","",""
"html-keyboard-response","78","269209","0.0-6.0-2.24","taskTesting","bdp_sd","Sat Jan 28 2023 15:32:12 GMT-0500 (Eastern Standard Time)","279009","","1959","","","","","offer","","<div class='trialBorder'><div class='vertical-center'><img style='vertical-align:center; align:center' src=img/fixation3.jpg></div><div class='cl'><div class='vertical-center'>$47<br>for<br>yourself</div></div><div class='cr'><div class='vertical-center'>$50<br>for<br>Favia M.</div></div><div class='respDivL'><div class='vertical-center'>(E)</div></div><div class='respDivR'><div class='vertical-center'>(I)</div></div></div>","E","$47<br>for<br>yourself","$50<br>for<br>5","0","47","50","5","SELF"
"html-keyboard-response","79","269468","0.0-6.0-3.24","taskTesting","bdp_sd","Sat Jan 28 2023 15:32:12 GMT-0500 (Eastern Standard Time)","279009","","null","","","","","offer","","<div class='trialBorder'><div class='vertical-center'><img style='vertical-align:center; align:center' src=img/fixation3.jpg></div><div class='cl'><div class='vertical-center'><font style='color:orange'>$47<br>for<br>yourself</font></div></div><div class='cr'><div class='vertical-center'>$50<br>for<br>Favia M.</div></div><div class='respDivL'><div class='vertical-center'><font style='color:orange'>(E)</font></div></div><div class='respDivR'><div class='vertical-center'>(I)</div></div></div>","null","$47<br>for<br>yourself","$50<br>for<br>5","0","47","50","5",""
"html-keyboard-response","80","269972","0.0-6.0-1.25","taskTesting","bdp_sd","Sat Jan 28 2023 15:32:12 GMT-0500 (Eastern Standard Time)","279009","","null","","","","","FIX","","<div class='trialBorder'><div class='vertical-center'><img style='vertical-align:center; align:center' src=img/fixation3.jpg></div></div>","null","","","","","","",""
"html-keyboard-response","81","275754","0.0-6.0-2.25","taskTesting","bdp_sd","Sat Jan 28 2023 15:32:12 GMT-0500 (Eastern Standard Time)","279009","","5780","","","","","offer","","<div class='trialBorder'><div class='vertical-center'><img style='vertical-align:center; align:center' src=img/fixation3.jpg></div><div class='cl'><div class='vertical-center'>$55<br>for<br>yourself</div></div><div class='cr'><div class='vertical-center'>$75<br>for<br>Alexa T.</div></div><div class='respDivL'><div class='vertical-center'>(E)</div></div><div class='respDivR'><div class='vertical-center'>(I)</div></div></div>","I","$55<br>for<br>yourself","$75<br>for<br>4","0","55","75","4","OTHER"
"html-keyboard-response","82","276014","0.0-6.0-3.25","taskTesting","bdp_sd","Sat Jan 28 2023 15:32:12 GMT-0500 (Eastern Standard Time)","279009","","null","","","","","offer","","<div class='trialBorder'><div class='vertical-center'><img style='vertical-align:center; align:center' src=img/fixation3.jpg></div><div class='cl'><div class='vertical-center'>$55<br>for<br>yourself</div></div><div class='cr'><div class='vertical-center'><font style='color:orange'>$75<br>for<br>Alexa T.</font></div></div><div class='respDivL'><div class='vertical-center'>(E)</div></div><div class='respDivR'><div class='vertical-center'><font style='color:orange'>(I)</font></div></div></div>","null","$55<br>for<br>yourself","$75<br>for<br>4","0","55","75","4",""
"html-keyboard-response","83","276528","0.0-6.0-1.26","taskTesting","bdp_sd","Sat Jan 28 2023 15:32:12 GMT-0500 (Eastern Standard Time)","279009","","null","","","","","FIX","","<div class='trialBorder'><div class='vertical-center'><img style='vertical-align:center; align:center' src=img/fixation3.jpg></div></div>","null","","","","","","",""
"html-keyboard-response","84","277738","0.0-6.0-2.26","taskTesting","bdp_sd","Sat Jan 28 2023 15:32:12 GMT-0500 (Eastern Standard Time)","279009","","1208","","","","","offer","","<div class='trialBorder'><div class='vertical-center'><img style='vertical-align:center; align:center' src=img/fixation3.jpg></div><div class='cl'><div class='vertical-center'>$20<br>for<br>yourself</div></div><div class='cr'><div class='vertical-center'>$55<br>for<br>Chuck L.</div></div><div class='respDivL'><div class='vertical-center'>(E)</div></div><div class='respDivR'><div class='vertical-center'>(I)</div></div></div>","I","$20<br>for<br>yourself","$55<br>for<br>1","0","20","55","1","OTHER"
"html-keyboard-response","85","277998","0.0-6.0-3.26","taskTesting","bdp_sd","Sat Jan 28 2023 15:32:12 GMT-0500 (Eastern Standard Time)","279009","","null","","","","","offer","","<div class='trialBorder'><div class='vertical-center'><img style='vertical-align:center; align:center' src=img/fixation3.jpg></div><div class='cl'><div class='vertical-center'>$20<br>for<br>yourself</div></div><div class='cr'><div class='vertical-center'><font style='color:orange'>$55<br>for<br>Chuck L.</font></div></div><div class='respDivL'><div class='vertical-center'>(E)</div></div><div class='respDivR'><div class='vertical-center'><font style='color:orange'>(I)</font></div></div></div>","null","$20<br>for<br>yourself","$55<br>for<br>1","0","20","55","1",""
"","","","","taskTesting","bdp_sd","Sat Jan 28 2023 15:32:12 GMT-0500 (Eastern Standard Time)","279009","","","","fullscreenexit","86","278004","fullscreenexit","","","","","","","","","",""
"fullscreen","86","279008","0.0-7.0","taskTesting","bdp_sd","Sat Jan 28 2023 15:32:12 GMT-0500 (Eastern Standard Time)","279009","","","","","","","","true","","","","","","","","",""
"html-keyboard-response","87","279518","0.0-8.0","","","","","","null","","","","","","","","null","","","","","","",""
