"event","trial","time","trialtype","subject_id","task","startTime","totalTime","trial_type","trial_index","time_elapsed","internal_node_id","view_history","rt","responses","success","stimulus","key_press","selfOffer","otherOffer","otherLeft","selfAmt","otherAmt","otherDist","chosen"
"focus","0","0","focusevent","5d9303bbc400a90018821b13","bdp_sd","Sat Mar 25 2023 19:48:08 GMT-0400 (Eastern Daylight Time)","274465","","","","","","","","","","","","","","","","",""
"","","","","5d9303bbc400a90018821b13","bdp_sd","Sat Mar 25 2023 19:48:08 GMT-0400 (Eastern Daylight Time)","274465","pavlovia","0","2","0.0-0.0","","","","","","","","","","","","",""
"","","","","5d9303bbc400a90018821b13","bdp_sd","Sat Mar 25 2023 19:48:08 GMT-0400 (Eastern Daylight Time)","274465","instructions","1","1782","0.0-1.0","[{""page_index"":0,""viewing_time"":1780}]","1780","","","","","","","","","","",""
"","","","","5d9303bbc400a90018821b13","bdp_sd","Sat Mar 25 2023 19:48:08 GMT-0400 (Eastern Daylight Time)","274465","survey-text","2","177109","0.0-2.0","","175326","{""Q0"":""James A"",""Q1"":""David D"",""Q2"":""Jessica L"",""Q3"":""Frank O"",""Q4"":""Danielle T""}","","","","","","","","","",""
"fullscreenexit","3","178554","fullscreenexit","5d9303bbc400a90018821b13","bdp_sd","Sat Mar 25 2023 19:48:08 GMT-0400 (Eastern Daylight Time)","274465","","","","","","","","","","","","","","","","",""
"","","","","5d9303bbc400a90018821b13","bdp_sd","Sat Mar 25 2023 19:48:08 GMT-0400 (Eastern Daylight Time)","274465","fullscreen","3","179316","0.0-3.0","","","","true","","","","","","","","",""
"","","","fullscreenfail","5d9303bbc400a90018821b13","bdp_sd","Sat Mar 25 2023 19:48:08 GMT-0400 (Eastern Daylight Time)","274465","image-keyboard-response","4","180462","0.0-4.0-0.0","","1144","","","","32","","","","","","",""
"","","","","5d9303bbc400a90018821b13","bdp_sd","Sat Mar 25 2023 19:48:08 GMT-0400 (Eastern Daylight Time)","274465","instructions","5","209488","0.0-5.0","[{""page_index"":0,""viewing_time"":4048},{""page_index"":1,""viewing_time"":19395},{""page_index"":2,""viewing_time"":5320}]","28763","","","","","","","","","","",""
"","","","FIX","5d9303bbc400a90018821b13","bdp_sd","Sat Mar 25 2023 19:48:08 GMT-0400 (Eastern Daylight Time)","274465","html-keyboard-response","6","210001","0.0-6.0-1.0","","null","","","<div class='trialBorder'><div class='vertical-center'><img style='vertical-align:center; align:center' src=img/fixation3.jpg></div></div>","null","","","","","","",""
"","","","offer","5d9303bbc400a90018821b13","bdp_sd","Sat Mar 25 2023 19:48:08 GMT-0400 (Eastern Daylight Time)","274465","html-keyboard-response","7","216286","0.0-6.0-2.0","","6284","","","<div class='trialBorder'><div class='vertical-center'><img style='vertical-align:center; align:center' src=img/fixation3.jpg></div><div class='cl'><div class='vertical-center'>$55<br>for<br>yourself</div></div><div class='cr'><div class='vertical-center'>$75<br>for<br>Frank O</div></div><div class='respDivL'><div class='vertical-center'>(E)</div></div><div class='respDivR'><div class='vertical-center'>(I)</div></div></div>","I","$55<br>for<br>yourself","$75<br>for<br>4","0","55","75","4","OTHER"
"","","","offerFB","5d9303bbc400a90018821b13","bdp_sd","Sat Mar 25 2023 19:48:08 GMT-0400 (Eastern Daylight Time)","274465","html-keyboard-response","8","216545","0.0-6.0-3.0","","null","","","<div class='trialBorder'><div class='vertical-center'><img style='vertical-align:center; align:center' src=img/fixation3.jpg></div><div class='cl'><div class='vertical-center'>$55<br>for<br>yourself</div></div><div class='cr'><div class='vertical-center'><font style='color:orange'>$75<br>for<br>Frank O</font></div></div><div class='respDivL'><div class='vertical-center'>(E)</div></div><div class='respDivR'><div class='vertical-center'><font style='color:orange'>(I)</font></div></div></div>","null","$55<br>for<br>yourself","$75<br>for<br>4","0","55","75","4",""
"","","","FIX","5d9303bbc400a90018821b13","bdp_sd","Sat Mar 25 2023 19:48:08 GMT-0400 (Eastern Daylight Time)","274465","html-keyboard-response","9","217060","0.0-6.0-1.1","","null","","","<div class='trialBorder'><div class='vertical-center'><img style='vertical-align:center; align:center' src=img/fixation3.jpg></div></div>","null","","","","","","",""
"","","","offer","5d9303bbc400a90018821b13","bdp_sd","Sat Mar 25 2023 19:48:08 GMT-0400 (Eastern Daylight Time)","274465","html-keyboard-response","10","218756","0.0-6.0-2.1","","1695","","","<div class='trialBorder'><div class='vertical-center'><img style='vertical-align:center; align:center' src=img/fixation3.jpg></div><div class='cl'><div class='vertical-center'>$60<br>for<br>Danielle T</div></div><div class='cr'><div class='vertical-center'>$54<br>for<br>yourself</div></div><div class='respDivL'><div class='vertical-center'>(E)</div></div><div class='respDivR'><div class='vertical-center'>(I)</div></div></div>","I","$54<br>for<br>yourself","$60<br>for<br>5","1","54","60","5","SELF"
"","","","offerFB","5d9303bbc400a90018821b13","bdp_sd","Sat Mar 25 2023 19:48:08 GMT-0400 (Eastern Daylight Time)","274465","html-keyboard-response","11","219009","0.0-6.0-3.1","","null","","","<div class='trialBorder'><div class='vertical-center'><img style='vertical-align:center; align:center' src=img/fixation3.jpg></div><div class='cl'><div class='vertical-center'>$60<br>for<br>Danielle T</div></div><div class='cr'><div class='vertical-center'><font style='color:orange'>$54<br>for<br>yourself</font></div></div><div class='respDivL'><div class='vertical-center'>(E)</div></div><div class='respDivR'><div class='vertical-center'><font style='color:orange'>(I)</font></div></div></div>","null","$54<br>for<br>yourself","$60<br>for<br>5","1","54","60","5",""
"","","","FIX","5d9303bbc400a90018821b13","bdp_sd","Sat Mar 25 2023 19:48:08 GMT-0400 (Eastern Daylight Time)","274465","html-keyboard-response","12","219524","0.0-6.0-1.2","","null","","","<div class='trialBorder'><div class='vertical-center'><img style='vertical-align:center; align:center' src=img/fixation3.jpg></div></div>","null","","","","","","",""
"","","","offer","5d9303bbc400a90018821b13","bdp_sd","Sat Mar 25 2023 19:48:08 GMT-0400 (Eastern Daylight Time)","274465","html-keyboard-response","13","221781","0.0-6.0-2.2","","2257","","","<div class='trialBorder'><div class='vertical-center'><img style='vertical-align:center; align:center' src=img/fixation3.jpg></div><div class='cl'><div class='vertical-center'>$80<br>for<br>Danielle T</div></div><div class='cr'><div class='vertical-center'>$78<br>for<br>yourself</div></div><div class='respDivL'><div class='vertical-center'>(E)</div></div><div class='respDivR'><div class='vertical-center'>(I)</div></div></div>","I","$78<br>for<br>yourself","$80<br>for<br>5","1","78","80","5","SELF"
"","","","offerFB","5d9303bbc400a90018821b13","bdp_sd","Sat Mar 25 2023 19:48:08 GMT-0400 (Eastern Daylight Time)","274465","html-keyboard-response","14","222035","0.0-6.0-3.2","","null","","","<div class='trialBorder'><div class='vertical-center'><img style='vertical-align:center; align:center' src=img/fixation3.jpg></div><div class='cl'><div class='vertical-center'>$80<br>for<br>Danielle T</div></div><div class='cr'><div class='vertical-center'><font style='color:orange'>$78<br>for<br>yourself</font></div></div><div class='respDivL'><div class='vertical-center'>(E)</div></div><div class='respDivR'><div class='vertical-center'><font style='color:orange'>(I)</font></div></div></div>","null","$78<br>for<br>yourself","$80<br>for<br>5","1","78","80","5",""
"","","","FIX","5d9303bbc400a90018821b13","bdp_sd","Sat Mar 25 2023 19:48:08 GMT-0400 (Eastern Daylight Time)","274465","html-keyboard-response","15","222544","0.0-6.0-1.3","","null","","","<div class='trialBorder'><div class='vertical-center'><img style='vertical-align:center; align:center' src=img/fixation3.jpg></div></div>","null","","","","","","",""
"","","","offer","5d9303bbc400a90018821b13","bdp_sd","Sat Mar 25 2023 19:48:08 GMT-0400 (Eastern Daylight Time)","274465","html-keyboard-response","16","224163","0.0-6.0-2.3","","1618","","","<div class='trialBorder'><div class='vertical-center'><img style='vertical-align:center; align:center' src=img/fixation3.jpg></div><div class='cl'><div class='vertical-center'>$47<br>for<br>yourself</div></div><div class='cr'><div class='vertical-center'>$50<br>for<br>Danielle T</div></div><div class='respDivL'><div class='vertical-center'>(E)</div></div><div class='respDivR'><div class='vertical-center'>(I)</div></div></div>","E","$47<br>for<br>yourself","$50<br>for<br>5","0","47","50","5","SELF"
"","","","offerFB","5d9303bbc400a90018821b13","bdp_sd","Sat Mar 25 2023 19:48:08 GMT-0400 (Eastern Daylight Time)","274465","html-keyboard-response","17","224415","0.0-6.0-3.3","","null","","","<div class='trialBorder'><div class='vertical-center'><img style='vertical-align:center; align:center' src=img/fixation3.jpg></div><div class='cl'><div class='vertical-center'><font style='color:orange'>$47<br>for<br>yourself</font></div></div><div class='cr'><div class='vertical-center'>$50<br>for<br>Danielle T</div></div><div class='respDivL'><div class='vertical-center'><font style='color:orange'>(E)</font></div></div><div class='respDivR'><div class='vertical-center'>(I)</div></div></div>","null","$47<br>for<br>yourself","$50<br>for<br>5","0","47","50","5",""
"","","","FIX","5d9303bbc400a90018821b13","bdp_sd","Sat Mar 25 2023 19:48:08 GMT-0400 (Eastern Daylight Time)","274465","html-keyboard-response","18","224928","0.0-6.0-1.4","","null","","","<div class='trialBorder'><div class='vertical-center'><img style='vertical-align:center; align:center' src=img/fixation3.jpg></div></div>","null","","","","","","",""
"","","","offer","5d9303bbc400a90018821b13","bdp_sd","Sat Mar 25 2023 19:48:08 GMT-0400 (Eastern Daylight Time)","274465","html-keyboard-response","19","226362","0.0-6.0-2.4","","1433","","","<div class='trialBorder'><div class='vertical-center'><img style='vertical-align:center; align:center' src=img/fixation3.jpg></div><div class='cl'><div class='vertical-center'>$55<br>for<br>James A</div></div><div class='cr'><div class='vertical-center'>$20<br>for<br>yourself</div></div><div class='respDivL'><div class='vertical-center'>(E)</div></div><div class='respDivR'><div class='vertical-center'>(I)</div></div></div>","E","$20<br>for<br>yourself","$55<br>for<br>1","1","20","55","1","OTHER"
"","","","offerFB","5d9303bbc400a90018821b13","bdp_sd","Sat Mar 25 2023 19:48:08 GMT-0400 (Eastern Daylight Time)","274465","html-keyboard-response","20","226615","0.0-6.0-3.4","","null","","","<div class='trialBorder'><div class='vertical-center'><img style='vertical-align:center; align:center' src=img/fixation3.jpg></div><div class='cl'><div class='vertical-center'><font style='color:orange'>$55<br>for<br>James A</font></div></div><div class='cr'><div class='vertical-center'>$20<br>for<br>yourself</div></div><div class='respDivL'><div class='vertical-center'><font style='color:orange'>(E)</font></div></div><div class='respDivR'><div class='vertical-center'>(I)</div></div></div>","null","$20<br>for<br>yourself","$55<br>for<br>1","1","20","55","1",""
"","","","FIX","5d9303bbc400a90018821b13","bdp_sd","Sat Mar 25 2023 19:48:08 GMT-0400 (Eastern Daylight Time)","274465","html-keyboard-response","21","227128","0.0-6.0-1.5","","null","","","<div class='trialBorder'><div class='vertical-center'><img style='vertical-align:center; align:center' src=img/fixation3.jpg></div></div>","null","","","","","","",""
"","","","offer","5d9303bbc400a90018821b13","bdp_sd","Sat Mar 25 2023 19:48:08 GMT-0400 (Eastern Daylight Time)","274465","html-keyboard-response","22","228075","0.0-6.0-2.5","","946","","","<div class='trialBorder'><div class='vertical-center'><img style='vertical-align:center; align:center' src=img/fixation3.jpg></div><div class='cl'><div class='vertical-center'>$50<br>for<br>Frank O</div></div><div class='cr'><div class='vertical-center'>$34<br>for<br>yourself</div></div><div class='respDivL'><div class='vertical-center'>(E)</div></div><div class='respDivR'><div class='vertical-center'>(I)</div></div></div>","E","$34<br>for<br>yourself","$50<br>for<br>4","1","34","50","4","OTHER"
"","","","offerFB","5d9303bbc400a90018821b13","bdp_sd","Sat Mar 25 2023 19:48:08 GMT-0400 (Eastern Daylight Time)","274465","html-keyboard-response","23","228329","0.0-6.0-3.5","","null","","","<div class='trialBorder'><div class='vertical-center'><img style='vertical-align:center; align:center' src=img/fixation3.jpg></div><div class='cl'><div class='vertical-center'><font style='color:orange'>$50<br>for<br>Frank O</font></div></div><div class='cr'><div class='vertical-center'>$34<br>for<br>yourself</div></div><div class='respDivL'><div class='vertical-center'><font style='color:orange'>(E)</font></div></div><div class='respDivR'><div class='vertical-center'>(I)</div></div></div>","null","$34<br>for<br>yourself","$50<br>for<br>4","1","34","50","4",""
"","","","FIX","5d9303bbc400a90018821b13","bdp_sd","Sat Mar 25 2023 19:48:08 GMT-0400 (Eastern Daylight Time)","274465","html-keyboard-response","24","228843","0.0-6.0-1.6","","null","","","<div class='trialBorder'><div class='vertical-center'><img style='vertical-align:center; align:center' src=img/fixation3.jpg></div></div>","null","","","","","","",""
"","","","offer","5d9303bbc400a90018821b13","bdp_sd","Sat Mar 25 2023 19:48:08 GMT-0400 (Eastern Daylight Time)","274465","html-keyboard-response","25","230137","0.0-6.0-2.6","","1293","","","<div class='trialBorder'><div class='vertical-center'><img style='vertical-align:center; align:center' src=img/fixation3.jpg></div><div class='cl'><div class='vertical-center'>$28<br>for<br>yourself</div></div><div class='cr'><div class='vertical-center'>$30<br>for<br>Danielle T</div></div><div class='respDivL'><div class='vertical-center'>(E)</div></div><div class='respDivR'><div class='vertical-center'>(I)</div></div></div>","E","$28<br>for<br>yourself","$30<br>for<br>5","0","28","30","5","SELF"
"","","","offerFB","5d9303bbc400a90018821b13","bdp_sd","Sat Mar 25 2023 19:48:08 GMT-0400 (Eastern Daylight Time)","274465","html-keyboard-response","26","230388","0.0-6.0-3.6","","null","","","<div class='trialBorder'><div class='vertical-center'><img style='vertical-align:center; align:center' src=img/fixation3.jpg></div><div class='cl'><div class='vertical-center'><font style='color:orange'>$28<br>for<br>yourself</font></div></div><div class='cr'><div class='vertical-center'>$30<br>for<br>Danielle T</div></div><div class='respDivL'><div class='vertical-center'><font style='color:orange'>(E)</font></div></div><div class='respDivR'><div class='vertical-center'>(I)</div></div></div>","null","$28<br>for<br>yourself","$30<br>for<br>5","0","28","30","5",""
"","","","FIX","5d9303bbc400a90018821b13","bdp_sd","Sat Mar 25 2023 19:48:08 GMT-0400 (Eastern Daylight Time)","274465","html-keyboard-response","27","230888","0.0-6.0-1.7","","null","","","<div class='trialBorder'><div class='vertical-center'><img style='vertical-align:center; align:center' src=img/fixation3.jpg></div></div>","null","","","","","","",""
"","","","offer","5d9303bbc400a90018821b13","bdp_sd","Sat Mar 25 2023 19:48:08 GMT-0400 (Eastern Daylight Time)","274465","html-keyboard-response","28","232333","0.0-6.0-2.7","","1445","","","<div class='trialBorder'><div class='vertical-center'><img style='vertical-align:center; align:center' src=img/fixation3.jpg></div><div class='cl'><div class='vertical-center'>$30<br>for<br>David D</div></div><div class='cr'><div class='vertical-center'>$11<br>for<br>yourself</div></div><div class='respDivL'><div class='vertical-center'>(E)</div></div><div class='respDivR'><div class='vertical-center'>(I)</div></div></div>","E","$11<br>for<br>yourself","$30<br>for<br>2","1","11","30","2","OTHER"
"","","","offerFB","5d9303bbc400a90018821b13","bdp_sd","Sat Mar 25 2023 19:48:08 GMT-0400 (Eastern Daylight Time)","274465","html-keyboard-response","29","232598","0.0-6.0-3.7","","null","","","<div class='trialBorder'><div class='vertical-center'><img style='vertical-align:center; align:center' src=img/fixation3.jpg></div><div class='cl'><div class='vertical-center'><font style='color:orange'>$30<br>for<br>David D</font></div></div><div class='cr'><div class='vertical-center'>$11<br>for<br>yourself</div></div><div class='respDivL'><div class='vertical-center'><font style='color:orange'>(E)</font></div></div><div class='respDivR'><div class='vertical-center'>(I)</div></div></div>","null","$11<br>for<br>yourself","$30<br>for<br>2","1","11","30","2",""
"","","","FIX","5d9303bbc400a90018821b13","bdp_sd","Sat Mar 25 2023 19:48:08 GMT-0400 (Eastern Daylight Time)","274465","html-keyboard-response","30","233112","0.0-6.0-1.8","","null","","","<div class='trialBorder'><div class='vertical-center'><img style='vertical-align:center; align:center' src=img/fixation3.jpg></div></div>","null","","","","","","",""
"","","","offer","5d9303bbc400a90018821b13","bdp_sd","Sat Mar 25 2023 19:48:08 GMT-0400 (Eastern Daylight Time)","274465","html-keyboard-response","31","234168","0.0-6.0-2.8","","1054","","","<div class='trialBorder'><div class='vertical-center'><img style='vertical-align:center; align:center' src=img/fixation3.jpg></div><div class='cl'><div class='vertical-center'>$14<br>for<br>yourself</div></div><div class='cr'><div class='vertical-center'>$25<br>for<br>Jessica L</div></div><div class='respDivL'><div class='vertical-center'>(E)</div></div><div class='respDivR'><div class='vertical-center'>(I)</div></div></div>","I","$14<br>for<br>yourself","$25<br>for<br>3","0","14","25","3","OTHER"
"","","","offerFB","5d9303bbc400a90018821b13","bdp_sd","Sat Mar 25 2023 19:48:08 GMT-0400 (Eastern Daylight Time)","274465","html-keyboard-response","32","234418","0.0-6.0-3.8","","null","","","<div class='trialBorder'><div class='vertical-center'><img style='vertical-align:center; align:center' src=img/fixation3.jpg></div><div class='cl'><div class='vertical-center'>$14<br>for<br>yourself</div></div><div class='cr'><div class='vertical-center'><font style='color:orange'>$25<br>for<br>Jessica L</font></div></div><div class='respDivL'><div class='vertical-center'>(E)</div></div><div class='respDivR'><div class='vertical-center'><font style='color:orange'>(I)</font></div></div></div>","null","$14<br>for<br>yourself","$25<br>for<br>3","0","14","25","3",""
"","","","FIX","5d9303bbc400a90018821b13","bdp_sd","Sat Mar 25 2023 19:48:08 GMT-0400 (Eastern Daylight Time)","274465","html-keyboard-response","33","234933","0.0-6.0-1.9","","null","","","<div class='trialBorder'><div class='vertical-center'><img style='vertical-align:center; align:center' src=img/fixation3.jpg></div></div>","null","","","","","","",""
"","","","offer","5d9303bbc400a90018821b13","bdp_sd","Sat Mar 25 2023 19:48:08 GMT-0400 (Eastern Daylight Time)","274465","html-keyboard-response","34","239608","0.0-6.0-2.9","","4674","","","<div class='trialBorder'><div class='vertical-center'><img style='vertical-align:center; align:center' src=img/fixation3.jpg></div><div class='cl'><div class='vertical-center'>$85<br>for<br>Frank O</div></div><div class='cr'><div class='vertical-center'>$69<br>for<br>yourself</div></div><div class='respDivL'><div class='vertical-center'>(E)</div></div><div class='respDivR'><div class='vertical-center'>(I)</div></div></div>","I","$69<br>for<br>yourself","$85<br>for<br>4","1","69","85","4","SELF"
"","","","offerFB","5d9303bbc400a90018821b13","bdp_sd","Sat Mar 25 2023 19:48:08 GMT-0400 (Eastern Daylight Time)","274465","html-keyboard-response","35","239872","0.0-6.0-3.9","","null","","","<div class='trialBorder'><div class='vertical-center'><img style='vertical-align:center; align:center' src=img/fixation3.jpg></div><div class='cl'><div class='vertical-center'>$85<br>for<br>Frank O</div></div><div class='cr'><div class='vertical-center'><font style='color:orange'>$69<br>for<br>yourself</font></div></div><div class='respDivL'><div class='vertical-center'>(E)</div></div><div class='respDivR'><div class='vertical-center'><font style='color:orange'>(I)</font></div></div></div>","null","$69<br>for<br>yourself","$85<br>for<br>4","1","69","85","4",""
"","","","FIX","5d9303bbc400a90018821b13","bdp_sd","Sat Mar 25 2023 19:48:08 GMT-0400 (Eastern Daylight Time)","274465","html-keyboard-response","36","240373","0.0-6.0-1.10","","null","","","<div class='trialBorder'><div class='vertical-center'><img style='vertical-align:center; align:center' src=img/fixation3.jpg></div></div>","null","","","","","","",""
"","","","offer","5d9303bbc400a90018821b13","bdp_sd","Sat Mar 25 2023 19:48:08 GMT-0400 (Eastern Daylight Time)","274465","html-keyboard-response","37","241588","0.0-6.0-2.10","","1214","","","<div class='trialBorder'><div class='vertical-center'><img style='vertical-align:center; align:center' src=img/fixation3.jpg></div><div class='cl'><div class='vertical-center'>$54<br>for<br>yourself</div></div><div class='cr'><div class='vertical-center'>$80<br>for<br>Jessica L</div></div><div class='respDivL'><div class='vertical-center'>(E)</div></div><div class='respDivR'><div class='vertical-center'>(I)</div></div></div>","I","$54<br>for<br>yourself","$80<br>for<br>3","0","54","80","3","OTHER"
"","","","offerFB","5d9303bbc400a90018821b13","bdp_sd","Sat Mar 25 2023 19:48:08 GMT-0400 (Eastern Daylight Time)","274465","html-keyboard-response","38","241853","0.0-6.0-3.10","","null","","","<div class='trialBorder'><div class='vertical-center'><img style='vertical-align:center; align:center' src=img/fixation3.jpg></div><div class='cl'><div class='vertical-center'>$54<br>for<br>yourself</div></div><div class='cr'><div class='vertical-center'><font style='color:orange'>$80<br>for<br>Jessica L</font></div></div><div class='respDivL'><div class='vertical-center'>(E)</div></div><div class='respDivR'><div class='vertical-center'><font style='color:orange'>(I)</font></div></div></div>","null","$54<br>for<br>yourself","$80<br>for<br>3","0","54","80","3",""
"","","","FIX","5d9303bbc400a90018821b13","bdp_sd","Sat Mar 25 2023 19:48:08 GMT-0400 (Eastern Daylight Time)","274465","html-keyboard-response","39","242355","0.0-6.0-1.11","","null","","","<div class='trialBorder'><div class='vertical-center'><img style='vertical-align:center; align:center' src=img/fixation3.jpg></div></div>","null","","","","","","",""
"","","","offer","5d9303bbc400a90018821b13","bdp_sd","Sat Mar 25 2023 19:48:08 GMT-0400 (Eastern Daylight Time)","274465","html-keyboard-response","40","243380","0.0-6.0-2.11","","1025","","","<div class='trialBorder'><div class='vertical-center'><img style='vertical-align:center; align:center' src=img/fixation3.jpg></div><div class='cl'><div class='vertical-center'>$75<br>for<br>Jessica L</div></div><div class='cr'><div class='vertical-center'>$41<br>for<br>yourself</div></div><div class='respDivL'><div class='vertical-center'>(E)</div></div><div class='respDivR'><div class='vertical-center'>(I)</div></div></div>","E","$41<br>for<br>yourself","$75<br>for<br>3","1","41","75","3","OTHER"
"","","","offerFB","5d9303bbc400a90018821b13","bdp_sd","Sat Mar 25 2023 19:48:08 GMT-0400 (Eastern Daylight Time)","274465","html-keyboard-response","41","243638","0.0-6.0-3.11","","null","","","<div class='trialBorder'><div class='vertical-center'><img style='vertical-align:center; align:center' src=img/fixation3.jpg></div><div class='cl'><div class='vertical-center'><font style='color:orange'>$75<br>for<br>Jessica L</font></div></div><div class='cr'><div class='vertical-center'>$41<br>for<br>yourself</div></div><div class='respDivL'><div class='vertical-center'><font style='color:orange'>(E)</font></div></div><div class='respDivR'><div class='vertical-center'>(I)</div></div></div>","null","$41<br>for<br>yourself","$75<br>for<br>3","1","41","75","3",""
"","","","FIX","5d9303bbc400a90018821b13","bdp_sd","Sat Mar 25 2023 19:48:08 GMT-0400 (Eastern Daylight Time)","274465","html-keyboard-response","42","244140","0.0-6.0-1.12","","null","","","<div class='trialBorder'><div class='vertical-center'><img style='vertical-align:center; align:center' src=img/fixation3.jpg></div></div>","null","","","","","","",""
"","","","offer","5d9303bbc400a90018821b13","bdp_sd","Sat Mar 25 2023 19:48:08 GMT-0400 (Eastern Daylight Time)","274465","html-keyboard-response","43","245306","0.0-6.0-2.12","","1165","","","<div class='trialBorder'><div class='vertical-center'><img style='vertical-align:center; align:center' src=img/fixation3.jpg></div><div class='cl'><div class='vertical-center'>$54<br>for<br>yourself</div></div><div class='cr'><div class='vertical-center'>$55<br>for<br>Danielle T</div></div><div class='respDivL'><div class='vertical-center'>(E)</div></div><div class='respDivR'><div class='vertical-center'>(I)</div></div></div>","E","$54<br>for<br>yourself","$55<br>for<br>5","0","54","55","5","SELF"
"","","","offerFB","5d9303bbc400a90018821b13","bdp_sd","Sat Mar 25 2023 19:48:08 GMT-0400 (Eastern Daylight Time)","274465","html-keyboard-response","44","245561","0.0-6.0-3.12","","null","","","<div class='trialBorder'><div class='vertical-center'><img style='vertical-align:center; align:center' src=img/fixation3.jpg></div><div class='cl'><div class='vertical-center'><font style='color:orange'>$54<br>for<br>yourself</font></div></div><div class='cr'><div class='vertical-center'>$55<br>for<br>Danielle T</div></div><div class='respDivL'><div class='vertical-center'><font style='color:orange'>(E)</font></div></div><div class='respDivR'><div class='vertical-center'>(I)</div></div></div>","null","$54<br>for<br>yourself","$55<br>for<br>5","0","54","55","5",""
"","","","FIX","5d9303bbc400a90018821b13","bdp_sd","Sat Mar 25 2023 19:48:08 GMT-0400 (Eastern Daylight Time)","274465","html-keyboard-response","45","246072","0.0-6.0-1.13","","null","","","<div class='trialBorder'><div class='vertical-center'><img style='vertical-align:center; align:center' src=img/fixation3.jpg></div></div>","null","","","","","","",""
"","","","offer","5d9303bbc400a90018821b13","bdp_sd","Sat Mar 25 2023 19:48:08 GMT-0400 (Eastern Daylight Time)","274465","html-keyboard-response","46","246961","0.0-6.0-2.13","","888","","","<div class='trialBorder'><div class='vertical-center'><img style='vertical-align:center; align:center' src=img/fixation3.jpg></div><div class='cl'><div class='vertical-center'>$85<br>for<br>James A</div></div><div class='cr'><div class='vertical-center'>$31<br>for<br>yourself</div></div><div class='respDivL'><div class='vertical-center'>(E)</div></div><div class='respDivR'><div class='vertical-center'>(I)</div></div></div>","E","$31<br>for<br>yourself","$85<br>for<br>1","1","31","85","1","OTHER"
"","","","offerFB","5d9303bbc400a90018821b13","bdp_sd","Sat Mar 25 2023 19:48:08 GMT-0400 (Eastern Daylight Time)","274465","html-keyboard-response","47","247224","0.0-6.0-3.13","","null","","","<div class='trialBorder'><div class='vertical-center'><img style='vertical-align:center; align:center' src=img/fixation3.jpg></div><div class='cl'><div class='vertical-center'><font style='color:orange'>$85<br>for<br>James A</font></div></div><div class='cr'><div class='vertical-center'>$31<br>for<br>yourself</div></div><div class='respDivL'><div class='vertical-center'><font style='color:orange'>(E)</font></div></div><div class='respDivR'><div class='vertical-center'>(I)</div></div></div>","null","$31<br>for<br>yourself","$85<br>for<br>1","1","31","85","1",""
"","","","FIX","5d9303bbc400a90018821b13","bdp_sd","Sat Mar 25 2023 19:48:08 GMT-0400 (Eastern Daylight Time)","274465","html-keyboard-response","48","247729","0.0-6.0-1.14","","null","","","<div class='trialBorder'><div class='vertical-center'><img style='vertical-align:center; align:center' src=img/fixation3.jpg></div></div>","null","","","","","","",""
"","","","offer","5d9303bbc400a90018821b13","bdp_sd","Sat Mar 25 2023 19:48:08 GMT-0400 (Eastern Daylight Time)","274465","html-keyboard-response","49","248574","0.0-6.0-2.14","","844","","","<div class='trialBorder'><div class='vertical-center'><img style='vertical-align:center; align:center' src=img/fixation3.jpg></div><div class='cl'><div class='vertical-center'>$25<br>for<br>yourself</div></div><div class='cr'><div class='vertical-center'>$60<br>for<br>Jessica L</div></div><div class='respDivL'><div class='vertical-center'>(E)</div></div><div class='respDivR'><div class='vertical-center'>(I)</div></div></div>","I","$25<br>for<br>yourself","$60<br>for<br>3","0","25","60","3","OTHER"
"","","","offerFB","5d9303bbc400a90018821b13","bdp_sd","Sat Mar 25 2023 19:48:08 GMT-0400 (Eastern Daylight Time)","274465","html-keyboard-response","50","248831","0.0-6.0-3.14","","null","","","<div class='trialBorder'><div class='vertical-center'><img style='vertical-align:center; align:center' src=img/fixation3.jpg></div><div class='cl'><div class='vertical-center'>$25<br>for<br>yourself</div></div><div class='cr'><div class='vertical-center'><font style='color:orange'>$60<br>for<br>Jessica L</font></div></div><div class='respDivL'><div class='vertical-center'>(E)</div></div><div class='respDivR'><div class='vertical-center'><font style='color:orange'>(I)</font></div></div></div>","null","$25<br>for<br>yourself","$60<br>for<br>3","0","25","60","3",""
"","","","FIX","5d9303bbc400a90018821b13","bdp_sd","Sat Mar 25 2023 19:48:08 GMT-0400 (Eastern Daylight Time)","274465","html-keyboard-response","51","249345","0.0-6.0-1.15","","null","","","<div class='trialBorder'><div class='vertical-center'><img style='vertical-align:center; align:center' src=img/fixation3.jpg></div></div>","null","","","","","","",""
"","","","offer","5d9303bbc400a90018821b13","bdp_sd","Sat Mar 25 2023 19:48:08 GMT-0400 (Eastern Daylight Time)","274465","html-keyboard-response","52","249955","0.0-6.0-2.15","","609","","","<div class='trialBorder'><div class='vertical-center'><img style='vertical-align:center; align:center' src=img/fixation3.jpg></div><div class='cl'><div class='vertical-center'>$40<br>for<br>yourself</div></div><div class='cr'><div class='vertical-center'>$55<br>for<br>Frank O</div></div><div class='respDivL'><div class='vertical-center'>(E)</div></div><div class='respDivR'><div class='vertical-center'>(I)</div></div></div>","I","$40<br>for<br>yourself","$55<br>for<br>4","0","40","55","4","OTHER"
"","","","offerFB","5d9303bbc400a90018821b13","bdp_sd","Sat Mar 25 2023 19:48:08 GMT-0400 (Eastern Daylight Time)","274465","html-keyboard-response","53","250213","0.0-6.0-3.15","","null","","","<div class='trialBorder'><div class='vertical-center'><img style='vertical-align:center; align:center' src=img/fixation3.jpg></div><div class='cl'><div class='vertical-center'>$40<br>for<br>yourself</div></div><div class='cr'><div class='vertical-center'><font style='color:orange'>$55<br>for<br>Frank O</font></div></div><div class='respDivL'><div class='vertical-center'>(E)</div></div><div class='respDivR'><div class='vertical-center'><font style='color:orange'>(I)</font></div></div></div>","null","$40<br>for<br>yourself","$55<br>for<br>4","0","40","55","4",""
"","","","FIX","5d9303bbc400a90018821b13","bdp_sd","Sat Mar 25 2023 19:48:08 GMT-0400 (Eastern Daylight Time)","274465","html-keyboard-response","54","250725","0.0-6.0-1.16","","null","","","<div class='trialBorder'><div class='vertical-center'><img style='vertical-align:center; align:center' src=img/fixation3.jpg></div></div>","null","","","","","","",""
"","","","offer","5d9303bbc400a90018821b13","bdp_sd","Sat Mar 25 2023 19:48:08 GMT-0400 (Eastern Daylight Time)","274465","html-keyboard-response","55","251603","0.0-6.0-2.16","","877","","","<div class='trialBorder'><div class='vertical-center'><img style='vertical-align:center; align:center' src=img/fixation3.jpg></div><div class='cl'><div class='vertical-center'>$15<br>for<br>yourself</div></div><div class='cr'><div class='vertical-center'>$35<br>for<br>David D</div></div><div class='respDivL'><div class='vertical-center'>(E)</div></div><div class='respDivR'><div class='vertical-center'>(I)</div></div></div>","I","$15<br>for<br>yourself","$35<br>for<br>2","0","15","35","2","OTHER"
"","","","offerFB","5d9303bbc400a90018821b13","bdp_sd","Sat Mar 25 2023 19:48:08 GMT-0400 (Eastern Daylight Time)","274465","html-keyboard-response","56","251862","0.0-6.0-3.16","","null","","","<div class='trialBorder'><div class='vertical-center'><img style='vertical-align:center; align:center' src=img/fixation3.jpg></div><div class='cl'><div class='vertical-center'>$15<br>for<br>yourself</div></div><div class='cr'><div class='vertical-center'><font style='color:orange'>$35<br>for<br>David D</font></div></div><div class='respDivL'><div class='vertical-center'>(E)</div></div><div class='respDivR'><div class='vertical-center'><font style='color:orange'>(I)</font></div></div></div>","null","$15<br>for<br>yourself","$35<br>for<br>2","0","15","35","2",""
"","","","FIX","5d9303bbc400a90018821b13","bdp_sd","Sat Mar 25 2023 19:48:08 GMT-0400 (Eastern Daylight Time)","274465","html-keyboard-response","57","252373","0.0-6.0-1.17","","null","","","<div class='trialBorder'><div class='vertical-center'><img style='vertical-align:center; align:center' src=img/fixation3.jpg></div></div>","null","","","","","","",""
"","","","offer","5d9303bbc400a90018821b13","bdp_sd","Sat Mar 25 2023 19:48:08 GMT-0400 (Eastern Daylight Time)","274465","html-keyboard-response","58","253215","0.0-6.0-2.17","","842","","","<div class='trialBorder'><div class='vertical-center'><img style='vertical-align:center; align:center' src=img/fixation3.jpg></div><div class='cl'><div class='vertical-center'>$27<br>for<br>yourself</div></div><div class='cr'><div class='vertical-center'>$50<br>for<br>Jessica L</div></div><div class='respDivL'><div class='vertical-center'>(E)</div></div><div class='respDivR'><div class='vertical-center'>(I)</div></div></div>","I","$27<br>for<br>yourself","$50<br>for<br>3","0","27","50","3","OTHER"
"","","","offerFB","5d9303bbc400a90018821b13","bdp_sd","Sat Mar 25 2023 19:48:08 GMT-0400 (Eastern Daylight Time)","274465","html-keyboard-response","59","253478","0.0-6.0-3.17","","null","","","<div class='trialBorder'><div class='vertical-center'><img style='vertical-align:center; align:center' src=img/fixation3.jpg></div><div class='cl'><div class='vertical-center'>$27<br>for<br>yourself</div></div><div class='cr'><div class='vertical-center'><font style='color:orange'>$50<br>for<br>Jessica L</font></div></div><div class='respDivL'><div class='vertical-center'>(E)</div></div><div class='respDivR'><div class='vertical-center'><font style='color:orange'>(I)</font></div></div></div>","null","$27<br>for<br>yourself","$50<br>for<br>3","0","27","50","3",""
"","","","FIX","5d9303bbc400a90018821b13","bdp_sd","Sat Mar 25 2023 19:48:08 GMT-0400 (Eastern Daylight Time)","274465","html-keyboard-response","60","253994","0.0-6.0-1.18","","null","","","<div class='trialBorder'><div class='vertical-center'><img style='vertical-align:center; align:center' src=img/fixation3.jpg></div></div>","null","","","","","","",""
"","","","offer","5d9303bbc400a90018821b13","bdp_sd","Sat Mar 25 2023 19:48:08 GMT-0400 (Eastern Daylight Time)","274465","html-keyboard-response","61","254816","0.0-6.0-2.18","","822","","","<div class='trialBorder'><div class='vertical-center'><img style='vertical-align:center; align:center' src=img/fixation3.jpg></div><div class='cl'><div class='vertical-center'>$33<br>for<br>yourself</div></div><div class='cr'><div class='vertical-center'>$80<br>for<br>David D</div></div><div class='respDivL'><div class='vertical-center'>(E)</div></div><div class='respDivR'><div class='vertical-center'>(I)</div></div></div>","I","$33<br>for<br>yourself","$80<br>for<br>2","0","33","80","2","OTHER"
"","","","offerFB","5d9303bbc400a90018821b13","bdp_sd","Sat Mar 25 2023 19:48:08 GMT-0400 (Eastern Daylight Time)","274465","html-keyboard-response","62","255068","0.0-6.0-3.18","","null","","","<div class='trialBorder'><div class='vertical-center'><img style='vertical-align:center; align:center' src=img/fixation3.jpg></div><div class='cl'><div class='vertical-center'>$33<br>for<br>yourself</div></div><div class='cr'><div class='vertical-center'><font style='color:orange'>$80<br>for<br>David D</font></div></div><div class='respDivL'><div class='vertical-center'>(E)</div></div><div class='respDivR'><div class='vertical-center'><font style='color:orange'>(I)</font></div></div></div>","null","$33<br>for<br>yourself","$80<br>for<br>2","0","33","80","2",""
"","","","FIX","5d9303bbc400a90018821b13","bdp_sd","Sat Mar 25 2023 19:48:08 GMT-0400 (Eastern Daylight Time)","274465","html-keyboard-response","63","255573","0.0-6.0-1.19","","null","","","<div class='trialBorder'><div class='vertical-center'><img style='vertical-align:center; align:center' src=img/fixation3.jpg></div></div>","null","","","","","","",""
"","","","offer","5d9303bbc400a90018821b13","bdp_sd","Sat Mar 25 2023 19:48:08 GMT-0400 (Eastern Daylight Time)","274465","html-keyboard-response","64","257130","0.0-6.0-2.19","","1557","","","<div class='trialBorder'><div class='vertical-center'><img style='vertical-align:center; align:center' src=img/fixation3.jpg></div><div class='cl'><div class='vertical-center'>$25<br>for<br>Frank O</div></div><div class='cr'><div class='vertical-center'>$19<br>for<br>yourself</div></div><div class='respDivL'><div class='vertical-center'>(E)</div></div><div class='respDivR'><div class='vertical-center'>(I)</div></div></div>","E","$19<br>for<br>yourself","$25<br>for<br>4","1","19","25","4","OTHER"
"","","","offerFB","5d9303bbc400a90018821b13","bdp_sd","Sat Mar 25 2023 19:48:08 GMT-0400 (Eastern Daylight Time)","274465","html-keyboard-response","65","257395","0.0-6.0-3.19","","null","","","<div class='trialBorder'><div class='vertical-center'><img style='vertical-align:center; align:center' src=img/fixation3.jpg></div><div class='cl'><div class='vertical-center'><font style='color:orange'>$25<br>for<br>Frank O</font></div></div><div class='cr'><div class='vertical-center'>$19<br>for<br>yourself</div></div><div class='respDivL'><div class='vertical-center'><font style='color:orange'>(E)</font></div></div><div class='respDivR'><div class='vertical-center'>(I)</div></div></div>","null","$19<br>for<br>yourself","$25<br>for<br>4","1","19","25","4",""
"","","","FIX","5d9303bbc400a90018821b13","bdp_sd","Sat Mar 25 2023 19:48:08 GMT-0400 (Eastern Daylight Time)","274465","html-keyboard-response","66","257897","0.0-6.0-1.20","","null","","","<div class='trialBorder'><div class='vertical-center'><img style='vertical-align:center; align:center' src=img/fixation3.jpg></div></div>","null","","","","","","",""
"","","","offer","5d9303bbc400a90018821b13","bdp_sd","Sat Mar 25 2023 19:48:08 GMT-0400 (Eastern Daylight Time)","274465","html-keyboard-response","67","258907","0.0-6.0-2.20","","1008","","","<div class='trialBorder'><div class='vertical-center'><img style='vertical-align:center; align:center' src=img/fixation3.jpg></div><div class='cl'><div class='vertical-center'>$35<br>for<br>Danielle T</div></div><div class='cr'><div class='vertical-center'>$34<br>for<br>yourself</div></div><div class='respDivL'><div class='vertical-center'>(E)</div></div><div class='respDivR'><div class='vertical-center'>(I)</div></div></div>","I","$34<br>for<br>yourself","$35<br>for<br>5","1","34","35","5","SELF"
"","","","offerFB","5d9303bbc400a90018821b13","bdp_sd","Sat Mar 25 2023 19:48:08 GMT-0400 (Eastern Daylight Time)","274465","html-keyboard-response","68","259172","0.0-6.0-3.20","","null","","","<div class='trialBorder'><div class='vertical-center'><img style='vertical-align:center; align:center' src=img/fixation3.jpg></div><div class='cl'><div class='vertical-center'>$35<br>for<br>Danielle T</div></div><div class='cr'><div class='vertical-center'><font style='color:orange'>$34<br>for<br>yourself</font></div></div><div class='respDivL'><div class='vertical-center'>(E)</div></div><div class='respDivR'><div class='vertical-center'><font style='color:orange'>(I)</font></div></div></div>","null","$34<br>for<br>yourself","$35<br>for<br>5","1","34","35","5",""
"","","","FIX","5d9303bbc400a90018821b13","bdp_sd","Sat Mar 25 2023 19:48:08 GMT-0400 (Eastern Daylight Time)","274465","html-keyboard-response","69","259686","0.0-6.0-1.21","","null","","","<div class='trialBorder'><div class='vertical-center'><img style='vertical-align:center; align:center' src=img/fixation3.jpg></div></div>","null","","","","","","",""
"","","","offer","5d9303bbc400a90018821b13","bdp_sd","Sat Mar 25 2023 19:48:08 GMT-0400 (Eastern Daylight Time)","274465","html-keyboard-response","70","261209","0.0-6.0-2.21","","1522","","","<div class='trialBorder'><div class='vertical-center'><img style='vertical-align:center; align:center' src=img/fixation3.jpg></div><div class='cl'><div class='vertical-center'>$80<br>for<br>yourself</div></div><div class='cr'><div class='vertical-center'>$85<br>for<br>Danielle T</div></div><div class='respDivL'><div class='vertical-center'>(E)</div></div><div class='respDivR'><div class='vertical-center'>(I)</div></div></div>","E","$80<br>for<br>yourself","$85<br>for<br>5","0","80","85","5","SELF"
"","","","offerFB","5d9303bbc400a90018821b13","bdp_sd","Sat Mar 25 2023 19:48:08 GMT-0400 (Eastern Daylight Time)","274465","html-keyboard-response","71","261465","0.0-6.0-3.21","","null","","","<div class='trialBorder'><div class='vertical-center'><img style='vertical-align:center; align:center' src=img/fixation3.jpg></div><div class='cl'><div class='vertical-center'><font style='color:orange'>$80<br>for<br>yourself</font></div></div><div class='cr'><div class='vertical-center'>$85<br>for<br>Danielle T</div></div><div class='respDivL'><div class='vertical-center'><font style='color:orange'>(E)</font></div></div><div class='respDivR'><div class='vertical-center'>(I)</div></div></div>","null","$80<br>for<br>yourself","$85<br>for<br>5","0","80","85","5",""
"","","","FIX","5d9303bbc400a90018821b13","bdp_sd","Sat Mar 25 2023 19:48:08 GMT-0400 (Eastern Daylight Time)","274465","html-keyboard-response","72","261966","0.0-6.0-1.22","","null","","","<div class='trialBorder'><div class='vertical-center'><img style='vertical-align:center; align:center' src=img/fixation3.jpg></div></div>","null","","","","","","",""
"","","","offer","5d9303bbc400a90018821b13","bdp_sd","Sat Mar 25 2023 19:48:08 GMT-0400 (Eastern Daylight Time)","274465","html-keyboard-response","73","263415","0.0-6.0-2.22","","1449","","","<div class='trialBorder'><div class='vertical-center'><img style='vertical-align:center; align:center' src=img/fixation3.jpg></div><div class='cl'><div class='vertical-center'>$60<br>for<br>Frank O</div></div><div class='cr'><div class='vertical-center'>$49<br>for<br>yourself</div></div><div class='respDivL'><div class='vertical-center'>(E)</div></div><div class='respDivR'><div class='vertical-center'>(I)</div></div></div>","I","$49<br>for<br>yourself","$60<br>for<br>4","1","49","60","4","SELF"
"","","","offerFB","5d9303bbc400a90018821b13","bdp_sd","Sat Mar 25 2023 19:48:08 GMT-0400 (Eastern Daylight Time)","274465","html-keyboard-response","74","263674","0.0-6.0-3.22","","null","","","<div class='trialBorder'><div class='vertical-center'><img style='vertical-align:center; align:center' src=img/fixation3.jpg></div><div class='cl'><div class='vertical-center'>$60<br>for<br>Frank O</div></div><div class='cr'><div class='vertical-center'><font style='color:orange'>$49<br>for<br>yourself</font></div></div><div class='respDivL'><div class='vertical-center'>(E)</div></div><div class='respDivR'><div class='vertical-center'><font style='color:orange'>(I)</font></div></div></div>","null","$49<br>for<br>yourself","$60<br>for<br>4","1","49","60","4",""
"","","","FIX","5d9303bbc400a90018821b13","bdp_sd","Sat Mar 25 2023 19:48:08 GMT-0400 (Eastern Daylight Time)","274465","html-keyboard-response","75","264177","0.0-6.0-1.23","","null","","","<div class='trialBorder'><div class='vertical-center'><img style='vertical-align:center; align:center' src=img/fixation3.jpg></div></div>","null","","","","","","",""
"","","","offer","5d9303bbc400a90018821b13","bdp_sd","Sat Mar 25 2023 19:48:08 GMT-0400 (Eastern Daylight Time)","274465","html-keyboard-response","76","265776","0.0-6.0-2.23","","1597","","","<div class='trialBorder'><div class='vertical-center'><img style='vertical-align:center; align:center' src=img/fixation3.jpg></div><div class='cl'><div class='vertical-center'>$67<br>for<br>yourself</div></div><div class='cr'><div class='vertical-center'>$75<br>for<br>Danielle T</div></div><div class='respDivL'><div class='vertical-center'>(E)</div></div><div class='respDivR'><div class='vertical-center'>(I)</div></div></div>","E","$67<br>for<br>yourself","$75<br>for<br>5","0","67","75","5","SELF"
"","","","offerFB","5d9303bbc400a90018821b13","bdp_sd","Sat Mar 25 2023 19:48:08 GMT-0400 (Eastern Daylight Time)","274465","html-keyboard-response","77","266037","0.0-6.0-3.23","","null","","","<div class='trialBorder'><div class='vertical-center'><img style='vertical-align:center; align:center' src=img/fixation3.jpg></div><div class='cl'><div class='vertical-center'><font style='color:orange'>$67<br>for<br>yourself</font></div></div><div class='cr'><div class='vertical-center'>$75<br>for<br>Danielle T</div></div><div class='respDivL'><div class='vertical-center'><font style='color:orange'>(E)</font></div></div><div class='respDivR'><div class='vertical-center'>(I)</div></div></div>","null","$67<br>for<br>yourself","$75<br>for<br>5","0","67","75","5",""
"","","","FIX","5d9303bbc400a90018821b13","bdp_sd","Sat Mar 25 2023 19:48:08 GMT-0400 (Eastern Daylight Time)","274465","html-keyboard-response","78","266551","0.0-6.0-1.24","","null","","","<div class='trialBorder'><div class='vertical-center'><img style='vertical-align:center; align:center' src=img/fixation3.jpg></div></div>","null","","","","","","",""
"","","","offer","5d9303bbc400a90018821b13","bdp_sd","Sat Mar 25 2023 19:48:08 GMT-0400 (Eastern Daylight Time)","274465","html-keyboard-response","79","268247","0.0-6.0-2.24","","1695","","","<div class='trialBorder'><div class='vertical-center'><img style='vertical-align:center; align:center' src=img/fixation3.jpg></div><div class='cl'><div class='vertical-center'>$30<br>for<br>Frank O</div></div><div class='cr'><div class='vertical-center'>$25<br>for<br>yourself</div></div><div class='respDivL'><div class='vertical-center'>(E)</div></div><div class='respDivR'><div class='vertical-center'>(I)</div></div></div>","I","$25<br>for<br>yourself","$30<br>for<br>4","1","25","30","4","SELF"
"","","","offerFB","5d9303bbc400a90018821b13","bdp_sd","Sat Mar 25 2023 19:48:08 GMT-0400 (Eastern Daylight Time)","274465","html-keyboard-response","80","268505","0.0-6.0-3.24","","null","","","<div class='trialBorder'><div class='vertical-center'><img style='vertical-align:center; align:center' src=img/fixation3.jpg></div><div class='cl'><div class='vertical-center'>$30<br>for<br>Frank O</div></div><div class='cr'><div class='vertical-center'><font style='color:orange'>$25<br>for<br>yourself</font></div></div><div class='respDivL'><div class='vertical-center'>(E)</div></div><div class='respDivR'><div class='vertical-center'><font style='color:orange'>(I)</font></div></div></div>","null","$25<br>for<br>yourself","$30<br>for<br>4","1","25","30","4",""
"","","","FIX","5d9303bbc400a90018821b13","bdp_sd","Sat Mar 25 2023 19:48:08 GMT-0400 (Eastern Daylight Time)","274465","html-keyboard-response","81","269005","0.0-6.0-1.25","","null","","","<div class='trialBorder'><div class='vertical-center'><img style='vertical-align:center; align:center' src=img/fixation3.jpg></div></div>","null","","","","","","",""
"","","","offer","5d9303bbc400a90018821b13","bdp_sd","Sat Mar 25 2023 19:48:08 GMT-0400 (Eastern Daylight Time)","274465","html-keyboard-response","82","269803","0.0-6.0-2.25","","798","","","<div class='trialBorder'><div class='vertical-center'><img style='vertical-align:center; align:center' src=img/fixation3.jpg></div><div class='cl'><div class='vertical-center'>$25<br>for<br>Danielle T</div></div><div class='cr'><div class='vertical-center'>$22<br>for<br>yourself</div></div><div class='respDivL'><div class='vertical-center'>(E)</div></div><div class='respDivR'><div class='vertical-center'>(I)</div></div></div>","I","$22<br>for<br>yourself","$25<br>for<br>5","1","22","25","5","SELF"
"","","","offerFB","5d9303bbc400a90018821b13","bdp_sd","Sat Mar 25 2023 19:48:08 GMT-0400 (Eastern Daylight Time)","274465","html-keyboard-response","83","270067","0.0-6.0-3.25","","null","","","<div class='trialBorder'><div class='vertical-center'><img style='vertical-align:center; align:center' src=img/fixation3.jpg></div><div class='cl'><div class='vertical-center'>$25<br>for<br>Danielle T</div></div><div class='cr'><div class='vertical-center'><font style='color:orange'>$22<br>for<br>yourself</font></div></div><div class='respDivL'><div class='vertical-center'>(E)</div></div><div class='respDivR'><div class='vertical-center'><font style='color:orange'>(I)</font></div></div></div>","null","$22<br>for<br>yourself","$25<br>for<br>5","1","22","25","5",""
"","","","FIX","5d9303bbc400a90018821b13","bdp_sd","Sat Mar 25 2023 19:48:08 GMT-0400 (Eastern Daylight Time)","274465","html-keyboard-response","84","270581","0.0-6.0-1.26","","null","","","<div class='trialBorder'><div class='vertical-center'><img style='vertical-align:center; align:center' src=img/fixation3.jpg></div></div>","null","","","","","","",""
"","","","offer","5d9303bbc400a90018821b13","bdp_sd","Sat Mar 25 2023 19:48:08 GMT-0400 (Eastern Daylight Time)","274465","html-keyboard-response","85","273188","0.0-6.0-2.26","","2605","","","<div class='trialBorder'><div class='vertical-center'><img style='vertical-align:center; align:center' src=img/fixation3.jpg></div><div class='cl'><div class='vertical-center'>$24<br>for<br>yourself</div></div><div class='cr'><div class='vertical-center'>$35<br>for<br>Jessica L</div></div><div class='respDivL'><div class='vertical-center'>(E)</div></div><div class='respDivR'><div class='vertical-center'>(I)</div></div></div>","I","$24<br>for<br>yourself","$35<br>for<br>3","0","24","35","3","OTHER"
"","","","offerFB","5d9303bbc400a90018821b13","bdp_sd","Sat Mar 25 2023 19:48:08 GMT-0400 (Eastern Daylight Time)","274465","html-keyboard-response","86","273454","0.0-6.0-3.26","","null","","","<div class='trialBorder'><div class='vertical-center'><img style='vertical-align:center; align:center' src=img/fixation3.jpg></div><div class='cl'><div class='vertical-center'>$24<br>for<br>yourself</div></div><div class='cr'><div class='vertical-center'><font style='color:orange'>$35<br>for<br>Jessica L</font></div></div><div class='respDivL'><div class='vertical-center'>(E)</div></div><div class='respDivR'><div class='vertical-center'><font style='color:orange'>(I)</font></div></div></div>","null","$24<br>for<br>yourself","$35<br>for<br>3","0","24","35","3",""
"fullscreenexit","87","273720","fullscreenexit","5d9303bbc400a90018821b13","bdp_sd","Sat Mar 25 2023 19:48:08 GMT-0400 (Eastern Daylight Time)","274465","","","","","","","","","","","","","","","","",""
"","","","","5d9303bbc400a90018821b13","bdp_sd","Sat Mar 25 2023 19:48:08 GMT-0400 (Eastern Daylight Time)","274465","fullscreen","87","274464","0.0-7.0","","","","true","","","","","","","","",""
"","","","","","","","","html-keyboard-response","88","274978","0.0-8.0","","null","","","","null","","","","","","",""
