"trial_type","trial_index","time_elapsed","internal_node_id","subject_id","task","startTime","totalTime","view_history","rt","responses","event","trial","time","trialtype","success","stimulus","key_press","selfOffer","otherOffer","otherLeft","selfAmt","otherAmt","otherDist","chosen"
"pavlovia","0","3","0.0-0.0","55c694e3fdf99b6c4f28595f","bdp_sd","Sat Mar 25 2023 20:35:42 GMT-0500 (Central Daylight Time)","200024","","","","","","","","","","","","","","","","",""
"instructions","1","1488","0.0-1.0","55c694e3fdf99b6c4f28595f","bdp_sd","Sat Mar 25 2023 20:35:42 GMT-0500 (Central Daylight Time)","200024","[{""page_index"":0,""viewing_time"":1485}]","1485","","","","","","","","","","","","","","",""
"survey-text","2","56915","0.0-2.0","55c694e3fdf99b6c4f28595f","bdp_sd","Sat Mar 25 2023 20:35:42 GMT-0500 (Central Daylight Time)","200024","","55427","{""Q0"":""DF"",""Q1"":""CA"",""Q2"":""GG"",""Q3"":""CT"",""Q4"":""MG""}","","","","","","","","","","","","","",""
"","","","","55c694e3fdf99b6c4f28595f","bdp_sd","Sat Mar 25 2023 20:35:42 GMT-0500 (Central Daylight Time)","200024","","","","fullscreenenter","3","58440","fullscreenenter","","","","","","","","","",""
"fullscreen","3","59438","0.0-3.0","55c694e3fdf99b6c4f28595f","bdp_sd","Sat Mar 25 2023 20:35:42 GMT-0500 (Central Daylight Time)","200024","","","","","","","","true","","","","","","","","",""
"instructions","4","104609","0.0-5.0","55c694e3fdf99b6c4f28595f","bdp_sd","Sat Mar 25 2023 20:35:42 GMT-0500 (Central Daylight Time)","200024","[{""page_index"":0,""viewing_time"":13088},{""page_index"":1,""viewing_time"":21600},{""page_index"":2,""viewing_time"":10481}]","45169","","","","","","","","","","","","","","",""
"html-keyboard-response","5","105114","0.0-6.0-1.0","55c694e3fdf99b6c4f28595f","bdp_sd","Sat Mar 25 2023 20:35:42 GMT-0500 (Central Daylight Time)","200024","","null","","","","","FIX","","<div class='trialBorder'><div class='vertical-center'><img style='vertical-align:center; align:center' src=img/fixation3.jpg></div></div>","null","","","","","","",""
"html-keyboard-response","6","109082","0.0-6.0-2.0","55c694e3fdf99b6c4f28595f","bdp_sd","Sat Mar 25 2023 20:35:42 GMT-0500 (Central Daylight Time)","200024","","3965","","","","","offer","","<div class='trialBorder'><div class='vertical-center'><img style='vertical-align:center; align:center' src=img/fixation3.jpg></div><div class='cl'><div class='vertical-center'>$49<br>for<br>yourself</div></div><div class='cr'><div class='vertical-center'>$60<br>for<br>CT</div></div><div class='respDivL'><div class='vertical-center'>(E)</div></div><div class='respDivR'><div class='vertical-center'>(I)</div></div></div>","I","$49<br>for<br>yourself","$60<br>for<br>4","0","49","60","4","OTHER"
"html-keyboard-response","7","109334","0.0-6.0-3.0","55c694e3fdf99b6c4f28595f","bdp_sd","Sat Mar 25 2023 20:35:42 GMT-0500 (Central Daylight Time)","200024","","null","","","","","offerFB","","<div class='trialBorder'><div class='vertical-center'><img style='vertical-align:center; align:center' src=img/fixation3.jpg></div><div class='cl'><div class='vertical-center'>$49<br>for<br>yourself</div></div><div class='cr'><div class='vertical-center'><font style='color:orange'>$60<br>for<br>CT</font></div></div><div class='respDivL'><div class='vertical-center'>(E)</div></div><div class='respDivR'><div class='vertical-center'><font style='color:orange'>(I)</font></div></div></div>","null","$49<br>for<br>yourself","$60<br>for<br>4","0","49","60","4",""
"html-keyboard-response","8","109836","0.0-6.0-1.1","55c694e3fdf99b6c4f28595f","bdp_sd","Sat Mar 25 2023 20:35:42 GMT-0500 (Central Daylight Time)","200024","","null","","","","","FIX","","<div class='trialBorder'><div class='vertical-center'><img style='vertical-align:center; align:center' src=img/fixation3.jpg></div></div>","null","","","","","","",""
"html-keyboard-response","9","113432","0.0-6.0-2.1","55c694e3fdf99b6c4f28595f","bdp_sd","Sat Mar 25 2023 20:35:42 GMT-0500 (Central Daylight Time)","200024","","3595","","","","","offer","","<div class='trialBorder'><div class='vertical-center'><img style='vertical-align:center; align:center' src=img/fixation3.jpg></div><div class='cl'><div class='vertical-center'>$27<br>for<br>yourself</div></div><div class='cr'><div class='vertical-center'>$50<br>for<br>GG</div></div><div class='respDivL'><div class='vertical-center'>(E)</div></div><div class='respDivR'><div class='vertical-center'>(I)</div></div></div>","I","$27<br>for<br>yourself","$50<br>for<br>3","0","27","50","3","OTHER"
"html-keyboard-response","10","113686","0.0-6.0-3.1","55c694e3fdf99b6c4f28595f","bdp_sd","Sat Mar 25 2023 20:35:42 GMT-0500 (Central Daylight Time)","200024","","null","","","","","offerFB","","<div class='trialBorder'><div class='vertical-center'><img style='vertical-align:center; align:center' src=img/fixation3.jpg></div><div class='cl'><div class='vertical-center'>$27<br>for<br>yourself</div></div><div class='cr'><div class='vertical-center'><font style='color:orange'>$50<br>for<br>GG</font></div></div><div class='respDivL'><div class='vertical-center'>(E)</div></div><div class='respDivR'><div class='vertical-center'><font style='color:orange'>(I)</font></div></div></div>","null","$27<br>for<br>yourself","$50<br>for<br>3","0","27","50","3",""
"html-keyboard-response","11","114188","0.0-6.0-1.2","55c694e3fdf99b6c4f28595f","bdp_sd","Sat Mar 25 2023 20:35:42 GMT-0500 (Central Daylight Time)","200024","","null","","","","","FIX","","<div class='trialBorder'><div class='vertical-center'><img style='vertical-align:center; align:center' src=img/fixation3.jpg></div></div>","null","","","","","","",""
"html-keyboard-response","12","115490","0.0-6.0-2.2","55c694e3fdf99b6c4f28595f","bdp_sd","Sat Mar 25 2023 20:35:42 GMT-0500 (Central Daylight Time)","200024","","1301","","","","","offer","","<div class='trialBorder'><div class='vertical-center'><img style='vertical-align:center; align:center' src=img/fixation3.jpg></div><div class='cl'><div class='vertical-center'>$31<br>for<br>yourself</div></div><div class='cr'><div class='vertical-center'>$85<br>for<br>DF</div></div><div class='respDivL'><div class='vertical-center'>(E)</div></div><div class='respDivR'><div class='vertical-center'>(I)</div></div></div>","I","$31<br>for<br>yourself","$85<br>for<br>1","0","31","85","1","OTHER"
"html-keyboard-response","13","115742","0.0-6.0-3.2","55c694e3fdf99b6c4f28595f","bdp_sd","Sat Mar 25 2023 20:35:42 GMT-0500 (Central Daylight Time)","200024","","null","","","","","offerFB","","<div class='trialBorder'><div class='vertical-center'><img style='vertical-align:center; align:center' src=img/fixation3.jpg></div><div class='cl'><div class='vertical-center'>$31<br>for<br>yourself</div></div><div class='cr'><div class='vertical-center'><font style='color:orange'>$85<br>for<br>DF</font></div></div><div class='respDivL'><div class='vertical-center'>(E)</div></div><div class='respDivR'><div class='vertical-center'><font style='color:orange'>(I)</font></div></div></div>","null","$31<br>for<br>yourself","$85<br>for<br>1","0","31","85","1",""
"html-keyboard-response","14","116243","0.0-6.0-1.3","55c694e3fdf99b6c4f28595f","bdp_sd","Sat Mar 25 2023 20:35:42 GMT-0500 (Central Daylight Time)","200024","","null","","","","","FIX","","<div class='trialBorder'><div class='vertical-center'><img style='vertical-align:center; align:center' src=img/fixation3.jpg></div></div>","null","","","","","","",""
"html-keyboard-response","15","119084","0.0-6.0-2.3","55c694e3fdf99b6c4f28595f","bdp_sd","Sat Mar 25 2023 20:35:42 GMT-0500 (Central Daylight Time)","200024","","2840","","","","","offer","","<div class='trialBorder'><div class='vertical-center'><img style='vertical-align:center; align:center' src=img/fixation3.jpg></div><div class='cl'><div class='vertical-center'>$30<br>for<br>CA</div></div><div class='cr'><div class='vertical-center'>$11<br>for<br>yourself</div></div><div class='respDivL'><div class='vertical-center'>(E)</div></div><div class='respDivR'><div class='vertical-center'>(I)</div></div></div>","E","$11<br>for<br>yourself","$30<br>for<br>2","1","11","30","2","OTHER"
"html-keyboard-response","16","119336","0.0-6.0-3.3","55c694e3fdf99b6c4f28595f","bdp_sd","Sat Mar 25 2023 20:35:42 GMT-0500 (Central Daylight Time)","200024","","null","","","","","offerFB","","<div class='trialBorder'><div class='vertical-center'><img style='vertical-align:center; align:center' src=img/fixation3.jpg></div><div class='cl'><div class='vertical-center'><font style='color:orange'>$30<br>for<br>CA</font></div></div><div class='cr'><div class='vertical-center'>$11<br>for<br>yourself</div></div><div class='respDivL'><div class='vertical-center'><font style='color:orange'>(E)</font></div></div><div class='respDivR'><div class='vertical-center'>(I)</div></div></div>","null","$11<br>for<br>yourself","$30<br>for<br>2","1","11","30","2",""
"html-keyboard-response","17","119837","0.0-6.0-1.4","55c694e3fdf99b6c4f28595f","bdp_sd","Sat Mar 25 2023 20:35:42 GMT-0500 (Central Daylight Time)","200024","","null","","","","","FIX","","<div class='trialBorder'><div class='vertical-center'><img style='vertical-align:center; align:center' src=img/fixation3.jpg></div></div>","null","","","","","","",""
"html-keyboard-response","18","124607","0.0-6.0-2.4","55c694e3fdf99b6c4f28595f","bdp_sd","Sat Mar 25 2023 20:35:42 GMT-0500 (Central Daylight Time)","200024","","4767","","","","","offer","","<div class='trialBorder'><div class='vertical-center'><img style='vertical-align:center; align:center' src=img/fixation3.jpg></div><div class='cl'><div class='vertical-center'>$40<br>for<br>yourself</div></div><div class='cr'><div class='vertical-center'>$55<br>for<br>CT</div></div><div class='respDivL'><div class='vertical-center'>(E)</div></div><div class='respDivR'><div class='vertical-center'>(I)</div></div></div>","E","$40<br>for<br>yourself","$55<br>for<br>4","0","40","55","4","SELF"
"html-keyboard-response","19","124858","0.0-6.0-3.4","55c694e3fdf99b6c4f28595f","bdp_sd","Sat Mar 25 2023 20:35:42 GMT-0500 (Central Daylight Time)","200024","","null","","","","","offerFB","","<div class='trialBorder'><div class='vertical-center'><img style='vertical-align:center; align:center' src=img/fixation3.jpg></div><div class='cl'><div class='vertical-center'><font style='color:orange'>$40<br>for<br>yourself</font></div></div><div class='cr'><div class='vertical-center'>$55<br>for<br>CT</div></div><div class='respDivL'><div class='vertical-center'><font style='color:orange'>(E)</font></div></div><div class='respDivR'><div class='vertical-center'>(I)</div></div></div>","null","$40<br>for<br>yourself","$55<br>for<br>4","0","40","55","4",""
"html-keyboard-response","20","125360","0.0-6.0-1.5","55c694e3fdf99b6c4f28595f","bdp_sd","Sat Mar 25 2023 20:35:42 GMT-0500 (Central Daylight Time)","200024","","null","","","","","FIX","","<div class='trialBorder'><div class='vertical-center'><img style='vertical-align:center; align:center' src=img/fixation3.jpg></div></div>","null","","","","","","",""
"html-keyboard-response","21","127102","0.0-6.0-2.5","55c694e3fdf99b6c4f28595f","bdp_sd","Sat Mar 25 2023 20:35:42 GMT-0500 (Central Daylight Time)","200024","","1741","","","","","offer","","<div class='trialBorder'><div class='vertical-center'><img style='vertical-align:center; align:center' src=img/fixation3.jpg></div><div class='cl'><div class='vertical-center'>$75<br>for<br>CT</div></div><div class='cr'><div class='vertical-center'>$55<br>for<br>yourself</div></div><div class='respDivL'><div class='vertical-center'>(E)</div></div><div class='respDivR'><div class='vertical-center'>(I)</div></div></div>","E","$55<br>for<br>yourself","$75<br>for<br>4","1","55","75","4","OTHER"
"html-keyboard-response","22","127355","0.0-6.0-3.5","55c694e3fdf99b6c4f28595f","bdp_sd","Sat Mar 25 2023 20:35:42 GMT-0500 (Central Daylight Time)","200024","","null","","","","","offerFB","","<div class='trialBorder'><div class='vertical-center'><img style='vertical-align:center; align:center' src=img/fixation3.jpg></div><div class='cl'><div class='vertical-center'><font style='color:orange'>$75<br>for<br>CT</font></div></div><div class='cr'><div class='vertical-center'>$55<br>for<br>yourself</div></div><div class='respDivL'><div class='vertical-center'><font style='color:orange'>(E)</font></div></div><div class='respDivR'><div class='vertical-center'>(I)</div></div></div>","null","$55<br>for<br>yourself","$75<br>for<br>4","1","55","75","4",""
"html-keyboard-response","23","127856","0.0-6.0-1.6","55c694e3fdf99b6c4f28595f","bdp_sd","Sat Mar 25 2023 20:35:42 GMT-0500 (Central Daylight Time)","200024","","null","","","","","FIX","","<div class='trialBorder'><div class='vertical-center'><img style='vertical-align:center; align:center' src=img/fixation3.jpg></div></div>","null","","","","","","",""
"html-keyboard-response","24","131412","0.0-6.0-2.6","55c694e3fdf99b6c4f28595f","bdp_sd","Sat Mar 25 2023 20:35:42 GMT-0500 (Central Daylight Time)","200024","","3555","","","","","offer","","<div class='trialBorder'><div class='vertical-center'><img style='vertical-align:center; align:center' src=img/fixation3.jpg></div><div class='cl'><div class='vertical-center'>$54<br>for<br>yourself</div></div><div class='cr'><div class='vertical-center'>$60<br>for<br>MG</div></div><div class='respDivL'><div class='vertical-center'>(E)</div></div><div class='respDivR'><div class='vertical-center'>(I)</div></div></div>","E","$54<br>for<br>yourself","$60<br>for<br>5","0","54","60","5","SELF"
"html-keyboard-response","25","131666","0.0-6.0-3.6","55c694e3fdf99b6c4f28595f","bdp_sd","Sat Mar 25 2023 20:35:42 GMT-0500 (Central Daylight Time)","200024","","null","","","","","offerFB","","<div class='trialBorder'><div class='vertical-center'><img style='vertical-align:center; align:center' src=img/fixation3.jpg></div><div class='cl'><div class='vertical-center'><font style='color:orange'>$54<br>for<br>yourself</font></div></div><div class='cr'><div class='vertical-center'>$60<br>for<br>MG</div></div><div class='respDivL'><div class='vertical-center'><font style='color:orange'>(E)</font></div></div><div class='respDivR'><div class='vertical-center'>(I)</div></div></div>","null","$54<br>for<br>yourself","$60<br>for<br>5","0","54","60","5",""
"html-keyboard-response","26","132168","0.0-6.0-1.7","55c694e3fdf99b6c4f28595f","bdp_sd","Sat Mar 25 2023 20:35:42 GMT-0500 (Central Daylight Time)","200024","","null","","","","","FIX","","<div class='trialBorder'><div class='vertical-center'><img style='vertical-align:center; align:center' src=img/fixation3.jpg></div></div>","null","","","","","","",""
"html-keyboard-response","27","134767","0.0-6.0-2.7","55c694e3fdf99b6c4f28595f","bdp_sd","Sat Mar 25 2023 20:35:42 GMT-0500 (Central Daylight Time)","200024","","2597","","","","","offer","","<div class='trialBorder'><div class='vertical-center'><img style='vertical-align:center; align:center' src=img/fixation3.jpg></div><div class='cl'><div class='vertical-center'>$22<br>for<br>yourself</div></div><div class='cr'><div class='vertical-center'>$25<br>for<br>MG</div></div><div class='respDivL'><div class='vertical-center'>(E)</div></div><div class='respDivR'><div class='vertical-center'>(I)</div></div></div>","E","$22<br>for<br>yourself","$25<br>for<br>5","0","22","25","5","SELF"
"html-keyboard-response","28","135020","0.0-6.0-3.7","55c694e3fdf99b6c4f28595f","bdp_sd","Sat Mar 25 2023 20:35:42 GMT-0500 (Central Daylight Time)","200024","","null","","","","","offerFB","","<div class='trialBorder'><div class='vertical-center'><img style='vertical-align:center; align:center' src=img/fixation3.jpg></div><div class='cl'><div class='vertical-center'><font style='color:orange'>$22<br>for<br>yourself</font></div></div><div class='cr'><div class='vertical-center'>$25<br>for<br>MG</div></div><div class='respDivL'><div class='vertical-center'><font style='color:orange'>(E)</font></div></div><div class='respDivR'><div class='vertical-center'>(I)</div></div></div>","null","$22<br>for<br>yourself","$25<br>for<br>5","0","22","25","5",""
"html-keyboard-response","29","135522","0.0-6.0-1.8","55c694e3fdf99b6c4f28595f","bdp_sd","Sat Mar 25 2023 20:35:42 GMT-0500 (Central Daylight Time)","200024","","null","","","","","FIX","","<div class='trialBorder'><div class='vertical-center'><img style='vertical-align:center; align:center' src=img/fixation3.jpg></div></div>","null","","","","","","",""
"html-keyboard-response","30","138938","0.0-6.0-2.8","55c694e3fdf99b6c4f28595f","bdp_sd","Sat Mar 25 2023 20:35:42 GMT-0500 (Central Daylight Time)","200024","","3415","","","","","offer","","<div class='trialBorder'><div class='vertical-center'><img style='vertical-align:center; align:center' src=img/fixation3.jpg></div><div class='cl'><div class='vertical-center'>$78<br>for<br>yourself</div></div><div class='cr'><div class='vertical-center'>$80<br>for<br>MG</div></div><div class='respDivL'><div class='vertical-center'>(E)</div></div><div class='respDivR'><div class='vertical-center'>(I)</div></div></div>","E","$78<br>for<br>yourself","$80<br>for<br>5","0","78","80","5","SELF"
"html-keyboard-response","31","139190","0.0-6.0-3.8","55c694e3fdf99b6c4f28595f","bdp_sd","Sat Mar 25 2023 20:35:42 GMT-0500 (Central Daylight Time)","200024","","null","","","","","offerFB","","<div class='trialBorder'><div class='vertical-center'><img style='vertical-align:center; align:center' src=img/fixation3.jpg></div><div class='cl'><div class='vertical-center'><font style='color:orange'>$78<br>for<br>yourself</font></div></div><div class='cr'><div class='vertical-center'>$80<br>for<br>MG</div></div><div class='respDivL'><div class='vertical-center'><font style='color:orange'>(E)</font></div></div><div class='respDivR'><div class='vertical-center'>(I)</div></div></div>","null","$78<br>for<br>yourself","$80<br>for<br>5","0","78","80","5",""
"html-keyboard-response","32","139692","0.0-6.0-1.9","55c694e3fdf99b6c4f28595f","bdp_sd","Sat Mar 25 2023 20:35:42 GMT-0500 (Central Daylight Time)","200024","","null","","","","","FIX","","<div class='trialBorder'><div class='vertical-center'><img style='vertical-align:center; align:center' src=img/fixation3.jpg></div></div>","null","","","","","","",""
"html-keyboard-response","33","142216","0.0-6.0-2.9","55c694e3fdf99b6c4f28595f","bdp_sd","Sat Mar 25 2023 20:35:42 GMT-0500 (Central Daylight Time)","200024","","2524","","","","","offer","","<div class='trialBorder'><div class='vertical-center'><img style='vertical-align:center; align:center' src=img/fixation3.jpg></div><div class='cl'><div class='vertical-center'>$67<br>for<br>yourself</div></div><div class='cr'><div class='vertical-center'>$75<br>for<br>MG</div></div><div class='respDivL'><div class='vertical-center'>(E)</div></div><div class='respDivR'><div class='vertical-center'>(I)</div></div></div>","E","$67<br>for<br>yourself","$75<br>for<br>5","0","67","75","5","SELF"
"html-keyboard-response","34","142469","0.0-6.0-3.9","55c694e3fdf99b6c4f28595f","bdp_sd","Sat Mar 25 2023 20:35:42 GMT-0500 (Central Daylight Time)","200024","","null","","","","","offerFB","","<div class='trialBorder'><div class='vertical-center'><img style='vertical-align:center; align:center' src=img/fixation3.jpg></div><div class='cl'><div class='vertical-center'><font style='color:orange'>$67<br>for<br>yourself</font></div></div><div class='cr'><div class='vertical-center'>$75<br>for<br>MG</div></div><div class='respDivL'><div class='vertical-center'><font style='color:orange'>(E)</font></div></div><div class='respDivR'><div class='vertical-center'>(I)</div></div></div>","null","$67<br>for<br>yourself","$75<br>for<br>5","0","67","75","5",""
"html-keyboard-response","35","142970","0.0-6.0-1.10","55c694e3fdf99b6c4f28595f","bdp_sd","Sat Mar 25 2023 20:35:42 GMT-0500 (Central Daylight Time)","200024","","null","","","","","FIX","","<div class='trialBorder'><div class='vertical-center'><img style='vertical-align:center; align:center' src=img/fixation3.jpg></div></div>","null","","","","","","",""
"html-keyboard-response","36","144577","0.0-6.0-2.10","55c694e3fdf99b6c4f28595f","bdp_sd","Sat Mar 25 2023 20:35:42 GMT-0500 (Central Daylight Time)","200024","","1607","","","","","offer","","<div class='trialBorder'><div class='vertical-center'><img style='vertical-align:center; align:center' src=img/fixation3.jpg></div><div class='cl'><div class='vertical-center'>$54<br>for<br>yourself</div></div><div class='cr'><div class='vertical-center'>$80<br>for<br>GG</div></div><div class='respDivL'><div class='vertical-center'>(E)</div></div><div class='respDivR'><div class='vertical-center'>(I)</div></div></div>","I","$54<br>for<br>yourself","$80<br>for<br>3","0","54","80","3","OTHER"
"html-keyboard-response","37","144829","0.0-6.0-3.10","55c694e3fdf99b6c4f28595f","bdp_sd","Sat Mar 25 2023 20:35:42 GMT-0500 (Central Daylight Time)","200024","","null","","","","","offerFB","","<div class='trialBorder'><div class='vertical-center'><img style='vertical-align:center; align:center' src=img/fixation3.jpg></div><div class='cl'><div class='vertical-center'>$54<br>for<br>yourself</div></div><div class='cr'><div class='vertical-center'><font style='color:orange'>$80<br>for<br>GG</font></div></div><div class='respDivL'><div class='vertical-center'>(E)</div></div><div class='respDivR'><div class='vertical-center'><font style='color:orange'>(I)</font></div></div></div>","null","$54<br>for<br>yourself","$80<br>for<br>3","0","54","80","3",""
"html-keyboard-response","38","145331","0.0-6.0-1.11","55c694e3fdf99b6c4f28595f","bdp_sd","Sat Mar 25 2023 20:35:42 GMT-0500 (Central Daylight Time)","200024","","null","","","","","FIX","","<div class='trialBorder'><div class='vertical-center'><img style='vertical-align:center; align:center' src=img/fixation3.jpg></div></div>","null","","","","","","",""
"html-keyboard-response","39","147174","0.0-6.0-2.11","55c694e3fdf99b6c4f28595f","bdp_sd","Sat Mar 25 2023 20:35:42 GMT-0500 (Central Daylight Time)","200024","","1842","","","","","offer","","<div class='trialBorder'><div class='vertical-center'><img style='vertical-align:center; align:center' src=img/fixation3.jpg></div><div class='cl'><div class='vertical-center'>$34<br>for<br>yourself</div></div><div class='cr'><div class='vertical-center'>$50<br>for<br>CT</div></div><div class='respDivL'><div class='vertical-center'>(E)</div></div><div class='respDivR'><div class='vertical-center'>(I)</div></div></div>","I","$34<br>for<br>yourself","$50<br>for<br>4","0","34","50","4","OTHER"
"html-keyboard-response","40","147427","0.0-6.0-3.11","55c694e3fdf99b6c4f28595f","bdp_sd","Sat Mar 25 2023 20:35:42 GMT-0500 (Central Daylight Time)","200024","","null","","","","","offerFB","","<div class='trialBorder'><div class='vertical-center'><img style='vertical-align:center; align:center' src=img/fixation3.jpg></div><div class='cl'><div class='vertical-center'>$34<br>for<br>yourself</div></div><div class='cr'><div class='vertical-center'><font style='color:orange'>$50<br>for<br>CT</font></div></div><div class='respDivL'><div class='vertical-center'>(E)</div></div><div class='respDivR'><div class='vertical-center'><font style='color:orange'>(I)</font></div></div></div>","null","$34<br>for<br>yourself","$50<br>for<br>4","0","34","50","4",""
"html-keyboard-response","41","147928","0.0-6.0-1.12","55c694e3fdf99b6c4f28595f","bdp_sd","Sat Mar 25 2023 20:35:42 GMT-0500 (Central Daylight Time)","200024","","null","","","","","FIX","","<div class='trialBorder'><div class='vertical-center'><img style='vertical-align:center; align:center' src=img/fixation3.jpg></div></div>","null","","","","","","",""
"html-keyboard-response","42","149096","0.0-6.0-2.12","55c694e3fdf99b6c4f28595f","bdp_sd","Sat Mar 25 2023 20:35:42 GMT-0500 (Central Daylight Time)","200024","","1167","","","","","offer","","<div class='trialBorder'><div class='vertical-center'><img style='vertical-align:center; align:center' src=img/fixation3.jpg></div><div class='cl'><div class='vertical-center'>$47<br>for<br>yourself</div></div><div class='cr'><div class='vertical-center'>$50<br>for<br>MG</div></div><div class='respDivL'><div class='vertical-center'>(E)</div></div><div class='respDivR'><div class='vertical-center'>(I)</div></div></div>","E","$47<br>for<br>yourself","$50<br>for<br>5","0","47","50","5","SELF"
"html-keyboard-response","43","149348","0.0-6.0-3.12","55c694e3fdf99b6c4f28595f","bdp_sd","Sat Mar 25 2023 20:35:42 GMT-0500 (Central Daylight Time)","200024","","null","","","","","offerFB","","<div class='trialBorder'><div class='vertical-center'><img style='vertical-align:center; align:center' src=img/fixation3.jpg></div><div class='cl'><div class='vertical-center'><font style='color:orange'>$47<br>for<br>yourself</font></div></div><div class='cr'><div class='vertical-center'>$50<br>for<br>MG</div></div><div class='respDivL'><div class='vertical-center'><font style='color:orange'>(E)</font></div></div><div class='respDivR'><div class='vertical-center'>(I)</div></div></div>","null","$47<br>for<br>yourself","$50<br>for<br>5","0","47","50","5",""
"html-keyboard-response","44","149849","0.0-6.0-1.13","55c694e3fdf99b6c4f28595f","bdp_sd","Sat Mar 25 2023 20:35:42 GMT-0500 (Central Daylight Time)","200024","","null","","","","","FIX","","<div class='trialBorder'><div class='vertical-center'><img style='vertical-align:center; align:center' src=img/fixation3.jpg></div></div>","null","","","","","","",""
"html-keyboard-response","45","153131","0.0-6.0-2.13","55c694e3fdf99b6c4f28595f","bdp_sd","Sat Mar 25 2023 20:35:42 GMT-0500 (Central Daylight Time)","200024","","3280","","","","","offer","","<div class='trialBorder'><div class='vertical-center'><img style='vertical-align:center; align:center' src=img/fixation3.jpg></div><div class='cl'><div class='vertical-center'>$35<br>for<br>CA</div></div><div class='cr'><div class='vertical-center'>$15<br>for<br>yourself</div></div><div class='respDivL'><div class='vertical-center'>(E)</div></div><div class='respDivR'><div class='vertical-center'>(I)</div></div></div>","E","$15<br>for<br>yourself","$35<br>for<br>2","1","15","35","2","OTHER"
"html-keyboard-response","46","153385","0.0-6.0-3.13","55c694e3fdf99b6c4f28595f","bdp_sd","Sat Mar 25 2023 20:35:42 GMT-0500 (Central Daylight Time)","200024","","null","","","","","offerFB","","<div class='trialBorder'><div class='vertical-center'><img style='vertical-align:center; align:center' src=img/fixation3.jpg></div><div class='cl'><div class='vertical-center'><font style='color:orange'>$35<br>for<br>CA</font></div></div><div class='cr'><div class='vertical-center'>$15<br>for<br>yourself</div></div><div class='respDivL'><div class='vertical-center'><font style='color:orange'>(E)</font></div></div><div class='respDivR'><div class='vertical-center'>(I)</div></div></div>","null","$15<br>for<br>yourself","$35<br>for<br>2","1","15","35","2",""
"html-keyboard-response","47","153886","0.0-6.0-1.14","55c694e3fdf99b6c4f28595f","bdp_sd","Sat Mar 25 2023 20:35:42 GMT-0500 (Central Daylight Time)","200024","","null","","","","","FIX","","<div class='trialBorder'><div class='vertical-center'><img style='vertical-align:center; align:center' src=img/fixation3.jpg></div></div>","null","","","","","","",""
"html-keyboard-response","48","155325","0.0-6.0-2.14","55c694e3fdf99b6c4f28595f","bdp_sd","Sat Mar 25 2023 20:35:42 GMT-0500 (Central Daylight Time)","200024","","1437","","","","","offer","","<div class='trialBorder'><div class='vertical-center'><img style='vertical-align:center; align:center' src=img/fixation3.jpg></div><div class='cl'><div class='vertical-center'>$55<br>for<br>MG</div></div><div class='cr'><div class='vertical-center'>$54<br>for<br>yourself</div></div><div class='respDivL'><div class='vertical-center'>(E)</div></div><div class='respDivR'><div class='vertical-center'>(I)</div></div></div>","I","$54<br>for<br>yourself","$55<br>for<br>5","1","54","55","5","SELF"
"html-keyboard-response","49","155576","0.0-6.0-3.14","55c694e3fdf99b6c4f28595f","bdp_sd","Sat Mar 25 2023 20:35:42 GMT-0500 (Central Daylight Time)","200024","","null","","","","","offerFB","","<div class='trialBorder'><div class='vertical-center'><img style='vertical-align:center; align:center' src=img/fixation3.jpg></div><div class='cl'><div class='vertical-center'>$55<br>for<br>MG</div></div><div class='cr'><div class='vertical-center'><font style='color:orange'>$54<br>for<br>yourself</font></div></div><div class='respDivL'><div class='vertical-center'>(E)</div></div><div class='respDivR'><div class='vertical-center'><font style='color:orange'>(I)</font></div></div></div>","null","$54<br>for<br>yourself","$55<br>for<br>5","1","54","55","5",""
"html-keyboard-response","50","156078","0.0-6.0-1.15","55c694e3fdf99b6c4f28595f","bdp_sd","Sat Mar 25 2023 20:35:42 GMT-0500 (Central Daylight Time)","200024","","null","","","","","FIX","","<div class='trialBorder'><div class='vertical-center'><img style='vertical-align:center; align:center' src=img/fixation3.jpg></div></div>","null","","","","","","",""
"html-keyboard-response","51","159341","0.0-6.0-2.15","55c694e3fdf99b6c4f28595f","bdp_sd","Sat Mar 25 2023 20:35:42 GMT-0500 (Central Daylight Time)","200024","","3262","","","","","offer","","<div class='trialBorder'><div class='vertical-center'><img style='vertical-align:center; align:center' src=img/fixation3.jpg></div><div class='cl'><div class='vertical-center'>$20<br>for<br>yourself</div></div><div class='cr'><div class='vertical-center'>$55<br>for<br>DF</div></div><div class='respDivL'><div class='vertical-center'>(E)</div></div><div class='respDivR'><div class='vertical-center'>(I)</div></div></div>","I","$20<br>for<br>yourself","$55<br>for<br>1","0","20","55","1","OTHER"
"html-keyboard-response","52","159593","0.0-6.0-3.15","55c694e3fdf99b6c4f28595f","bdp_sd","Sat Mar 25 2023 20:35:42 GMT-0500 (Central Daylight Time)","200024","","null","","","","","offerFB","","<div class='trialBorder'><div class='vertical-center'><img style='vertical-align:center; align:center' src=img/fixation3.jpg></div><div class='cl'><div class='vertical-center'>$20<br>for<br>yourself</div></div><div class='cr'><div class='vertical-center'><font style='color:orange'>$55<br>for<br>DF</font></div></div><div class='respDivL'><div class='vertical-center'>(E)</div></div><div class='respDivR'><div class='vertical-center'><font style='color:orange'>(I)</font></div></div></div>","null","$20<br>for<br>yourself","$55<br>for<br>1","0","20","55","1",""
"html-keyboard-response","53","160095","0.0-6.0-1.16","55c694e3fdf99b6c4f28595f","bdp_sd","Sat Mar 25 2023 20:35:42 GMT-0500 (Central Daylight Time)","200024","","null","","","","","FIX","","<div class='trialBorder'><div class='vertical-center'><img style='vertical-align:center; align:center' src=img/fixation3.jpg></div></div>","null","","","","","","",""
"html-keyboard-response","54","160967","0.0-6.0-2.16","55c694e3fdf99b6c4f28595f","bdp_sd","Sat Mar 25 2023 20:35:42 GMT-0500 (Central Daylight Time)","200024","","871","","","","","offer","","<div class='trialBorder'><div class='vertical-center'><img style='vertical-align:center; align:center' src=img/fixation3.jpg></div><div class='cl'><div class='vertical-center'>$60<br>for<br>GG</div></div><div class='cr'><div class='vertical-center'>$25<br>for<br>yourself</div></div><div class='respDivL'><div class='vertical-center'>(E)</div></div><div class='respDivR'><div class='vertical-center'>(I)</div></div></div>","E","$25<br>for<br>yourself","$60<br>for<br>3","1","25","60","3","OTHER"
"html-keyboard-response","55","161218","0.0-6.0-3.16","55c694e3fdf99b6c4f28595f","bdp_sd","Sat Mar 25 2023 20:35:42 GMT-0500 (Central Daylight Time)","200024","","null","","","","","offerFB","","<div class='trialBorder'><div class='vertical-center'><img style='vertical-align:center; align:center' src=img/fixation3.jpg></div><div class='cl'><div class='vertical-center'><font style='color:orange'>$60<br>for<br>GG</font></div></div><div class='cr'><div class='vertical-center'>$25<br>for<br>yourself</div></div><div class='respDivL'><div class='vertical-center'><font style='color:orange'>(E)</font></div></div><div class='respDivR'><div class='vertical-center'>(I)</div></div></div>","null","$25<br>for<br>yourself","$60<br>for<br>3","1","25","60","3",""
"html-keyboard-response","56","161720","0.0-6.0-1.17","55c694e3fdf99b6c4f28595f","bdp_sd","Sat Mar 25 2023 20:35:42 GMT-0500 (Central Daylight Time)","200024","","null","","","","","FIX","","<div class='trialBorder'><div class='vertical-center'><img style='vertical-align:center; align:center' src=img/fixation3.jpg></div></div>","null","","","","","","",""
"html-keyboard-response","57","163586","0.0-6.0-2.17","55c694e3fdf99b6c4f28595f","bdp_sd","Sat Mar 25 2023 20:35:42 GMT-0500 (Central Daylight Time)","200024","","1864","","","","","offer","","<div class='trialBorder'><div class='vertical-center'><img style='vertical-align:center; align:center' src=img/fixation3.jpg></div><div class='cl'><div class='vertical-center'>$30<br>for<br>CT</div></div><div class='cr'><div class='vertical-center'>$25<br>for<br>yourself</div></div><div class='respDivL'><div class='vertical-center'>(E)</div></div><div class='respDivR'><div class='vertical-center'>(I)</div></div></div>","E","$25<br>for<br>yourself","$30<br>for<br>4","1","25","30","4","OTHER"
"html-keyboard-response","58","163838","0.0-6.0-3.17","55c694e3fdf99b6c4f28595f","bdp_sd","Sat Mar 25 2023 20:35:42 GMT-0500 (Central Daylight Time)","200024","","null","","","","","offerFB","","<div class='trialBorder'><div class='vertical-center'><img style='vertical-align:center; align:center' src=img/fixation3.jpg></div><div class='cl'><div class='vertical-center'><font style='color:orange'>$30<br>for<br>CT</font></div></div><div class='cr'><div class='vertical-center'>$25<br>for<br>yourself</div></div><div class='respDivL'><div class='vertical-center'><font style='color:orange'>(E)</font></div></div><div class='respDivR'><div class='vertical-center'>(I)</div></div></div>","null","$25<br>for<br>yourself","$30<br>for<br>4","1","25","30","4",""
"html-keyboard-response","59","164341","0.0-6.0-1.18","55c694e3fdf99b6c4f28595f","bdp_sd","Sat Mar 25 2023 20:35:42 GMT-0500 (Central Daylight Time)","200024","","null","","","","","FIX","","<div class='trialBorder'><div class='vertical-center'><img style='vertical-align:center; align:center' src=img/fixation3.jpg></div></div>","null","","","","","","",""
"html-keyboard-response","60","167926","0.0-6.0-2.18","55c694e3fdf99b6c4f28595f","bdp_sd","Sat Mar 25 2023 20:35:42 GMT-0500 (Central Daylight Time)","200024","","3584","","","","","offer","","<div class='trialBorder'><div class='vertical-center'><img style='vertical-align:center; align:center' src=img/fixation3.jpg></div><div class='cl'><div class='vertical-center'>$30<br>for<br>MG</div></div><div class='cr'><div class='vertical-center'>$28<br>for<br>yourself</div></div><div class='respDivL'><div class='vertical-center'>(E)</div></div><div class='respDivR'><div class='vertical-center'>(I)</div></div></div>","I","$28<br>for<br>yourself","$30<br>for<br>5","1","28","30","5","SELF"
"html-keyboard-response","61","168179","0.0-6.0-3.18","55c694e3fdf99b6c4f28595f","bdp_sd","Sat Mar 25 2023 20:35:42 GMT-0500 (Central Daylight Time)","200024","","null","","","","","offerFB","","<div class='trialBorder'><div class='vertical-center'><img style='vertical-align:center; align:center' src=img/fixation3.jpg></div><div class='cl'><div class='vertical-center'>$30<br>for<br>MG</div></div><div class='cr'><div class='vertical-center'><font style='color:orange'>$28<br>for<br>yourself</font></div></div><div class='respDivL'><div class='vertical-center'>(E)</div></div><div class='respDivR'><div class='vertical-center'><font style='color:orange'>(I)</font></div></div></div>","null","$28<br>for<br>yourself","$30<br>for<br>5","1","28","30","5",""
"html-keyboard-response","62","168681","0.0-6.0-1.19","55c694e3fdf99b6c4f28595f","bdp_sd","Sat Mar 25 2023 20:35:42 GMT-0500 (Central Daylight Time)","200024","","null","","","","","FIX","","<div class='trialBorder'><div class='vertical-center'><img style='vertical-align:center; align:center' src=img/fixation3.jpg></div></div>","null","","","","","","",""
"html-keyboard-response","63","174255","0.0-6.0-2.19","55c694e3fdf99b6c4f28595f","bdp_sd","Sat Mar 25 2023 20:35:42 GMT-0500 (Central Daylight Time)","200024","","5572","","","","","offer","","<div class='trialBorder'><div class='vertical-center'><img style='vertical-align:center; align:center' src=img/fixation3.jpg></div><div class='cl'><div class='vertical-center'>$25<br>for<br>CT</div></div><div class='cr'><div class='vertical-center'>$19<br>for<br>yourself</div></div><div class='respDivL'><div class='vertical-center'>(E)</div></div><div class='respDivR'><div class='vertical-center'>(I)</div></div></div>","I","$19<br>for<br>yourself","$25<br>for<br>4","1","19","25","4","SELF"
"html-keyboard-response","64","174509","0.0-6.0-3.19","55c694e3fdf99b6c4f28595f","bdp_sd","Sat Mar 25 2023 20:35:42 GMT-0500 (Central Daylight Time)","200024","","null","","","","","offerFB","","<div class='trialBorder'><div class='vertical-center'><img style='vertical-align:center; align:center' src=img/fixation3.jpg></div><div class='cl'><div class='vertical-center'>$25<br>for<br>CT</div></div><div class='cr'><div class='vertical-center'><font style='color:orange'>$19<br>for<br>yourself</font></div></div><div class='respDivL'><div class='vertical-center'>(E)</div></div><div class='respDivR'><div class='vertical-center'><font style='color:orange'>(I)</font></div></div></div>","null","$19<br>for<br>yourself","$25<br>for<br>4","1","19","25","4",""
"html-keyboard-response","65","175010","0.0-6.0-1.20","55c694e3fdf99b6c4f28595f","bdp_sd","Sat Mar 25 2023 20:35:42 GMT-0500 (Central Daylight Time)","200024","","null","","","","","FIX","","<div class='trialBorder'><div class='vertical-center'><img style='vertical-align:center; align:center' src=img/fixation3.jpg></div></div>","null","","","","","","",""
"html-keyboard-response","66","178920","0.0-6.0-2.20","55c694e3fdf99b6c4f28595f","bdp_sd","Sat Mar 25 2023 20:35:42 GMT-0500 (Central Daylight Time)","200024","","3909","","","","","offer","","<div class='trialBorder'><div class='vertical-center'><img style='vertical-align:center; align:center' src=img/fixation3.jpg></div><div class='cl'><div class='vertical-center'>$35<br>for<br>GG</div></div><div class='cr'><div class='vertical-center'>$24<br>for<br>yourself</div></div><div class='respDivL'><div class='vertical-center'>(E)</div></div><div class='respDivR'><div class='vertical-center'>(I)</div></div></div>","I","$24<br>for<br>yourself","$35<br>for<br>3","1","24","35","3","SELF"
"html-keyboard-response","67","179171","0.0-6.0-3.20","55c694e3fdf99b6c4f28595f","bdp_sd","Sat Mar 25 2023 20:35:42 GMT-0500 (Central Daylight Time)","200024","","null","","","","","offerFB","","<div class='trialBorder'><div class='vertical-center'><img style='vertical-align:center; align:center' src=img/fixation3.jpg></div><div class='cl'><div class='vertical-center'>$35<br>for<br>GG</div></div><div class='cr'><div class='vertical-center'><font style='color:orange'>$24<br>for<br>yourself</font></div></div><div class='respDivL'><div class='vertical-center'>(E)</div></div><div class='respDivR'><div class='vertical-center'><font style='color:orange'>(I)</font></div></div></div>","null","$24<br>for<br>yourself","$35<br>for<br>3","1","24","35","3",""
"html-keyboard-response","68","179672","0.0-6.0-1.21","55c694e3fdf99b6c4f28595f","bdp_sd","Sat Mar 25 2023 20:35:42 GMT-0500 (Central Daylight Time)","200024","","null","","","","","FIX","","<div class='trialBorder'><div class='vertical-center'><img style='vertical-align:center; align:center' src=img/fixation3.jpg></div></div>","null","","","","","","",""
"html-keyboard-response","69","181659","0.0-6.0-2.21","55c694e3fdf99b6c4f28595f","bdp_sd","Sat Mar 25 2023 20:35:42 GMT-0500 (Central Daylight Time)","200024","","1985","","","","","offer","","<div class='trialBorder'><div class='vertical-center'><img style='vertical-align:center; align:center' src=img/fixation3.jpg></div><div class='cl'><div class='vertical-center'>$85<br>for<br>MG</div></div><div class='cr'><div class='vertical-center'>$80<br>for<br>yourself</div></div><div class='respDivL'><div class='vertical-center'>(E)</div></div><div class='respDivR'><div class='vertical-center'>(I)</div></div></div>","I","$80<br>for<br>yourself","$85<br>for<br>5","1","80","85","5","SELF"
"html-keyboard-response","70","181911","0.0-6.0-3.21","55c694e3fdf99b6c4f28595f","bdp_sd","Sat Mar 25 2023 20:35:42 GMT-0500 (Central Daylight Time)","200024","","null","","","","","offerFB","","<div class='trialBorder'><div class='vertical-center'><img style='vertical-align:center; align:center' src=img/fixation3.jpg></div><div class='cl'><div class='vertical-center'>$85<br>for<br>MG</div></div><div class='cr'><div class='vertical-center'><font style='color:orange'>$80<br>for<br>yourself</font></div></div><div class='respDivL'><div class='vertical-center'>(E)</div></div><div class='respDivR'><div class='vertical-center'><font style='color:orange'>(I)</font></div></div></div>","null","$80<br>for<br>yourself","$85<br>for<br>5","1","80","85","5",""
"html-keyboard-response","71","182412","0.0-6.0-1.22","55c694e3fdf99b6c4f28595f","bdp_sd","Sat Mar 25 2023 20:35:42 GMT-0500 (Central Daylight Time)","200024","","null","","","","","FIX","","<div class='trialBorder'><div class='vertical-center'><img style='vertical-align:center; align:center' src=img/fixation3.jpg></div></div>","null","","","","","","",""
"html-keyboard-response","72","186125","0.0-6.0-2.22","55c694e3fdf99b6c4f28595f","bdp_sd","Sat Mar 25 2023 20:35:42 GMT-0500 (Central Daylight Time)","200024","","3712","","","","","offer","","<div class='trialBorder'><div class='vertical-center'><img style='vertical-align:center; align:center' src=img/fixation3.jpg></div><div class='cl'><div class='vertical-center'>$41<br>for<br>yourself</div></div><div class='cr'><div class='vertical-center'>$75<br>for<br>GG</div></div><div class='respDivL'><div class='vertical-center'>(E)</div></div><div class='respDivR'><div class='vertical-center'>(I)</div></div></div>","I","$41<br>for<br>yourself","$75<br>for<br>3","0","41","75","3","OTHER"
"html-keyboard-response","73","186377","0.0-6.0-3.22","55c694e3fdf99b6c4f28595f","bdp_sd","Sat Mar 25 2023 20:35:42 GMT-0500 (Central Daylight Time)","200024","","null","","","","","offerFB","","<div class='trialBorder'><div class='vertical-center'><img style='vertical-align:center; align:center' src=img/fixation3.jpg></div><div class='cl'><div class='vertical-center'>$41<br>for<br>yourself</div></div><div class='cr'><div class='vertical-center'><font style='color:orange'>$75<br>for<br>GG</font></div></div><div class='respDivL'><div class='vertical-center'>(E)</div></div><div class='respDivR'><div class='vertical-center'><font style='color:orange'>(I)</font></div></div></div>","null","$41<br>for<br>yourself","$75<br>for<br>3","0","41","75","3",""
"html-keyboard-response","74","186879","0.0-6.0-1.23","55c694e3fdf99b6c4f28595f","bdp_sd","Sat Mar 25 2023 20:35:42 GMT-0500 (Central Daylight Time)","200024","","null","","","","","FIX","","<div class='trialBorder'><div class='vertical-center'><img style='vertical-align:center; align:center' src=img/fixation3.jpg></div></div>","null","","","","","","",""
"html-keyboard-response","75","188443","0.0-6.0-2.23","55c694e3fdf99b6c4f28595f","bdp_sd","Sat Mar 25 2023 20:35:42 GMT-0500 (Central Daylight Time)","200024","","1563","","","","","offer","","<div class='trialBorder'><div class='vertical-center'><img style='vertical-align:center; align:center' src=img/fixation3.jpg></div><div class='cl'><div class='vertical-center'>$80<br>for<br>CA</div></div><div class='cr'><div class='vertical-center'>$33<br>for<br>yourself</div></div><div class='respDivL'><div class='vertical-center'>(E)</div></div><div class='respDivR'><div class='vertical-center'>(I)</div></div></div>","E","$33<br>for<br>yourself","$80<br>for<br>2","1","33","80","2","OTHER"
"html-keyboard-response","76","188696","0.0-6.0-3.23","55c694e3fdf99b6c4f28595f","bdp_sd","Sat Mar 25 2023 20:35:42 GMT-0500 (Central Daylight Time)","200024","","null","","","","","offerFB","","<div class='trialBorder'><div class='vertical-center'><img style='vertical-align:center; align:center' src=img/fixation3.jpg></div><div class='cl'><div class='vertical-center'><font style='color:orange'>$80<br>for<br>CA</font></div></div><div class='cr'><div class='vertical-center'>$33<br>for<br>yourself</div></div><div class='respDivL'><div class='vertical-center'><font style='color:orange'>(E)</font></div></div><div class='respDivR'><div class='vertical-center'>(I)</div></div></div>","null","$33<br>for<br>yourself","$80<br>for<br>2","1","33","80","2",""
"html-keyboard-response","77","189197","0.0-6.0-1.24","55c694e3fdf99b6c4f28595f","bdp_sd","Sat Mar 25 2023 20:35:42 GMT-0500 (Central Daylight Time)","200024","","null","","","","","FIX","","<div class='trialBorder'><div class='vertical-center'><img style='vertical-align:center; align:center' src=img/fixation3.jpg></div></div>","null","","","","","","",""
"html-keyboard-response","78","192279","0.0-6.0-2.24","55c694e3fdf99b6c4f28595f","bdp_sd","Sat Mar 25 2023 20:35:42 GMT-0500 (Central Daylight Time)","200024","","3080","","","","","offer","","<div class='trialBorder'><div class='vertical-center'><img style='vertical-align:center; align:center' src=img/fixation3.jpg></div><div class='cl'><div class='vertical-center'>$35<br>for<br>MG</div></div><div class='cr'><div class='vertical-center'>$34<br>for<br>yourself</div></div><div class='respDivL'><div class='vertical-center'>(E)</div></div><div class='respDivR'><div class='vertical-center'>(I)</div></div></div>","I","$34<br>for<br>yourself","$35<br>for<br>5","1","34","35","5","SELF"
"html-keyboard-response","79","192532","0.0-6.0-3.24","55c694e3fdf99b6c4f28595f","bdp_sd","Sat Mar 25 2023 20:35:42 GMT-0500 (Central Daylight Time)","200024","","null","","","","","offerFB","","<div class='trialBorder'><div class='vertical-center'><img style='vertical-align:center; align:center' src=img/fixation3.jpg></div><div class='cl'><div class='vertical-center'>$35<br>for<br>MG</div></div><div class='cr'><div class='vertical-center'><font style='color:orange'>$34<br>for<br>yourself</font></div></div><div class='respDivL'><div class='vertical-center'>(E)</div></div><div class='respDivR'><div class='vertical-center'><font style='color:orange'>(I)</font></div></div></div>","null","$34<br>for<br>yourself","$35<br>for<br>5","1","34","35","5",""
"html-keyboard-response","80","193034","0.0-6.0-1.25","55c694e3fdf99b6c4f28595f","bdp_sd","Sat Mar 25 2023 20:35:42 GMT-0500 (Central Daylight Time)","200024","","null","","","","","FIX","","<div class='trialBorder'><div class='vertical-center'><img style='vertical-align:center; align:center' src=img/fixation3.jpg></div></div>","null","","","","","","",""
"html-keyboard-response","81","195856","0.0-6.0-2.25","55c694e3fdf99b6c4f28595f","bdp_sd","Sat Mar 25 2023 20:35:42 GMT-0500 (Central Daylight Time)","200024","","2822","","","","","offer","","<div class='trialBorder'><div class='vertical-center'><img style='vertical-align:center; align:center' src=img/fixation3.jpg></div><div class='cl'><div class='vertical-center'>$14<br>for<br>yourself</div></div><div class='cr'><div class='vertical-center'>$25<br>for<br>GG</div></div><div class='respDivL'><div class='vertical-center'>(E)</div></div><div class='respDivR'><div class='vertical-center'>(I)</div></div></div>","I","$14<br>for<br>yourself","$25<br>for<br>3","0","14","25","3","OTHER"
"html-keyboard-response","82","196107","0.0-6.0-3.25","55c694e3fdf99b6c4f28595f","bdp_sd","Sat Mar 25 2023 20:35:42 GMT-0500 (Central Daylight Time)","200024","","null","","","","","offerFB","","<div class='trialBorder'><div class='vertical-center'><img style='vertical-align:center; align:center' src=img/fixation3.jpg></div><div class='cl'><div class='vertical-center'>$14<br>for<br>yourself</div></div><div class='cr'><div class='vertical-center'><font style='color:orange'>$25<br>for<br>GG</font></div></div><div class='respDivL'><div class='vertical-center'>(E)</div></div><div class='respDivR'><div class='vertical-center'><font style='color:orange'>(I)</font></div></div></div>","null","$14<br>for<br>yourself","$25<br>for<br>3","0","14","25","3",""
"html-keyboard-response","83","196609","0.0-6.0-1.26","55c694e3fdf99b6c4f28595f","bdp_sd","Sat Mar 25 2023 20:35:42 GMT-0500 (Central Daylight Time)","200024","","null","","","","","FIX","","<div class='trialBorder'><div class='vertical-center'><img style='vertical-align:center; align:center' src=img/fixation3.jpg></div></div>","null","","","","","","",""
"html-keyboard-response","84","198769","0.0-6.0-2.26","55c694e3fdf99b6c4f28595f","bdp_sd","Sat Mar 25 2023 20:35:42 GMT-0500 (Central Daylight Time)","200024","","2160","","","","","offer","","<div class='trialBorder'><div class='vertical-center'><img style='vertical-align:center; align:center' src=img/fixation3.jpg></div><div class='cl'><div class='vertical-center'>$85<br>for<br>CT</div></div><div class='cr'><div class='vertical-center'>$69<br>for<br>yourself</div></div><div class='respDivL'><div class='vertical-center'>(E)</div></div><div class='respDivR'><div class='vertical-center'>(I)</div></div></div>","E","$69<br>for<br>yourself","$85<br>for<br>4","1","69","85","4","OTHER"
"html-keyboard-response","85","199023","0.0-6.0-3.26","55c694e3fdf99b6c4f28595f","bdp_sd","Sat Mar 25 2023 20:35:42 GMT-0500 (Central Daylight Time)","200024","","null","","","","","offerFB","","<div class='trialBorder'><div class='vertical-center'><img style='vertical-align:center; align:center' src=img/fixation3.jpg></div><div class='cl'><div class='vertical-center'><font style='color:orange'>$85<br>for<br>CT</font></div></div><div class='cr'><div class='vertical-center'>$69<br>for<br>yourself</div></div><div class='respDivL'><div class='vertical-center'><font style='color:orange'>(E)</font></div></div><div class='respDivR'><div class='vertical-center'>(I)</div></div></div>","null","$69<br>for<br>yourself","$85<br>for<br>4","1","69","85","4",""
"","","","","55c694e3fdf99b6c4f28595f","bdp_sd","Sat Mar 25 2023 20:35:42 GMT-0500 (Central Daylight Time)","200024","","","","fullscreenexit","86","199029","fullscreenexit","","","","","","","","","",""
"fullscreen","86","200024","0.0-7.0","55c694e3fdf99b6c4f28595f","bdp_sd","Sat Mar 25 2023 20:35:42 GMT-0500 (Central Daylight Time)","200024","","","","","","","","true","","","","","","","","",""
"html-keyboard-response","87","200525","0.0-8.0","","","","","","null","","","","","","","","null","","","","","","",""
