"trial_type","trial_index","time_elapsed","internal_node_id","subject_id","task","startTime","totalTime","view_history","rt","responses","event","trial","time","trialtype","success","stimulus","key_press","selfOffer","otherOffer","otherLeft","selfAmt","otherAmt","otherDist","chosen"
"pavlovia","0","2","0.0-0.0","63f3a7e45f338798fd025d99","bdp_sd","Tue Mar 28 2023 08:34:49 GMT-0500 (Central Daylight Time)","262102","","","","","","","","","","","","","","","","",""
"instructions","1","1802","0.0-1.0","63f3a7e45f338798fd025d99","bdp_sd","Tue Mar 28 2023 08:34:49 GMT-0500 (Central Daylight Time)","262102","[{""page_index"":0,""viewing_time"":1800}]","1800","","","","","","","","","","","","","","",""
"survey-text","2","114410","0.0-2.0","63f3a7e45f338798fd025d99","bdp_sd","Tue Mar 28 2023 08:34:49 GMT-0500 (Central Daylight Time)","262102","","112606","{""Q0"":""Bonnie G"",""Q1"":""Charles G"",""Q2"":""Anthony J"",""Q3"":""Kellie S"",""Q4"":""Patsy S""}","","","","","","","","","","","","","",""
"","","","","63f3a7e45f338798fd025d99","bdp_sd","Tue Mar 28 2023 08:34:49 GMT-0500 (Central Daylight Time)","262102","","","","fullscreenenter","3","116755","fullscreenenter","","","","","","","","","",""
"fullscreen","3","117733","0.0-3.0","63f3a7e45f338798fd025d99","bdp_sd","Tue Mar 28 2023 08:34:49 GMT-0500 (Central Daylight Time)","262102","","","","","","","","true","","","","","","","","",""
"instructions","4","171394","0.0-5.0","63f3a7e45f338798fd025d99","bdp_sd","Tue Mar 28 2023 08:34:49 GMT-0500 (Central Daylight Time)","262102","[{""page_index"":0,""viewing_time"":11694},{""page_index"":1,""viewing_time"":34374},{""page_index"":2,""viewing_time"":7593}]","53661","","","","","","","","","","","","","","",""
"html-keyboard-response","5","171896","0.0-6.0-1.0","63f3a7e45f338798fd025d99","bdp_sd","Tue Mar 28 2023 08:34:49 GMT-0500 (Central Daylight Time)","262102","","null","","","","","FIX","","<div class='trialBorder'><div class='vertical-center'><img style='vertical-align:center; align:center' src=img/fixation3.jpg></div></div>","null","","","","","","",""
"html-keyboard-response","6","181009","0.0-6.0-2.0","63f3a7e45f338798fd025d99","bdp_sd","Tue Mar 28 2023 08:34:49 GMT-0500 (Central Daylight Time)","262102","","9112","","","","","offer","","<div class='trialBorder'><div class='vertical-center'><img style='vertical-align:center; align:center' src=img/fixation3.jpg></div><div class='cl'><div class='vertical-center'>$54<br>for<br>yourself</div></div><div class='cr'><div class='vertical-center'>$60<br>for<br>Patsy S</div></div><div class='respDivL'><div class='vertical-center'>(E)</div></div><div class='respDivR'><div class='vertical-center'>(I)</div></div></div>","E","$54<br>for<br>yourself","$60<br>for<br>5","0","54","60","5","SELF"
"html-keyboard-response","7","181261","0.0-6.0-3.0","63f3a7e45f338798fd025d99","bdp_sd","Tue Mar 28 2023 08:34:49 GMT-0500 (Central Daylight Time)","262102","","null","","","","","offerFB","","<div class='trialBorder'><div class='vertical-center'><img style='vertical-align:center; align:center' src=img/fixation3.jpg></div><div class='cl'><div class='vertical-center'><font style='color:orange'>$54<br>for<br>yourself</font></div></div><div class='cr'><div class='vertical-center'>$60<br>for<br>Patsy S</div></div><div class='respDivL'><div class='vertical-center'><font style='color:orange'>(E)</font></div></div><div class='respDivR'><div class='vertical-center'>(I)</div></div></div>","null","$54<br>for<br>yourself","$60<br>for<br>5","0","54","60","5",""
"html-keyboard-response","8","181762","0.0-6.0-1.1","63f3a7e45f338798fd025d99","bdp_sd","Tue Mar 28 2023 08:34:49 GMT-0500 (Central Daylight Time)","262102","","null","","","","","FIX","","<div class='trialBorder'><div class='vertical-center'><img style='vertical-align:center; align:center' src=img/fixation3.jpg></div></div>","null","","","","","","",""
"html-keyboard-response","9","184366","0.0-6.0-2.1","63f3a7e45f338798fd025d99","bdp_sd","Tue Mar 28 2023 08:34:49 GMT-0500 (Central Daylight Time)","262102","","2604","","","","","offer","","<div class='trialBorder'><div class='vertical-center'><img style='vertical-align:center; align:center' src=img/fixation3.jpg></div><div class='cl'><div class='vertical-center'>$27<br>for<br>yourself</div></div><div class='cr'><div class='vertical-center'>$50<br>for<br>Anthony J</div></div><div class='respDivL'><div class='vertical-center'>(E)</div></div><div class='respDivR'><div class='vertical-center'>(I)</div></div></div>","I","$27<br>for<br>yourself","$50<br>for<br>3","0","27","50","3","OTHER"
"html-keyboard-response","10","184617","0.0-6.0-3.1","63f3a7e45f338798fd025d99","bdp_sd","Tue Mar 28 2023 08:34:49 GMT-0500 (Central Daylight Time)","262102","","null","","","","","offerFB","","<div class='trialBorder'><div class='vertical-center'><img style='vertical-align:center; align:center' src=img/fixation3.jpg></div><div class='cl'><div class='vertical-center'>$27<br>for<br>yourself</div></div><div class='cr'><div class='vertical-center'><font style='color:orange'>$50<br>for<br>Anthony J</font></div></div><div class='respDivL'><div class='vertical-center'>(E)</div></div><div class='respDivR'><div class='vertical-center'><font style='color:orange'>(I)</font></div></div></div>","null","$27<br>for<br>yourself","$50<br>for<br>3","0","27","50","3",""
"html-keyboard-response","11","185118","0.0-6.0-1.2","63f3a7e45f338798fd025d99","bdp_sd","Tue Mar 28 2023 08:34:49 GMT-0500 (Central Daylight Time)","262102","","null","","","","","FIX","","<div class='trialBorder'><div class='vertical-center'><img style='vertical-align:center; align:center' src=img/fixation3.jpg></div></div>","null","","","","","","",""
"html-keyboard-response","12","189880","0.0-6.0-2.2","63f3a7e45f338798fd025d99","bdp_sd","Tue Mar 28 2023 08:34:49 GMT-0500 (Central Daylight Time)","262102","","4762","","","","","offer","","<div class='trialBorder'><div class='vertical-center'><img style='vertical-align:center; align:center' src=img/fixation3.jpg></div><div class='cl'><div class='vertical-center'>$14<br>for<br>yourself</div></div><div class='cr'><div class='vertical-center'>$25<br>for<br>Anthony J</div></div><div class='respDivL'><div class='vertical-center'>(E)</div></div><div class='respDivR'><div class='vertical-center'>(I)</div></div></div>","E","$14<br>for<br>yourself","$25<br>for<br>3","0","14","25","3","SELF"
"html-keyboard-response","13","190132","0.0-6.0-3.2","63f3a7e45f338798fd025d99","bdp_sd","Tue Mar 28 2023 08:34:49 GMT-0500 (Central Daylight Time)","262102","","null","","","","","offerFB","","<div class='trialBorder'><div class='vertical-center'><img style='vertical-align:center; align:center' src=img/fixation3.jpg></div><div class='cl'><div class='vertical-center'><font style='color:orange'>$14<br>for<br>yourself</font></div></div><div class='cr'><div class='vertical-center'>$25<br>for<br>Anthony J</div></div><div class='respDivL'><div class='vertical-center'><font style='color:orange'>(E)</font></div></div><div class='respDivR'><div class='vertical-center'>(I)</div></div></div>","null","$14<br>for<br>yourself","$25<br>for<br>3","0","14","25","3",""
"html-keyboard-response","14","190633","0.0-6.0-1.3","63f3a7e45f338798fd025d99","bdp_sd","Tue Mar 28 2023 08:34:49 GMT-0500 (Central Daylight Time)","262102","","null","","","","","FIX","","<div class='trialBorder'><div class='vertical-center'><img style='vertical-align:center; align:center' src=img/fixation3.jpg></div></div>","null","","","","","","",""
"html-keyboard-response","15","192594","0.0-6.0-2.3","63f3a7e45f338798fd025d99","bdp_sd","Tue Mar 28 2023 08:34:49 GMT-0500 (Central Daylight Time)","262102","","1960","","","","","offer","","<div class='trialBorder'><div class='vertical-center'><img style='vertical-align:center; align:center' src=img/fixation3.jpg></div><div class='cl'><div class='vertical-center'>$55<br>for<br>Bonnie G</div></div><div class='cr'><div class='vertical-center'>$20<br>for<br>yourself</div></div><div class='respDivL'><div class='vertical-center'>(E)</div></div><div class='respDivR'><div class='vertical-center'>(I)</div></div></div>","E","$20<br>for<br>yourself","$55<br>for<br>1","1","20","55","1","OTHER"
"html-keyboard-response","16","192845","0.0-6.0-3.3","63f3a7e45f338798fd025d99","bdp_sd","Tue Mar 28 2023 08:34:49 GMT-0500 (Central Daylight Time)","262102","","null","","","","","offerFB","","<div class='trialBorder'><div class='vertical-center'><img style='vertical-align:center; align:center' src=img/fixation3.jpg></div><div class='cl'><div class='vertical-center'><font style='color:orange'>$55<br>for<br>Bonnie G</font></div></div><div class='cr'><div class='vertical-center'>$20<br>for<br>yourself</div></div><div class='respDivL'><div class='vertical-center'><font style='color:orange'>(E)</font></div></div><div class='respDivR'><div class='vertical-center'>(I)</div></div></div>","null","$20<br>for<br>yourself","$55<br>for<br>1","1","20","55","1",""
"html-keyboard-response","17","193346","0.0-6.0-1.4","63f3a7e45f338798fd025d99","bdp_sd","Tue Mar 28 2023 08:34:49 GMT-0500 (Central Daylight Time)","262102","","null","","","","","FIX","","<div class='trialBorder'><div class='vertical-center'><img style='vertical-align:center; align:center' src=img/fixation3.jpg></div></div>","null","","","","","","",""
"html-keyboard-response","18","196328","0.0-6.0-2.4","63f3a7e45f338798fd025d99","bdp_sd","Tue Mar 28 2023 08:34:49 GMT-0500 (Central Daylight Time)","262102","","2982","","","","","offer","","<div class='trialBorder'><div class='vertical-center'><img style='vertical-align:center; align:center' src=img/fixation3.jpg></div><div class='cl'><div class='vertical-center'>$41<br>for<br>yourself</div></div><div class='cr'><div class='vertical-center'>$75<br>for<br>Anthony J</div></div><div class='respDivL'><div class='vertical-center'>(E)</div></div><div class='respDivR'><div class='vertical-center'>(I)</div></div></div>","E","$41<br>for<br>yourself","$75<br>for<br>3","0","41","75","3","SELF"
"html-keyboard-response","19","196579","0.0-6.0-3.4","63f3a7e45f338798fd025d99","bdp_sd","Tue Mar 28 2023 08:34:49 GMT-0500 (Central Daylight Time)","262102","","null","","","","","offerFB","","<div class='trialBorder'><div class='vertical-center'><img style='vertical-align:center; align:center' src=img/fixation3.jpg></div><div class='cl'><div class='vertical-center'><font style='color:orange'>$41<br>for<br>yourself</font></div></div><div class='cr'><div class='vertical-center'>$75<br>for<br>Anthony J</div></div><div class='respDivL'><div class='vertical-center'><font style='color:orange'>(E)</font></div></div><div class='respDivR'><div class='vertical-center'>(I)</div></div></div>","null","$41<br>for<br>yourself","$75<br>for<br>3","0","41","75","3",""
"html-keyboard-response","20","197080","0.0-6.0-1.5","63f3a7e45f338798fd025d99","bdp_sd","Tue Mar 28 2023 08:34:49 GMT-0500 (Central Daylight Time)","262102","","null","","","","","FIX","","<div class='trialBorder'><div class='vertical-center'><img style='vertical-align:center; align:center' src=img/fixation3.jpg></div></div>","null","","","","","","",""
"html-keyboard-response","21","199395","0.0-6.0-2.5","63f3a7e45f338798fd025d99","bdp_sd","Tue Mar 28 2023 08:34:49 GMT-0500 (Central Daylight Time)","262102","","2314","","","","","offer","","<div class='trialBorder'><div class='vertical-center'><img style='vertical-align:center; align:center' src=img/fixation3.jpg></div><div class='cl'><div class='vertical-center'>$30<br>for<br>Charles G</div></div><div class='cr'><div class='vertical-center'>$11<br>for<br>yourself</div></div><div class='respDivL'><div class='vertical-center'>(E)</div></div><div class='respDivR'><div class='vertical-center'>(I)</div></div></div>","E","$11<br>for<br>yourself","$30<br>for<br>2","1","11","30","2","OTHER"
"html-keyboard-response","22","199646","0.0-6.0-3.5","63f3a7e45f338798fd025d99","bdp_sd","Tue Mar 28 2023 08:34:49 GMT-0500 (Central Daylight Time)","262102","","null","","","","","offerFB","","<div class='trialBorder'><div class='vertical-center'><img style='vertical-align:center; align:center' src=img/fixation3.jpg></div><div class='cl'><div class='vertical-center'><font style='color:orange'>$30<br>for<br>Charles G</font></div></div><div class='cr'><div class='vertical-center'>$11<br>for<br>yourself</div></div><div class='respDivL'><div class='vertical-center'><font style='color:orange'>(E)</font></div></div><div class='respDivR'><div class='vertical-center'>(I)</div></div></div>","null","$11<br>for<br>yourself","$30<br>for<br>2","1","11","30","2",""
"html-keyboard-response","23","200147","0.0-6.0-1.6","63f3a7e45f338798fd025d99","bdp_sd","Tue Mar 28 2023 08:34:49 GMT-0500 (Central Daylight Time)","262102","","null","","","","","FIX","","<div class='trialBorder'><div class='vertical-center'><img style='vertical-align:center; align:center' src=img/fixation3.jpg></div></div>","null","","","","","","",""
"html-keyboard-response","24","202482","0.0-6.0-2.6","63f3a7e45f338798fd025d99","bdp_sd","Tue Mar 28 2023 08:34:49 GMT-0500 (Central Daylight Time)","262102","","2333","","","","","offer","","<div class='trialBorder'><div class='vertical-center'><img style='vertical-align:center; align:center' src=img/fixation3.jpg></div><div class='cl'><div class='vertical-center'>$85<br>for<br>Kellie S</div></div><div class='cr'><div class='vertical-center'>$69<br>for<br>yourself</div></div><div class='respDivL'><div class='vertical-center'>(E)</div></div><div class='respDivR'><div class='vertical-center'>(I)</div></div></div>","I","$69<br>for<br>yourself","$85<br>for<br>4","1","69","85","4","SELF"
"html-keyboard-response","25","202733","0.0-6.0-3.6","63f3a7e45f338798fd025d99","bdp_sd","Tue Mar 28 2023 08:34:49 GMT-0500 (Central Daylight Time)","262102","","null","","","","","offerFB","","<div class='trialBorder'><div class='vertical-center'><img style='vertical-align:center; align:center' src=img/fixation3.jpg></div><div class='cl'><div class='vertical-center'>$85<br>for<br>Kellie S</div></div><div class='cr'><div class='vertical-center'><font style='color:orange'>$69<br>for<br>yourself</font></div></div><div class='respDivL'><div class='vertical-center'>(E)</div></div><div class='respDivR'><div class='vertical-center'><font style='color:orange'>(I)</font></div></div></div>","null","$69<br>for<br>yourself","$85<br>for<br>4","1","69","85","4",""
"html-keyboard-response","26","203234","0.0-6.0-1.7","63f3a7e45f338798fd025d99","bdp_sd","Tue Mar 28 2023 08:34:49 GMT-0500 (Central Daylight Time)","262102","","null","","","","","FIX","","<div class='trialBorder'><div class='vertical-center'><img style='vertical-align:center; align:center' src=img/fixation3.jpg></div></div>","null","","","","","","",""
"html-keyboard-response","27","205552","0.0-6.0-2.7","63f3a7e45f338798fd025d99","bdp_sd","Tue Mar 28 2023 08:34:49 GMT-0500 (Central Daylight Time)","262102","","2318","","","","","offer","","<div class='trialBorder'><div class='vertical-center'><img style='vertical-align:center; align:center' src=img/fixation3.jpg></div><div class='cl'><div class='vertical-center'>$50<br>for<br>Patsy S</div></div><div class='cr'><div class='vertical-center'>$47<br>for<br>yourself</div></div><div class='respDivL'><div class='vertical-center'>(E)</div></div><div class='respDivR'><div class='vertical-center'>(I)</div></div></div>","I","$47<br>for<br>yourself","$50<br>for<br>5","1","47","50","5","SELF"
"html-keyboard-response","28","205803","0.0-6.0-3.7","63f3a7e45f338798fd025d99","bdp_sd","Tue Mar 28 2023 08:34:49 GMT-0500 (Central Daylight Time)","262102","","null","","","","","offerFB","","<div class='trialBorder'><div class='vertical-center'><img style='vertical-align:center; align:center' src=img/fixation3.jpg></div><div class='cl'><div class='vertical-center'>$50<br>for<br>Patsy S</div></div><div class='cr'><div class='vertical-center'><font style='color:orange'>$47<br>for<br>yourself</font></div></div><div class='respDivL'><div class='vertical-center'>(E)</div></div><div class='respDivR'><div class='vertical-center'><font style='color:orange'>(I)</font></div></div></div>","null","$47<br>for<br>yourself","$50<br>for<br>5","1","47","50","5",""
"html-keyboard-response","29","206305","0.0-6.0-1.8","63f3a7e45f338798fd025d99","bdp_sd","Tue Mar 28 2023 08:34:49 GMT-0500 (Central Daylight Time)","262102","","null","","","","","FIX","","<div class='trialBorder'><div class='vertical-center'><img style='vertical-align:center; align:center' src=img/fixation3.jpg></div></div>","null","","","","","","",""
"html-keyboard-response","30","208347","0.0-6.0-2.8","63f3a7e45f338798fd025d99","bdp_sd","Tue Mar 28 2023 08:34:49 GMT-0500 (Central Daylight Time)","262102","","2042","","","","","offer","","<div class='trialBorder'><div class='vertical-center'><img style='vertical-align:center; align:center' src=img/fixation3.jpg></div><div class='cl'><div class='vertical-center'>$24<br>for<br>yourself</div></div><div class='cr'><div class='vertical-center'>$35<br>for<br>Anthony J</div></div><div class='respDivL'><div class='vertical-center'>(E)</div></div><div class='respDivR'><div class='vertical-center'>(I)</div></div></div>","I","$24<br>for<br>yourself","$35<br>for<br>3","0","24","35","3","OTHER"
"html-keyboard-response","31","208598","0.0-6.0-3.8","63f3a7e45f338798fd025d99","bdp_sd","Tue Mar 28 2023 08:34:49 GMT-0500 (Central Daylight Time)","262102","","null","","","","","offerFB","","<div class='trialBorder'><div class='vertical-center'><img style='vertical-align:center; align:center' src=img/fixation3.jpg></div><div class='cl'><div class='vertical-center'>$24<br>for<br>yourself</div></div><div class='cr'><div class='vertical-center'><font style='color:orange'>$35<br>for<br>Anthony J</font></div></div><div class='respDivL'><div class='vertical-center'>(E)</div></div><div class='respDivR'><div class='vertical-center'><font style='color:orange'>(I)</font></div></div></div>","null","$24<br>for<br>yourself","$35<br>for<br>3","0","24","35","3",""
"html-keyboard-response","32","209099","0.0-6.0-1.9","63f3a7e45f338798fd025d99","bdp_sd","Tue Mar 28 2023 08:34:49 GMT-0500 (Central Daylight Time)","262102","","null","","","","","FIX","","<div class='trialBorder'><div class='vertical-center'><img style='vertical-align:center; align:center' src=img/fixation3.jpg></div></div>","null","","","","","","",""
"html-keyboard-response","33","211449","0.0-6.0-2.9","63f3a7e45f338798fd025d99","bdp_sd","Tue Mar 28 2023 08:34:49 GMT-0500 (Central Daylight Time)","262102","","2348","","","","","offer","","<div class='trialBorder'><div class='vertical-center'><img style='vertical-align:center; align:center' src=img/fixation3.jpg></div><div class='cl'><div class='vertical-center'>$25<br>for<br>yourself</div></div><div class='cr'><div class='vertical-center'>$30<br>for<br>Kellie S</div></div><div class='respDivL'><div class='vertical-center'>(E)</div></div><div class='respDivR'><div class='vertical-center'>(I)</div></div></div>","E","$25<br>for<br>yourself","$30<br>for<br>4","0","25","30","4","SELF"
"html-keyboard-response","34","211700","0.0-6.0-3.9","63f3a7e45f338798fd025d99","bdp_sd","Tue Mar 28 2023 08:34:49 GMT-0500 (Central Daylight Time)","262102","","null","","","","","offerFB","","<div class='trialBorder'><div class='vertical-center'><img style='vertical-align:center; align:center' src=img/fixation3.jpg></div><div class='cl'><div class='vertical-center'><font style='color:orange'>$25<br>for<br>yourself</font></div></div><div class='cr'><div class='vertical-center'>$30<br>for<br>Kellie S</div></div><div class='respDivL'><div class='vertical-center'><font style='color:orange'>(E)</font></div></div><div class='respDivR'><div class='vertical-center'>(I)</div></div></div>","null","$25<br>for<br>yourself","$30<br>for<br>4","0","25","30","4",""
"html-keyboard-response","35","212201","0.0-6.0-1.10","63f3a7e45f338798fd025d99","bdp_sd","Tue Mar 28 2023 08:34:49 GMT-0500 (Central Daylight Time)","262102","","null","","","","","FIX","","<div class='trialBorder'><div class='vertical-center'><img style='vertical-align:center; align:center' src=img/fixation3.jpg></div></div>","null","","","","","","",""
"html-keyboard-response","36","214061","0.0-6.0-2.10","63f3a7e45f338798fd025d99","bdp_sd","Tue Mar 28 2023 08:34:49 GMT-0500 (Central Daylight Time)","262102","","1860","","","","","offer","","<div class='trialBorder'><div class='vertical-center'><img style='vertical-align:center; align:center' src=img/fixation3.jpg></div><div class='cl'><div class='vertical-center'>$22<br>for<br>yourself</div></div><div class='cr'><div class='vertical-center'>$25<br>for<br>Patsy S</div></div><div class='respDivL'><div class='vertical-center'>(E)</div></div><div class='respDivR'><div class='vertical-center'>(I)</div></div></div>","E","$22<br>for<br>yourself","$25<br>for<br>5","0","22","25","5","SELF"
"html-keyboard-response","37","214312","0.0-6.0-3.10","63f3a7e45f338798fd025d99","bdp_sd","Tue Mar 28 2023 08:34:49 GMT-0500 (Central Daylight Time)","262102","","null","","","","","offerFB","","<div class='trialBorder'><div class='vertical-center'><img style='vertical-align:center; align:center' src=img/fixation3.jpg></div><div class='cl'><div class='vertical-center'><font style='color:orange'>$22<br>for<br>yourself</font></div></div><div class='cr'><div class='vertical-center'>$25<br>for<br>Patsy S</div></div><div class='respDivL'><div class='vertical-center'><font style='color:orange'>(E)</font></div></div><div class='respDivR'><div class='vertical-center'>(I)</div></div></div>","null","$22<br>for<br>yourself","$25<br>for<br>5","0","22","25","5",""
"html-keyboard-response","38","214813","0.0-6.0-1.11","63f3a7e45f338798fd025d99","bdp_sd","Tue Mar 28 2023 08:34:49 GMT-0500 (Central Daylight Time)","262102","","null","","","","","FIX","","<div class='trialBorder'><div class='vertical-center'><img style='vertical-align:center; align:center' src=img/fixation3.jpg></div></div>","null","","","","","","",""
"html-keyboard-response","39","217047","0.0-6.0-2.11","63f3a7e45f338798fd025d99","bdp_sd","Tue Mar 28 2023 08:34:49 GMT-0500 (Central Daylight Time)","262102","","2233","","","","","offer","","<div class='trialBorder'><div class='vertical-center'><img style='vertical-align:center; align:center' src=img/fixation3.jpg></div><div class='cl'><div class='vertical-center'>$80<br>for<br>Anthony J</div></div><div class='cr'><div class='vertical-center'>$54<br>for<br>yourself</div></div><div class='respDivL'><div class='vertical-center'>(E)</div></div><div class='respDivR'><div class='vertical-center'>(I)</div></div></div>","E","$54<br>for<br>yourself","$80<br>for<br>3","1","54","80","3","OTHER"
"html-keyboard-response","40","217298","0.0-6.0-3.11","63f3a7e45f338798fd025d99","bdp_sd","Tue Mar 28 2023 08:34:49 GMT-0500 (Central Daylight Time)","262102","","null","","","","","offerFB","","<div class='trialBorder'><div class='vertical-center'><img style='vertical-align:center; align:center' src=img/fixation3.jpg></div><div class='cl'><div class='vertical-center'><font style='color:orange'>$80<br>for<br>Anthony J</font></div></div><div class='cr'><div class='vertical-center'>$54<br>for<br>yourself</div></div><div class='respDivL'><div class='vertical-center'><font style='color:orange'>(E)</font></div></div><div class='respDivR'><div class='vertical-center'>(I)</div></div></div>","null","$54<br>for<br>yourself","$80<br>for<br>3","1","54","80","3",""
"html-keyboard-response","41","217799","0.0-6.0-1.12","63f3a7e45f338798fd025d99","bdp_sd","Tue Mar 28 2023 08:34:49 GMT-0500 (Central Daylight Time)","262102","","null","","","","","FIX","","<div class='trialBorder'><div class='vertical-center'><img style='vertical-align:center; align:center' src=img/fixation3.jpg></div></div>","null","","","","","","",""
"html-keyboard-response","42","220100","0.0-6.0-2.12","63f3a7e45f338798fd025d99","bdp_sd","Tue Mar 28 2023 08:34:49 GMT-0500 (Central Daylight Time)","262102","","2299","","","","","offer","","<div class='trialBorder'><div class='vertical-center'><img style='vertical-align:center; align:center' src=img/fixation3.jpg></div><div class='cl'><div class='vertical-center'>$34<br>for<br>yourself</div></div><div class='cr'><div class='vertical-center'>$50<br>for<br>Kellie S</div></div><div class='respDivL'><div class='vertical-center'>(E)</div></div><div class='respDivR'><div class='vertical-center'>(I)</div></div></div>","E","$34<br>for<br>yourself","$50<br>for<br>4","0","34","50","4","SELF"
"html-keyboard-response","43","220351","0.0-6.0-3.12","63f3a7e45f338798fd025d99","bdp_sd","Tue Mar 28 2023 08:34:49 GMT-0500 (Central Daylight Time)","262102","","null","","","","","offerFB","","<div class='trialBorder'><div class='vertical-center'><img style='vertical-align:center; align:center' src=img/fixation3.jpg></div><div class='cl'><div class='vertical-center'><font style='color:orange'>$34<br>for<br>yourself</font></div></div><div class='cr'><div class='vertical-center'>$50<br>for<br>Kellie S</div></div><div class='respDivL'><div class='vertical-center'><font style='color:orange'>(E)</font></div></div><div class='respDivR'><div class='vertical-center'>(I)</div></div></div>","null","$34<br>for<br>yourself","$50<br>for<br>4","0","34","50","4",""
"html-keyboard-response","44","220852","0.0-6.0-1.13","63f3a7e45f338798fd025d99","bdp_sd","Tue Mar 28 2023 08:34:49 GMT-0500 (Central Daylight Time)","262102","","null","","","","","FIX","","<div class='trialBorder'><div class='vertical-center'><img style='vertical-align:center; align:center' src=img/fixation3.jpg></div></div>","null","","","","","","",""
"html-keyboard-response","45","222555","0.0-6.0-2.13","63f3a7e45f338798fd025d99","bdp_sd","Tue Mar 28 2023 08:34:49 GMT-0500 (Central Daylight Time)","262102","","1703","","","","","offer","","<div class='trialBorder'><div class='vertical-center'><img style='vertical-align:center; align:center' src=img/fixation3.jpg></div><div class='cl'><div class='vertical-center'>$33<br>for<br>yourself</div></div><div class='cr'><div class='vertical-center'>$80<br>for<br>Charles G</div></div><div class='respDivL'><div class='vertical-center'>(E)</div></div><div class='respDivR'><div class='vertical-center'>(I)</div></div></div>","I","$33<br>for<br>yourself","$80<br>for<br>2","0","33","80","2","OTHER"
"html-keyboard-response","46","222806","0.0-6.0-3.13","63f3a7e45f338798fd025d99","bdp_sd","Tue Mar 28 2023 08:34:49 GMT-0500 (Central Daylight Time)","262102","","null","","","","","offerFB","","<div class='trialBorder'><div class='vertical-center'><img style='vertical-align:center; align:center' src=img/fixation3.jpg></div><div class='cl'><div class='vertical-center'>$33<br>for<br>yourself</div></div><div class='cr'><div class='vertical-center'><font style='color:orange'>$80<br>for<br>Charles G</font></div></div><div class='respDivL'><div class='vertical-center'>(E)</div></div><div class='respDivR'><div class='vertical-center'><font style='color:orange'>(I)</font></div></div></div>","null","$33<br>for<br>yourself","$80<br>for<br>2","0","33","80","2",""
"html-keyboard-response","47","223307","0.0-6.0-1.14","63f3a7e45f338798fd025d99","bdp_sd","Tue Mar 28 2023 08:34:49 GMT-0500 (Central Daylight Time)","262102","","null","","","","","FIX","","<div class='trialBorder'><div class='vertical-center'><img style='vertical-align:center; align:center' src=img/fixation3.jpg></div></div>","null","","","","","","",""
"html-keyboard-response","48","225907","0.0-6.0-2.14","63f3a7e45f338798fd025d99","bdp_sd","Tue Mar 28 2023 08:34:49 GMT-0500 (Central Daylight Time)","262102","","2599","","","","","offer","","<div class='trialBorder'><div class='vertical-center'><img style='vertical-align:center; align:center' src=img/fixation3.jpg></div><div class='cl'><div class='vertical-center'>$85<br>for<br>Patsy S</div></div><div class='cr'><div class='vertical-center'>$80<br>for<br>yourself</div></div><div class='respDivL'><div class='vertical-center'>(E)</div></div><div class='respDivR'><div class='vertical-center'>(I)</div></div></div>","I","$80<br>for<br>yourself","$85<br>for<br>5","1","80","85","5","SELF"
"html-keyboard-response","49","226158","0.0-6.0-3.14","63f3a7e45f338798fd025d99","bdp_sd","Tue Mar 28 2023 08:34:49 GMT-0500 (Central Daylight Time)","262102","","null","","","","","offerFB","","<div class='trialBorder'><div class='vertical-center'><img style='vertical-align:center; align:center' src=img/fixation3.jpg></div><div class='cl'><div class='vertical-center'>$85<br>for<br>Patsy S</div></div><div class='cr'><div class='vertical-center'><font style='color:orange'>$80<br>for<br>yourself</font></div></div><div class='respDivL'><div class='vertical-center'>(E)</div></div><div class='respDivR'><div class='vertical-center'><font style='color:orange'>(I)</font></div></div></div>","null","$80<br>for<br>yourself","$85<br>for<br>5","1","80","85","5",""
"html-keyboard-response","50","226659","0.0-6.0-1.15","63f3a7e45f338798fd025d99","bdp_sd","Tue Mar 28 2023 08:34:49 GMT-0500 (Central Daylight Time)","262102","","null","","","","","FIX","","<div class='trialBorder'><div class='vertical-center'><img style='vertical-align:center; align:center' src=img/fixation3.jpg></div></div>","null","","","","","","",""
"html-keyboard-response","51","228675","0.0-6.0-2.15","63f3a7e45f338798fd025d99","bdp_sd","Tue Mar 28 2023 08:34:49 GMT-0500 (Central Daylight Time)","262102","","2015","","","","","offer","","<div class='trialBorder'><div class='vertical-center'><img style='vertical-align:center; align:center' src=img/fixation3.jpg></div><div class='cl'><div class='vertical-center'>$31<br>for<br>yourself</div></div><div class='cr'><div class='vertical-center'>$85<br>for<br>Bonnie G</div></div><div class='respDivL'><div class='vertical-center'>(E)</div></div><div class='respDivR'><div class='vertical-center'>(I)</div></div></div>","I","$31<br>for<br>yourself","$85<br>for<br>1","0","31","85","1","OTHER"
"html-keyboard-response","52","228927","0.0-6.0-3.15","63f3a7e45f338798fd025d99","bdp_sd","Tue Mar 28 2023 08:34:49 GMT-0500 (Central Daylight Time)","262102","","null","","","","","offerFB","","<div class='trialBorder'><div class='vertical-center'><img style='vertical-align:center; align:center' src=img/fixation3.jpg></div><div class='cl'><div class='vertical-center'>$31<br>for<br>yourself</div></div><div class='cr'><div class='vertical-center'><font style='color:orange'>$85<br>for<br>Bonnie G</font></div></div><div class='respDivL'><div class='vertical-center'>(E)</div></div><div class='respDivR'><div class='vertical-center'><font style='color:orange'>(I)</font></div></div></div>","null","$31<br>for<br>yourself","$85<br>for<br>1","0","31","85","1",""
"html-keyboard-response","53","229428","0.0-6.0-1.16","63f3a7e45f338798fd025d99","bdp_sd","Tue Mar 28 2023 08:34:49 GMT-0500 (Central Daylight Time)","262102","","null","","","","","FIX","","<div class='trialBorder'><div class='vertical-center'><img style='vertical-align:center; align:center' src=img/fixation3.jpg></div></div>","null","","","","","","",""
"html-keyboard-response","54","232955","0.0-6.0-2.16","63f3a7e45f338798fd025d99","bdp_sd","Tue Mar 28 2023 08:34:49 GMT-0500 (Central Daylight Time)","262102","","3527","","","","","offer","","<div class='trialBorder'><div class='vertical-center'><img style='vertical-align:center; align:center' src=img/fixation3.jpg></div><div class='cl'><div class='vertical-center'>$75<br>for<br>Kellie S</div></div><div class='cr'><div class='vertical-center'>$55<br>for<br>yourself</div></div><div class='respDivL'><div class='vertical-center'>(E)</div></div><div class='respDivR'><div class='vertical-center'>(I)</div></div></div>","I","$55<br>for<br>yourself","$75<br>for<br>4","1","55","75","4","SELF"
"html-keyboard-response","55","233207","0.0-6.0-3.16","63f3a7e45f338798fd025d99","bdp_sd","Tue Mar 28 2023 08:34:49 GMT-0500 (Central Daylight Time)","262102","","null","","","","","offerFB","","<div class='trialBorder'><div class='vertical-center'><img style='vertical-align:center; align:center' src=img/fixation3.jpg></div><div class='cl'><div class='vertical-center'>$75<br>for<br>Kellie S</div></div><div class='cr'><div class='vertical-center'><font style='color:orange'>$55<br>for<br>yourself</font></div></div><div class='respDivL'><div class='vertical-center'>(E)</div></div><div class='respDivR'><div class='vertical-center'><font style='color:orange'>(I)</font></div></div></div>","null","$55<br>for<br>yourself","$75<br>for<br>4","1","55","75","4",""
"html-keyboard-response","56","233708","0.0-6.0-1.17","63f3a7e45f338798fd025d99","bdp_sd","Tue Mar 28 2023 08:34:49 GMT-0500 (Central Daylight Time)","262102","","null","","","","","FIX","","<div class='trialBorder'><div class='vertical-center'><img style='vertical-align:center; align:center' src=img/fixation3.jpg></div></div>","null","","","","","","",""
"html-keyboard-response","57","235864","0.0-6.0-2.17","63f3a7e45f338798fd025d99","bdp_sd","Tue Mar 28 2023 08:34:49 GMT-0500 (Central Daylight Time)","262102","","2156","","","","","offer","","<div class='trialBorder'><div class='vertical-center'><img style='vertical-align:center; align:center' src=img/fixation3.jpg></div><div class='cl'><div class='vertical-center'>$60<br>for<br>Kellie S</div></div><div class='cr'><div class='vertical-center'>$49<br>for<br>yourself</div></div><div class='respDivL'><div class='vertical-center'>(E)</div></div><div class='respDivR'><div class='vertical-center'>(I)</div></div></div>","I","$49<br>for<br>yourself","$60<br>for<br>4","1","49","60","4","SELF"
"html-keyboard-response","58","236115","0.0-6.0-3.17","63f3a7e45f338798fd025d99","bdp_sd","Tue Mar 28 2023 08:34:49 GMT-0500 (Central Daylight Time)","262102","","null","","","","","offerFB","","<div class='trialBorder'><div class='vertical-center'><img style='vertical-align:center; align:center' src=img/fixation3.jpg></div><div class='cl'><div class='vertical-center'>$60<br>for<br>Kellie S</div></div><div class='cr'><div class='vertical-center'><font style='color:orange'>$49<br>for<br>yourself</font></div></div><div class='respDivL'><div class='vertical-center'>(E)</div></div><div class='respDivR'><div class='vertical-center'><font style='color:orange'>(I)</font></div></div></div>","null","$49<br>for<br>yourself","$60<br>for<br>4","1","49","60","4",""
"html-keyboard-response","59","236616","0.0-6.0-1.18","63f3a7e45f338798fd025d99","bdp_sd","Tue Mar 28 2023 08:34:49 GMT-0500 (Central Daylight Time)","262102","","null","","","","","FIX","","<div class='trialBorder'><div class='vertical-center'><img style='vertical-align:center; align:center' src=img/fixation3.jpg></div></div>","null","","","","","","",""
"html-keyboard-response","60","238749","0.0-6.0-2.18","63f3a7e45f338798fd025d99","bdp_sd","Tue Mar 28 2023 08:34:49 GMT-0500 (Central Daylight Time)","262102","","2131","","","","","offer","","<div class='trialBorder'><div class='vertical-center'><img style='vertical-align:center; align:center' src=img/fixation3.jpg></div><div class='cl'><div class='vertical-center'>$35<br>for<br>Patsy S</div></div><div class='cr'><div class='vertical-center'>$34<br>for<br>yourself</div></div><div class='respDivL'><div class='vertical-center'>(E)</div></div><div class='respDivR'><div class='vertical-center'>(I)</div></div></div>","I","$34<br>for<br>yourself","$35<br>for<br>5","1","34","35","5","SELF"
"html-keyboard-response","61","239000","0.0-6.0-3.18","63f3a7e45f338798fd025d99","bdp_sd","Tue Mar 28 2023 08:34:49 GMT-0500 (Central Daylight Time)","262102","","null","","","","","offerFB","","<div class='trialBorder'><div class='vertical-center'><img style='vertical-align:center; align:center' src=img/fixation3.jpg></div><div class='cl'><div class='vertical-center'>$35<br>for<br>Patsy S</div></div><div class='cr'><div class='vertical-center'><font style='color:orange'>$34<br>for<br>yourself</font></div></div><div class='respDivL'><div class='vertical-center'>(E)</div></div><div class='respDivR'><div class='vertical-center'><font style='color:orange'>(I)</font></div></div></div>","null","$34<br>for<br>yourself","$35<br>for<br>5","1","34","35","5",""
"html-keyboard-response","62","239501","0.0-6.0-1.19","63f3a7e45f338798fd025d99","bdp_sd","Tue Mar 28 2023 08:34:49 GMT-0500 (Central Daylight Time)","262102","","null","","","","","FIX","","<div class='trialBorder'><div class='vertical-center'><img style='vertical-align:center; align:center' src=img/fixation3.jpg></div></div>","null","","","","","","",""
"html-keyboard-response","63","241760","0.0-6.0-2.19","63f3a7e45f338798fd025d99","bdp_sd","Tue Mar 28 2023 08:34:49 GMT-0500 (Central Daylight Time)","262102","","2259","","","","","offer","","<div class='trialBorder'><div class='vertical-center'><img style='vertical-align:center; align:center' src=img/fixation3.jpg></div><div class='cl'><div class='vertical-center'>$78<br>for<br>yourself</div></div><div class='cr'><div class='vertical-center'>$80<br>for<br>Patsy S</div></div><div class='respDivL'><div class='vertical-center'>(E)</div></div><div class='respDivR'><div class='vertical-center'>(I)</div></div></div>","E","$78<br>for<br>yourself","$80<br>for<br>5","0","78","80","5","SELF"
"html-keyboard-response","64","242011","0.0-6.0-3.19","63f3a7e45f338798fd025d99","bdp_sd","Tue Mar 28 2023 08:34:49 GMT-0500 (Central Daylight Time)","262102","","null","","","","","offerFB","","<div class='trialBorder'><div class='vertical-center'><img style='vertical-align:center; align:center' src=img/fixation3.jpg></div><div class='cl'><div class='vertical-center'><font style='color:orange'>$78<br>for<br>yourself</font></div></div><div class='cr'><div class='vertical-center'>$80<br>for<br>Patsy S</div></div><div class='respDivL'><div class='vertical-center'><font style='color:orange'>(E)</font></div></div><div class='respDivR'><div class='vertical-center'>(I)</div></div></div>","null","$78<br>for<br>yourself","$80<br>for<br>5","0","78","80","5",""
"html-keyboard-response","65","242512","0.0-6.0-1.20","63f3a7e45f338798fd025d99","bdp_sd","Tue Mar 28 2023 08:34:49 GMT-0500 (Central Daylight Time)","262102","","null","","","","","FIX","","<div class='trialBorder'><div class='vertical-center'><img style='vertical-align:center; align:center' src=img/fixation3.jpg></div></div>","null","","","","","","",""
"html-keyboard-response","66","244337","0.0-6.0-2.20","63f3a7e45f338798fd025d99","bdp_sd","Tue Mar 28 2023 08:34:49 GMT-0500 (Central Daylight Time)","262102","","1825","","","","","offer","","<div class='trialBorder'><div class='vertical-center'><img style='vertical-align:center; align:center' src=img/fixation3.jpg></div><div class='cl'><div class='vertical-center'>$30<br>for<br>Patsy S</div></div><div class='cr'><div class='vertical-center'>$28<br>for<br>yourself</div></div><div class='respDivL'><div class='vertical-center'>(E)</div></div><div class='respDivR'><div class='vertical-center'>(I)</div></div></div>","I","$28<br>for<br>yourself","$30<br>for<br>5","1","28","30","5","SELF"
"html-keyboard-response","67","244588","0.0-6.0-3.20","63f3a7e45f338798fd025d99","bdp_sd","Tue Mar 28 2023 08:34:49 GMT-0500 (Central Daylight Time)","262102","","null","","","","","offerFB","","<div class='trialBorder'><div class='vertical-center'><img style='vertical-align:center; align:center' src=img/fixation3.jpg></div><div class='cl'><div class='vertical-center'>$30<br>for<br>Patsy S</div></div><div class='cr'><div class='vertical-center'><font style='color:orange'>$28<br>for<br>yourself</font></div></div><div class='respDivL'><div class='vertical-center'>(E)</div></div><div class='respDivR'><div class='vertical-center'><font style='color:orange'>(I)</font></div></div></div>","null","$28<br>for<br>yourself","$30<br>for<br>5","1","28","30","5",""
"html-keyboard-response","68","245089","0.0-6.0-1.21","63f3a7e45f338798fd025d99","bdp_sd","Tue Mar 28 2023 08:34:49 GMT-0500 (Central Daylight Time)","262102","","null","","","","","FIX","","<div class='trialBorder'><div class='vertical-center'><img style='vertical-align:center; align:center' src=img/fixation3.jpg></div></div>","null","","","","","","",""
"html-keyboard-response","69","247067","0.0-6.0-2.21","63f3a7e45f338798fd025d99","bdp_sd","Tue Mar 28 2023 08:34:49 GMT-0500 (Central Daylight Time)","262102","","1977","","","","","offer","","<div class='trialBorder'><div class='vertical-center'><img style='vertical-align:center; align:center' src=img/fixation3.jpg></div><div class='cl'><div class='vertical-center'>$25<br>for<br>Kellie S</div></div><div class='cr'><div class='vertical-center'>$19<br>for<br>yourself</div></div><div class='respDivL'><div class='vertical-center'>(E)</div></div><div class='respDivR'><div class='vertical-center'>(I)</div></div></div>","I","$19<br>for<br>yourself","$25<br>for<br>4","1","19","25","4","SELF"
"html-keyboard-response","70","247319","0.0-6.0-3.21","63f3a7e45f338798fd025d99","bdp_sd","Tue Mar 28 2023 08:34:49 GMT-0500 (Central Daylight Time)","262102","","null","","","","","offerFB","","<div class='trialBorder'><div class='vertical-center'><img style='vertical-align:center; align:center' src=img/fixation3.jpg></div><div class='cl'><div class='vertical-center'>$25<br>for<br>Kellie S</div></div><div class='cr'><div class='vertical-center'><font style='color:orange'>$19<br>for<br>yourself</font></div></div><div class='respDivL'><div class='vertical-center'>(E)</div></div><div class='respDivR'><div class='vertical-center'><font style='color:orange'>(I)</font></div></div></div>","null","$19<br>for<br>yourself","$25<br>for<br>4","1","19","25","4",""
"html-keyboard-response","71","247820","0.0-6.0-1.22","63f3a7e45f338798fd025d99","bdp_sd","Tue Mar 28 2023 08:34:49 GMT-0500 (Central Daylight Time)","262102","","null","","","","","FIX","","<div class='trialBorder'><div class='vertical-center'><img style='vertical-align:center; align:center' src=img/fixation3.jpg></div></div>","null","","","","","","",""
"html-keyboard-response","72","249443","0.0-6.0-2.22","63f3a7e45f338798fd025d99","bdp_sd","Tue Mar 28 2023 08:34:49 GMT-0500 (Central Daylight Time)","262102","","1622","","","","","offer","","<div class='trialBorder'><div class='vertical-center'><img style='vertical-align:center; align:center' src=img/fixation3.jpg></div><div class='cl'><div class='vertical-center'>$35<br>for<br>Charles G</div></div><div class='cr'><div class='vertical-center'>$15<br>for<br>yourself</div></div><div class='respDivL'><div class='vertical-center'>(E)</div></div><div class='respDivR'><div class='vertical-center'>(I)</div></div></div>","E","$15<br>for<br>yourself","$35<br>for<br>2","1","15","35","2","OTHER"
"html-keyboard-response","73","249693","0.0-6.0-3.22","63f3a7e45f338798fd025d99","bdp_sd","Tue Mar 28 2023 08:34:49 GMT-0500 (Central Daylight Time)","262102","","null","","","","","offerFB","","<div class='trialBorder'><div class='vertical-center'><img style='vertical-align:center; align:center' src=img/fixation3.jpg></div><div class='cl'><div class='vertical-center'><font style='color:orange'>$35<br>for<br>Charles G</font></div></div><div class='cr'><div class='vertical-center'>$15<br>for<br>yourself</div></div><div class='respDivL'><div class='vertical-center'><font style='color:orange'>(E)</font></div></div><div class='respDivR'><div class='vertical-center'>(I)</div></div></div>","null","$15<br>for<br>yourself","$35<br>for<br>2","1","15","35","2",""
"html-keyboard-response","74","250194","0.0-6.0-1.23","63f3a7e45f338798fd025d99","bdp_sd","Tue Mar 28 2023 08:34:49 GMT-0500 (Central Daylight Time)","262102","","null","","","","","FIX","","<div class='trialBorder'><div class='vertical-center'><img style='vertical-align:center; align:center' src=img/fixation3.jpg></div></div>","null","","","","","","",""
"html-keyboard-response","75","251950","0.0-6.0-2.23","63f3a7e45f338798fd025d99","bdp_sd","Tue Mar 28 2023 08:34:49 GMT-0500 (Central Daylight Time)","262102","","1755","","","","","offer","","<div class='trialBorder'><div class='vertical-center'><img style='vertical-align:center; align:center' src=img/fixation3.jpg></div><div class='cl'><div class='vertical-center'>$25<br>for<br>yourself</div></div><div class='cr'><div class='vertical-center'>$60<br>for<br>Anthony J</div></div><div class='respDivL'><div class='vertical-center'>(E)</div></div><div class='respDivR'><div class='vertical-center'>(I)</div></div></div>","I","$25<br>for<br>yourself","$60<br>for<br>3","0","25","60","3","OTHER"
"html-keyboard-response","76","252201","0.0-6.0-3.23","63f3a7e45f338798fd025d99","bdp_sd","Tue Mar 28 2023 08:34:49 GMT-0500 (Central Daylight Time)","262102","","null","","","","","offerFB","","<div class='trialBorder'><div class='vertical-center'><img style='vertical-align:center; align:center' src=img/fixation3.jpg></div><div class='cl'><div class='vertical-center'>$25<br>for<br>yourself</div></div><div class='cr'><div class='vertical-center'><font style='color:orange'>$60<br>for<br>Anthony J</font></div></div><div class='respDivL'><div class='vertical-center'>(E)</div></div><div class='respDivR'><div class='vertical-center'><font style='color:orange'>(I)</font></div></div></div>","null","$25<br>for<br>yourself","$60<br>for<br>3","0","25","60","3",""
"html-keyboard-response","77","252702","0.0-6.0-1.24","63f3a7e45f338798fd025d99","bdp_sd","Tue Mar 28 2023 08:34:49 GMT-0500 (Central Daylight Time)","262102","","null","","","","","FIX","","<div class='trialBorder'><div class='vertical-center'><img style='vertical-align:center; align:center' src=img/fixation3.jpg></div></div>","null","","","","","","",""
"html-keyboard-response","78","255586","0.0-6.0-2.24","63f3a7e45f338798fd025d99","bdp_sd","Tue Mar 28 2023 08:34:49 GMT-0500 (Central Daylight Time)","262102","","2884","","","","","offer","","<div class='trialBorder'><div class='vertical-center'><img style='vertical-align:center; align:center' src=img/fixation3.jpg></div><div class='cl'><div class='vertical-center'>$55<br>for<br>Kellie S</div></div><div class='cr'><div class='vertical-center'>$40<br>for<br>yourself</div></div><div class='respDivL'><div class='vertical-center'>(E)</div></div><div class='respDivR'><div class='vertical-center'>(I)</div></div></div>","I","$40<br>for<br>yourself","$55<br>for<br>4","1","40","55","4","SELF"
"html-keyboard-response","79","255838","0.0-6.0-3.24","63f3a7e45f338798fd025d99","bdp_sd","Tue Mar 28 2023 08:34:49 GMT-0500 (Central Daylight Time)","262102","","null","","","","","offerFB","","<div class='trialBorder'><div class='vertical-center'><img style='vertical-align:center; align:center' src=img/fixation3.jpg></div><div class='cl'><div class='vertical-center'>$55<br>for<br>Kellie S</div></div><div class='cr'><div class='vertical-center'><font style='color:orange'>$40<br>for<br>yourself</font></div></div><div class='respDivL'><div class='vertical-center'>(E)</div></div><div class='respDivR'><div class='vertical-center'><font style='color:orange'>(I)</font></div></div></div>","null","$40<br>for<br>yourself","$55<br>for<br>4","1","40","55","4",""
"html-keyboard-response","80","256339","0.0-6.0-1.25","63f3a7e45f338798fd025d99","bdp_sd","Tue Mar 28 2023 08:34:49 GMT-0500 (Central Daylight Time)","262102","","null","","","","","FIX","","<div class='trialBorder'><div class='vertical-center'><img style='vertical-align:center; align:center' src=img/fixation3.jpg></div></div>","null","","","","","","",""
"html-keyboard-response","81","258684","0.0-6.0-2.25","63f3a7e45f338798fd025d99","bdp_sd","Tue Mar 28 2023 08:34:49 GMT-0500 (Central Daylight Time)","262102","","2344","","","","","offer","","<div class='trialBorder'><div class='vertical-center'><img style='vertical-align:center; align:center' src=img/fixation3.jpg></div><div class='cl'><div class='vertical-center'>$75<br>for<br>Patsy S</div></div><div class='cr'><div class='vertical-center'>$67<br>for<br>yourself</div></div><div class='respDivL'><div class='vertical-center'>(E)</div></div><div class='respDivR'><div class='vertical-center'>(I)</div></div></div>","I","$67<br>for<br>yourself","$75<br>for<br>5","1","67","75","5","SELF"
"html-keyboard-response","82","258934","0.0-6.0-3.25","63f3a7e45f338798fd025d99","bdp_sd","Tue Mar 28 2023 08:34:49 GMT-0500 (Central Daylight Time)","262102","","null","","","","","offerFB","","<div class='trialBorder'><div class='vertical-center'><img style='vertical-align:center; align:center' src=img/fixation3.jpg></div><div class='cl'><div class='vertical-center'>$75<br>for<br>Patsy S</div></div><div class='cr'><div class='vertical-center'><font style='color:orange'>$67<br>for<br>yourself</font></div></div><div class='respDivL'><div class='vertical-center'>(E)</div></div><div class='respDivR'><div class='vertical-center'><font style='color:orange'>(I)</font></div></div></div>","null","$67<br>for<br>yourself","$75<br>for<br>5","1","67","75","5",""
"html-keyboard-response","83","259435","0.0-6.0-1.26","63f3a7e45f338798fd025d99","bdp_sd","Tue Mar 28 2023 08:34:49 GMT-0500 (Central Daylight Time)","262102","","null","","","","","FIX","","<div class='trialBorder'><div class='vertical-center'><img style='vertical-align:center; align:center' src=img/fixation3.jpg></div></div>","null","","","","","","",""
"html-keyboard-response","84","260850","0.0-6.0-2.26","63f3a7e45f338798fd025d99","bdp_sd","Tue Mar 28 2023 08:34:49 GMT-0500 (Central Daylight Time)","262102","","1414","","","","","offer","","<div class='trialBorder'><div class='vertical-center'><img style='vertical-align:center; align:center' src=img/fixation3.jpg></div><div class='cl'><div class='vertical-center'>$54<br>for<br>yourself</div></div><div class='cr'><div class='vertical-center'>$55<br>for<br>Patsy S</div></div><div class='respDivL'><div class='vertical-center'>(E)</div></div><div class='respDivR'><div class='vertical-center'>(I)</div></div></div>","E","$54<br>for<br>yourself","$55<br>for<br>5","0","54","55","5","SELF"
"html-keyboard-response","85","261101","0.0-6.0-3.26","63f3a7e45f338798fd025d99","bdp_sd","Tue Mar 28 2023 08:34:49 GMT-0500 (Central Daylight Time)","262102","","null","","","","","offerFB","","<div class='trialBorder'><div class='vertical-center'><img style='vertical-align:center; align:center' src=img/fixation3.jpg></div><div class='cl'><div class='vertical-center'><font style='color:orange'>$54<br>for<br>yourself</font></div></div><div class='cr'><div class='vertical-center'>$55<br>for<br>Patsy S</div></div><div class='respDivL'><div class='vertical-center'><font style='color:orange'>(E)</font></div></div><div class='respDivR'><div class='vertical-center'>(I)</div></div></div>","null","$54<br>for<br>yourself","$55<br>for<br>5","0","54","55","5",""
"","","","","63f3a7e45f338798fd025d99","bdp_sd","Tue Mar 28 2023 08:34:49 GMT-0500 (Central Daylight Time)","262102","","","","fullscreenexit","86","261122","fullscreenexit","","","","","","","","","",""
"fullscreen","86","262102","0.0-7.0","63f3a7e45f338798fd025d99","bdp_sd","Tue Mar 28 2023 08:34:49 GMT-0500 (Central Daylight Time)","262102","","","","","","","","true","","","","","","","","",""
"html-keyboard-response","87","262603","0.0-8.0","","","","","","null","","","","","","","","null","","","","","","",""
