"trial_type","trial_index","time_elapsed","internal_node_id","subject_id","task","startTime","totalTime","view_history","rt","responses","event","trial","time","trialtype","success","stimulus","key_press","selfOffer","otherOffer","otherLeft","selfAmt","otherAmt","otherDist","chosen"
"pavlovia","0","3","0.0-0.0","6276b88b3b4036b3f0ca289b","bdp_sd","Tue Mar 28 2023 18:05:31 GMT-0700 (Pacific Daylight Time)","232588","","","","","","","","","","","","","","","","",""
"instructions","1","8220","0.0-1.0","6276b88b3b4036b3f0ca289b","bdp_sd","Tue Mar 28 2023 18:05:31 GMT-0700 (Pacific Daylight Time)","232588","[{""page_index"":0,""viewing_time"":8216}]","8216","","","","","","","","","","","","","","",""
"survey-text","2","110974","0.0-2.0","6276b88b3b4036b3f0ca289b","bdp_sd","Tue Mar 28 2023 18:05:31 GMT-0700 (Pacific Daylight Time)","232588","","102753","{""Q0"":""sean"",""Q1"":""geoff"",""Q2"":""carlo"",""Q3"":""nate"",""Q4"":""lucky""}","","","","","","","","","","","","","",""
"","","","","6276b88b3b4036b3f0ca289b","bdp_sd","Tue Mar 28 2023 18:05:31 GMT-0700 (Pacific Daylight Time)","232588","","","","fullscreenenter","3","116962","fullscreenenter","","","","","","","","","",""
"fullscreen","3","117930","0.0-3.0","6276b88b3b4036b3f0ca289b","bdp_sd","Tue Mar 28 2023 18:05:31 GMT-0700 (Pacific Daylight Time)","232588","","","","","","","","true","","","","","","","","",""
"instructions","4","179594","0.0-5.0","6276b88b3b4036b3f0ca289b","bdp_sd","Tue Mar 28 2023 18:05:31 GMT-0700 (Pacific Daylight Time)","232588","[{""page_index"":0,""viewing_time"":14785},{""page_index"":1,""viewing_time"":28282},{""page_index"":2,""viewing_time"":18596}]","61663","","","","","","","","","","","","","","",""
"html-keyboard-response","5","180096","0.0-6.0-1.0","6276b88b3b4036b3f0ca289b","bdp_sd","Tue Mar 28 2023 18:05:31 GMT-0700 (Pacific Daylight Time)","232588","","null","","","","","FIX","","<div class='trialBorder'><div class='vertical-center'><img style='vertical-align:center; align:center' src=img/fixation3.jpg></div></div>","null","","","","","","",""
"html-keyboard-response","6","188800","0.0-6.0-2.0","6276b88b3b4036b3f0ca289b","bdp_sd","Tue Mar 28 2023 18:05:31 GMT-0700 (Pacific Daylight Time)","232588","","8704","","","","","offer","","<div class='trialBorder'><div class='vertical-center'><img style='vertical-align:center; align:center' src=img/fixation3.jpg></div><div class='cl'><div class='vertical-center'>$50<br>for<br>carlo</div></div><div class='cr'><div class='vertical-center'>$27<br>for<br>yourself</div></div><div class='respDivL'><div class='vertical-center'>(E)</div></div><div class='respDivR'><div class='vertical-center'>(I)</div></div></div>","I","$27<br>for<br>yourself","$50<br>for<br>3","1","27","50","3","SELF"
"html-keyboard-response","7","189052","0.0-6.0-3.0","6276b88b3b4036b3f0ca289b","bdp_sd","Tue Mar 28 2023 18:05:31 GMT-0700 (Pacific Daylight Time)","232588","","null","","","","","offerFB","","<div class='trialBorder'><div class='vertical-center'><img style='vertical-align:center; align:center' src=img/fixation3.jpg></div><div class='cl'><div class='vertical-center'>$50<br>for<br>carlo</div></div><div class='cr'><div class='vertical-center'><font style='color:orange'>$27<br>for<br>yourself</font></div></div><div class='respDivL'><div class='vertical-center'>(E)</div></div><div class='respDivR'><div class='vertical-center'><font style='color:orange'>(I)</font></div></div></div>","null","$27<br>for<br>yourself","$50<br>for<br>3","1","27","50","3",""
"html-keyboard-response","8","189553","0.0-6.0-1.1","6276b88b3b4036b3f0ca289b","bdp_sd","Tue Mar 28 2023 18:05:31 GMT-0700 (Pacific Daylight Time)","232588","","null","","","","","FIX","","<div class='trialBorder'><div class='vertical-center'><img style='vertical-align:center; align:center' src=img/fixation3.jpg></div></div>","null","","","","","","",""
"html-keyboard-response","9","192327","0.0-6.0-2.1","6276b88b3b4036b3f0ca289b","bdp_sd","Tue Mar 28 2023 18:05:31 GMT-0700 (Pacific Daylight Time)","232588","","2773","","","","","offer","","<div class='trialBorder'><div class='vertical-center'><img style='vertical-align:center; align:center' src=img/fixation3.jpg></div><div class='cl'><div class='vertical-center'>$60<br>for<br>nate</div></div><div class='cr'><div class='vertical-center'>$49<br>for<br>yourself</div></div><div class='respDivL'><div class='vertical-center'>(E)</div></div><div class='respDivR'><div class='vertical-center'>(I)</div></div></div>","I","$49<br>for<br>yourself","$60<br>for<br>4","1","49","60","4","SELF"
"html-keyboard-response","10","192580","0.0-6.0-3.1","6276b88b3b4036b3f0ca289b","bdp_sd","Tue Mar 28 2023 18:05:31 GMT-0700 (Pacific Daylight Time)","232588","","null","","","","","offerFB","","<div class='trialBorder'><div class='vertical-center'><img style='vertical-align:center; align:center' src=img/fixation3.jpg></div><div class='cl'><div class='vertical-center'>$60<br>for<br>nate</div></div><div class='cr'><div class='vertical-center'><font style='color:orange'>$49<br>for<br>yourself</font></div></div><div class='respDivL'><div class='vertical-center'>(E)</div></div><div class='respDivR'><div class='vertical-center'><font style='color:orange'>(I)</font></div></div></div>","null","$49<br>for<br>yourself","$60<br>for<br>4","1","49","60","4",""
"html-keyboard-response","11","193081","0.0-6.0-1.2","6276b88b3b4036b3f0ca289b","bdp_sd","Tue Mar 28 2023 18:05:31 GMT-0700 (Pacific Daylight Time)","232588","","null","","","","","FIX","","<div class='trialBorder'><div class='vertical-center'><img style='vertical-align:center; align:center' src=img/fixation3.jpg></div></div>","null","","","","","","",""
"html-keyboard-response","12","194128","0.0-6.0-2.2","6276b88b3b4036b3f0ca289b","bdp_sd","Tue Mar 28 2023 18:05:31 GMT-0700 (Pacific Daylight Time)","232588","","1046","","","","","offer","","<div class='trialBorder'><div class='vertical-center'><img style='vertical-align:center; align:center' src=img/fixation3.jpg></div><div class='cl'><div class='vertical-center'>$20<br>for<br>yourself</div></div><div class='cr'><div class='vertical-center'>$55<br>for<br>sean</div></div><div class='respDivL'><div class='vertical-center'>(E)</div></div><div class='respDivR'><div class='vertical-center'>(I)</div></div></div>","E","$20<br>for<br>yourself","$55<br>for<br>1","0","20","55","1","SELF"
"html-keyboard-response","13","194380","0.0-6.0-3.2","6276b88b3b4036b3f0ca289b","bdp_sd","Tue Mar 28 2023 18:05:31 GMT-0700 (Pacific Daylight Time)","232588","","null","","","","","offerFB","","<div class='trialBorder'><div class='vertical-center'><img style='vertical-align:center; align:center' src=img/fixation3.jpg></div><div class='cl'><div class='vertical-center'><font style='color:orange'>$20<br>for<br>yourself</font></div></div><div class='cr'><div class='vertical-center'>$55<br>for<br>sean</div></div><div class='respDivL'><div class='vertical-center'><font style='color:orange'>(E)</font></div></div><div class='respDivR'><div class='vertical-center'>(I)</div></div></div>","null","$20<br>for<br>yourself","$55<br>for<br>1","0","20","55","1",""
"html-keyboard-response","14","194882","0.0-6.0-1.3","6276b88b3b4036b3f0ca289b","bdp_sd","Tue Mar 28 2023 18:05:31 GMT-0700 (Pacific Daylight Time)","232588","","null","","","","","FIX","","<div class='trialBorder'><div class='vertical-center'><img style='vertical-align:center; align:center' src=img/fixation3.jpg></div></div>","null","","","","","","",""
"html-keyboard-response","15","195674","0.0-6.0-2.3","6276b88b3b4036b3f0ca289b","bdp_sd","Tue Mar 28 2023 18:05:31 GMT-0700 (Pacific Daylight Time)","232588","","792","","","","","offer","","<div class='trialBorder'><div class='vertical-center'><img style='vertical-align:center; align:center' src=img/fixation3.jpg></div><div class='cl'><div class='vertical-center'>$50<br>for<br>lucky</div></div><div class='cr'><div class='vertical-center'>$47<br>for<br>yourself</div></div><div class='respDivL'><div class='vertical-center'>(E)</div></div><div class='respDivR'><div class='vertical-center'>(I)</div></div></div>","I","$47<br>for<br>yourself","$50<br>for<br>5","1","47","50","5","SELF"
"html-keyboard-response","16","195926","0.0-6.0-3.3","6276b88b3b4036b3f0ca289b","bdp_sd","Tue Mar 28 2023 18:05:31 GMT-0700 (Pacific Daylight Time)","232588","","null","","","","","offerFB","","<div class='trialBorder'><div class='vertical-center'><img style='vertical-align:center; align:center' src=img/fixation3.jpg></div><div class='cl'><div class='vertical-center'>$50<br>for<br>lucky</div></div><div class='cr'><div class='vertical-center'><font style='color:orange'>$47<br>for<br>yourself</font></div></div><div class='respDivL'><div class='vertical-center'>(E)</div></div><div class='respDivR'><div class='vertical-center'><font style='color:orange'>(I)</font></div></div></div>","null","$47<br>for<br>yourself","$50<br>for<br>5","1","47","50","5",""
"html-keyboard-response","17","196427","0.0-6.0-1.4","6276b88b3b4036b3f0ca289b","bdp_sd","Tue Mar 28 2023 18:05:31 GMT-0700 (Pacific Daylight Time)","232588","","null","","","","","FIX","","<div class='trialBorder'><div class='vertical-center'><img style='vertical-align:center; align:center' src=img/fixation3.jpg></div></div>","null","","","","","","",""
"html-keyboard-response","18","197169","0.0-6.0-2.4","6276b88b3b4036b3f0ca289b","bdp_sd","Tue Mar 28 2023 18:05:31 GMT-0700 (Pacific Daylight Time)","232588","","741","","","","","offer","","<div class='trialBorder'><div class='vertical-center'><img style='vertical-align:center; align:center' src=img/fixation3.jpg></div><div class='cl'><div class='vertical-center'>$19<br>for<br>yourself</div></div><div class='cr'><div class='vertical-center'>$25<br>for<br>nate</div></div><div class='respDivL'><div class='vertical-center'>(E)</div></div><div class='respDivR'><div class='vertical-center'>(I)</div></div></div>","E","$19<br>for<br>yourself","$25<br>for<br>4","0","19","25","4","SELF"
"html-keyboard-response","19","197421","0.0-6.0-3.4","6276b88b3b4036b3f0ca289b","bdp_sd","Tue Mar 28 2023 18:05:31 GMT-0700 (Pacific Daylight Time)","232588","","null","","","","","offerFB","","<div class='trialBorder'><div class='vertical-center'><img style='vertical-align:center; align:center' src=img/fixation3.jpg></div><div class='cl'><div class='vertical-center'><font style='color:orange'>$19<br>for<br>yourself</font></div></div><div class='cr'><div class='vertical-center'>$25<br>for<br>nate</div></div><div class='respDivL'><div class='vertical-center'><font style='color:orange'>(E)</font></div></div><div class='respDivR'><div class='vertical-center'>(I)</div></div></div>","null","$19<br>for<br>yourself","$25<br>for<br>4","0","19","25","4",""
"html-keyboard-response","20","197922","0.0-6.0-1.5","6276b88b3b4036b3f0ca289b","bdp_sd","Tue Mar 28 2023 18:05:31 GMT-0700 (Pacific Daylight Time)","232588","","null","","","","","FIX","","<div class='trialBorder'><div class='vertical-center'><img style='vertical-align:center; align:center' src=img/fixation3.jpg></div></div>","null","","","","","","",""
"html-keyboard-response","21","198714","0.0-6.0-2.5","6276b88b3b4036b3f0ca289b","bdp_sd","Tue Mar 28 2023 18:05:31 GMT-0700 (Pacific Daylight Time)","232588","","792","","","","","offer","","<div class='trialBorder'><div class='vertical-center'><img style='vertical-align:center; align:center' src=img/fixation3.jpg></div><div class='cl'><div class='vertical-center'>$80<br>for<br>carlo</div></div><div class='cr'><div class='vertical-center'>$54<br>for<br>yourself</div></div><div class='respDivL'><div class='vertical-center'>(E)</div></div><div class='respDivR'><div class='vertical-center'>(I)</div></div></div>","I","$54<br>for<br>yourself","$80<br>for<br>3","1","54","80","3","SELF"
"html-keyboard-response","22","198966","0.0-6.0-3.5","6276b88b3b4036b3f0ca289b","bdp_sd","Tue Mar 28 2023 18:05:31 GMT-0700 (Pacific Daylight Time)","232588","","null","","","","","offerFB","","<div class='trialBorder'><div class='vertical-center'><img style='vertical-align:center; align:center' src=img/fixation3.jpg></div><div class='cl'><div class='vertical-center'>$80<br>for<br>carlo</div></div><div class='cr'><div class='vertical-center'><font style='color:orange'>$54<br>for<br>yourself</font></div></div><div class='respDivL'><div class='vertical-center'>(E)</div></div><div class='respDivR'><div class='vertical-center'><font style='color:orange'>(I)</font></div></div></div>","null","$54<br>for<br>yourself","$80<br>for<br>3","1","54","80","3",""
"html-keyboard-response","23","199468","0.0-6.0-1.6","6276b88b3b4036b3f0ca289b","bdp_sd","Tue Mar 28 2023 18:05:31 GMT-0700 (Pacific Daylight Time)","232588","","null","","","","","FIX","","<div class='trialBorder'><div class='vertical-center'><img style='vertical-align:center; align:center' src=img/fixation3.jpg></div></div>","null","","","","","","",""
"html-keyboard-response","24","200272","0.0-6.0-2.6","6276b88b3b4036b3f0ca289b","bdp_sd","Tue Mar 28 2023 18:05:31 GMT-0700 (Pacific Daylight Time)","232588","","804","","","","","offer","","<div class='trialBorder'><div class='vertical-center'><img style='vertical-align:center; align:center' src=img/fixation3.jpg></div><div class='cl'><div class='vertical-center'>$30<br>for<br>nate</div></div><div class='cr'><div class='vertical-center'>$25<br>for<br>yourself</div></div><div class='respDivL'><div class='vertical-center'>(E)</div></div><div class='respDivR'><div class='vertical-center'>(I)</div></div></div>","I","$25<br>for<br>yourself","$30<br>for<br>4","1","25","30","4","SELF"
"html-keyboard-response","25","200523","0.0-6.0-3.6","6276b88b3b4036b3f0ca289b","bdp_sd","Tue Mar 28 2023 18:05:31 GMT-0700 (Pacific Daylight Time)","232588","","null","","","","","offerFB","","<div class='trialBorder'><div class='vertical-center'><img style='vertical-align:center; align:center' src=img/fixation3.jpg></div><div class='cl'><div class='vertical-center'>$30<br>for<br>nate</div></div><div class='cr'><div class='vertical-center'><font style='color:orange'>$25<br>for<br>yourself</font></div></div><div class='respDivL'><div class='vertical-center'>(E)</div></div><div class='respDivR'><div class='vertical-center'><font style='color:orange'>(I)</font></div></div></div>","null","$25<br>for<br>yourself","$30<br>for<br>4","1","25","30","4",""
"html-keyboard-response","26","201024","0.0-6.0-1.7","6276b88b3b4036b3f0ca289b","bdp_sd","Tue Mar 28 2023 18:05:31 GMT-0700 (Pacific Daylight Time)","232588","","null","","","","","FIX","","<div class='trialBorder'><div class='vertical-center'><img style='vertical-align:center; align:center' src=img/fixation3.jpg></div></div>","null","","","","","","",""
"html-keyboard-response","27","201859","0.0-6.0-2.7","6276b88b3b4036b3f0ca289b","bdp_sd","Tue Mar 28 2023 18:05:31 GMT-0700 (Pacific Daylight Time)","232588","","834","","","","","offer","","<div class='trialBorder'><div class='vertical-center'><img style='vertical-align:center; align:center' src=img/fixation3.jpg></div><div class='cl'><div class='vertical-center'>$85<br>for<br>lucky</div></div><div class='cr'><div class='vertical-center'>$80<br>for<br>yourself</div></div><div class='respDivL'><div class='vertical-center'>(E)</div></div><div class='respDivR'><div class='vertical-center'>(I)</div></div></div>","I","$80<br>for<br>yourself","$85<br>for<br>5","1","80","85","5","SELF"
"html-keyboard-response","28","202110","0.0-6.0-3.7","6276b88b3b4036b3f0ca289b","bdp_sd","Tue Mar 28 2023 18:05:31 GMT-0700 (Pacific Daylight Time)","232588","","null","","","","","offerFB","","<div class='trialBorder'><div class='vertical-center'><img style='vertical-align:center; align:center' src=img/fixation3.jpg></div><div class='cl'><div class='vertical-center'>$85<br>for<br>lucky</div></div><div class='cr'><div class='vertical-center'><font style='color:orange'>$80<br>for<br>yourself</font></div></div><div class='respDivL'><div class='vertical-center'>(E)</div></div><div class='respDivR'><div class='vertical-center'><font style='color:orange'>(I)</font></div></div></div>","null","$80<br>for<br>yourself","$85<br>for<br>5","1","80","85","5",""
"html-keyboard-response","29","202612","0.0-6.0-1.8","6276b88b3b4036b3f0ca289b","bdp_sd","Tue Mar 28 2023 18:05:31 GMT-0700 (Pacific Daylight Time)","232588","","null","","","","","FIX","","<div class='trialBorder'><div class='vertical-center'><img style='vertical-align:center; align:center' src=img/fixation3.jpg></div></div>","null","","","","","","",""
"html-keyboard-response","30","203534","0.0-6.0-2.8","6276b88b3b4036b3f0ca289b","bdp_sd","Tue Mar 28 2023 18:05:31 GMT-0700 (Pacific Daylight Time)","232588","","921","","","","","offer","","<div class='trialBorder'><div class='vertical-center'><img style='vertical-align:center; align:center' src=img/fixation3.jpg></div><div class='cl'><div class='vertical-center'>$25<br>for<br>lucky</div></div><div class='cr'><div class='vertical-center'>$22<br>for<br>yourself</div></div><div class='respDivL'><div class='vertical-center'>(E)</div></div><div class='respDivR'><div class='vertical-center'>(I)</div></div></div>","I","$22<br>for<br>yourself","$25<br>for<br>5","1","22","25","5","SELF"
"html-keyboard-response","31","203787","0.0-6.0-3.8","6276b88b3b4036b3f0ca289b","bdp_sd","Tue Mar 28 2023 18:05:31 GMT-0700 (Pacific Daylight Time)","232588","","null","","","","","offerFB","","<div class='trialBorder'><div class='vertical-center'><img style='vertical-align:center; align:center' src=img/fixation3.jpg></div><div class='cl'><div class='vertical-center'>$25<br>for<br>lucky</div></div><div class='cr'><div class='vertical-center'><font style='color:orange'>$22<br>for<br>yourself</font></div></div><div class='respDivL'><div class='vertical-center'>(E)</div></div><div class='respDivR'><div class='vertical-center'><font style='color:orange'>(I)</font></div></div></div>","null","$22<br>for<br>yourself","$25<br>for<br>5","1","22","25","5",""
"html-keyboard-response","32","204288","0.0-6.0-1.9","6276b88b3b4036b3f0ca289b","bdp_sd","Tue Mar 28 2023 18:05:31 GMT-0700 (Pacific Daylight Time)","232588","","null","","","","","FIX","","<div class='trialBorder'><div class='vertical-center'><img style='vertical-align:center; align:center' src=img/fixation3.jpg></div></div>","null","","","","","","",""
"html-keyboard-response","33","204949","0.0-6.0-2.9","6276b88b3b4036b3f0ca289b","bdp_sd","Tue Mar 28 2023 18:05:31 GMT-0700 (Pacific Daylight Time)","232588","","661","","","","","offer","","<div class='trialBorder'><div class='vertical-center'><img style='vertical-align:center; align:center' src=img/fixation3.jpg></div><div class='cl'><div class='vertical-center'>$24<br>for<br>yourself</div></div><div class='cr'><div class='vertical-center'>$35<br>for<br>carlo</div></div><div class='respDivL'><div class='vertical-center'>(E)</div></div><div class='respDivR'><div class='vertical-center'>(I)</div></div></div>","E","$24<br>for<br>yourself","$35<br>for<br>3","0","24","35","3","SELF"
"html-keyboard-response","34","205200","0.0-6.0-3.9","6276b88b3b4036b3f0ca289b","bdp_sd","Tue Mar 28 2023 18:05:31 GMT-0700 (Pacific Daylight Time)","232588","","null","","","","","offerFB","","<div class='trialBorder'><div class='vertical-center'><img style='vertical-align:center; align:center' src=img/fixation3.jpg></div><div class='cl'><div class='vertical-center'><font style='color:orange'>$24<br>for<br>yourself</font></div></div><div class='cr'><div class='vertical-center'>$35<br>for<br>carlo</div></div><div class='respDivL'><div class='vertical-center'><font style='color:orange'>(E)</font></div></div><div class='respDivR'><div class='vertical-center'>(I)</div></div></div>","null","$24<br>for<br>yourself","$35<br>for<br>3","0","24","35","3",""
"html-keyboard-response","35","205701","0.0-6.0-1.10","6276b88b3b4036b3f0ca289b","bdp_sd","Tue Mar 28 2023 18:05:31 GMT-0700 (Pacific Daylight Time)","232588","","null","","","","","FIX","","<div class='trialBorder'><div class='vertical-center'><img style='vertical-align:center; align:center' src=img/fixation3.jpg></div></div>","null","","","","","","",""
"html-keyboard-response","36","206407","0.0-6.0-2.10","6276b88b3b4036b3f0ca289b","bdp_sd","Tue Mar 28 2023 18:05:31 GMT-0700 (Pacific Daylight Time)","232588","","705","","","","","offer","","<div class='trialBorder'><div class='vertical-center'><img style='vertical-align:center; align:center' src=img/fixation3.jpg></div><div class='cl'><div class='vertical-center'>$54<br>for<br>yourself</div></div><div class='cr'><div class='vertical-center'>$60<br>for<br>lucky</div></div><div class='respDivL'><div class='vertical-center'>(E)</div></div><div class='respDivR'><div class='vertical-center'>(I)</div></div></div>","E","$54<br>for<br>yourself","$60<br>for<br>5","0","54","60","5","SELF"
"html-keyboard-response","37","206660","0.0-6.0-3.10","6276b88b3b4036b3f0ca289b","bdp_sd","Tue Mar 28 2023 18:05:31 GMT-0700 (Pacific Daylight Time)","232588","","null","","","","","offerFB","","<div class='trialBorder'><div class='vertical-center'><img style='vertical-align:center; align:center' src=img/fixation3.jpg></div><div class='cl'><div class='vertical-center'><font style='color:orange'>$54<br>for<br>yourself</font></div></div><div class='cr'><div class='vertical-center'>$60<br>for<br>lucky</div></div><div class='respDivL'><div class='vertical-center'><font style='color:orange'>(E)</font></div></div><div class='respDivR'><div class='vertical-center'>(I)</div></div></div>","null","$54<br>for<br>yourself","$60<br>for<br>5","0","54","60","5",""
"html-keyboard-response","38","207161","0.0-6.0-1.11","6276b88b3b4036b3f0ca289b","bdp_sd","Tue Mar 28 2023 18:05:31 GMT-0700 (Pacific Daylight Time)","232588","","null","","","","","FIX","","<div class='trialBorder'><div class='vertical-center'><img style='vertical-align:center; align:center' src=img/fixation3.jpg></div></div>","null","","","","","","",""
"html-keyboard-response","39","207707","0.0-6.0-2.11","6276b88b3b4036b3f0ca289b","bdp_sd","Tue Mar 28 2023 18:05:31 GMT-0700 (Pacific Daylight Time)","232588","","544","","","","","offer","","<div class='trialBorder'><div class='vertical-center'><img style='vertical-align:center; align:center' src=img/fixation3.jpg></div><div class='cl'><div class='vertical-center'>$28<br>for<br>yourself</div></div><div class='cr'><div class='vertical-center'>$30<br>for<br>lucky</div></div><div class='respDivL'><div class='vertical-center'>(E)</div></div><div class='respDivR'><div class='vertical-center'>(I)</div></div></div>","E","$28<br>for<br>yourself","$30<br>for<br>5","0","28","30","5","SELF"
"html-keyboard-response","40","207958","0.0-6.0-3.11","6276b88b3b4036b3f0ca289b","bdp_sd","Tue Mar 28 2023 18:05:31 GMT-0700 (Pacific Daylight Time)","232588","","null","","","","","offerFB","","<div class='trialBorder'><div class='vertical-center'><img style='vertical-align:center; align:center' src=img/fixation3.jpg></div><div class='cl'><div class='vertical-center'><font style='color:orange'>$28<br>for<br>yourself</font></div></div><div class='cr'><div class='vertical-center'>$30<br>for<br>lucky</div></div><div class='respDivL'><div class='vertical-center'><font style='color:orange'>(E)</font></div></div><div class='respDivR'><div class='vertical-center'>(I)</div></div></div>","null","$28<br>for<br>yourself","$30<br>for<br>5","0","28","30","5",""
"html-keyboard-response","41","208459","0.0-6.0-1.12","6276b88b3b4036b3f0ca289b","bdp_sd","Tue Mar 28 2023 18:05:31 GMT-0700 (Pacific Daylight Time)","232588","","null","","","","","FIX","","<div class='trialBorder'><div class='vertical-center'><img style='vertical-align:center; align:center' src=img/fixation3.jpg></div></div>","null","","","","","","",""
"html-keyboard-response","42","209140","0.0-6.0-2.12","6276b88b3b4036b3f0ca289b","bdp_sd","Tue Mar 28 2023 18:05:31 GMT-0700 (Pacific Daylight Time)","232588","","679","","","","","offer","","<div class='trialBorder'><div class='vertical-center'><img style='vertical-align:center; align:center' src=img/fixation3.jpg></div><div class='cl'><div class='vertical-center'>$85<br>for<br>sean</div></div><div class='cr'><div class='vertical-center'>$31<br>for<br>yourself</div></div><div class='respDivL'><div class='vertical-center'>(E)</div></div><div class='respDivR'><div class='vertical-center'>(I)</div></div></div>","I","$31<br>for<br>yourself","$85<br>for<br>1","1","31","85","1","SELF"
"html-keyboard-response","43","209391","0.0-6.0-3.12","6276b88b3b4036b3f0ca289b","bdp_sd","Tue Mar 28 2023 18:05:31 GMT-0700 (Pacific Daylight Time)","232588","","null","","","","","offerFB","","<div class='trialBorder'><div class='vertical-center'><img style='vertical-align:center; align:center' src=img/fixation3.jpg></div><div class='cl'><div class='vertical-center'>$85<br>for<br>sean</div></div><div class='cr'><div class='vertical-center'><font style='color:orange'>$31<br>for<br>yourself</font></div></div><div class='respDivL'><div class='vertical-center'>(E)</div></div><div class='respDivR'><div class='vertical-center'><font style='color:orange'>(I)</font></div></div></div>","null","$31<br>for<br>yourself","$85<br>for<br>1","1","31","85","1",""
"html-keyboard-response","44","209891","0.0-6.0-1.13","6276b88b3b4036b3f0ca289b","bdp_sd","Tue Mar 28 2023 18:05:31 GMT-0700 (Pacific Daylight Time)","232588","","null","","","","","FIX","","<div class='trialBorder'><div class='vertical-center'><img style='vertical-align:center; align:center' src=img/fixation3.jpg></div></div>","null","","","","","","",""
"html-keyboard-response","45","210868","0.0-6.0-2.13","6276b88b3b4036b3f0ca289b","bdp_sd","Tue Mar 28 2023 18:05:31 GMT-0700 (Pacific Daylight Time)","232588","","976","","","","","offer","","<div class='trialBorder'><div class='vertical-center'><img style='vertical-align:center; align:center' src=img/fixation3.jpg></div><div class='cl'><div class='vertical-center'>$60<br>for<br>carlo</div></div><div class='cr'><div class='vertical-center'>$25<br>for<br>yourself</div></div><div class='respDivL'><div class='vertical-center'>(E)</div></div><div class='respDivR'><div class='vertical-center'>(I)</div></div></div>","I","$25<br>for<br>yourself","$60<br>for<br>3","1","25","60","3","SELF"
"html-keyboard-response","46","211119","0.0-6.0-3.13","6276b88b3b4036b3f0ca289b","bdp_sd","Tue Mar 28 2023 18:05:31 GMT-0700 (Pacific Daylight Time)","232588","","null","","","","","offerFB","","<div class='trialBorder'><div class='vertical-center'><img style='vertical-align:center; align:center' src=img/fixation3.jpg></div><div class='cl'><div class='vertical-center'>$60<br>for<br>carlo</div></div><div class='cr'><div class='vertical-center'><font style='color:orange'>$25<br>for<br>yourself</font></div></div><div class='respDivL'><div class='vertical-center'>(E)</div></div><div class='respDivR'><div class='vertical-center'><font style='color:orange'>(I)</font></div></div></div>","null","$25<br>for<br>yourself","$60<br>for<br>3","1","25","60","3",""
"html-keyboard-response","47","211620","0.0-6.0-1.14","6276b88b3b4036b3f0ca289b","bdp_sd","Tue Mar 28 2023 18:05:31 GMT-0700 (Pacific Daylight Time)","232588","","null","","","","","FIX","","<div class='trialBorder'><div class='vertical-center'><img style='vertical-align:center; align:center' src=img/fixation3.jpg></div></div>","null","","","","","","",""
"html-keyboard-response","48","212930","0.0-6.0-2.14","6276b88b3b4036b3f0ca289b","bdp_sd","Tue Mar 28 2023 18:05:31 GMT-0700 (Pacific Daylight Time)","232588","","1309","","","","","offer","","<div class='trialBorder'><div class='vertical-center'><img style='vertical-align:center; align:center' src=img/fixation3.jpg></div><div class='cl'><div class='vertical-center'>$30<br>for<br>geoff</div></div><div class='cr'><div class='vertical-center'>$11<br>for<br>yourself</div></div><div class='respDivL'><div class='vertical-center'>(E)</div></div><div class='respDivR'><div class='vertical-center'>(I)</div></div></div>","I","$11<br>for<br>yourself","$30<br>for<br>2","1","11","30","2","SELF"
"html-keyboard-response","49","213182","0.0-6.0-3.14","6276b88b3b4036b3f0ca289b","bdp_sd","Tue Mar 28 2023 18:05:31 GMT-0700 (Pacific Daylight Time)","232588","","null","","","","","offerFB","","<div class='trialBorder'><div class='vertical-center'><img style='vertical-align:center; align:center' src=img/fixation3.jpg></div><div class='cl'><div class='vertical-center'>$30<br>for<br>geoff</div></div><div class='cr'><div class='vertical-center'><font style='color:orange'>$11<br>for<br>yourself</font></div></div><div class='respDivL'><div class='vertical-center'>(E)</div></div><div class='respDivR'><div class='vertical-center'><font style='color:orange'>(I)</font></div></div></div>","null","$11<br>for<br>yourself","$30<br>for<br>2","1","11","30","2",""
"html-keyboard-response","50","213683","0.0-6.0-1.15","6276b88b3b4036b3f0ca289b","bdp_sd","Tue Mar 28 2023 18:05:31 GMT-0700 (Pacific Daylight Time)","232588","","null","","","","","FIX","","<div class='trialBorder'><div class='vertical-center'><img style='vertical-align:center; align:center' src=img/fixation3.jpg></div></div>","null","","","","","","",""
"html-keyboard-response","51","215463","0.0-6.0-2.15","6276b88b3b4036b3f0ca289b","bdp_sd","Tue Mar 28 2023 18:05:31 GMT-0700 (Pacific Daylight Time)","232588","","1780","","","","","offer","","<div class='trialBorder'><div class='vertical-center'><img style='vertical-align:center; align:center' src=img/fixation3.jpg></div><div class='cl'><div class='vertical-center'>$78<br>for<br>yourself</div></div><div class='cr'><div class='vertical-center'>$80<br>for<br>lucky</div></div><div class='respDivL'><div class='vertical-center'>(E)</div></div><div class='respDivR'><div class='vertical-center'>(I)</div></div></div>","E","$78<br>for<br>yourself","$80<br>for<br>5","0","78","80","5","SELF"
"html-keyboard-response","52","215716","0.0-6.0-3.15","6276b88b3b4036b3f0ca289b","bdp_sd","Tue Mar 28 2023 18:05:31 GMT-0700 (Pacific Daylight Time)","232588","","null","","","","","offerFB","","<div class='trialBorder'><div class='vertical-center'><img style='vertical-align:center; align:center' src=img/fixation3.jpg></div><div class='cl'><div class='vertical-center'><font style='color:orange'>$78<br>for<br>yourself</font></div></div><div class='cr'><div class='vertical-center'>$80<br>for<br>lucky</div></div><div class='respDivL'><div class='vertical-center'><font style='color:orange'>(E)</font></div></div><div class='respDivR'><div class='vertical-center'>(I)</div></div></div>","null","$78<br>for<br>yourself","$80<br>for<br>5","0","78","80","5",""
"html-keyboard-response","53","216218","0.0-6.0-1.16","6276b88b3b4036b3f0ca289b","bdp_sd","Tue Mar 28 2023 18:05:31 GMT-0700 (Pacific Daylight Time)","232588","","null","","","","","FIX","","<div class='trialBorder'><div class='vertical-center'><img style='vertical-align:center; align:center' src=img/fixation3.jpg></div></div>","null","","","","","","",""
"html-keyboard-response","54","217212","0.0-6.0-2.16","6276b88b3b4036b3f0ca289b","bdp_sd","Tue Mar 28 2023 18:05:31 GMT-0700 (Pacific Daylight Time)","232588","","994","","","","","offer","","<div class='trialBorder'><div class='vertical-center'><img style='vertical-align:center; align:center' src=img/fixation3.jpg></div><div class='cl'><div class='vertical-center'>$54<br>for<br>yourself</div></div><div class='cr'><div class='vertical-center'>$55<br>for<br>lucky</div></div><div class='respDivL'><div class='vertical-center'>(E)</div></div><div class='respDivR'><div class='vertical-center'>(I)</div></div></div>","E","$54<br>for<br>yourself","$55<br>for<br>5","0","54","55","5","SELF"
"html-keyboard-response","55","217464","0.0-6.0-3.16","6276b88b3b4036b3f0ca289b","bdp_sd","Tue Mar 28 2023 18:05:31 GMT-0700 (Pacific Daylight Time)","232588","","null","","","","","offerFB","","<div class='trialBorder'><div class='vertical-center'><img style='vertical-align:center; align:center' src=img/fixation3.jpg></div><div class='cl'><div class='vertical-center'><font style='color:orange'>$54<br>for<br>yourself</font></div></div><div class='cr'><div class='vertical-center'>$55<br>for<br>lucky</div></div><div class='respDivL'><div class='vertical-center'><font style='color:orange'>(E)</font></div></div><div class='respDivR'><div class='vertical-center'>(I)</div></div></div>","null","$54<br>for<br>yourself","$55<br>for<br>5","0","54","55","5",""
"html-keyboard-response","56","217966","0.0-6.0-1.17","6276b88b3b4036b3f0ca289b","bdp_sd","Tue Mar 28 2023 18:05:31 GMT-0700 (Pacific Daylight Time)","232588","","null","","","","","FIX","","<div class='trialBorder'><div class='vertical-center'><img style='vertical-align:center; align:center' src=img/fixation3.jpg></div></div>","null","","","","","","",""
"html-keyboard-response","57","218794","0.0-6.0-2.17","6276b88b3b4036b3f0ca289b","bdp_sd","Tue Mar 28 2023 18:05:31 GMT-0700 (Pacific Daylight Time)","232588","","826","","","","","offer","","<div class='trialBorder'><div class='vertical-center'><img style='vertical-align:center; align:center' src=img/fixation3.jpg></div><div class='cl'><div class='vertical-center'>$67<br>for<br>yourself</div></div><div class='cr'><div class='vertical-center'>$75<br>for<br>lucky</div></div><div class='respDivL'><div class='vertical-center'>(E)</div></div><div class='respDivR'><div class='vertical-center'>(I)</div></div></div>","E","$67<br>for<br>yourself","$75<br>for<br>5","0","67","75","5","SELF"
"html-keyboard-response","58","219046","0.0-6.0-3.17","6276b88b3b4036b3f0ca289b","bdp_sd","Tue Mar 28 2023 18:05:31 GMT-0700 (Pacific Daylight Time)","232588","","null","","","","","offerFB","","<div class='trialBorder'><div class='vertical-center'><img style='vertical-align:center; align:center' src=img/fixation3.jpg></div><div class='cl'><div class='vertical-center'><font style='color:orange'>$67<br>for<br>yourself</font></div></div><div class='cr'><div class='vertical-center'>$75<br>for<br>lucky</div></div><div class='respDivL'><div class='vertical-center'><font style='color:orange'>(E)</font></div></div><div class='respDivR'><div class='vertical-center'>(I)</div></div></div>","null","$67<br>for<br>yourself","$75<br>for<br>5","0","67","75","5",""
"html-keyboard-response","59","219547","0.0-6.0-1.18","6276b88b3b4036b3f0ca289b","bdp_sd","Tue Mar 28 2023 18:05:31 GMT-0700 (Pacific Daylight Time)","232588","","null","","","","","FIX","","<div class='trialBorder'><div class='vertical-center'><img style='vertical-align:center; align:center' src=img/fixation3.jpg></div></div>","null","","","","","","",""
"html-keyboard-response","60","220321","0.0-6.0-2.18","6276b88b3b4036b3f0ca289b","bdp_sd","Tue Mar 28 2023 18:05:31 GMT-0700 (Pacific Daylight Time)","232588","","774","","","","","offer","","<div class='trialBorder'><div class='vertical-center'><img style='vertical-align:center; align:center' src=img/fixation3.jpg></div><div class='cl'><div class='vertical-center'>$75<br>for<br>carlo</div></div><div class='cr'><div class='vertical-center'>$41<br>for<br>yourself</div></div><div class='respDivL'><div class='vertical-center'>(E)</div></div><div class='respDivR'><div class='vertical-center'>(I)</div></div></div>","I","$41<br>for<br>yourself","$75<br>for<br>3","1","41","75","3","SELF"
"html-keyboard-response","61","220572","0.0-6.0-3.18","6276b88b3b4036b3f0ca289b","bdp_sd","Tue Mar 28 2023 18:05:31 GMT-0700 (Pacific Daylight Time)","232588","","null","","","","","offerFB","","<div class='trialBorder'><div class='vertical-center'><img style='vertical-align:center; align:center' src=img/fixation3.jpg></div><div class='cl'><div class='vertical-center'>$75<br>for<br>carlo</div></div><div class='cr'><div class='vertical-center'><font style='color:orange'>$41<br>for<br>yourself</font></div></div><div class='respDivL'><div class='vertical-center'>(E)</div></div><div class='respDivR'><div class='vertical-center'><font style='color:orange'>(I)</font></div></div></div>","null","$41<br>for<br>yourself","$75<br>for<br>3","1","41","75","3",""
"html-keyboard-response","62","221074","0.0-6.0-1.19","6276b88b3b4036b3f0ca289b","bdp_sd","Tue Mar 28 2023 18:05:31 GMT-0700 (Pacific Daylight Time)","232588","","null","","","","","FIX","","<div class='trialBorder'><div class='vertical-center'><img style='vertical-align:center; align:center' src=img/fixation3.jpg></div></div>","null","","","","","","",""
"html-keyboard-response","63","222130","0.0-6.0-2.19","6276b88b3b4036b3f0ca289b","bdp_sd","Tue Mar 28 2023 18:05:31 GMT-0700 (Pacific Daylight Time)","232588","","1056","","","","","offer","","<div class='trialBorder'><div class='vertical-center'><img style='vertical-align:center; align:center' src=img/fixation3.jpg></div><div class='cl'><div class='vertical-center'>$69<br>for<br>yourself</div></div><div class='cr'><div class='vertical-center'>$85<br>for<br>nate</div></div><div class='respDivL'><div class='vertical-center'>(E)</div></div><div class='respDivR'><div class='vertical-center'>(I)</div></div></div>","E","$69<br>for<br>yourself","$85<br>for<br>4","0","69","85","4","SELF"
"html-keyboard-response","64","222381","0.0-6.0-3.19","6276b88b3b4036b3f0ca289b","bdp_sd","Tue Mar 28 2023 18:05:31 GMT-0700 (Pacific Daylight Time)","232588","","null","","","","","offerFB","","<div class='trialBorder'><div class='vertical-center'><img style='vertical-align:center; align:center' src=img/fixation3.jpg></div><div class='cl'><div class='vertical-center'><font style='color:orange'>$69<br>for<br>yourself</font></div></div><div class='cr'><div class='vertical-center'>$85<br>for<br>nate</div></div><div class='respDivL'><div class='vertical-center'><font style='color:orange'>(E)</font></div></div><div class='respDivR'><div class='vertical-center'>(I)</div></div></div>","null","$69<br>for<br>yourself","$85<br>for<br>4","0","69","85","4",""
"html-keyboard-response","65","222882","0.0-6.0-1.20","6276b88b3b4036b3f0ca289b","bdp_sd","Tue Mar 28 2023 18:05:31 GMT-0700 (Pacific Daylight Time)","232588","","null","","","","","FIX","","<div class='trialBorder'><div class='vertical-center'><img style='vertical-align:center; align:center' src=img/fixation3.jpg></div></div>","null","","","","","","",""
"html-keyboard-response","66","223841","0.0-6.0-2.20","6276b88b3b4036b3f0ca289b","bdp_sd","Tue Mar 28 2023 18:05:31 GMT-0700 (Pacific Daylight Time)","232588","","958","","","","","offer","","<div class='trialBorder'><div class='vertical-center'><img style='vertical-align:center; align:center' src=img/fixation3.jpg></div><div class='cl'><div class='vertical-center'>$35<br>for<br>geoff</div></div><div class='cr'><div class='vertical-center'>$15<br>for<br>yourself</div></div><div class='respDivL'><div class='vertical-center'>(E)</div></div><div class='respDivR'><div class='vertical-center'>(I)</div></div></div>","I","$15<br>for<br>yourself","$35<br>for<br>2","1","15","35","2","SELF"
"html-keyboard-response","67","224093","0.0-6.0-3.20","6276b88b3b4036b3f0ca289b","bdp_sd","Tue Mar 28 2023 18:05:31 GMT-0700 (Pacific Daylight Time)","232588","","null","","","","","offerFB","","<div class='trialBorder'><div class='vertical-center'><img style='vertical-align:center; align:center' src=img/fixation3.jpg></div><div class='cl'><div class='vertical-center'>$35<br>for<br>geoff</div></div><div class='cr'><div class='vertical-center'><font style='color:orange'>$15<br>for<br>yourself</font></div></div><div class='respDivL'><div class='vertical-center'>(E)</div></div><div class='respDivR'><div class='vertical-center'><font style='color:orange'>(I)</font></div></div></div>","null","$15<br>for<br>yourself","$35<br>for<br>2","1","15","35","2",""
"html-keyboard-response","68","224594","0.0-6.0-1.21","6276b88b3b4036b3f0ca289b","bdp_sd","Tue Mar 28 2023 18:05:31 GMT-0700 (Pacific Daylight Time)","232588","","null","","","","","FIX","","<div class='trialBorder'><div class='vertical-center'><img style='vertical-align:center; align:center' src=img/fixation3.jpg></div></div>","null","","","","","","",""
"html-keyboard-response","69","225070","0.0-6.0-2.21","6276b88b3b4036b3f0ca289b","bdp_sd","Tue Mar 28 2023 18:05:31 GMT-0700 (Pacific Daylight Time)","232588","","475","","","","","offer","","<div class='trialBorder'><div class='vertical-center'><img style='vertical-align:center; align:center' src=img/fixation3.jpg></div><div class='cl'><div class='vertical-center'>$33<br>for<br>yourself</div></div><div class='cr'><div class='vertical-center'>$80<br>for<br>geoff</div></div><div class='respDivL'><div class='vertical-center'>(E)</div></div><div class='respDivR'><div class='vertical-center'>(I)</div></div></div>","E","$33<br>for<br>yourself","$80<br>for<br>2","0","33","80","2","SELF"
"html-keyboard-response","70","225322","0.0-6.0-3.21","6276b88b3b4036b3f0ca289b","bdp_sd","Tue Mar 28 2023 18:05:31 GMT-0700 (Pacific Daylight Time)","232588","","null","","","","","offerFB","","<div class='trialBorder'><div class='vertical-center'><img style='vertical-align:center; align:center' src=img/fixation3.jpg></div><div class='cl'><div class='vertical-center'><font style='color:orange'>$33<br>for<br>yourself</font></div></div><div class='cr'><div class='vertical-center'>$80<br>for<br>geoff</div></div><div class='respDivL'><div class='vertical-center'><font style='color:orange'>(E)</font></div></div><div class='respDivR'><div class='vertical-center'>(I)</div></div></div>","null","$33<br>for<br>yourself","$80<br>for<br>2","0","33","80","2",""
"html-keyboard-response","71","225822","0.0-6.0-1.22","6276b88b3b4036b3f0ca289b","bdp_sd","Tue Mar 28 2023 18:05:31 GMT-0700 (Pacific Daylight Time)","232588","","null","","","","","FIX","","<div class='trialBorder'><div class='vertical-center'><img style='vertical-align:center; align:center' src=img/fixation3.jpg></div></div>","null","","","","","","",""
"html-keyboard-response","72","226229","0.0-6.0-2.22","6276b88b3b4036b3f0ca289b","bdp_sd","Tue Mar 28 2023 18:05:31 GMT-0700 (Pacific Daylight Time)","232588","","406","","","","","offer","","<div class='trialBorder'><div class='vertical-center'><img style='vertical-align:center; align:center' src=img/fixation3.jpg></div><div class='cl'><div class='vertical-center'>$14<br>for<br>yourself</div></div><div class='cr'><div class='vertical-center'>$25<br>for<br>carlo</div></div><div class='respDivL'><div class='vertical-center'>(E)</div></div><div class='respDivR'><div class='vertical-center'>(I)</div></div></div>","E","$14<br>for<br>yourself","$25<br>for<br>3","0","14","25","3","SELF"
"html-keyboard-response","73","226481","0.0-6.0-3.22","6276b88b3b4036b3f0ca289b","bdp_sd","Tue Mar 28 2023 18:05:31 GMT-0700 (Pacific Daylight Time)","232588","","null","","","","","offerFB","","<div class='trialBorder'><div class='vertical-center'><img style='vertical-align:center; align:center' src=img/fixation3.jpg></div><div class='cl'><div class='vertical-center'><font style='color:orange'>$14<br>for<br>yourself</font></div></div><div class='cr'><div class='vertical-center'>$25<br>for<br>carlo</div></div><div class='respDivL'><div class='vertical-center'><font style='color:orange'>(E)</font></div></div><div class='respDivR'><div class='vertical-center'>(I)</div></div></div>","null","$14<br>for<br>yourself","$25<br>for<br>3","0","14","25","3",""
"html-keyboard-response","74","226982","0.0-6.0-1.23","6276b88b3b4036b3f0ca289b","bdp_sd","Tue Mar 28 2023 18:05:31 GMT-0700 (Pacific Daylight Time)","232588","","null","","","","","FIX","","<div class='trialBorder'><div class='vertical-center'><img style='vertical-align:center; align:center' src=img/fixation3.jpg></div></div>","null","","","","","","",""
"html-keyboard-response","75","227656","0.0-6.0-2.23","6276b88b3b4036b3f0ca289b","bdp_sd","Tue Mar 28 2023 18:05:31 GMT-0700 (Pacific Daylight Time)","232588","","674","","","","","offer","","<div class='trialBorder'><div class='vertical-center'><img style='vertical-align:center; align:center' src=img/fixation3.jpg></div><div class='cl'><div class='vertical-center'>$75<br>for<br>nate</div></div><div class='cr'><div class='vertical-center'>$55<br>for<br>yourself</div></div><div class='respDivL'><div class='vertical-center'>(E)</div></div><div class='respDivR'><div class='vertical-center'>(I)</div></div></div>","I","$55<br>for<br>yourself","$75<br>for<br>4","1","55","75","4","SELF"
"html-keyboard-response","76","227907","0.0-6.0-3.23","6276b88b3b4036b3f0ca289b","bdp_sd","Tue Mar 28 2023 18:05:31 GMT-0700 (Pacific Daylight Time)","232588","","null","","","","","offerFB","","<div class='trialBorder'><div class='vertical-center'><img style='vertical-align:center; align:center' src=img/fixation3.jpg></div><div class='cl'><div class='vertical-center'>$75<br>for<br>nate</div></div><div class='cr'><div class='vertical-center'><font style='color:orange'>$55<br>for<br>yourself</font></div></div><div class='respDivL'><div class='vertical-center'>(E)</div></div><div class='respDivR'><div class='vertical-center'><font style='color:orange'>(I)</font></div></div></div>","null","$55<br>for<br>yourself","$75<br>for<br>4","1","55","75","4",""
"html-keyboard-response","77","228408","0.0-6.0-1.24","6276b88b3b4036b3f0ca289b","bdp_sd","Tue Mar 28 2023 18:05:31 GMT-0700 (Pacific Daylight Time)","232588","","null","","","","","FIX","","<div class='trialBorder'><div class='vertical-center'><img style='vertical-align:center; align:center' src=img/fixation3.jpg></div></div>","null","","","","","","",""
"html-keyboard-response","78","228895","0.0-6.0-2.24","6276b88b3b4036b3f0ca289b","bdp_sd","Tue Mar 28 2023 18:05:31 GMT-0700 (Pacific Daylight Time)","232588","","487","","","","","offer","","<div class='trialBorder'><div class='vertical-center'><img style='vertical-align:center; align:center' src=img/fixation3.jpg></div><div class='cl'><div class='vertical-center'>$40<br>for<br>yourself</div></div><div class='cr'><div class='vertical-center'>$55<br>for<br>nate</div></div><div class='respDivL'><div class='vertical-center'>(E)</div></div><div class='respDivR'><div class='vertical-center'>(I)</div></div></div>","E","$40<br>for<br>yourself","$55<br>for<br>4","0","40","55","4","SELF"
"html-keyboard-response","79","229146","0.0-6.0-3.24","6276b88b3b4036b3f0ca289b","bdp_sd","Tue Mar 28 2023 18:05:31 GMT-0700 (Pacific Daylight Time)","232588","","null","","","","","offerFB","","<div class='trialBorder'><div class='vertical-center'><img style='vertical-align:center; align:center' src=img/fixation3.jpg></div><div class='cl'><div class='vertical-center'><font style='color:orange'>$40<br>for<br>yourself</font></div></div><div class='cr'><div class='vertical-center'>$55<br>for<br>nate</div></div><div class='respDivL'><div class='vertical-center'><font style='color:orange'>(E)</font></div></div><div class='respDivR'><div class='vertical-center'>(I)</div></div></div>","null","$40<br>for<br>yourself","$55<br>for<br>4","0","40","55","4",""
"html-keyboard-response","80","229648","0.0-6.0-1.25","6276b88b3b4036b3f0ca289b","bdp_sd","Tue Mar 28 2023 18:05:31 GMT-0700 (Pacific Daylight Time)","232588","","null","","","","","FIX","","<div class='trialBorder'><div class='vertical-center'><img style='vertical-align:center; align:center' src=img/fixation3.jpg></div></div>","null","","","","","","",""
"html-keyboard-response","81","230155","0.0-6.0-2.25","6276b88b3b4036b3f0ca289b","bdp_sd","Tue Mar 28 2023 18:05:31 GMT-0700 (Pacific Daylight Time)","232588","","506","","","","","offer","","<div class='trialBorder'><div class='vertical-center'><img style='vertical-align:center; align:center' src=img/fixation3.jpg></div><div class='cl'><div class='vertical-center'>$34<br>for<br>yourself</div></div><div class='cr'><div class='vertical-center'>$35<br>for<br>lucky</div></div><div class='respDivL'><div class='vertical-center'>(E)</div></div><div class='respDivR'><div class='vertical-center'>(I)</div></div></div>","E","$34<br>for<br>yourself","$35<br>for<br>5","0","34","35","5","SELF"
"html-keyboard-response","82","230406","0.0-6.0-3.25","6276b88b3b4036b3f0ca289b","bdp_sd","Tue Mar 28 2023 18:05:31 GMT-0700 (Pacific Daylight Time)","232588","","null","","","","","offerFB","","<div class='trialBorder'><div class='vertical-center'><img style='vertical-align:center; align:center' src=img/fixation3.jpg></div><div class='cl'><div class='vertical-center'><font style='color:orange'>$34<br>for<br>yourself</font></div></div><div class='cr'><div class='vertical-center'>$35<br>for<br>lucky</div></div><div class='respDivL'><div class='vertical-center'><font style='color:orange'>(E)</font></div></div><div class='respDivR'><div class='vertical-center'>(I)</div></div></div>","null","$34<br>for<br>yourself","$35<br>for<br>5","0","34","35","5",""
"html-keyboard-response","83","230908","0.0-6.0-1.26","6276b88b3b4036b3f0ca289b","bdp_sd","Tue Mar 28 2023 18:05:31 GMT-0700 (Pacific Daylight Time)","232588","","null","","","","","FIX","","<div class='trialBorder'><div class='vertical-center'><img style='vertical-align:center; align:center' src=img/fixation3.jpg></div></div>","null","","","","","","",""
"html-keyboard-response","84","231335","0.0-6.0-2.26","6276b88b3b4036b3f0ca289b","bdp_sd","Tue Mar 28 2023 18:05:31 GMT-0700 (Pacific Daylight Time)","232588","","427","","","","","offer","","<div class='trialBorder'><div class='vertical-center'><img style='vertical-align:center; align:center' src=img/fixation3.jpg></div><div class='cl'><div class='vertical-center'>$34<br>for<br>yourself</div></div><div class='cr'><div class='vertical-center'>$50<br>for<br>nate</div></div><div class='respDivL'><div class='vertical-center'>(E)</div></div><div class='respDivR'><div class='vertical-center'>(I)</div></div></div>","E","$34<br>for<br>yourself","$50<br>for<br>4","0","34","50","4","SELF"
"html-keyboard-response","85","231587","0.0-6.0-3.26","6276b88b3b4036b3f0ca289b","bdp_sd","Tue Mar 28 2023 18:05:31 GMT-0700 (Pacific Daylight Time)","232588","","null","","","","","offerFB","","<div class='trialBorder'><div class='vertical-center'><img style='vertical-align:center; align:center' src=img/fixation3.jpg></div><div class='cl'><div class='vertical-center'><font style='color:orange'>$34<br>for<br>yourself</font></div></div><div class='cr'><div class='vertical-center'>$50<br>for<br>nate</div></div><div class='respDivL'><div class='vertical-center'><font style='color:orange'>(E)</font></div></div><div class='respDivR'><div class='vertical-center'>(I)</div></div></div>","null","$34<br>for<br>yourself","$50<br>for<br>4","0","34","50","4",""
"","","","","6276b88b3b4036b3f0ca289b","bdp_sd","Tue Mar 28 2023 18:05:31 GMT-0700 (Pacific Daylight Time)","232588","","","","fullscreenexit","86","231616","fullscreenexit","","","","","","","","","",""
"fullscreen","86","232588","0.0-7.0","6276b88b3b4036b3f0ca289b","bdp_sd","Tue Mar 28 2023 18:05:31 GMT-0700 (Pacific Daylight Time)","232588","","","","","","","","true","","","","","","","","",""
"html-keyboard-response","87","233089","0.0-8.0","","","","","","null","","","","","","","","null","","","","","","",""
