"trial_type","trial_index","time_elapsed","internal_node_id","subject_id","task","startTime","totalTime","view_history","rt","responses","event","trial","time","trialtype","success","stimulus","key_press","selfOffer","otherOffer","otherLeft","selfAmt","otherAmt","otherDist","chosen"
"pavlovia","0","3","0.0-0.0","taskTesting","bdp_sd","Tue Feb 07 2023 20:52:17 GMT-0500 (Eastern Standard Time)","323502","","","","","","","","","","","","","","","","",""
"instructions","1","1763","0.0-1.0","taskTesting","bdp_sd","Tue Feb 07 2023 20:52:17 GMT-0500 (Eastern Standard Time)","323502","[{""page_index"":0,""viewing_time"":1760}]","1760","","","","","","","","","","","","","","",""
"survey-text","2","39034","0.0-2.0","taskTesting","bdp_sd","Tue Feb 07 2023 20:52:17 GMT-0500 (Eastern Standard Time)","323502","","37269","{""Q0"":""john"",""Q1"":""fred"",""Q2"":""frank"",""Q3"":""bob"",""Q4"":""joe""}","","","","","","","","","","","","","",""
"","","","","taskTesting","bdp_sd","Tue Feb 07 2023 20:52:17 GMT-0500 (Eastern Standard Time)","323502","","","","fullscreenenter","3","41182","fullscreenenter","","","","","","","","","",""
"fullscreen","3","42182","0.0-3.0","taskTesting","bdp_sd","Tue Feb 07 2023 20:52:17 GMT-0500 (Eastern Standard Time)","323502","","","","","","","","true","","","","","","","","",""
"instructions","4","118302","0.0-5.0","taskTesting","bdp_sd","Tue Feb 07 2023 20:52:17 GMT-0500 (Eastern Standard Time)","323502","[{""page_index"":0,""viewing_time"":12213},{""page_index"":1,""viewing_time"":26913},{""page_index"":2,""viewing_time"":36993}]","76119","","","","","","","","","","","","","","",""
"html-keyboard-response","5","118808","0.0-6.0-1.0","taskTesting","bdp_sd","Tue Feb 07 2023 20:52:17 GMT-0500 (Eastern Standard Time)","323502","","null","","","","","FIX","","<div class='trialBorder'><div class='vertical-center'><img style='vertical-align:center; align:center' src=img/fixation3.jpg></div></div>","null","","","","","","",""
"html-keyboard-response","6","125142","0.0-6.0-2.0","taskTesting","bdp_sd","Tue Feb 07 2023 20:52:17 GMT-0500 (Eastern Standard Time)","323502","","6333","","","","","offer","","<div class='trialBorder'><div class='vertical-center'><img style='vertical-align:center; align:center' src=img/fixation3.jpg></div><div class='cl'><div class='vertical-center'>$35<br>for<br>frank</div></div><div class='cr'><div class='vertical-center'>$24<br>for<br>yourself</div></div><div class='respDivL'><div class='vertical-center'>(E)</div></div><div class='respDivR'><div class='vertical-center'>(I)</div></div></div>","I","$24<br>for<br>yourself","$35<br>for<br>3","1","24","35","3","SELF"
"html-keyboard-response","7","125399","0.0-6.0-3.0","taskTesting","bdp_sd","Tue Feb 07 2023 20:52:17 GMT-0500 (Eastern Standard Time)","323502","","null","","","","","offer","","<div class='trialBorder'><div class='vertical-center'><img style='vertical-align:center; align:center' src=img/fixation3.jpg></div><div class='cl'><div class='vertical-center'>$35<br>for<br>frank</div></div><div class='cr'><div class='vertical-center'><font style='color:orange'>$24<br>for<br>yourself</font></div></div><div class='respDivL'><div class='vertical-center'>(E)</div></div><div class='respDivR'><div class='vertical-center'><font style='color:orange'>(I)</font></div></div></div>","null","$24<br>for<br>yourself","$35<br>for<br>3","1","24","35","3",""
"html-keyboard-response","8","125905","0.0-6.0-1.1","taskTesting","bdp_sd","Tue Feb 07 2023 20:52:17 GMT-0500 (Eastern Standard Time)","323502","","null","","","","","FIX","","<div class='trialBorder'><div class='vertical-center'><img style='vertical-align:center; align:center' src=img/fixation3.jpg></div></div>","null","","","","","","",""
"html-keyboard-response","9","131023","0.0-6.0-2.1","taskTesting","bdp_sd","Tue Feb 07 2023 20:52:17 GMT-0500 (Eastern Standard Time)","323502","","5117","","","","","offer","","<div class='trialBorder'><div class='vertical-center'><img style='vertical-align:center; align:center' src=img/fixation3.jpg></div><div class='cl'><div class='vertical-center'>$75<br>for<br>frank</div></div><div class='cr'><div class='vertical-center'>$41<br>for<br>yourself</div></div><div class='respDivL'><div class='vertical-center'>(E)</div></div><div class='respDivR'><div class='vertical-center'>(I)</div></div></div>","E","$41<br>for<br>yourself","$75<br>for<br>3","1","41","75","3","OTHER"
"html-keyboard-response","10","131280","0.0-6.0-3.1","taskTesting","bdp_sd","Tue Feb 07 2023 20:52:17 GMT-0500 (Eastern Standard Time)","323502","","null","","","","","offer","","<div class='trialBorder'><div class='vertical-center'><img style='vertical-align:center; align:center' src=img/fixation3.jpg></div><div class='cl'><div class='vertical-center'><font style='color:orange'>$75<br>for<br>frank</font></div></div><div class='cr'><div class='vertical-center'>$41<br>for<br>yourself</div></div><div class='respDivL'><div class='vertical-center'><font style='color:orange'>(E)</font></div></div><div class='respDivR'><div class='vertical-center'>(I)</div></div></div>","null","$41<br>for<br>yourself","$75<br>for<br>3","1","41","75","3",""
"html-keyboard-response","11","131785","0.0-6.0-1.2","taskTesting","bdp_sd","Tue Feb 07 2023 20:52:17 GMT-0500 (Eastern Standard Time)","323502","","null","","","","","FIX","","<div class='trialBorder'><div class='vertical-center'><img style='vertical-align:center; align:center' src=img/fixation3.jpg></div></div>","null","","","","","","",""
"html-keyboard-response","12","136143","0.0-6.0-2.2","taskTesting","bdp_sd","Tue Feb 07 2023 20:52:17 GMT-0500 (Eastern Standard Time)","323502","","4357","","","","","offer","","<div class='trialBorder'><div class='vertical-center'><img style='vertical-align:center; align:center' src=img/fixation3.jpg></div><div class='cl'><div class='vertical-center'>$33<br>for<br>yourself</div></div><div class='cr'><div class='vertical-center'>$80<br>for<br>fred</div></div><div class='respDivL'><div class='vertical-center'>(E)</div></div><div class='respDivR'><div class='vertical-center'>(I)</div></div></div>","I","$33<br>for<br>yourself","$80<br>for<br>2","0","33","80","2","OTHER"
"html-keyboard-response","13","136400","0.0-6.0-3.2","taskTesting","bdp_sd","Tue Feb 07 2023 20:52:17 GMT-0500 (Eastern Standard Time)","323502","","null","","","","","offer","","<div class='trialBorder'><div class='vertical-center'><img style='vertical-align:center; align:center' src=img/fixation3.jpg></div><div class='cl'><div class='vertical-center'>$33<br>for<br>yourself</div></div><div class='cr'><div class='vertical-center'><font style='color:orange'>$80<br>for<br>fred</font></div></div><div class='respDivL'><div class='vertical-center'>(E)</div></div><div class='respDivR'><div class='vertical-center'><font style='color:orange'>(I)</font></div></div></div>","null","$33<br>for<br>yourself","$80<br>for<br>2","0","33","80","2",""
"html-keyboard-response","14","136905","0.0-6.0-1.3","taskTesting","bdp_sd","Tue Feb 07 2023 20:52:17 GMT-0500 (Eastern Standard Time)","323502","","null","","","","","FIX","","<div class='trialBorder'><div class='vertical-center'><img style='vertical-align:center; align:center' src=img/fixation3.jpg></div></div>","null","","","","","","",""
"html-keyboard-response","15","140446","0.0-6.0-2.3","taskTesting","bdp_sd","Tue Feb 07 2023 20:52:17 GMT-0500 (Eastern Standard Time)","323502","","3541","","","","","offer","","<div class='trialBorder'><div class='vertical-center'><img style='vertical-align:center; align:center' src=img/fixation3.jpg></div><div class='cl'><div class='vertical-center'>$25<br>for<br>yourself</div></div><div class='cr'><div class='vertical-center'>$30<br>for<br>bob</div></div><div class='respDivL'><div class='vertical-center'>(E)</div></div><div class='respDivR'><div class='vertical-center'>(I)</div></div></div>","E","$25<br>for<br>yourself","$30<br>for<br>4","0","25","30","4","SELF"
"html-keyboard-response","16","140707","0.0-6.0-3.3","taskTesting","bdp_sd","Tue Feb 07 2023 20:52:17 GMT-0500 (Eastern Standard Time)","323502","","null","","","","","offer","","<div class='trialBorder'><div class='vertical-center'><img style='vertical-align:center; align:center' src=img/fixation3.jpg></div><div class='cl'><div class='vertical-center'><font style='color:orange'>$25<br>for<br>yourself</font></div></div><div class='cr'><div class='vertical-center'>$30<br>for<br>bob</div></div><div class='respDivL'><div class='vertical-center'><font style='color:orange'>(E)</font></div></div><div class='respDivR'><div class='vertical-center'>(I)</div></div></div>","null","$25<br>for<br>yourself","$30<br>for<br>4","0","25","30","4",""
"html-keyboard-response","17","141219","0.0-6.0-1.4","taskTesting","bdp_sd","Tue Feb 07 2023 20:52:17 GMT-0500 (Eastern Standard Time)","323502","","null","","","","","FIX","","<div class='trialBorder'><div class='vertical-center'><img style='vertical-align:center; align:center' src=img/fixation3.jpg></div></div>","null","","","","","","",""
"html-keyboard-response","18","150991","0.0-6.0-2.4","taskTesting","bdp_sd","Tue Feb 07 2023 20:52:17 GMT-0500 (Eastern Standard Time)","323502","","9772","","","","","offer","","<div class='trialBorder'><div class='vertical-center'><img style='vertical-align:center; align:center' src=img/fixation3.jpg></div><div class='cl'><div class='vertical-center'>$55<br>for<br>joe</div></div><div class='cr'><div class='vertical-center'>$54<br>for<br>yourself</div></div><div class='respDivL'><div class='vertical-center'>(E)</div></div><div class='respDivR'><div class='vertical-center'>(I)</div></div></div>","I","$54<br>for<br>yourself","$55<br>for<br>5","1","54","55","5","SELF"
"html-keyboard-response","19","151250","0.0-6.0-3.4","taskTesting","bdp_sd","Tue Feb 07 2023 20:52:17 GMT-0500 (Eastern Standard Time)","323502","","null","","","","","offer","","<div class='trialBorder'><div class='vertical-center'><img style='vertical-align:center; align:center' src=img/fixation3.jpg></div><div class='cl'><div class='vertical-center'>$55<br>for<br>joe</div></div><div class='cr'><div class='vertical-center'><font style='color:orange'>$54<br>for<br>yourself</font></div></div><div class='respDivL'><div class='vertical-center'>(E)</div></div><div class='respDivR'><div class='vertical-center'><font style='color:orange'>(I)</font></div></div></div>","null","$54<br>for<br>yourself","$55<br>for<br>5","1","54","55","5",""
"html-keyboard-response","20","151760","0.0-6.0-1.5","taskTesting","bdp_sd","Tue Feb 07 2023 20:52:17 GMT-0500 (Eastern Standard Time)","323502","","null","","","","","FIX","","<div class='trialBorder'><div class='vertical-center'><img style='vertical-align:center; align:center' src=img/fixation3.jpg></div></div>","null","","","","","","",""
"html-keyboard-response","21","157623","0.0-6.0-2.5","taskTesting","bdp_sd","Tue Feb 07 2023 20:52:17 GMT-0500 (Eastern Standard Time)","323502","","5862","","","","","offer","","<div class='trialBorder'><div class='vertical-center'><img style='vertical-align:center; align:center' src=img/fixation3.jpg></div><div class='cl'><div class='vertical-center'>$31<br>for<br>yourself</div></div><div class='cr'><div class='vertical-center'>$85<br>for<br>john</div></div><div class='respDivL'><div class='vertical-center'>(E)</div></div><div class='respDivR'><div class='vertical-center'>(I)</div></div></div>","I","$31<br>for<br>yourself","$85<br>for<br>1","0","31","85","1","OTHER"
"html-keyboard-response","22","157879","0.0-6.0-3.5","taskTesting","bdp_sd","Tue Feb 07 2023 20:52:17 GMT-0500 (Eastern Standard Time)","323502","","null","","","","","offer","","<div class='trialBorder'><div class='vertical-center'><img style='vertical-align:center; align:center' src=img/fixation3.jpg></div><div class='cl'><div class='vertical-center'>$31<br>for<br>yourself</div></div><div class='cr'><div class='vertical-center'><font style='color:orange'>$85<br>for<br>john</font></div></div><div class='respDivL'><div class='vertical-center'>(E)</div></div><div class='respDivR'><div class='vertical-center'><font style='color:orange'>(I)</font></div></div></div>","null","$31<br>for<br>yourself","$85<br>for<br>1","0","31","85","1",""
"html-keyboard-response","23","158384","0.0-6.0-1.6","taskTesting","bdp_sd","Tue Feb 07 2023 20:52:17 GMT-0500 (Eastern Standard Time)","323502","","null","","","","","FIX","","<div class='trialBorder'><div class='vertical-center'><img style='vertical-align:center; align:center' src=img/fixation3.jpg></div></div>","null","","","","","","",""
"html-keyboard-response","24","161296","0.0-6.0-2.6","taskTesting","bdp_sd","Tue Feb 07 2023 20:52:17 GMT-0500 (Eastern Standard Time)","323502","","2910","","","","","offer","","<div class='trialBorder'><div class='vertical-center'><img style='vertical-align:center; align:center' src=img/fixation3.jpg></div><div class='cl'><div class='vertical-center'>$35<br>for<br>fred</div></div><div class='cr'><div class='vertical-center'>$15<br>for<br>yourself</div></div><div class='respDivL'><div class='vertical-center'>(E)</div></div><div class='respDivR'><div class='vertical-center'>(I)</div></div></div>","E","$15<br>for<br>yourself","$35<br>for<br>2","1","15","35","2","OTHER"
"html-keyboard-response","25","161554","0.0-6.0-3.6","taskTesting","bdp_sd","Tue Feb 07 2023 20:52:17 GMT-0500 (Eastern Standard Time)","323502","","null","","","","","offer","","<div class='trialBorder'><div class='vertical-center'><img style='vertical-align:center; align:center' src=img/fixation3.jpg></div><div class='cl'><div class='vertical-center'><font style='color:orange'>$35<br>for<br>fred</font></div></div><div class='cr'><div class='vertical-center'>$15<br>for<br>yourself</div></div><div class='respDivL'><div class='vertical-center'><font style='color:orange'>(E)</font></div></div><div class='respDivR'><div class='vertical-center'>(I)</div></div></div>","null","$15<br>for<br>yourself","$35<br>for<br>2","1","15","35","2",""
"html-keyboard-response","26","162065","0.0-6.0-1.7","taskTesting","bdp_sd","Tue Feb 07 2023 20:52:17 GMT-0500 (Eastern Standard Time)","323502","","null","","","","","FIX","","<div class='trialBorder'><div class='vertical-center'><img style='vertical-align:center; align:center' src=img/fixation3.jpg></div></div>","null","","","","","","",""
"html-keyboard-response","27","166383","0.0-6.0-2.7","taskTesting","bdp_sd","Tue Feb 07 2023 20:52:17 GMT-0500 (Eastern Standard Time)","323502","","4317","","","","","offer","","<div class='trialBorder'><div class='vertical-center'><img style='vertical-align:center; align:center' src=img/fixation3.jpg></div><div class='cl'><div class='vertical-center'>$25<br>for<br>joe</div></div><div class='cr'><div class='vertical-center'>$22<br>for<br>yourself</div></div><div class='respDivL'><div class='vertical-center'>(E)</div></div><div class='respDivR'><div class='vertical-center'>(I)</div></div></div>","E","$22<br>for<br>yourself","$25<br>for<br>5","1","22","25","5","OTHER"
"html-keyboard-response","28","166642","0.0-6.0-3.7","taskTesting","bdp_sd","Tue Feb 07 2023 20:52:17 GMT-0500 (Eastern Standard Time)","323502","","null","","","","","offer","","<div class='trialBorder'><div class='vertical-center'><img style='vertical-align:center; align:center' src=img/fixation3.jpg></div><div class='cl'><div class='vertical-center'><font style='color:orange'>$25<br>for<br>joe</font></div></div><div class='cr'><div class='vertical-center'>$22<br>for<br>yourself</div></div><div class='respDivL'><div class='vertical-center'><font style='color:orange'>(E)</font></div></div><div class='respDivR'><div class='vertical-center'>(I)</div></div></div>","null","$22<br>for<br>yourself","$25<br>for<br>5","1","22","25","5",""
"html-keyboard-response","29","167155","0.0-6.0-1.8","taskTesting","bdp_sd","Tue Feb 07 2023 20:52:17 GMT-0500 (Eastern Standard Time)","323502","","null","","","","","FIX","","<div class='trialBorder'><div class='vertical-center'><img style='vertical-align:center; align:center' src=img/fixation3.jpg></div></div>","null","","","","","","",""
"html-keyboard-response","30","172608","0.0-6.0-2.8","taskTesting","bdp_sd","Tue Feb 07 2023 20:52:17 GMT-0500 (Eastern Standard Time)","323502","","5452","","","","","offer","","<div class='trialBorder'><div class='vertical-center'><img style='vertical-align:center; align:center' src=img/fixation3.jpg></div><div class='cl'><div class='vertical-center'>$19<br>for<br>yourself</div></div><div class='cr'><div class='vertical-center'>$25<br>for<br>bob</div></div><div class='respDivL'><div class='vertical-center'>(E)</div></div><div class='respDivR'><div class='vertical-center'>(I)</div></div></div>","I","$19<br>for<br>yourself","$25<br>for<br>4","0","19","25","4","OTHER"
"html-keyboard-response","31","172868","0.0-6.0-3.8","taskTesting","bdp_sd","Tue Feb 07 2023 20:52:17 GMT-0500 (Eastern Standard Time)","323502","","null","","","","","offer","","<div class='trialBorder'><div class='vertical-center'><img style='vertical-align:center; align:center' src=img/fixation3.jpg></div><div class='cl'><div class='vertical-center'>$19<br>for<br>yourself</div></div><div class='cr'><div class='vertical-center'><font style='color:orange'>$25<br>for<br>bob</font></div></div><div class='respDivL'><div class='vertical-center'>(E)</div></div><div class='respDivR'><div class='vertical-center'><font style='color:orange'>(I)</font></div></div></div>","null","$19<br>for<br>yourself","$25<br>for<br>4","0","19","25","4",""
"html-keyboard-response","32","173379","0.0-6.0-1.9","taskTesting","bdp_sd","Tue Feb 07 2023 20:52:17 GMT-0500 (Eastern Standard Time)","323502","","null","","","","","FIX","","<div class='trialBorder'><div class='vertical-center'><img style='vertical-align:center; align:center' src=img/fixation3.jpg></div></div>","null","","","","","","",""
"html-keyboard-response","33","179112","0.0-6.0-2.9","taskTesting","bdp_sd","Tue Feb 07 2023 20:52:17 GMT-0500 (Eastern Standard Time)","323502","","5732","","","","","offer","","<div class='trialBorder'><div class='vertical-center'><img style='vertical-align:center; align:center' src=img/fixation3.jpg></div><div class='cl'><div class='vertical-center'>$49<br>for<br>yourself</div></div><div class='cr'><div class='vertical-center'>$60<br>for<br>bob</div></div><div class='respDivL'><div class='vertical-center'>(E)</div></div><div class='respDivR'><div class='vertical-center'>(I)</div></div></div>","I","$49<br>for<br>yourself","$60<br>for<br>4","0","49","60","4","OTHER"
"html-keyboard-response","34","179372","0.0-6.0-3.9","taskTesting","bdp_sd","Tue Feb 07 2023 20:52:17 GMT-0500 (Eastern Standard Time)","323502","","null","","","","","offer","","<div class='trialBorder'><div class='vertical-center'><img style='vertical-align:center; align:center' src=img/fixation3.jpg></div><div class='cl'><div class='vertical-center'>$49<br>for<br>yourself</div></div><div class='cr'><div class='vertical-center'><font style='color:orange'>$60<br>for<br>bob</font></div></div><div class='respDivL'><div class='vertical-center'>(E)</div></div><div class='respDivR'><div class='vertical-center'><font style='color:orange'>(I)</font></div></div></div>","null","$49<br>for<br>yourself","$60<br>for<br>4","0","49","60","4",""
"html-keyboard-response","35","179881","0.0-6.0-1.10","taskTesting","bdp_sd","Tue Feb 07 2023 20:52:17 GMT-0500 (Eastern Standard Time)","323502","","null","","","","","FIX","","<div class='trialBorder'><div class='vertical-center'><img style='vertical-align:center; align:center' src=img/fixation3.jpg></div></div>","null","","","","","","",""
"html-keyboard-response","36","183576","0.0-6.0-2.10","taskTesting","bdp_sd","Tue Feb 07 2023 20:52:17 GMT-0500 (Eastern Standard Time)","323502","","3694","","","","","offer","","<div class='trialBorder'><div class='vertical-center'><img style='vertical-align:center; align:center' src=img/fixation3.jpg></div><div class='cl'><div class='vertical-center'>$75<br>for<br>joe</div></div><div class='cr'><div class='vertical-center'>$67<br>for<br>yourself</div></div><div class='respDivL'><div class='vertical-center'>(E)</div></div><div class='respDivR'><div class='vertical-center'>(I)</div></div></div>","I","$67<br>for<br>yourself","$75<br>for<br>5","1","67","75","5","SELF"
"html-keyboard-response","37","183834","0.0-6.0-3.10","taskTesting","bdp_sd","Tue Feb 07 2023 20:52:17 GMT-0500 (Eastern Standard Time)","323502","","null","","","","","offer","","<div class='trialBorder'><div class='vertical-center'><img style='vertical-align:center; align:center' src=img/fixation3.jpg></div><div class='cl'><div class='vertical-center'>$75<br>for<br>joe</div></div><div class='cr'><div class='vertical-center'><font style='color:orange'>$67<br>for<br>yourself</font></div></div><div class='respDivL'><div class='vertical-center'>(E)</div></div><div class='respDivR'><div class='vertical-center'><font style='color:orange'>(I)</font></div></div></div>","null","$67<br>for<br>yourself","$75<br>for<br>5","1","67","75","5",""
"html-keyboard-response","38","184339","0.0-6.0-1.11","taskTesting","bdp_sd","Tue Feb 07 2023 20:52:17 GMT-0500 (Eastern Standard Time)","323502","","null","","","","","FIX","","<div class='trialBorder'><div class='vertical-center'><img style='vertical-align:center; align:center' src=img/fixation3.jpg></div></div>","null","","","","","","",""
"html-keyboard-response","39","198705","0.0-6.0-2.11","taskTesting","bdp_sd","Tue Feb 07 2023 20:52:17 GMT-0500 (Eastern Standard Time)","323502","","14364","","","","","offer","","<div class='trialBorder'><div class='vertical-center'><img style='vertical-align:center; align:center' src=img/fixation3.jpg></div><div class='cl'><div class='vertical-center'>$50<br>for<br>joe</div></div><div class='cr'><div class='vertical-center'>$47<br>for<br>yourself</div></div><div class='respDivL'><div class='vertical-center'>(E)</div></div><div class='respDivR'><div class='vertical-center'>(I)</div></div></div>","I","$47<br>for<br>yourself","$50<br>for<br>5","1","47","50","5","SELF"
"html-keyboard-response","40","198962","0.0-6.0-3.11","taskTesting","bdp_sd","Tue Feb 07 2023 20:52:17 GMT-0500 (Eastern Standard Time)","323502","","null","","","","","offer","","<div class='trialBorder'><div class='vertical-center'><img style='vertical-align:center; align:center' src=img/fixation3.jpg></div><div class='cl'><div class='vertical-center'>$50<br>for<br>joe</div></div><div class='cr'><div class='vertical-center'><font style='color:orange'>$47<br>for<br>yourself</font></div></div><div class='respDivL'><div class='vertical-center'>(E)</div></div><div class='respDivR'><div class='vertical-center'><font style='color:orange'>(I)</font></div></div></div>","null","$47<br>for<br>yourself","$50<br>for<br>5","1","47","50","5",""
"html-keyboard-response","41","199467","0.0-6.0-1.12","taskTesting","bdp_sd","Tue Feb 07 2023 20:52:17 GMT-0500 (Eastern Standard Time)","323502","","null","","","","","FIX","","<div class='trialBorder'><div class='vertical-center'><img style='vertical-align:center; align:center' src=img/fixation3.jpg></div></div>","null","","","","","","",""
"html-keyboard-response","42","206537","0.0-6.0-2.12","taskTesting","bdp_sd","Tue Feb 07 2023 20:52:17 GMT-0500 (Eastern Standard Time)","323502","","7068","","","","","offer","","<div class='trialBorder'><div class='vertical-center'><img style='vertical-align:center; align:center' src=img/fixation3.jpg></div><div class='cl'><div class='vertical-center'>$25<br>for<br>frank</div></div><div class='cr'><div class='vertical-center'>$14<br>for<br>yourself</div></div><div class='respDivL'><div class='vertical-center'>(E)</div></div><div class='respDivR'><div class='vertical-center'>(I)</div></div></div>","E","$14<br>for<br>yourself","$25<br>for<br>3","1","14","25","3","OTHER"
"html-keyboard-response","43","206793","0.0-6.0-3.12","taskTesting","bdp_sd","Tue Feb 07 2023 20:52:17 GMT-0500 (Eastern Standard Time)","323502","","null","","","","","offer","","<div class='trialBorder'><div class='vertical-center'><img style='vertical-align:center; align:center' src=img/fixation3.jpg></div><div class='cl'><div class='vertical-center'><font style='color:orange'>$25<br>for<br>frank</font></div></div><div class='cr'><div class='vertical-center'>$14<br>for<br>yourself</div></div><div class='respDivL'><div class='vertical-center'><font style='color:orange'>(E)</font></div></div><div class='respDivR'><div class='vertical-center'>(I)</div></div></div>","null","$14<br>for<br>yourself","$25<br>for<br>3","1","14","25","3",""
"html-keyboard-response","44","207299","0.0-6.0-1.13","taskTesting","bdp_sd","Tue Feb 07 2023 20:52:17 GMT-0500 (Eastern Standard Time)","323502","","null","","","","","FIX","","<div class='trialBorder'><div class='vertical-center'><img style='vertical-align:center; align:center' src=img/fixation3.jpg></div></div>","null","","","","","","",""
"html-keyboard-response","45","220089","0.0-6.0-2.13","taskTesting","bdp_sd","Tue Feb 07 2023 20:52:17 GMT-0500 (Eastern Standard Time)","323502","","12790","","","","","offer","","<div class='trialBorder'><div class='vertical-center'><img style='vertical-align:center; align:center' src=img/fixation3.jpg></div><div class='cl'><div class='vertical-center'>$28<br>for<br>yourself</div></div><div class='cr'><div class='vertical-center'>$30<br>for<br>joe</div></div><div class='respDivL'><div class='vertical-center'>(E)</div></div><div class='respDivR'><div class='vertical-center'>(I)</div></div></div>","I","$28<br>for<br>yourself","$30<br>for<br>5","0","28","30","5","OTHER"
"html-keyboard-response","46","220349","0.0-6.0-3.13","taskTesting","bdp_sd","Tue Feb 07 2023 20:52:17 GMT-0500 (Eastern Standard Time)","323502","","null","","","","","offer","","<div class='trialBorder'><div class='vertical-center'><img style='vertical-align:center; align:center' src=img/fixation3.jpg></div><div class='cl'><div class='vertical-center'>$28<br>for<br>yourself</div></div><div class='cr'><div class='vertical-center'><font style='color:orange'>$30<br>for<br>joe</font></div></div><div class='respDivL'><div class='vertical-center'>(E)</div></div><div class='respDivR'><div class='vertical-center'><font style='color:orange'>(I)</font></div></div></div>","null","$28<br>for<br>yourself","$30<br>for<br>5","0","28","30","5",""
"html-keyboard-response","47","220859","0.0-6.0-1.14","taskTesting","bdp_sd","Tue Feb 07 2023 20:52:17 GMT-0500 (Eastern Standard Time)","323502","","null","","","","","FIX","","<div class='trialBorder'><div class='vertical-center'><img style='vertical-align:center; align:center' src=img/fixation3.jpg></div></div>","null","","","","","","",""
"html-keyboard-response","48","223545","0.0-6.0-2.14","taskTesting","bdp_sd","Tue Feb 07 2023 20:52:17 GMT-0500 (Eastern Standard Time)","323502","","2685","","","","","offer","","<div class='trialBorder'><div class='vertical-center'><img style='vertical-align:center; align:center' src=img/fixation3.jpg></div><div class='cl'><div class='vertical-center'>$85<br>for<br>joe</div></div><div class='cr'><div class='vertical-center'>$80<br>for<br>yourself</div></div><div class='respDivL'><div class='vertical-center'>(E)</div></div><div class='respDivR'><div class='vertical-center'>(I)</div></div></div>","I","$80<br>for<br>yourself","$85<br>for<br>5","1","80","85","5","SELF"
"html-keyboard-response","49","223803","0.0-6.0-3.14","taskTesting","bdp_sd","Tue Feb 07 2023 20:52:17 GMT-0500 (Eastern Standard Time)","323502","","null","","","","","offer","","<div class='trialBorder'><div class='vertical-center'><img style='vertical-align:center; align:center' src=img/fixation3.jpg></div><div class='cl'><div class='vertical-center'>$85<br>for<br>joe</div></div><div class='cr'><div class='vertical-center'><font style='color:orange'>$80<br>for<br>yourself</font></div></div><div class='respDivL'><div class='vertical-center'>(E)</div></div><div class='respDivR'><div class='vertical-center'><font style='color:orange'>(I)</font></div></div></div>","null","$80<br>for<br>yourself","$85<br>for<br>5","1","80","85","5",""
"html-keyboard-response","50","224307","0.0-6.0-1.15","taskTesting","bdp_sd","Tue Feb 07 2023 20:52:17 GMT-0500 (Eastern Standard Time)","323502","","null","","","","","FIX","","<div class='trialBorder'><div class='vertical-center'><img style='vertical-align:center; align:center' src=img/fixation3.jpg></div></div>","null","","","","","","",""
"html-keyboard-response","51","237498","0.0-6.0-2.15","taskTesting","bdp_sd","Tue Feb 07 2023 20:52:17 GMT-0500 (Eastern Standard Time)","323502","","13190","","","","","offer","","<div class='trialBorder'><div class='vertical-center'><img style='vertical-align:center; align:center' src=img/fixation3.jpg></div><div class='cl'><div class='vertical-center'>$34<br>for<br>yourself</div></div><div class='cr'><div class='vertical-center'>$35<br>for<br>joe</div></div><div class='respDivL'><div class='vertical-center'>(E)</div></div><div class='respDivR'><div class='vertical-center'>(I)</div></div></div>","E","$34<br>for<br>yourself","$35<br>for<br>5","0","34","35","5","SELF"
"html-keyboard-response","52","237754","0.0-6.0-3.15","taskTesting","bdp_sd","Tue Feb 07 2023 20:52:17 GMT-0500 (Eastern Standard Time)","323502","","null","","","","","offer","","<div class='trialBorder'><div class='vertical-center'><img style='vertical-align:center; align:center' src=img/fixation3.jpg></div><div class='cl'><div class='vertical-center'><font style='color:orange'>$34<br>for<br>yourself</font></div></div><div class='cr'><div class='vertical-center'>$35<br>for<br>joe</div></div><div class='respDivL'><div class='vertical-center'><font style='color:orange'>(E)</font></div></div><div class='respDivR'><div class='vertical-center'>(I)</div></div></div>","null","$34<br>for<br>yourself","$35<br>for<br>5","0","34","35","5",""
"html-keyboard-response","53","238258","0.0-6.0-1.16","taskTesting","bdp_sd","Tue Feb 07 2023 20:52:17 GMT-0500 (Eastern Standard Time)","323502","","null","","","","","FIX","","<div class='trialBorder'><div class='vertical-center'><img style='vertical-align:center; align:center' src=img/fixation3.jpg></div></div>","null","","","","","","",""
"html-keyboard-response","54","240961","0.0-6.0-2.16","taskTesting","bdp_sd","Tue Feb 07 2023 20:52:17 GMT-0500 (Eastern Standard Time)","323502","","2703","","","","","offer","","<div class='trialBorder'><div class='vertical-center'><img style='vertical-align:center; align:center' src=img/fixation3.jpg></div><div class='cl'><div class='vertical-center'>$11<br>for<br>yourself</div></div><div class='cr'><div class='vertical-center'>$30<br>for<br>fred</div></div><div class='respDivL'><div class='vertical-center'>(E)</div></div><div class='respDivR'><div class='vertical-center'>(I)</div></div></div>","I","$11<br>for<br>yourself","$30<br>for<br>2","0","11","30","2","OTHER"
"html-keyboard-response","55","241220","0.0-6.0-3.16","taskTesting","bdp_sd","Tue Feb 07 2023 20:52:17 GMT-0500 (Eastern Standard Time)","323502","","null","","","","","offer","","<div class='trialBorder'><div class='vertical-center'><img style='vertical-align:center; align:center' src=img/fixation3.jpg></div><div class='cl'><div class='vertical-center'>$11<br>for<br>yourself</div></div><div class='cr'><div class='vertical-center'><font style='color:orange'>$30<br>for<br>fred</font></div></div><div class='respDivL'><div class='vertical-center'>(E)</div></div><div class='respDivR'><div class='vertical-center'><font style='color:orange'>(I)</font></div></div></div>","null","$11<br>for<br>yourself","$30<br>for<br>2","0","11","30","2",""
"html-keyboard-response","56","241729","0.0-6.0-1.17","taskTesting","bdp_sd","Tue Feb 07 2023 20:52:17 GMT-0500 (Eastern Standard Time)","323502","","null","","","","","FIX","","<div class='trialBorder'><div class='vertical-center'><img style='vertical-align:center; align:center' src=img/fixation3.jpg></div></div>","null","","","","","","",""
"html-keyboard-response","57","243994","0.0-6.0-2.17","taskTesting","bdp_sd","Tue Feb 07 2023 20:52:17 GMT-0500 (Eastern Standard Time)","323502","","2263","","","","","offer","","<div class='trialBorder'><div class='vertical-center'><img style='vertical-align:center; align:center' src=img/fixation3.jpg></div><div class='cl'><div class='vertical-center'>$78<br>for<br>yourself</div></div><div class='cr'><div class='vertical-center'>$80<br>for<br>joe</div></div><div class='respDivL'><div class='vertical-center'>(E)</div></div><div class='respDivR'><div class='vertical-center'>(I)</div></div></div>","E","$78<br>for<br>yourself","$80<br>for<br>5","0","78","80","5","SELF"
"html-keyboard-response","58","244254","0.0-6.0-3.17","taskTesting","bdp_sd","Tue Feb 07 2023 20:52:17 GMT-0500 (Eastern Standard Time)","323502","","null","","","","","offer","","<div class='trialBorder'><div class='vertical-center'><img style='vertical-align:center; align:center' src=img/fixation3.jpg></div><div class='cl'><div class='vertical-center'><font style='color:orange'>$78<br>for<br>yourself</font></div></div><div class='cr'><div class='vertical-center'>$80<br>for<br>joe</div></div><div class='respDivL'><div class='vertical-center'><font style='color:orange'>(E)</font></div></div><div class='respDivR'><div class='vertical-center'>(I)</div></div></div>","null","$78<br>for<br>yourself","$80<br>for<br>5","0","78","80","5",""
"html-keyboard-response","59","244765","0.0-6.0-1.18","taskTesting","bdp_sd","Tue Feb 07 2023 20:52:17 GMT-0500 (Eastern Standard Time)","323502","","null","","","","","FIX","","<div class='trialBorder'><div class='vertical-center'><img style='vertical-align:center; align:center' src=img/fixation3.jpg></div></div>","null","","","","","","",""
"html-keyboard-response","60","249274","0.0-6.0-2.18","taskTesting","bdp_sd","Tue Feb 07 2023 20:52:17 GMT-0500 (Eastern Standard Time)","323502","","4508","","","","","offer","","<div class='trialBorder'><div class='vertical-center'><img style='vertical-align:center; align:center' src=img/fixation3.jpg></div><div class='cl'><div class='vertical-center'>$69<br>for<br>yourself</div></div><div class='cr'><div class='vertical-center'>$85<br>for<br>bob</div></div><div class='respDivL'><div class='vertical-center'>(E)</div></div><div class='respDivR'><div class='vertical-center'>(I)</div></div></div>","E","$69<br>for<br>yourself","$85<br>for<br>4","0","69","85","4","SELF"
"html-keyboard-response","61","249531","0.0-6.0-3.18","taskTesting","bdp_sd","Tue Feb 07 2023 20:52:17 GMT-0500 (Eastern Standard Time)","323502","","null","","","","","offer","","<div class='trialBorder'><div class='vertical-center'><img style='vertical-align:center; align:center' src=img/fixation3.jpg></div><div class='cl'><div class='vertical-center'><font style='color:orange'>$69<br>for<br>yourself</font></div></div><div class='cr'><div class='vertical-center'>$85<br>for<br>bob</div></div><div class='respDivL'><div class='vertical-center'><font style='color:orange'>(E)</font></div></div><div class='respDivR'><div class='vertical-center'>(I)</div></div></div>","null","$69<br>for<br>yourself","$85<br>for<br>4","0","69","85","4",""
"html-keyboard-response","62","250036","0.0-6.0-1.19","taskTesting","bdp_sd","Tue Feb 07 2023 20:52:17 GMT-0500 (Eastern Standard Time)","323502","","null","","","","","FIX","","<div class='trialBorder'><div class='vertical-center'><img style='vertical-align:center; align:center' src=img/fixation3.jpg></div></div>","null","","","","","","",""
"html-keyboard-response","63","254370","0.0-6.0-2.19","taskTesting","bdp_sd","Tue Feb 07 2023 20:52:17 GMT-0500 (Eastern Standard Time)","323502","","4333","","","","","offer","","<div class='trialBorder'><div class='vertical-center'><img style='vertical-align:center; align:center' src=img/fixation3.jpg></div><div class='cl'><div class='vertical-center'>$50<br>for<br>frank</div></div><div class='cr'><div class='vertical-center'>$27<br>for<br>yourself</div></div><div class='respDivL'><div class='vertical-center'>(E)</div></div><div class='respDivR'><div class='vertical-center'>(I)</div></div></div>","E","$27<br>for<br>yourself","$50<br>for<br>3","1","27","50","3","OTHER"
"html-keyboard-response","64","254628","0.0-6.0-3.19","taskTesting","bdp_sd","Tue Feb 07 2023 20:52:17 GMT-0500 (Eastern Standard Time)","323502","","null","","","","","offer","","<div class='trialBorder'><div class='vertical-center'><img style='vertical-align:center; align:center' src=img/fixation3.jpg></div><div class='cl'><div class='vertical-center'><font style='color:orange'>$50<br>for<br>frank</font></div></div><div class='cr'><div class='vertical-center'>$27<br>for<br>yourself</div></div><div class='respDivL'><div class='vertical-center'><font style='color:orange'>(E)</font></div></div><div class='respDivR'><div class='vertical-center'>(I)</div></div></div>","null","$27<br>for<br>yourself","$50<br>for<br>3","1","27","50","3",""
"html-keyboard-response","65","255133","0.0-6.0-1.20","taskTesting","bdp_sd","Tue Feb 07 2023 20:52:17 GMT-0500 (Eastern Standard Time)","323502","","null","","","","","FIX","","<div class='trialBorder'><div class='vertical-center'><img style='vertical-align:center; align:center' src=img/fixation3.jpg></div></div>","null","","","","","","",""
"html-keyboard-response","66","259874","0.0-6.0-2.20","taskTesting","bdp_sd","Tue Feb 07 2023 20:52:17 GMT-0500 (Eastern Standard Time)","323502","","4740","","","","","offer","","<div class='trialBorder'><div class='vertical-center'><img style='vertical-align:center; align:center' src=img/fixation3.jpg></div><div class='cl'><div class='vertical-center'>$55<br>for<br>bob</div></div><div class='cr'><div class='vertical-center'>$40<br>for<br>yourself</div></div><div class='respDivL'><div class='vertical-center'>(E)</div></div><div class='respDivR'><div class='vertical-center'>(I)</div></div></div>","I","$40<br>for<br>yourself","$55<br>for<br>4","1","40","55","4","SELF"
"html-keyboard-response","67","260131","0.0-6.0-3.20","taskTesting","bdp_sd","Tue Feb 07 2023 20:52:17 GMT-0500 (Eastern Standard Time)","323502","","null","","","","","offer","","<div class='trialBorder'><div class='vertical-center'><img style='vertical-align:center; align:center' src=img/fixation3.jpg></div><div class='cl'><div class='vertical-center'>$55<br>for<br>bob</div></div><div class='cr'><div class='vertical-center'><font style='color:orange'>$40<br>for<br>yourself</font></div></div><div class='respDivL'><div class='vertical-center'>(E)</div></div><div class='respDivR'><div class='vertical-center'><font style='color:orange'>(I)</font></div></div></div>","null","$40<br>for<br>yourself","$55<br>for<br>4","1","40","55","4",""
"html-keyboard-response","68","260636","0.0-6.0-1.21","taskTesting","bdp_sd","Tue Feb 07 2023 20:52:17 GMT-0500 (Eastern Standard Time)","323502","","null","","","","","FIX","","<div class='trialBorder'><div class='vertical-center'><img style='vertical-align:center; align:center' src=img/fixation3.jpg></div></div>","null","","","","","","",""
"html-keyboard-response","69","264282","0.0-6.0-2.21","taskTesting","bdp_sd","Tue Feb 07 2023 20:52:17 GMT-0500 (Eastern Standard Time)","323502","","3645","","","","","offer","","<div class='trialBorder'><div class='vertical-center'><img style='vertical-align:center; align:center' src=img/fixation3.jpg></div><div class='cl'><div class='vertical-center'>$60<br>for<br>joe</div></div><div class='cr'><div class='vertical-center'>$54<br>for<br>yourself</div></div><div class='respDivL'><div class='vertical-center'>(E)</div></div><div class='respDivR'><div class='vertical-center'>(I)</div></div></div>","I","$54<br>for<br>yourself","$60<br>for<br>5","1","54","60","5","SELF"
"html-keyboard-response","70","264543","0.0-6.0-3.21","taskTesting","bdp_sd","Tue Feb 07 2023 20:52:17 GMT-0500 (Eastern Standard Time)","323502","","null","","","","","offer","","<div class='trialBorder'><div class='vertical-center'><img style='vertical-align:center; align:center' src=img/fixation3.jpg></div><div class='cl'><div class='vertical-center'>$60<br>for<br>joe</div></div><div class='cr'><div class='vertical-center'><font style='color:orange'>$54<br>for<br>yourself</font></div></div><div class='respDivL'><div class='vertical-center'>(E)</div></div><div class='respDivR'><div class='vertical-center'><font style='color:orange'>(I)</font></div></div></div>","null","$54<br>for<br>yourself","$60<br>for<br>5","1","54","60","5",""
"html-keyboard-response","71","265054","0.0-6.0-1.22","taskTesting","bdp_sd","Tue Feb 07 2023 20:52:17 GMT-0500 (Eastern Standard Time)","323502","","null","","","","","FIX","","<div class='trialBorder'><div class='vertical-center'><img style='vertical-align:center; align:center' src=img/fixation3.jpg></div></div>","null","","","","","","",""
"html-keyboard-response","72","289148","0.0-6.0-2.22","taskTesting","bdp_sd","Tue Feb 07 2023 20:52:17 GMT-0500 (Eastern Standard Time)","323502","","24093","","","","","offer","","<div class='trialBorder'><div class='vertical-center'><img style='vertical-align:center; align:center' src=img/fixation3.jpg></div><div class='cl'><div class='vertical-center'>$75<br>for<br>bob</div></div><div class='cr'><div class='vertical-center'>$55<br>for<br>yourself</div></div><div class='respDivL'><div class='vertical-center'>(E)</div></div><div class='respDivR'><div class='vertical-center'>(I)</div></div></div>","E","$55<br>for<br>yourself","$75<br>for<br>4","1","55","75","4","OTHER"
"html-keyboard-response","73","289407","0.0-6.0-3.22","taskTesting","bdp_sd","Tue Feb 07 2023 20:52:17 GMT-0500 (Eastern Standard Time)","323502","","null","","","","","offer","","<div class='trialBorder'><div class='vertical-center'><img style='vertical-align:center; align:center' src=img/fixation3.jpg></div><div class='cl'><div class='vertical-center'><font style='color:orange'>$75<br>for<br>bob</font></div></div><div class='cr'><div class='vertical-center'>$55<br>for<br>yourself</div></div><div class='respDivL'><div class='vertical-center'><font style='color:orange'>(E)</font></div></div><div class='respDivR'><div class='vertical-center'>(I)</div></div></div>","null","$55<br>for<br>yourself","$75<br>for<br>4","1","55","75","4",""
"html-keyboard-response","74","289918","0.0-6.0-1.23","taskTesting","bdp_sd","Tue Feb 07 2023 20:52:17 GMT-0500 (Eastern Standard Time)","323502","","null","","","","","FIX","","<div class='trialBorder'><div class='vertical-center'><img style='vertical-align:center; align:center' src=img/fixation3.jpg></div></div>","null","","","","","","",""
"html-keyboard-response","75","313436","0.0-6.0-2.23","taskTesting","bdp_sd","Tue Feb 07 2023 20:52:17 GMT-0500 (Eastern Standard Time)","323502","","23517","","","","","offer","","<div class='trialBorder'><div class='vertical-center'><img style='vertical-align:center; align:center' src=img/fixation3.jpg></div><div class='cl'><div class='vertical-center'>$34<br>for<br>yourself</div></div><div class='cr'><div class='vertical-center'>$50<br>for<br>bob</div></div><div class='respDivL'><div class='vertical-center'>(E)</div></div><div class='respDivR'><div class='vertical-center'>(I)</div></div></div>","E","$34<br>for<br>yourself","$50<br>for<br>4","0","34","50","4","SELF"
"html-keyboard-response","76","313694","0.0-6.0-3.23","taskTesting","bdp_sd","Tue Feb 07 2023 20:52:17 GMT-0500 (Eastern Standard Time)","323502","","null","","","","","offer","","<div class='trialBorder'><div class='vertical-center'><img style='vertical-align:center; align:center' src=img/fixation3.jpg></div><div class='cl'><div class='vertical-center'><font style='color:orange'>$34<br>for<br>yourself</font></div></div><div class='cr'><div class='vertical-center'>$50<br>for<br>bob</div></div><div class='respDivL'><div class='vertical-center'><font style='color:orange'>(E)</font></div></div><div class='respDivR'><div class='vertical-center'>(I)</div></div></div>","null","$34<br>for<br>yourself","$50<br>for<br>4","0","34","50","4",""
"html-keyboard-response","77","314196","0.0-6.0-1.24","taskTesting","bdp_sd","Tue Feb 07 2023 20:52:17 GMT-0500 (Eastern Standard Time)","323502","","null","","","","","FIX","","<div class='trialBorder'><div class='vertical-center'><img style='vertical-align:center; align:center' src=img/fixation3.jpg></div></div>","null","","","","","","",""
"html-keyboard-response","78","317212","0.0-6.0-2.24","taskTesting","bdp_sd","Tue Feb 07 2023 20:52:17 GMT-0500 (Eastern Standard Time)","323502","","3015","","","","","offer","","<div class='trialBorder'><div class='vertical-center'><img style='vertical-align:center; align:center' src=img/fixation3.jpg></div><div class='cl'><div class='vertical-center'>$20<br>for<br>yourself</div></div><div class='cr'><div class='vertical-center'>$55<br>for<br>john</div></div><div class='respDivL'><div class='vertical-center'>(E)</div></div><div class='respDivR'><div class='vertical-center'>(I)</div></div></div>","I","$20<br>for<br>yourself","$55<br>for<br>1","0","20","55","1","OTHER"
"html-keyboard-response","79","317469","0.0-6.0-3.24","taskTesting","bdp_sd","Tue Feb 07 2023 20:52:17 GMT-0500 (Eastern Standard Time)","323502","","null","","","","","offer","","<div class='trialBorder'><div class='vertical-center'><img style='vertical-align:center; align:center' src=img/fixation3.jpg></div><div class='cl'><div class='vertical-center'>$20<br>for<br>yourself</div></div><div class='cr'><div class='vertical-center'><font style='color:orange'>$55<br>for<br>john</font></div></div><div class='respDivL'><div class='vertical-center'>(E)</div></div><div class='respDivR'><div class='vertical-center'><font style='color:orange'>(I)</font></div></div></div>","null","$20<br>for<br>yourself","$55<br>for<br>1","0","20","55","1",""
"html-keyboard-response","80","317974","0.0-6.0-1.25","taskTesting","bdp_sd","Tue Feb 07 2023 20:52:17 GMT-0500 (Eastern Standard Time)","323502","","null","","","","","FIX","","<div class='trialBorder'><div class='vertical-center'><img style='vertical-align:center; align:center' src=img/fixation3.jpg></div></div>","null","","","","","","",""
"html-keyboard-response","81","319804","0.0-6.0-2.25","taskTesting","bdp_sd","Tue Feb 07 2023 20:52:17 GMT-0500 (Eastern Standard Time)","323502","","1829","","","","","offer","","<div class='trialBorder'><div class='vertical-center'><img style='vertical-align:center; align:center' src=img/fixation3.jpg></div><div class='cl'><div class='vertical-center'>$54<br>for<br>yourself</div></div><div class='cr'><div class='vertical-center'>$80<br>for<br>frank</div></div><div class='respDivL'><div class='vertical-center'>(E)</div></div><div class='respDivR'><div class='vertical-center'>(I)</div></div></div>","I","$54<br>for<br>yourself","$80<br>for<br>3","0","54","80","3","OTHER"
"html-keyboard-response","82","320060","0.0-6.0-3.25","taskTesting","bdp_sd","Tue Feb 07 2023 20:52:17 GMT-0500 (Eastern Standard Time)","323502","","null","","","","","offer","","<div class='trialBorder'><div class='vertical-center'><img style='vertical-align:center; align:center' src=img/fixation3.jpg></div><div class='cl'><div class='vertical-center'>$54<br>for<br>yourself</div></div><div class='cr'><div class='vertical-center'><font style='color:orange'>$80<br>for<br>frank</font></div></div><div class='respDivL'><div class='vertical-center'>(E)</div></div><div class='respDivR'><div class='vertical-center'><font style='color:orange'>(I)</font></div></div></div>","null","$54<br>for<br>yourself","$80<br>for<br>3","0","54","80","3",""
"html-keyboard-response","83","320566","0.0-6.0-1.26","taskTesting","bdp_sd","Tue Feb 07 2023 20:52:17 GMT-0500 (Eastern Standard Time)","323502","","null","","","","","FIX","","<div class='trialBorder'><div class='vertical-center'><img style='vertical-align:center; align:center' src=img/fixation3.jpg></div></div>","null","","","","","","",""
"html-keyboard-response","84","322236","0.0-6.0-2.26","taskTesting","bdp_sd","Tue Feb 07 2023 20:52:17 GMT-0500 (Eastern Standard Time)","323502","","1669","","","","","offer","","<div class='trialBorder'><div class='vertical-center'><img style='vertical-align:center; align:center' src=img/fixation3.jpg></div><div class='cl'><div class='vertical-center'>$25<br>for<br>yourself</div></div><div class='cr'><div class='vertical-center'>$60<br>for<br>frank</div></div><div class='respDivL'><div class='vertical-center'>(E)</div></div><div class='respDivR'><div class='vertical-center'>(I)</div></div></div>","I","$25<br>for<br>yourself","$60<br>for<br>3","0","25","60","3","OTHER"
"html-keyboard-response","85","322493","0.0-6.0-3.26","taskTesting","bdp_sd","Tue Feb 07 2023 20:52:17 GMT-0500 (Eastern Standard Time)","323502","","null","","","","","offer","","<div class='trialBorder'><div class='vertical-center'><img style='vertical-align:center; align:center' src=img/fixation3.jpg></div><div class='cl'><div class='vertical-center'>$25<br>for<br>yourself</div></div><div class='cr'><div class='vertical-center'><font style='color:orange'>$60<br>for<br>frank</font></div></div><div class='respDivL'><div class='vertical-center'>(E)</div></div><div class='respDivR'><div class='vertical-center'><font style='color:orange'>(I)</font></div></div></div>","null","$25<br>for<br>yourself","$60<br>for<br>3","0","25","60","3",""
"","","","","taskTesting","bdp_sd","Tue Feb 07 2023 20:52:17 GMT-0500 (Eastern Standard Time)","323502","","","","fullscreenexit","86","322506","fullscreenexit","","","","","","","","","",""
"fullscreen","86","323501","0.0-7.0","taskTesting","bdp_sd","Tue Feb 07 2023 20:52:17 GMT-0500 (Eastern Standard Time)","323502","","","","","","","","true","","","","","","","","",""
"html-keyboard-response","87","324007","0.0-8.0","","","","","","null","","","","","","","","null","","","","","","",""
