"trial_type","trial_index","time_elapsed","internal_node_id","subject_id","task","startTime","totalTime","view_history","rt","responses","event","trial","time","trialtype","success","stimulus","key_press","selfOffer","otherOffer","otherLeft","selfAmt","otherAmt","otherDist","chosen"
"pavlovia","0","12","0.0-0.0","5c59d8105bbd810001fb26de","bdp_sd","Sun Mar 26 2023 10:47:14 GMT-0500 (Central Daylight Time)","509287","","","","","","","","","","","","","","","","",""
"instructions","1","3012","0.0-1.0","5c59d8105bbd810001fb26de","bdp_sd","Sun Mar 26 2023 10:47:14 GMT-0500 (Central Daylight Time)","509287","[{""page_index"":0,""viewing_time"":2998}]","2999","","","","","","","","","","","","","","",""
"survey-text","2","334891","0.0-2.0","5c59d8105bbd810001fb26de","bdp_sd","Sun Mar 26 2023 10:47:14 GMT-0500 (Central Daylight Time)","509287","","331876","{""Q0"":""Karen"",""Q1"":""Quan"",""Q2"":""Tyik"",""Q3"":""Manny"",""Q4"":""Tatum""}","","","","","","","","","","","","","",""
"","","","","5c59d8105bbd810001fb26de","bdp_sd","Sun Mar 26 2023 10:47:14 GMT-0500 (Central Daylight Time)","509287","","","","fullscreenenter","3","339034","fullscreenenter","","","","","","","","","",""
"fullscreen","3","339984","0.0-3.0","5c59d8105bbd810001fb26de","bdp_sd","Sun Mar 26 2023 10:47:14 GMT-0500 (Central Daylight Time)","509287","","","","","","","","true","","","","","","","","",""
"instructions","4","351620","0.0-5.0","5c59d8105bbd810001fb26de","bdp_sd","Sun Mar 26 2023 10:47:14 GMT-0500 (Central Daylight Time)","509287","[{""page_index"":0,""viewing_time"":6639},{""page_index"":1,""viewing_time"":3522},{""page_index"":2,""viewing_time"":1472}]","11634","","","","","","","","","","","","","","",""
"html-keyboard-response","5","352124","0.0-6.0-1.0","5c59d8105bbd810001fb26de","bdp_sd","Sun Mar 26 2023 10:47:14 GMT-0500 (Central Daylight Time)","509287","","null","","","","","FIX","","<div class='trialBorder'><div class='vertical-center'><img style='vertical-align:center; align:center' src=img/fixation3.jpg></div></div>","null","","","","","","",""
"html-keyboard-response","6","356174","0.0-6.0-2.0","5c59d8105bbd810001fb26de","bdp_sd","Sun Mar 26 2023 10:47:14 GMT-0500 (Central Daylight Time)","509287","","4047","","","","","offer","","<div class='trialBorder'><div class='vertical-center'><img style='vertical-align:center; align:center' src=img/fixation3.jpg></div><div class='cl'><div class='vertical-center'>$34<br>for<br>yourself</div></div><div class='cr'><div class='vertical-center'>$50<br>for<br>Manny</div></div><div class='respDivL'><div class='vertical-center'>(E)</div></div><div class='respDivR'><div class='vertical-center'>(I)</div></div></div>","I","$34<br>for<br>yourself","$50<br>for<br>4","0","34","50","4","OTHER"
"html-keyboard-response","7","356428","0.0-6.0-3.0","5c59d8105bbd810001fb26de","bdp_sd","Sun Mar 26 2023 10:47:14 GMT-0500 (Central Daylight Time)","509287","","null","","","","","offerFB","","<div class='trialBorder'><div class='vertical-center'><img style='vertical-align:center; align:center' src=img/fixation3.jpg></div><div class='cl'><div class='vertical-center'>$34<br>for<br>yourself</div></div><div class='cr'><div class='vertical-center'><font style='color:orange'>$50<br>for<br>Manny</font></div></div><div class='respDivL'><div class='vertical-center'>(E)</div></div><div class='respDivR'><div class='vertical-center'><font style='color:orange'>(I)</font></div></div></div>","null","$34<br>for<br>yourself","$50<br>for<br>4","0","34","50","4",""
"html-keyboard-response","8","356931","0.0-6.0-1.1","5c59d8105bbd810001fb26de","bdp_sd","Sun Mar 26 2023 10:47:14 GMT-0500 (Central Daylight Time)","509287","","null","","","","","FIX","","<div class='trialBorder'><div class='vertical-center'><img style='vertical-align:center; align:center' src=img/fixation3.jpg></div></div>","null","","","","","","",""
"html-keyboard-response","9","359544","0.0-6.0-2.1","5c59d8105bbd810001fb26de","bdp_sd","Sun Mar 26 2023 10:47:14 GMT-0500 (Central Daylight Time)","509287","","2611","","","","","offer","","<div class='trialBorder'><div class='vertical-center'><img style='vertical-align:center; align:center' src=img/fixation3.jpg></div><div class='cl'><div class='vertical-center'>$50<br>for<br>Tatum</div></div><div class='cr'><div class='vertical-center'>$47<br>for<br>yourself</div></div><div class='respDivL'><div class='vertical-center'>(E)</div></div><div class='respDivR'><div class='vertical-center'>(I)</div></div></div>","I","$47<br>for<br>yourself","$50<br>for<br>5","1","47","50","5","SELF"
"html-keyboard-response","10","359797","0.0-6.0-3.1","5c59d8105bbd810001fb26de","bdp_sd","Sun Mar 26 2023 10:47:14 GMT-0500 (Central Daylight Time)","509287","","null","","","","","offerFB","","<div class='trialBorder'><div class='vertical-center'><img style='vertical-align:center; align:center' src=img/fixation3.jpg></div><div class='cl'><div class='vertical-center'>$50<br>for<br>Tatum</div></div><div class='cr'><div class='vertical-center'><font style='color:orange'>$47<br>for<br>yourself</font></div></div><div class='respDivL'><div class='vertical-center'>(E)</div></div><div class='respDivR'><div class='vertical-center'><font style='color:orange'>(I)</font></div></div></div>","null","$47<br>for<br>yourself","$50<br>for<br>5","1","47","50","5",""
"html-keyboard-response","11","360300","0.0-6.0-1.2","5c59d8105bbd810001fb26de","bdp_sd","Sun Mar 26 2023 10:47:14 GMT-0500 (Central Daylight Time)","509287","","null","","","","","FIX","","<div class='trialBorder'><div class='vertical-center'><img style='vertical-align:center; align:center' src=img/fixation3.jpg></div></div>","null","","","","","","",""
"html-keyboard-response","12","363487","0.0-6.0-2.2","5c59d8105bbd810001fb26de","bdp_sd","Sun Mar 26 2023 10:47:14 GMT-0500 (Central Daylight Time)","509287","","3185","","","","","offer","","<div class='trialBorder'><div class='vertical-center'><img style='vertical-align:center; align:center' src=img/fixation3.jpg></div><div class='cl'><div class='vertical-center'>$41<br>for<br>yourself</div></div><div class='cr'><div class='vertical-center'>$75<br>for<br>Tyik</div></div><div class='respDivL'><div class='vertical-center'>(E)</div></div><div class='respDivR'><div class='vertical-center'>(I)</div></div></div>","I","$41<br>for<br>yourself","$75<br>for<br>3","0","41","75","3","OTHER"
"html-keyboard-response","13","363740","0.0-6.0-3.2","5c59d8105bbd810001fb26de","bdp_sd","Sun Mar 26 2023 10:47:14 GMT-0500 (Central Daylight Time)","509287","","null","","","","","offerFB","","<div class='trialBorder'><div class='vertical-center'><img style='vertical-align:center; align:center' src=img/fixation3.jpg></div><div class='cl'><div class='vertical-center'>$41<br>for<br>yourself</div></div><div class='cr'><div class='vertical-center'><font style='color:orange'>$75<br>for<br>Tyik</font></div></div><div class='respDivL'><div class='vertical-center'>(E)</div></div><div class='respDivR'><div class='vertical-center'><font style='color:orange'>(I)</font></div></div></div>","null","$41<br>for<br>yourself","$75<br>for<br>3","0","41","75","3",""
"html-keyboard-response","14","364242","0.0-6.0-1.3","5c59d8105bbd810001fb26de","bdp_sd","Sun Mar 26 2023 10:47:14 GMT-0500 (Central Daylight Time)","509287","","null","","","","","FIX","","<div class='trialBorder'><div class='vertical-center'><img style='vertical-align:center; align:center' src=img/fixation3.jpg></div></div>","null","","","","","","",""
"html-keyboard-response","15","367079","0.0-6.0-2.3","5c59d8105bbd810001fb26de","bdp_sd","Sun Mar 26 2023 10:47:14 GMT-0500 (Central Daylight Time)","509287","","2835","","","","","offer","","<div class='trialBorder'><div class='vertical-center'><img style='vertical-align:center; align:center' src=img/fixation3.jpg></div><div class='cl'><div class='vertical-center'>$19<br>for<br>yourself</div></div><div class='cr'><div class='vertical-center'>$25<br>for<br>Manny</div></div><div class='respDivL'><div class='vertical-center'>(E)</div></div><div class='respDivR'><div class='vertical-center'>(I)</div></div></div>","E","$19<br>for<br>yourself","$25<br>for<br>4","0","19","25","4","SELF"
"html-keyboard-response","16","367331","0.0-6.0-3.3","5c59d8105bbd810001fb26de","bdp_sd","Sun Mar 26 2023 10:47:14 GMT-0500 (Central Daylight Time)","509287","","null","","","","","offerFB","","<div class='trialBorder'><div class='vertical-center'><img style='vertical-align:center; align:center' src=img/fixation3.jpg></div><div class='cl'><div class='vertical-center'><font style='color:orange'>$19<br>for<br>yourself</font></div></div><div class='cr'><div class='vertical-center'>$25<br>for<br>Manny</div></div><div class='respDivL'><div class='vertical-center'><font style='color:orange'>(E)</font></div></div><div class='respDivR'><div class='vertical-center'>(I)</div></div></div>","null","$19<br>for<br>yourself","$25<br>for<br>4","0","19","25","4",""
"html-keyboard-response","17","367833","0.0-6.0-1.4","5c59d8105bbd810001fb26de","bdp_sd","Sun Mar 26 2023 10:47:14 GMT-0500 (Central Daylight Time)","509287","","null","","","","","FIX","","<div class='trialBorder'><div class='vertical-center'><img style='vertical-align:center; align:center' src=img/fixation3.jpg></div></div>","null","","","","","","",""
"html-keyboard-response","18","373649","0.0-6.0-2.4","5c59d8105bbd810001fb26de","bdp_sd","Sun Mar 26 2023 10:47:14 GMT-0500 (Central Daylight Time)","509287","","5814","","","","","offer","","<div class='trialBorder'><div class='vertical-center'><img style='vertical-align:center; align:center' src=img/fixation3.jpg></div><div class='cl'><div class='vertical-center'>$55<br>for<br>Tatum</div></div><div class='cr'><div class='vertical-center'>$54<br>for<br>yourself</div></div><div class='respDivL'><div class='vertical-center'>(E)</div></div><div class='respDivR'><div class='vertical-center'>(I)</div></div></div>","E","$54<br>for<br>yourself","$55<br>for<br>5","1","54","55","5","OTHER"
"html-keyboard-response","19","373903","0.0-6.0-3.4","5c59d8105bbd810001fb26de","bdp_sd","Sun Mar 26 2023 10:47:14 GMT-0500 (Central Daylight Time)","509287","","null","","","","","offerFB","","<div class='trialBorder'><div class='vertical-center'><img style='vertical-align:center; align:center' src=img/fixation3.jpg></div><div class='cl'><div class='vertical-center'><font style='color:orange'>$55<br>for<br>Tatum</font></div></div><div class='cr'><div class='vertical-center'>$54<br>for<br>yourself</div></div><div class='respDivL'><div class='vertical-center'><font style='color:orange'>(E)</font></div></div><div class='respDivR'><div class='vertical-center'>(I)</div></div></div>","null","$54<br>for<br>yourself","$55<br>for<br>5","1","54","55","5",""
"html-keyboard-response","20","374405","0.0-6.0-1.5","5c59d8105bbd810001fb26de","bdp_sd","Sun Mar 26 2023 10:47:14 GMT-0500 (Central Daylight Time)","509287","","null","","","","","FIX","","<div class='trialBorder'><div class='vertical-center'><img style='vertical-align:center; align:center' src=img/fixation3.jpg></div></div>","null","","","","","","",""
"html-keyboard-response","21","377615","0.0-6.0-2.5","5c59d8105bbd810001fb26de","bdp_sd","Sun Mar 26 2023 10:47:14 GMT-0500 (Central Daylight Time)","509287","","3208","","","","","offer","","<div class='trialBorder'><div class='vertical-center'><img style='vertical-align:center; align:center' src=img/fixation3.jpg></div><div class='cl'><div class='vertical-center'>$28<br>for<br>yourself</div></div><div class='cr'><div class='vertical-center'>$30<br>for<br>Tatum</div></div><div class='respDivL'><div class='vertical-center'>(E)</div></div><div class='respDivR'><div class='vertical-center'>(I)</div></div></div>","E","$28<br>for<br>yourself","$30<br>for<br>5","0","28","30","5","SELF"
"html-keyboard-response","22","377868","0.0-6.0-3.5","5c59d8105bbd810001fb26de","bdp_sd","Sun Mar 26 2023 10:47:14 GMT-0500 (Central Daylight Time)","509287","","null","","","","","offerFB","","<div class='trialBorder'><div class='vertical-center'><img style='vertical-align:center; align:center' src=img/fixation3.jpg></div><div class='cl'><div class='vertical-center'><font style='color:orange'>$28<br>for<br>yourself</font></div></div><div class='cr'><div class='vertical-center'>$30<br>for<br>Tatum</div></div><div class='respDivL'><div class='vertical-center'><font style='color:orange'>(E)</font></div></div><div class='respDivR'><div class='vertical-center'>(I)</div></div></div>","null","$28<br>for<br>yourself","$30<br>for<br>5","0","28","30","5",""
"html-keyboard-response","23","378370","0.0-6.0-1.6","5c59d8105bbd810001fb26de","bdp_sd","Sun Mar 26 2023 10:47:14 GMT-0500 (Central Daylight Time)","509287","","null","","","","","FIX","","<div class='trialBorder'><div class='vertical-center'><img style='vertical-align:center; align:center' src=img/fixation3.jpg></div></div>","null","","","","","","",""
"html-keyboard-response","24","380524","0.0-6.0-2.6","5c59d8105bbd810001fb26de","bdp_sd","Sun Mar 26 2023 10:47:14 GMT-0500 (Central Daylight Time)","509287","","2151","","","","","offer","","<div class='trialBorder'><div class='vertical-center'><img style='vertical-align:center; align:center' src=img/fixation3.jpg></div><div class='cl'><div class='vertical-center'>$25<br>for<br>Tyik</div></div><div class='cr'><div class='vertical-center'>$14<br>for<br>yourself</div></div><div class='respDivL'><div class='vertical-center'>(E)</div></div><div class='respDivR'><div class='vertical-center'>(I)</div></div></div>","I","$14<br>for<br>yourself","$25<br>for<br>3","1","14","25","3","SELF"
"html-keyboard-response","25","380776","0.0-6.0-3.6","5c59d8105bbd810001fb26de","bdp_sd","Sun Mar 26 2023 10:47:14 GMT-0500 (Central Daylight Time)","509287","","null","","","","","offerFB","","<div class='trialBorder'><div class='vertical-center'><img style='vertical-align:center; align:center' src=img/fixation3.jpg></div><div class='cl'><div class='vertical-center'>$25<br>for<br>Tyik</div></div><div class='cr'><div class='vertical-center'><font style='color:orange'>$14<br>for<br>yourself</font></div></div><div class='respDivL'><div class='vertical-center'>(E)</div></div><div class='respDivR'><div class='vertical-center'><font style='color:orange'>(I)</font></div></div></div>","null","$14<br>for<br>yourself","$25<br>for<br>3","1","14","25","3",""
"html-keyboard-response","26","381279","0.0-6.0-1.7","5c59d8105bbd810001fb26de","bdp_sd","Sun Mar 26 2023 10:47:14 GMT-0500 (Central Daylight Time)","509287","","null","","","","","FIX","","<div class='trialBorder'><div class='vertical-center'><img style='vertical-align:center; align:center' src=img/fixation3.jpg></div></div>","null","","","","","","",""
"html-keyboard-response","27","384085","0.0-6.0-2.7","5c59d8105bbd810001fb26de","bdp_sd","Sun Mar 26 2023 10:47:14 GMT-0500 (Central Daylight Time)","509287","","2804","","","","","offer","","<div class='trialBorder'><div class='vertical-center'><img style='vertical-align:center; align:center' src=img/fixation3.jpg></div><div class='cl'><div class='vertical-center'>$25<br>for<br>Tatum</div></div><div class='cr'><div class='vertical-center'>$22<br>for<br>yourself</div></div><div class='respDivL'><div class='vertical-center'>(E)</div></div><div class='respDivR'><div class='vertical-center'>(I)</div></div></div>","E","$22<br>for<br>yourself","$25<br>for<br>5","1","22","25","5","OTHER"
"html-keyboard-response","28","384340","0.0-6.0-3.7","5c59d8105bbd810001fb26de","bdp_sd","Sun Mar 26 2023 10:47:14 GMT-0500 (Central Daylight Time)","509287","","null","","","","","offerFB","","<div class='trialBorder'><div class='vertical-center'><img style='vertical-align:center; align:center' src=img/fixation3.jpg></div><div class='cl'><div class='vertical-center'><font style='color:orange'>$25<br>for<br>Tatum</font></div></div><div class='cr'><div class='vertical-center'>$22<br>for<br>yourself</div></div><div class='respDivL'><div class='vertical-center'><font style='color:orange'>(E)</font></div></div><div class='respDivR'><div class='vertical-center'>(I)</div></div></div>","null","$22<br>for<br>yourself","$25<br>for<br>5","1","22","25","5",""
"html-keyboard-response","29","384842","0.0-6.0-1.8","5c59d8105bbd810001fb26de","bdp_sd","Sun Mar 26 2023 10:47:14 GMT-0500 (Central Daylight Time)","509287","","null","","","","","FIX","","<div class='trialBorder'><div class='vertical-center'><img style='vertical-align:center; align:center' src=img/fixation3.jpg></div></div>","null","","","","","","",""
"html-keyboard-response","30","387331","0.0-6.0-2.8","5c59d8105bbd810001fb26de","bdp_sd","Sun Mar 26 2023 10:47:14 GMT-0500 (Central Daylight Time)","509287","","2487","","","","","offer","","<div class='trialBorder'><div class='vertical-center'><img style='vertical-align:center; align:center' src=img/fixation3.jpg></div><div class='cl'><div class='vertical-center'>$25<br>for<br>yourself</div></div><div class='cr'><div class='vertical-center'>$60<br>for<br>Tyik</div></div><div class='respDivL'><div class='vertical-center'>(E)</div></div><div class='respDivR'><div class='vertical-center'>(I)</div></div></div>","I","$25<br>for<br>yourself","$60<br>for<br>3","0","25","60","3","OTHER"
"html-keyboard-response","31","387583","0.0-6.0-3.8","5c59d8105bbd810001fb26de","bdp_sd","Sun Mar 26 2023 10:47:14 GMT-0500 (Central Daylight Time)","509287","","null","","","","","offerFB","","<div class='trialBorder'><div class='vertical-center'><img style='vertical-align:center; align:center' src=img/fixation3.jpg></div><div class='cl'><div class='vertical-center'>$25<br>for<br>yourself</div></div><div class='cr'><div class='vertical-center'><font style='color:orange'>$60<br>for<br>Tyik</font></div></div><div class='respDivL'><div class='vertical-center'>(E)</div></div><div class='respDivR'><div class='vertical-center'><font style='color:orange'>(I)</font></div></div></div>","null","$25<br>for<br>yourself","$60<br>for<br>3","0","25","60","3",""
"html-keyboard-response","32","388085","0.0-6.0-1.9","5c59d8105bbd810001fb26de","bdp_sd","Sun Mar 26 2023 10:47:14 GMT-0500 (Central Daylight Time)","509287","","null","","","","","FIX","","<div class='trialBorder'><div class='vertical-center'><img style='vertical-align:center; align:center' src=img/fixation3.jpg></div></div>","null","","","","","","",""
"html-keyboard-response","33","390838","0.0-6.0-2.9","5c59d8105bbd810001fb26de","bdp_sd","Sun Mar 26 2023 10:47:14 GMT-0500 (Central Daylight Time)","509287","","2751","","","","","offer","","<div class='trialBorder'><div class='vertical-center'><img style='vertical-align:center; align:center' src=img/fixation3.jpg></div><div class='cl'><div class='vertical-center'>$55<br>for<br>Karen</div></div><div class='cr'><div class='vertical-center'>$20<br>for<br>yourself</div></div><div class='respDivL'><div class='vertical-center'>(E)</div></div><div class='respDivR'><div class='vertical-center'>(I)</div></div></div>","E","$20<br>for<br>yourself","$55<br>for<br>1","1","20","55","1","OTHER"
"html-keyboard-response","34","391091","0.0-6.0-3.9","5c59d8105bbd810001fb26de","bdp_sd","Sun Mar 26 2023 10:47:14 GMT-0500 (Central Daylight Time)","509287","","null","","","","","offerFB","","<div class='trialBorder'><div class='vertical-center'><img style='vertical-align:center; align:center' src=img/fixation3.jpg></div><div class='cl'><div class='vertical-center'><font style='color:orange'>$55<br>for<br>Karen</font></div></div><div class='cr'><div class='vertical-center'>$20<br>for<br>yourself</div></div><div class='respDivL'><div class='vertical-center'><font style='color:orange'>(E)</font></div></div><div class='respDivR'><div class='vertical-center'>(I)</div></div></div>","null","$20<br>for<br>yourself","$55<br>for<br>1","1","20","55","1",""
"html-keyboard-response","35","391593","0.0-6.0-1.10","5c59d8105bbd810001fb26de","bdp_sd","Sun Mar 26 2023 10:47:14 GMT-0500 (Central Daylight Time)","509287","","null","","","","","FIX","","<div class='trialBorder'><div class='vertical-center'><img style='vertical-align:center; align:center' src=img/fixation3.jpg></div></div>","null","","","","","","",""
"html-keyboard-response","36","393111","0.0-6.0-2.10","5c59d8105bbd810001fb26de","bdp_sd","Sun Mar 26 2023 10:47:14 GMT-0500 (Central Daylight Time)","509287","","1517","","","","","offer","","<div class='trialBorder'><div class='vertical-center'><img style='vertical-align:center; align:center' src=img/fixation3.jpg></div><div class='cl'><div class='vertical-center'>$30<br>for<br>Manny</div></div><div class='cr'><div class='vertical-center'>$25<br>for<br>yourself</div></div><div class='respDivL'><div class='vertical-center'>(E)</div></div><div class='respDivR'><div class='vertical-center'>(I)</div></div></div>","E","$25<br>for<br>yourself","$30<br>for<br>4","1","25","30","4","OTHER"
"html-keyboard-response","37","393364","0.0-6.0-3.10","5c59d8105bbd810001fb26de","bdp_sd","Sun Mar 26 2023 10:47:14 GMT-0500 (Central Daylight Time)","509287","","null","","","","","offerFB","","<div class='trialBorder'><div class='vertical-center'><img style='vertical-align:center; align:center' src=img/fixation3.jpg></div><div class='cl'><div class='vertical-center'><font style='color:orange'>$30<br>for<br>Manny</font></div></div><div class='cr'><div class='vertical-center'>$25<br>for<br>yourself</div></div><div class='respDivL'><div class='vertical-center'><font style='color:orange'>(E)</font></div></div><div class='respDivR'><div class='vertical-center'>(I)</div></div></div>","null","$25<br>for<br>yourself","$30<br>for<br>4","1","25","30","4",""
"html-keyboard-response","38","393866","0.0-6.0-1.11","5c59d8105bbd810001fb26de","bdp_sd","Sun Mar 26 2023 10:47:14 GMT-0500 (Central Daylight Time)","509287","","null","","","","","FIX","","<div class='trialBorder'><div class='vertical-center'><img style='vertical-align:center; align:center' src=img/fixation3.jpg></div></div>","null","","","","","","",""
"html-keyboard-response","39","395281","0.0-6.0-2.11","5c59d8105bbd810001fb26de","bdp_sd","Sun Mar 26 2023 10:47:14 GMT-0500 (Central Daylight Time)","509287","","1413","","","","","offer","","<div class='trialBorder'><div class='vertical-center'><img style='vertical-align:center; align:center' src=img/fixation3.jpg></div><div class='cl'><div class='vertical-center'>$55<br>for<br>yourself</div></div><div class='cr'><div class='vertical-center'>$75<br>for<br>Manny</div></div><div class='respDivL'><div class='vertical-center'>(E)</div></div><div class='respDivR'><div class='vertical-center'>(I)</div></div></div>","I","$55<br>for<br>yourself","$75<br>for<br>4","0","55","75","4","OTHER"
"html-keyboard-response","40","395534","0.0-6.0-3.11","5c59d8105bbd810001fb26de","bdp_sd","Sun Mar 26 2023 10:47:14 GMT-0500 (Central Daylight Time)","509287","","null","","","","","offerFB","","<div class='trialBorder'><div class='vertical-center'><img style='vertical-align:center; align:center' src=img/fixation3.jpg></div><div class='cl'><div class='vertical-center'>$55<br>for<br>yourself</div></div><div class='cr'><div class='vertical-center'><font style='color:orange'>$75<br>for<br>Manny</font></div></div><div class='respDivL'><div class='vertical-center'>(E)</div></div><div class='respDivR'><div class='vertical-center'><font style='color:orange'>(I)</font></div></div></div>","null","$55<br>for<br>yourself","$75<br>for<br>4","0","55","75","4",""
"html-keyboard-response","41","396035","0.0-6.0-1.12","5c59d8105bbd810001fb26de","bdp_sd","Sun Mar 26 2023 10:47:14 GMT-0500 (Central Daylight Time)","509287","","null","","","","","FIX","","<div class='trialBorder'><div class='vertical-center'><img style='vertical-align:center; align:center' src=img/fixation3.jpg></div></div>","null","","","","","","",""
"html-keyboard-response","42","399344","0.0-6.0-2.12","5c59d8105bbd810001fb26de","bdp_sd","Sun Mar 26 2023 10:47:14 GMT-0500 (Central Daylight Time)","509287","","3306","","","","","offer","","<div class='trialBorder'><div class='vertical-center'><img style='vertical-align:center; align:center' src=img/fixation3.jpg></div><div class='cl'><div class='vertical-center'>$35<br>for<br>Quan</div></div><div class='cr'><div class='vertical-center'>$15<br>for<br>yourself</div></div><div class='respDivL'><div class='vertical-center'>(E)</div></div><div class='respDivR'><div class='vertical-center'>(I)</div></div></div>","E","$15<br>for<br>yourself","$35<br>for<br>2","1","15","35","2","OTHER"
"html-keyboard-response","43","399596","0.0-6.0-3.12","5c59d8105bbd810001fb26de","bdp_sd","Sun Mar 26 2023 10:47:14 GMT-0500 (Central Daylight Time)","509287","","null","","","","","offerFB","","<div class='trialBorder'><div class='vertical-center'><img style='vertical-align:center; align:center' src=img/fixation3.jpg></div><div class='cl'><div class='vertical-center'><font style='color:orange'>$35<br>for<br>Quan</font></div></div><div class='cr'><div class='vertical-center'>$15<br>for<br>yourself</div></div><div class='respDivL'><div class='vertical-center'><font style='color:orange'>(E)</font></div></div><div class='respDivR'><div class='vertical-center'>(I)</div></div></div>","null","$15<br>for<br>yourself","$35<br>for<br>2","1","15","35","2",""
"html-keyboard-response","44","400099","0.0-6.0-1.13","5c59d8105bbd810001fb26de","bdp_sd","Sun Mar 26 2023 10:47:14 GMT-0500 (Central Daylight Time)","509287","","null","","","","","FIX","","<div class='trialBorder'><div class='vertical-center'><img style='vertical-align:center; align:center' src=img/fixation3.jpg></div></div>","null","","","","","","",""
"html-keyboard-response","45","403343","0.0-6.0-2.13","5c59d8105bbd810001fb26de","bdp_sd","Sun Mar 26 2023 10:47:14 GMT-0500 (Central Daylight Time)","509287","","3243","","","","","offer","","<div class='trialBorder'><div class='vertical-center'><img style='vertical-align:center; align:center' src=img/fixation3.jpg></div><div class='cl'><div class='vertical-center'>$78<br>for<br>yourself</div></div><div class='cr'><div class='vertical-center'>$80<br>for<br>Tatum</div></div><div class='respDivL'><div class='vertical-center'>(E)</div></div><div class='respDivR'><div class='vertical-center'>(I)</div></div></div>","E","$78<br>for<br>yourself","$80<br>for<br>5","0","78","80","5","SELF"
"html-keyboard-response","46","403596","0.0-6.0-3.13","5c59d8105bbd810001fb26de","bdp_sd","Sun Mar 26 2023 10:47:14 GMT-0500 (Central Daylight Time)","509287","","null","","","","","offerFB","","<div class='trialBorder'><div class='vertical-center'><img style='vertical-align:center; align:center' src=img/fixation3.jpg></div><div class='cl'><div class='vertical-center'><font style='color:orange'>$78<br>for<br>yourself</font></div></div><div class='cr'><div class='vertical-center'>$80<br>for<br>Tatum</div></div><div class='respDivL'><div class='vertical-center'><font style='color:orange'>(E)</font></div></div><div class='respDivR'><div class='vertical-center'>(I)</div></div></div>","null","$78<br>for<br>yourself","$80<br>for<br>5","0","78","80","5",""
"html-keyboard-response","47","404098","0.0-6.0-1.14","5c59d8105bbd810001fb26de","bdp_sd","Sun Mar 26 2023 10:47:14 GMT-0500 (Central Daylight Time)","509287","","null","","","","","FIX","","<div class='trialBorder'><div class='vertical-center'><img style='vertical-align:center; align:center' src=img/fixation3.jpg></div></div>","null","","","","","","",""
"html-keyboard-response","48","407765","0.0-6.0-2.14","5c59d8105bbd810001fb26de","bdp_sd","Sun Mar 26 2023 10:47:14 GMT-0500 (Central Daylight Time)","509287","","3665","","","","","offer","","<div class='trialBorder'><div class='vertical-center'><img style='vertical-align:center; align:center' src=img/fixation3.jpg></div><div class='cl'><div class='vertical-center'>$11<br>for<br>yourself</div></div><div class='cr'><div class='vertical-center'>$30<br>for<br>Quan</div></div><div class='respDivL'><div class='vertical-center'>(E)</div></div><div class='respDivR'><div class='vertical-center'>(I)</div></div></div>","I","$11<br>for<br>yourself","$30<br>for<br>2","0","11","30","2","OTHER"
"html-keyboard-response","49","408018","0.0-6.0-3.14","5c59d8105bbd810001fb26de","bdp_sd","Sun Mar 26 2023 10:47:14 GMT-0500 (Central Daylight Time)","509287","","null","","","","","offerFB","","<div class='trialBorder'><div class='vertical-center'><img style='vertical-align:center; align:center' src=img/fixation3.jpg></div><div class='cl'><div class='vertical-center'>$11<br>for<br>yourself</div></div><div class='cr'><div class='vertical-center'><font style='color:orange'>$30<br>for<br>Quan</font></div></div><div class='respDivL'><div class='vertical-center'>(E)</div></div><div class='respDivR'><div class='vertical-center'><font style='color:orange'>(I)</font></div></div></div>","null","$11<br>for<br>yourself","$30<br>for<br>2","0","11","30","2",""
"html-keyboard-response","50","408521","0.0-6.0-1.15","5c59d8105bbd810001fb26de","bdp_sd","Sun Mar 26 2023 10:47:14 GMT-0500 (Central Daylight Time)","509287","","null","","","","","FIX","","<div class='trialBorder'><div class='vertical-center'><img style='vertical-align:center; align:center' src=img/fixation3.jpg></div></div>","null","","","","","","",""
"html-keyboard-response","51","410515","0.0-6.0-2.15","5c59d8105bbd810001fb26de","bdp_sd","Sun Mar 26 2023 10:47:14 GMT-0500 (Central Daylight Time)","509287","","1993","","","","","offer","","<div class='trialBorder'><div class='vertical-center'><img style='vertical-align:center; align:center' src=img/fixation3.jpg></div><div class='cl'><div class='vertical-center'>$50<br>for<br>Tyik</div></div><div class='cr'><div class='vertical-center'>$27<br>for<br>yourself</div></div><div class='respDivL'><div class='vertical-center'>(E)</div></div><div class='respDivR'><div class='vertical-center'>(I)</div></div></div>","E","$27<br>for<br>yourself","$50<br>for<br>3","1","27","50","3","OTHER"
"html-keyboard-response","52","410768","0.0-6.0-3.15","5c59d8105bbd810001fb26de","bdp_sd","Sun Mar 26 2023 10:47:14 GMT-0500 (Central Daylight Time)","509287","","null","","","","","offerFB","","<div class='trialBorder'><div class='vertical-center'><img style='vertical-align:center; align:center' src=img/fixation3.jpg></div><div class='cl'><div class='vertical-center'><font style='color:orange'>$50<br>for<br>Tyik</font></div></div><div class='cr'><div class='vertical-center'>$27<br>for<br>yourself</div></div><div class='respDivL'><div class='vertical-center'><font style='color:orange'>(E)</font></div></div><div class='respDivR'><div class='vertical-center'>(I)</div></div></div>","null","$27<br>for<br>yourself","$50<br>for<br>3","1","27","50","3",""
"html-keyboard-response","53","411270","0.0-6.0-1.16","5c59d8105bbd810001fb26de","bdp_sd","Sun Mar 26 2023 10:47:14 GMT-0500 (Central Daylight Time)","509287","","null","","","","","FIX","","<div class='trialBorder'><div class='vertical-center'><img style='vertical-align:center; align:center' src=img/fixation3.jpg></div></div>","null","","","","","","",""
"html-keyboard-response","54","413579","0.0-6.0-2.16","5c59d8105bbd810001fb26de","bdp_sd","Sun Mar 26 2023 10:47:14 GMT-0500 (Central Daylight Time)","509287","","2307","","","","","offer","","<div class='trialBorder'><div class='vertical-center'><img style='vertical-align:center; align:center' src=img/fixation3.jpg></div><div class='cl'><div class='vertical-center'>$35<br>for<br>Tatum</div></div><div class='cr'><div class='vertical-center'>$34<br>for<br>yourself</div></div><div class='respDivL'><div class='vertical-center'>(E)</div></div><div class='respDivR'><div class='vertical-center'>(I)</div></div></div>","I","$34<br>for<br>yourself","$35<br>for<br>5","1","34","35","5","SELF"
"html-keyboard-response","55","413832","0.0-6.0-3.16","5c59d8105bbd810001fb26de","bdp_sd","Sun Mar 26 2023 10:47:14 GMT-0500 (Central Daylight Time)","509287","","null","","","","","offerFB","","<div class='trialBorder'><div class='vertical-center'><img style='vertical-align:center; align:center' src=img/fixation3.jpg></div><div class='cl'><div class='vertical-center'>$35<br>for<br>Tatum</div></div><div class='cr'><div class='vertical-center'><font style='color:orange'>$34<br>for<br>yourself</font></div></div><div class='respDivL'><div class='vertical-center'>(E)</div></div><div class='respDivR'><div class='vertical-center'><font style='color:orange'>(I)</font></div></div></div>","null","$34<br>for<br>yourself","$35<br>for<br>5","1","34","35","5",""
"html-keyboard-response","56","414335","0.0-6.0-1.17","5c59d8105bbd810001fb26de","bdp_sd","Sun Mar 26 2023 10:47:14 GMT-0500 (Central Daylight Time)","509287","","null","","","","","FIX","","<div class='trialBorder'><div class='vertical-center'><img style='vertical-align:center; align:center' src=img/fixation3.jpg></div></div>","null","","","","","","",""
"html-keyboard-response","57","417664","0.0-6.0-2.17","5c59d8105bbd810001fb26de","bdp_sd","Sun Mar 26 2023 10:47:14 GMT-0500 (Central Daylight Time)","509287","","3327","","","","","offer","","<div class='trialBorder'><div class='vertical-center'><img style='vertical-align:center; align:center' src=img/fixation3.jpg></div><div class='cl'><div class='vertical-center'>$85<br>for<br>Manny</div></div><div class='cr'><div class='vertical-center'>$69<br>for<br>yourself</div></div><div class='respDivL'><div class='vertical-center'>(E)</div></div><div class='respDivR'><div class='vertical-center'>(I)</div></div></div>","E","$69<br>for<br>yourself","$85<br>for<br>4","1","69","85","4","OTHER"
"html-keyboard-response","58","417917","0.0-6.0-3.17","5c59d8105bbd810001fb26de","bdp_sd","Sun Mar 26 2023 10:47:14 GMT-0500 (Central Daylight Time)","509287","","null","","","","","offerFB","","<div class='trialBorder'><div class='vertical-center'><img style='vertical-align:center; align:center' src=img/fixation3.jpg></div><div class='cl'><div class='vertical-center'><font style='color:orange'>$85<br>for<br>Manny</font></div></div><div class='cr'><div class='vertical-center'>$69<br>for<br>yourself</div></div><div class='respDivL'><div class='vertical-center'><font style='color:orange'>(E)</font></div></div><div class='respDivR'><div class='vertical-center'>(I)</div></div></div>","null","$69<br>for<br>yourself","$85<br>for<br>4","1","69","85","4",""
"html-keyboard-response","59","418420","0.0-6.0-1.18","5c59d8105bbd810001fb26de","bdp_sd","Sun Mar 26 2023 10:47:14 GMT-0500 (Central Daylight Time)","509287","","null","","","","","FIX","","<div class='trialBorder'><div class='vertical-center'><img style='vertical-align:center; align:center' src=img/fixation3.jpg></div></div>","null","","","","","","",""
"html-keyboard-response","60","419467","0.0-6.0-2.18","5c59d8105bbd810001fb26de","bdp_sd","Sun Mar 26 2023 10:47:14 GMT-0500 (Central Daylight Time)","509287","","1046","","","","","offer","","<div class='trialBorder'><div class='vertical-center'><img style='vertical-align:center; align:center' src=img/fixation3.jpg></div><div class='cl'><div class='vertical-center'>$67<br>for<br>yourself</div></div><div class='cr'><div class='vertical-center'>$75<br>for<br>Tatum</div></div><div class='respDivL'><div class='vertical-center'>(E)</div></div><div class='respDivR'><div class='vertical-center'>(I)</div></div></div>","I","$67<br>for<br>yourself","$75<br>for<br>5","0","67","75","5","OTHER"
"html-keyboard-response","61","419720","0.0-6.0-3.18","5c59d8105bbd810001fb26de","bdp_sd","Sun Mar 26 2023 10:47:14 GMT-0500 (Central Daylight Time)","509287","","null","","","","","offerFB","","<div class='trialBorder'><div class='vertical-center'><img style='vertical-align:center; align:center' src=img/fixation3.jpg></div><div class='cl'><div class='vertical-center'>$67<br>for<br>yourself</div></div><div class='cr'><div class='vertical-center'><font style='color:orange'>$75<br>for<br>Tatum</font></div></div><div class='respDivL'><div class='vertical-center'>(E)</div></div><div class='respDivR'><div class='vertical-center'><font style='color:orange'>(I)</font></div></div></div>","null","$67<br>for<br>yourself","$75<br>for<br>5","0","67","75","5",""
"html-keyboard-response","62","420222","0.0-6.0-1.19","5c59d8105bbd810001fb26de","bdp_sd","Sun Mar 26 2023 10:47:14 GMT-0500 (Central Daylight Time)","509287","","null","","","","","FIX","","<div class='trialBorder'><div class='vertical-center'><img style='vertical-align:center; align:center' src=img/fixation3.jpg></div></div>","null","","","","","","",""
"html-keyboard-response","63","480528","0.0-6.0-2.19","5c59d8105bbd810001fb26de","bdp_sd","Sun Mar 26 2023 10:47:14 GMT-0500 (Central Daylight Time)","509287","","60305","","","","","offer","","<div class='trialBorder'><div class='vertical-center'><img style='vertical-align:center; align:center' src=img/fixation3.jpg></div><div class='cl'><div class='vertical-center'>$49<br>for<br>yourself</div></div><div class='cr'><div class='vertical-center'>$60<br>for<br>Manny</div></div><div class='respDivL'><div class='vertical-center'>(E)</div></div><div class='respDivR'><div class='vertical-center'>(I)</div></div></div>","I","$49<br>for<br>yourself","$60<br>for<br>4","0","49","60","4","OTHER"
"html-keyboard-response","64","480782","0.0-6.0-3.19","5c59d8105bbd810001fb26de","bdp_sd","Sun Mar 26 2023 10:47:14 GMT-0500 (Central Daylight Time)","509287","","null","","","","","offerFB","","<div class='trialBorder'><div class='vertical-center'><img style='vertical-align:center; align:center' src=img/fixation3.jpg></div><div class='cl'><div class='vertical-center'>$49<br>for<br>yourself</div></div><div class='cr'><div class='vertical-center'><font style='color:orange'>$60<br>for<br>Manny</font></div></div><div class='respDivL'><div class='vertical-center'>(E)</div></div><div class='respDivR'><div class='vertical-center'><font style='color:orange'>(I)</font></div></div></div>","null","$49<br>for<br>yourself","$60<br>for<br>4","0","49","60","4",""
"html-keyboard-response","65","481284","0.0-6.0-1.20","5c59d8105bbd810001fb26de","bdp_sd","Sun Mar 26 2023 10:47:14 GMT-0500 (Central Daylight Time)","509287","","null","","","","","FIX","","<div class='trialBorder'><div class='vertical-center'><img style='vertical-align:center; align:center' src=img/fixation3.jpg></div></div>","null","","","","","","",""
"html-keyboard-response","66","482347","0.0-6.0-2.20","5c59d8105bbd810001fb26de","bdp_sd","Sun Mar 26 2023 10:47:14 GMT-0500 (Central Daylight Time)","509287","","1062","","","","","offer","","<div class='trialBorder'><div class='vertical-center'><img style='vertical-align:center; align:center' src=img/fixation3.jpg></div><div class='cl'><div class='vertical-center'>$31<br>for<br>yourself</div></div><div class='cr'><div class='vertical-center'>$85<br>for<br>Karen</div></div><div class='respDivL'><div class='vertical-center'>(E)</div></div><div class='respDivR'><div class='vertical-center'>(I)</div></div></div>","I","$31<br>for<br>yourself","$85<br>for<br>1","0","31","85","1","OTHER"
"html-keyboard-response","67","482600","0.0-6.0-3.20","5c59d8105bbd810001fb26de","bdp_sd","Sun Mar 26 2023 10:47:14 GMT-0500 (Central Daylight Time)","509287","","null","","","","","offerFB","","<div class='trialBorder'><div class='vertical-center'><img style='vertical-align:center; align:center' src=img/fixation3.jpg></div><div class='cl'><div class='vertical-center'>$31<br>for<br>yourself</div></div><div class='cr'><div class='vertical-center'><font style='color:orange'>$85<br>for<br>Karen</font></div></div><div class='respDivL'><div class='vertical-center'>(E)</div></div><div class='respDivR'><div class='vertical-center'><font style='color:orange'>(I)</font></div></div></div>","null","$31<br>for<br>yourself","$85<br>for<br>1","0","31","85","1",""
"html-keyboard-response","68","483102","0.0-6.0-1.21","5c59d8105bbd810001fb26de","bdp_sd","Sun Mar 26 2023 10:47:14 GMT-0500 (Central Daylight Time)","509287","","null","","","","","FIX","","<div class='trialBorder'><div class='vertical-center'><img style='vertical-align:center; align:center' src=img/fixation3.jpg></div></div>","null","","","","","","",""
"html-keyboard-response","69","484786","0.0-6.0-2.21","5c59d8105bbd810001fb26de","bdp_sd","Sun Mar 26 2023 10:47:14 GMT-0500 (Central Daylight Time)","509287","","1682","","","","","offer","","<div class='trialBorder'><div class='vertical-center'><img style='vertical-align:center; align:center' src=img/fixation3.jpg></div><div class='cl'><div class='vertical-center'>$85<br>for<br>Tatum</div></div><div class='cr'><div class='vertical-center'>$80<br>for<br>yourself</div></div><div class='respDivL'><div class='vertical-center'>(E)</div></div><div class='respDivR'><div class='vertical-center'>(I)</div></div></div>","I","$80<br>for<br>yourself","$85<br>for<br>5","1","80","85","5","SELF"
"html-keyboard-response","70","485038","0.0-6.0-3.21","5c59d8105bbd810001fb26de","bdp_sd","Sun Mar 26 2023 10:47:14 GMT-0500 (Central Daylight Time)","509287","","null","","","","","offerFB","","<div class='trialBorder'><div class='vertical-center'><img style='vertical-align:center; align:center' src=img/fixation3.jpg></div><div class='cl'><div class='vertical-center'>$85<br>for<br>Tatum</div></div><div class='cr'><div class='vertical-center'><font style='color:orange'>$80<br>for<br>yourself</font></div></div><div class='respDivL'><div class='vertical-center'>(E)</div></div><div class='respDivR'><div class='vertical-center'><font style='color:orange'>(I)</font></div></div></div>","null","$80<br>for<br>yourself","$85<br>for<br>5","1","80","85","5",""
"html-keyboard-response","71","485540","0.0-6.0-1.22","5c59d8105bbd810001fb26de","bdp_sd","Sun Mar 26 2023 10:47:14 GMT-0500 (Central Daylight Time)","509287","","null","","","","","FIX","","<div class='trialBorder'><div class='vertical-center'><img style='vertical-align:center; align:center' src=img/fixation3.jpg></div></div>","null","","","","","","",""
"html-keyboard-response","72","490643","0.0-6.0-2.22","5c59d8105bbd810001fb26de","bdp_sd","Sun Mar 26 2023 10:47:14 GMT-0500 (Central Daylight Time)","509287","","5101","","","","","offer","","<div class='trialBorder'><div class='vertical-center'><img style='vertical-align:center; align:center' src=img/fixation3.jpg></div><div class='cl'><div class='vertical-center'>$24<br>for<br>yourself</div></div><div class='cr'><div class='vertical-center'>$35<br>for<br>Tyik</div></div><div class='respDivL'><div class='vertical-center'>(E)</div></div><div class='respDivR'><div class='vertical-center'>(I)</div></div></div>","I","$24<br>for<br>yourself","$35<br>for<br>3","0","24","35","3","OTHER"
"html-keyboard-response","73","490897","0.0-6.0-3.22","5c59d8105bbd810001fb26de","bdp_sd","Sun Mar 26 2023 10:47:14 GMT-0500 (Central Daylight Time)","509287","","null","","","","","offerFB","","<div class='trialBorder'><div class='vertical-center'><img style='vertical-align:center; align:center' src=img/fixation3.jpg></div><div class='cl'><div class='vertical-center'>$24<br>for<br>yourself</div></div><div class='cr'><div class='vertical-center'><font style='color:orange'>$35<br>for<br>Tyik</font></div></div><div class='respDivL'><div class='vertical-center'>(E)</div></div><div class='respDivR'><div class='vertical-center'><font style='color:orange'>(I)</font></div></div></div>","null","$24<br>for<br>yourself","$35<br>for<br>3","0","24","35","3",""
"html-keyboard-response","74","491398","0.0-6.0-1.23","5c59d8105bbd810001fb26de","bdp_sd","Sun Mar 26 2023 10:47:14 GMT-0500 (Central Daylight Time)","509287","","null","","","","","FIX","","<div class='trialBorder'><div class='vertical-center'><img style='vertical-align:center; align:center' src=img/fixation3.jpg></div></div>","null","","","","","","",""
"html-keyboard-response","75","493554","0.0-6.0-2.23","5c59d8105bbd810001fb26de","bdp_sd","Sun Mar 26 2023 10:47:14 GMT-0500 (Central Daylight Time)","509287","","2154","","","","","offer","","<div class='trialBorder'><div class='vertical-center'><img style='vertical-align:center; align:center' src=img/fixation3.jpg></div><div class='cl'><div class='vertical-center'>$40<br>for<br>yourself</div></div><div class='cr'><div class='vertical-center'>$55<br>for<br>Manny</div></div><div class='respDivL'><div class='vertical-center'>(E)</div></div><div class='respDivR'><div class='vertical-center'>(I)</div></div></div>","I","$40<br>for<br>yourself","$55<br>for<br>4","0","40","55","4","OTHER"
"html-keyboard-response","76","493807","0.0-6.0-3.23","5c59d8105bbd810001fb26de","bdp_sd","Sun Mar 26 2023 10:47:14 GMT-0500 (Central Daylight Time)","509287","","null","","","","","offerFB","","<div class='trialBorder'><div class='vertical-center'><img style='vertical-align:center; align:center' src=img/fixation3.jpg></div><div class='cl'><div class='vertical-center'>$40<br>for<br>yourself</div></div><div class='cr'><div class='vertical-center'><font style='color:orange'>$55<br>for<br>Manny</font></div></div><div class='respDivL'><div class='vertical-center'>(E)</div></div><div class='respDivR'><div class='vertical-center'><font style='color:orange'>(I)</font></div></div></div>","null","$40<br>for<br>yourself","$55<br>for<br>4","0","40","55","4",""
"html-keyboard-response","77","494309","0.0-6.0-1.24","5c59d8105bbd810001fb26de","bdp_sd","Sun Mar 26 2023 10:47:14 GMT-0500 (Central Daylight Time)","509287","","null","","","","","FIX","","<div class='trialBorder'><div class='vertical-center'><img style='vertical-align:center; align:center' src=img/fixation3.jpg></div></div>","null","","","","","","",""
"html-keyboard-response","78","504878","0.0-6.0-2.24","5c59d8105bbd810001fb26de","bdp_sd","Sun Mar 26 2023 10:47:14 GMT-0500 (Central Daylight Time)","509287","","10567","","","","","offer","","<div class='trialBorder'><div class='vertical-center'><img style='vertical-align:center; align:center' src=img/fixation3.jpg></div><div class='cl'><div class='vertical-center'>$60<br>for<br>Tatum</div></div><div class='cr'><div class='vertical-center'>$54<br>for<br>yourself</div></div><div class='respDivL'><div class='vertical-center'>(E)</div></div><div class='respDivR'><div class='vertical-center'>(I)</div></div></div>","E","$54<br>for<br>yourself","$60<br>for<br>5","1","54","60","5","OTHER"
"html-keyboard-response","79","505132","0.0-6.0-3.24","5c59d8105bbd810001fb26de","bdp_sd","Sun Mar 26 2023 10:47:14 GMT-0500 (Central Daylight Time)","509287","","null","","","","","offerFB","","<div class='trialBorder'><div class='vertical-center'><img style='vertical-align:center; align:center' src=img/fixation3.jpg></div><div class='cl'><div class='vertical-center'><font style='color:orange'>$60<br>for<br>Tatum</font></div></div><div class='cr'><div class='vertical-center'>$54<br>for<br>yourself</div></div><div class='respDivL'><div class='vertical-center'><font style='color:orange'>(E)</font></div></div><div class='respDivR'><div class='vertical-center'>(I)</div></div></div>","null","$54<br>for<br>yourself","$60<br>for<br>5","1","54","60","5",""
"html-keyboard-response","80","505635","0.0-6.0-1.25","5c59d8105bbd810001fb26de","bdp_sd","Sun Mar 26 2023 10:47:14 GMT-0500 (Central Daylight Time)","509287","","null","","","","","FIX","","<div class='trialBorder'><div class='vertical-center'><img style='vertical-align:center; align:center' src=img/fixation3.jpg></div></div>","null","","","","","","",""
"html-keyboard-response","81","506487","0.0-6.0-2.25","5c59d8105bbd810001fb26de","bdp_sd","Sun Mar 26 2023 10:47:14 GMT-0500 (Central Daylight Time)","509287","","851","","","","","offer","","<div class='trialBorder'><div class='vertical-center'><img style='vertical-align:center; align:center' src=img/fixation3.jpg></div><div class='cl'><div class='vertical-center'>$80<br>for<br>Tyik</div></div><div class='cr'><div class='vertical-center'>$54<br>for<br>yourself</div></div><div class='respDivL'><div class='vertical-center'>(E)</div></div><div class='respDivR'><div class='vertical-center'>(I)</div></div></div>","E","$54<br>for<br>yourself","$80<br>for<br>3","1","54","80","3","OTHER"
"html-keyboard-response","82","506739","0.0-6.0-3.25","5c59d8105bbd810001fb26de","bdp_sd","Sun Mar 26 2023 10:47:14 GMT-0500 (Central Daylight Time)","509287","","null","","","","","offerFB","","<div class='trialBorder'><div class='vertical-center'><img style='vertical-align:center; align:center' src=img/fixation3.jpg></div><div class='cl'><div class='vertical-center'><font style='color:orange'>$80<br>for<br>Tyik</font></div></div><div class='cr'><div class='vertical-center'>$54<br>for<br>yourself</div></div><div class='respDivL'><div class='vertical-center'><font style='color:orange'>(E)</font></div></div><div class='respDivR'><div class='vertical-center'>(I)</div></div></div>","null","$54<br>for<br>yourself","$80<br>for<br>3","1","54","80","3",""
"html-keyboard-response","83","507241","0.0-6.0-1.26","5c59d8105bbd810001fb26de","bdp_sd","Sun Mar 26 2023 10:47:14 GMT-0500 (Central Daylight Time)","509287","","null","","","","","FIX","","<div class='trialBorder'><div class='vertical-center'><img style='vertical-align:center; align:center' src=img/fixation3.jpg></div></div>","null","","","","","","",""
"html-keyboard-response","84","508031","0.0-6.0-2.26","5c59d8105bbd810001fb26de","bdp_sd","Sun Mar 26 2023 10:47:14 GMT-0500 (Central Daylight Time)","509287","","789","","","","","offer","","<div class='trialBorder'><div class='vertical-center'><img style='vertical-align:center; align:center' src=img/fixation3.jpg></div><div class='cl'><div class='vertical-center'>$33<br>for<br>yourself</div></div><div class='cr'><div class='vertical-center'>$80<br>for<br>Quan</div></div><div class='respDivL'><div class='vertical-center'>(E)</div></div><div class='respDivR'><div class='vertical-center'>(I)</div></div></div>","I","$33<br>for<br>yourself","$80<br>for<br>2","0","33","80","2","OTHER"
"html-keyboard-response","85","508285","0.0-6.0-3.26","5c59d8105bbd810001fb26de","bdp_sd","Sun Mar 26 2023 10:47:14 GMT-0500 (Central Daylight Time)","509287","","null","","","","","offerFB","","<div class='trialBorder'><div class='vertical-center'><img style='vertical-align:center; align:center' src=img/fixation3.jpg></div><div class='cl'><div class='vertical-center'>$33<br>for<br>yourself</div></div><div class='cr'><div class='vertical-center'><font style='color:orange'>$80<br>for<br>Quan</font></div></div><div class='respDivL'><div class='vertical-center'>(E)</div></div><div class='respDivR'><div class='vertical-center'><font style='color:orange'>(I)</font></div></div></div>","null","$33<br>for<br>yourself","$80<br>for<br>2","0","33","80","2",""
"","","","","5c59d8105bbd810001fb26de","bdp_sd","Sun Mar 26 2023 10:47:14 GMT-0500 (Central Daylight Time)","509287","","","","fullscreenexit","86","508354","fullscreenexit","","","","","","","","","",""
"fullscreen","86","509286","0.0-7.0","5c59d8105bbd810001fb26de","bdp_sd","Sun Mar 26 2023 10:47:14 GMT-0500 (Central Daylight Time)","509287","","","","","","","","true","","","","","","","","",""
"html-keyboard-response","87","509789","0.0-8.0","","","","","","null","","","","","","","","null","","","","","","",""
