"trial_type","trial_index","time_elapsed","internal_node_id","subject_id","task","startTime","totalTime","view_history","rt","responses","event","trial","time","trialtype","success","stimulus","key_press","selfOffer","otherOffer","otherLeft","selfAmt","otherAmt","otherDist","chosen"
"pavlovia","0","6","0.0-0.0","631e8c52a408a788b7e62e11","bdp_sd","Sun Apr 09 2023 18:48:41 GMT-0500 (Central Daylight Time)","118058","","","","","","","","","","","","","","","","",""
"instructions","1","4902","0.0-1.0","631e8c52a408a788b7e62e11","bdp_sd","Sun Apr 09 2023 18:48:41 GMT-0500 (Central Daylight Time)","118058","[{""page_index"":0,""viewing_time"":4894}]","4895","","","","","","","","","","","","","","",""
"survey-text","2","59754","0.0-2.0","631e8c52a408a788b7e62e11","bdp_sd","Sun Apr 09 2023 18:48:41 GMT-0500 (Central Daylight Time)","118058","","54850","{""Q0"":""Travis N"",""Q1"":""Allison J"",""Q2"":""Christian K"",""Q3"":""Katherine G"",""Q4"":""Jessica W""}","","","","","","","","","","","","","",""
"","","","","631e8c52a408a788b7e62e11","bdp_sd","Sun Apr 09 2023 18:48:41 GMT-0500 (Central Daylight Time)","118058","","","","fullscreenenter","3","61464","fullscreenenter","","","","","","","","","",""
"fullscreen","3","62447","0.0-3.0","631e8c52a408a788b7e62e11","bdp_sd","Sun Apr 09 2023 18:48:41 GMT-0500 (Central Daylight Time)","118058","","","","","","","","true","","","","","","","","",""
"instructions","4","76818","0.0-5.0","631e8c52a408a788b7e62e11","bdp_sd","Sun Apr 09 2023 18:48:41 GMT-0500 (Central Daylight Time)","118058","[{""page_index"":0,""viewing_time"":4946},{""page_index"":1,""viewing_time"":5808},{""page_index"":2,""viewing_time"":3615}]","14369","","","","","","","","","","","","","","",""
"html-keyboard-response","5","77323","0.0-6.0-1.0","631e8c52a408a788b7e62e11","bdp_sd","Sun Apr 09 2023 18:48:41 GMT-0500 (Central Daylight Time)","118058","","null","","","","","FIX","","<div class='trialBorder'><div class='vertical-center'><img style='vertical-align:center; align:center' src=img/fixation3.jpg></div></div>","null","","","","","","",""
"html-keyboard-response","6","79735","0.0-6.0-2.0","631e8c52a408a788b7e62e11","bdp_sd","Sun Apr 09 2023 18:48:41 GMT-0500 (Central Daylight Time)","118058","","2410","","","","","offer","","<div class='trialBorder'><div class='vertical-center'><img style='vertical-align:center; align:center' src=img/fixation3.jpg></div><div class='cl'><div class='vertical-center'>$67<br>for<br>yourself</div></div><div class='cr'><div class='vertical-center'>$75<br>for<br>Jessica W</div></div><div class='respDivL'><div class='vertical-center'>(E)</div></div><div class='respDivR'><div class='vertical-center'>(I)</div></div></div>","E","$67<br>for<br>yourself","$75<br>for<br>5","0","67","75","5","SELF"
"html-keyboard-response","7","79987","0.0-6.0-3.0","631e8c52a408a788b7e62e11","bdp_sd","Sun Apr 09 2023 18:48:41 GMT-0500 (Central Daylight Time)","118058","","null","","","","","offerFB","","<div class='trialBorder'><div class='vertical-center'><img style='vertical-align:center; align:center' src=img/fixation3.jpg></div><div class='cl'><div class='vertical-center'><font style='color:orange'>$67<br>for<br>yourself</font></div></div><div class='cr'><div class='vertical-center'>$75<br>for<br>Jessica W</div></div><div class='respDivL'><div class='vertical-center'><font style='color:orange'>(E)</font></div></div><div class='respDivR'><div class='vertical-center'>(I)</div></div></div>","null","$67<br>for<br>yourself","$75<br>for<br>5","0","67","75","5",""
"html-keyboard-response","8","80490","0.0-6.0-1.1","631e8c52a408a788b7e62e11","bdp_sd","Sun Apr 09 2023 18:48:41 GMT-0500 (Central Daylight Time)","118058","","null","","","","","FIX","","<div class='trialBorder'><div class='vertical-center'><img style='vertical-align:center; align:center' src=img/fixation3.jpg></div></div>","null","","","","","","",""
"html-keyboard-response","9","81169","0.0-6.0-2.1","631e8c52a408a788b7e62e11","bdp_sd","Sun Apr 09 2023 18:48:41 GMT-0500 (Central Daylight Time)","118058","","678","","","","","offer","","<div class='trialBorder'><div class='vertical-center'><img style='vertical-align:center; align:center' src=img/fixation3.jpg></div><div class='cl'><div class='vertical-center'>$75<br>for<br>Katherine G</div></div><div class='cr'><div class='vertical-center'>$55<br>for<br>yourself</div></div><div class='respDivL'><div class='vertical-center'>(E)</div></div><div class='respDivR'><div class='vertical-center'>(I)</div></div></div>","I","$55<br>for<br>yourself","$75<br>for<br>4","1","55","75","4","SELF"
"html-keyboard-response","10","81422","0.0-6.0-3.1","631e8c52a408a788b7e62e11","bdp_sd","Sun Apr 09 2023 18:48:41 GMT-0500 (Central Daylight Time)","118058","","null","","","","","offerFB","","<div class='trialBorder'><div class='vertical-center'><img style='vertical-align:center; align:center' src=img/fixation3.jpg></div><div class='cl'><div class='vertical-center'>$75<br>for<br>Katherine G</div></div><div class='cr'><div class='vertical-center'><font style='color:orange'>$55<br>for<br>yourself</font></div></div><div class='respDivL'><div class='vertical-center'>(E)</div></div><div class='respDivR'><div class='vertical-center'><font style='color:orange'>(I)</font></div></div></div>","null","$55<br>for<br>yourself","$75<br>for<br>4","1","55","75","4",""
"html-keyboard-response","11","81924","0.0-6.0-1.2","631e8c52a408a788b7e62e11","bdp_sd","Sun Apr 09 2023 18:48:41 GMT-0500 (Central Daylight Time)","118058","","null","","","","","FIX","","<div class='trialBorder'><div class='vertical-center'><img style='vertical-align:center; align:center' src=img/fixation3.jpg></div></div>","null","","","","","","",""
"html-keyboard-response","12","82325","0.0-6.0-2.2","631e8c52a408a788b7e62e11","bdp_sd","Sun Apr 09 2023 18:48:41 GMT-0500 (Central Daylight Time)","118058","","398","","","","","offer","","<div class='trialBorder'><div class='vertical-center'><img style='vertical-align:center; align:center' src=img/fixation3.jpg></div><div class='cl'><div class='vertical-center'>$28<br>for<br>yourself</div></div><div class='cr'><div class='vertical-center'>$30<br>for<br>Jessica W</div></div><div class='respDivL'><div class='vertical-center'>(E)</div></div><div class='respDivR'><div class='vertical-center'>(I)</div></div></div>","E","$28<br>for<br>yourself","$30<br>for<br>5","0","28","30","5","SELF"
"html-keyboard-response","13","82577","0.0-6.0-3.2","631e8c52a408a788b7e62e11","bdp_sd","Sun Apr 09 2023 18:48:41 GMT-0500 (Central Daylight Time)","118058","","null","","","","","offerFB","","<div class='trialBorder'><div class='vertical-center'><img style='vertical-align:center; align:center' src=img/fixation3.jpg></div><div class='cl'><div class='vertical-center'><font style='color:orange'>$28<br>for<br>yourself</font></div></div><div class='cr'><div class='vertical-center'>$30<br>for<br>Jessica W</div></div><div class='respDivL'><div class='vertical-center'><font style='color:orange'>(E)</font></div></div><div class='respDivR'><div class='vertical-center'>(I)</div></div></div>","null","$28<br>for<br>yourself","$30<br>for<br>5","0","28","30","5",""
"html-keyboard-response","14","83093","0.0-6.0-1.3","631e8c52a408a788b7e62e11","bdp_sd","Sun Apr 09 2023 18:48:41 GMT-0500 (Central Daylight Time)","118058","","null","","","","","FIX","","<div class='trialBorder'><div class='vertical-center'><img style='vertical-align:center; align:center' src=img/fixation3.jpg></div></div>","null","","","","","","",""
"html-keyboard-response","15","83544","0.0-6.0-2.3","631e8c52a408a788b7e62e11","bdp_sd","Sun Apr 09 2023 18:48:41 GMT-0500 (Central Daylight Time)","118058","","449","","","","","offer","","<div class='trialBorder'><div class='vertical-center'><img style='vertical-align:center; align:center' src=img/fixation3.jpg></div><div class='cl'><div class='vertical-center'>$15<br>for<br>yourself</div></div><div class='cr'><div class='vertical-center'>$35<br>for<br>Allison J</div></div><div class='respDivL'><div class='vertical-center'>(E)</div></div><div class='respDivR'><div class='vertical-center'>(I)</div></div></div>","E","$15<br>for<br>yourself","$35<br>for<br>2","0","15","35","2","SELF"
"html-keyboard-response","16","83797","0.0-6.0-3.3","631e8c52a408a788b7e62e11","bdp_sd","Sun Apr 09 2023 18:48:41 GMT-0500 (Central Daylight Time)","118058","","null","","","","","offerFB","","<div class='trialBorder'><div class='vertical-center'><img style='vertical-align:center; align:center' src=img/fixation3.jpg></div><div class='cl'><div class='vertical-center'><font style='color:orange'>$15<br>for<br>yourself</font></div></div><div class='cr'><div class='vertical-center'>$35<br>for<br>Allison J</div></div><div class='respDivL'><div class='vertical-center'><font style='color:orange'>(E)</font></div></div><div class='respDivR'><div class='vertical-center'>(I)</div></div></div>","null","$15<br>for<br>yourself","$35<br>for<br>2","0","15","35","2",""
"html-keyboard-response","17","84298","0.0-6.0-1.4","631e8c52a408a788b7e62e11","bdp_sd","Sun Apr 09 2023 18:48:41 GMT-0500 (Central Daylight Time)","118058","","null","","","","","FIX","","<div class='trialBorder'><div class='vertical-center'><img style='vertical-align:center; align:center' src=img/fixation3.jpg></div></div>","null","","","","","","",""
"html-keyboard-response","18","84874","0.0-6.0-2.4","631e8c52a408a788b7e62e11","bdp_sd","Sun Apr 09 2023 18:48:41 GMT-0500 (Central Daylight Time)","118058","","574","","","","","offer","","<div class='trialBorder'><div class='vertical-center'><img style='vertical-align:center; align:center' src=img/fixation3.jpg></div><div class='cl'><div class='vertical-center'>$34<br>for<br>yourself</div></div><div class='cr'><div class='vertical-center'>$35<br>for<br>Jessica W</div></div><div class='respDivL'><div class='vertical-center'>(E)</div></div><div class='respDivR'><div class='vertical-center'>(I)</div></div></div>","E","$34<br>for<br>yourself","$35<br>for<br>5","0","34","35","5","SELF"
"html-keyboard-response","19","85126","0.0-6.0-3.4","631e8c52a408a788b7e62e11","bdp_sd","Sun Apr 09 2023 18:48:41 GMT-0500 (Central Daylight Time)","118058","","null","","","","","offerFB","","<div class='trialBorder'><div class='vertical-center'><img style='vertical-align:center; align:center' src=img/fixation3.jpg></div><div class='cl'><div class='vertical-center'><font style='color:orange'>$34<br>for<br>yourself</font></div></div><div class='cr'><div class='vertical-center'>$35<br>for<br>Jessica W</div></div><div class='respDivL'><div class='vertical-center'><font style='color:orange'>(E)</font></div></div><div class='respDivR'><div class='vertical-center'>(I)</div></div></div>","null","$34<br>for<br>yourself","$35<br>for<br>5","0","34","35","5",""
"html-keyboard-response","20","85627","0.0-6.0-1.5","631e8c52a408a788b7e62e11","bdp_sd","Sun Apr 09 2023 18:48:41 GMT-0500 (Central Daylight Time)","118058","","null","","","","","FIX","","<div class='trialBorder'><div class='vertical-center'><img style='vertical-align:center; align:center' src=img/fixation3.jpg></div></div>","null","","","","","","",""
"html-keyboard-response","21","86122","0.0-6.0-2.5","631e8c52a408a788b7e62e11","bdp_sd","Sun Apr 09 2023 18:48:41 GMT-0500 (Central Daylight Time)","118058","","494","","","","","offer","","<div class='trialBorder'><div class='vertical-center'><img style='vertical-align:center; align:center' src=img/fixation3.jpg></div><div class='cl'><div class='vertical-center'>$54<br>for<br>yourself</div></div><div class='cr'><div class='vertical-center'>$80<br>for<br>Christian K</div></div><div class='respDivL'><div class='vertical-center'>(E)</div></div><div class='respDivR'><div class='vertical-center'>(I)</div></div></div>","E","$54<br>for<br>yourself","$80<br>for<br>3","0","54","80","3","SELF"
"html-keyboard-response","22","86444","0.0-6.0-3.5","631e8c52a408a788b7e62e11","bdp_sd","Sun Apr 09 2023 18:48:41 GMT-0500 (Central Daylight Time)","118058","","null","","","","","offerFB","","<div class='trialBorder'><div class='vertical-center'><img style='vertical-align:center; align:center' src=img/fixation3.jpg></div><div class='cl'><div class='vertical-center'><font style='color:orange'>$54<br>for<br>yourself</font></div></div><div class='cr'><div class='vertical-center'>$80<br>for<br>Christian K</div></div><div class='respDivL'><div class='vertical-center'><font style='color:orange'>(E)</font></div></div><div class='respDivR'><div class='vertical-center'>(I)</div></div></div>","null","$54<br>for<br>yourself","$80<br>for<br>3","0","54","80","3",""
"html-keyboard-response","23","86946","0.0-6.0-1.6","631e8c52a408a788b7e62e11","bdp_sd","Sun Apr 09 2023 18:48:41 GMT-0500 (Central Daylight Time)","118058","","null","","","","","FIX","","<div class='trialBorder'><div class='vertical-center'><img style='vertical-align:center; align:center' src=img/fixation3.jpg></div></div>","null","","","","","","",""
"html-keyboard-response","24","87485","0.0-6.0-2.6","631e8c52a408a788b7e62e11","bdp_sd","Sun Apr 09 2023 18:48:41 GMT-0500 (Central Daylight Time)","118058","","538","","","","","offer","","<div class='trialBorder'><div class='vertical-center'><img style='vertical-align:center; align:center' src=img/fixation3.jpg></div><div class='cl'><div class='vertical-center'>$85<br>for<br>Jessica W</div></div><div class='cr'><div class='vertical-center'>$80<br>for<br>yourself</div></div><div class='respDivL'><div class='vertical-center'>(E)</div></div><div class='respDivR'><div class='vertical-center'>(I)</div></div></div>","I","$80<br>for<br>yourself","$85<br>for<br>5","1","80","85","5","SELF"
"html-keyboard-response","25","87737","0.0-6.0-3.6","631e8c52a408a788b7e62e11","bdp_sd","Sun Apr 09 2023 18:48:41 GMT-0500 (Central Daylight Time)","118058","","null","","","","","offerFB","","<div class='trialBorder'><div class='vertical-center'><img style='vertical-align:center; align:center' src=img/fixation3.jpg></div><div class='cl'><div class='vertical-center'>$85<br>for<br>Jessica W</div></div><div class='cr'><div class='vertical-center'><font style='color:orange'>$80<br>for<br>yourself</font></div></div><div class='respDivL'><div class='vertical-center'>(E)</div></div><div class='respDivR'><div class='vertical-center'><font style='color:orange'>(I)</font></div></div></div>","null","$80<br>for<br>yourself","$85<br>for<br>5","1","80","85","5",""
"html-keyboard-response","26","88239","0.0-6.0-1.7","631e8c52a408a788b7e62e11","bdp_sd","Sun Apr 09 2023 18:48:41 GMT-0500 (Central Daylight Time)","118058","","null","","","","","FIX","","<div class='trialBorder'><div class='vertical-center'><img style='vertical-align:center; align:center' src=img/fixation3.jpg></div></div>","null","","","","","","",""
"html-keyboard-response","27","88745","0.0-6.0-2.7","631e8c52a408a788b7e62e11","bdp_sd","Sun Apr 09 2023 18:48:41 GMT-0500 (Central Daylight Time)","118058","","505","","","","","offer","","<div class='trialBorder'><div class='vertical-center'><img style='vertical-align:center; align:center' src=img/fixation3.jpg></div><div class='cl'><div class='vertical-center'>$80<br>for<br>Jessica W</div></div><div class='cr'><div class='vertical-center'>$78<br>for<br>yourself</div></div><div class='respDivL'><div class='vertical-center'>(E)</div></div><div class='respDivR'><div class='vertical-center'>(I)</div></div></div>","I","$78<br>for<br>yourself","$80<br>for<br>5","1","78","80","5","SELF"
"html-keyboard-response","28","88997","0.0-6.0-3.7","631e8c52a408a788b7e62e11","bdp_sd","Sun Apr 09 2023 18:48:41 GMT-0500 (Central Daylight Time)","118058","","null","","","","","offerFB","","<div class='trialBorder'><div class='vertical-center'><img style='vertical-align:center; align:center' src=img/fixation3.jpg></div><div class='cl'><div class='vertical-center'>$80<br>for<br>Jessica W</div></div><div class='cr'><div class='vertical-center'><font style='color:orange'>$78<br>for<br>yourself</font></div></div><div class='respDivL'><div class='vertical-center'>(E)</div></div><div class='respDivR'><div class='vertical-center'><font style='color:orange'>(I)</font></div></div></div>","null","$78<br>for<br>yourself","$80<br>for<br>5","1","78","80","5",""
"html-keyboard-response","29","89499","0.0-6.0-1.8","631e8c52a408a788b7e62e11","bdp_sd","Sun Apr 09 2023 18:48:41 GMT-0500 (Central Daylight Time)","118058","","null","","","","","FIX","","<div class='trialBorder'><div class='vertical-center'><img style='vertical-align:center; align:center' src=img/fixation3.jpg></div></div>","null","","","","","","",""
"html-keyboard-response","30","89986","0.0-6.0-2.8","631e8c52a408a788b7e62e11","bdp_sd","Sun Apr 09 2023 18:48:41 GMT-0500 (Central Daylight Time)","118058","","486","","","","","offer","","<div class='trialBorder'><div class='vertical-center'><img style='vertical-align:center; align:center' src=img/fixation3.jpg></div><div class='cl'><div class='vertical-center'>$50<br>for<br>Christian K</div></div><div class='cr'><div class='vertical-center'>$27<br>for<br>yourself</div></div><div class='respDivL'><div class='vertical-center'>(E)</div></div><div class='respDivR'><div class='vertical-center'>(I)</div></div></div>","I","$27<br>for<br>yourself","$50<br>for<br>3","1","27","50","3","SELF"
"html-keyboard-response","31","90238","0.0-6.0-3.8","631e8c52a408a788b7e62e11","bdp_sd","Sun Apr 09 2023 18:48:41 GMT-0500 (Central Daylight Time)","118058","","null","","","","","offerFB","","<div class='trialBorder'><div class='vertical-center'><img style='vertical-align:center; align:center' src=img/fixation3.jpg></div><div class='cl'><div class='vertical-center'>$50<br>for<br>Christian K</div></div><div class='cr'><div class='vertical-center'><font style='color:orange'>$27<br>for<br>yourself</font></div></div><div class='respDivL'><div class='vertical-center'>(E)</div></div><div class='respDivR'><div class='vertical-center'><font style='color:orange'>(I)</font></div></div></div>","null","$27<br>for<br>yourself","$50<br>for<br>3","1","27","50","3",""
"html-keyboard-response","32","90740","0.0-6.0-1.9","631e8c52a408a788b7e62e11","bdp_sd","Sun Apr 09 2023 18:48:41 GMT-0500 (Central Daylight Time)","118058","","null","","","","","FIX","","<div class='trialBorder'><div class='vertical-center'><img style='vertical-align:center; align:center' src=img/fixation3.jpg></div></div>","null","","","","","","",""
"html-keyboard-response","33","91247","0.0-6.0-2.9","631e8c52a408a788b7e62e11","bdp_sd","Sun Apr 09 2023 18:48:41 GMT-0500 (Central Daylight Time)","118058","","505","","","","","offer","","<div class='trialBorder'><div class='vertical-center'><img style='vertical-align:center; align:center' src=img/fixation3.jpg></div><div class='cl'><div class='vertical-center'>$41<br>for<br>yourself</div></div><div class='cr'><div class='vertical-center'>$75<br>for<br>Christian K</div></div><div class='respDivL'><div class='vertical-center'>(E)</div></div><div class='respDivR'><div class='vertical-center'>(I)</div></div></div>","E","$41<br>for<br>yourself","$75<br>for<br>3","0","41","75","3","SELF"
"html-keyboard-response","34","91499","0.0-6.0-3.9","631e8c52a408a788b7e62e11","bdp_sd","Sun Apr 09 2023 18:48:41 GMT-0500 (Central Daylight Time)","118058","","null","","","","","offerFB","","<div class='trialBorder'><div class='vertical-center'><img style='vertical-align:center; align:center' src=img/fixation3.jpg></div><div class='cl'><div class='vertical-center'><font style='color:orange'>$41<br>for<br>yourself</font></div></div><div class='cr'><div class='vertical-center'>$75<br>for<br>Christian K</div></div><div class='respDivL'><div class='vertical-center'><font style='color:orange'>(E)</font></div></div><div class='respDivR'><div class='vertical-center'>(I)</div></div></div>","null","$41<br>for<br>yourself","$75<br>for<br>3","0","41","75","3",""
"html-keyboard-response","35","92001","0.0-6.0-1.10","631e8c52a408a788b7e62e11","bdp_sd","Sun Apr 09 2023 18:48:41 GMT-0500 (Central Daylight Time)","118058","","null","","","","","FIX","","<div class='trialBorder'><div class='vertical-center'><img style='vertical-align:center; align:center' src=img/fixation3.jpg></div></div>","null","","","","","","",""
"html-keyboard-response","36","92486","0.0-6.0-2.10","631e8c52a408a788b7e62e11","bdp_sd","Sun Apr 09 2023 18:48:41 GMT-0500 (Central Daylight Time)","118058","","483","","","","","offer","","<div class='trialBorder'><div class='vertical-center'><img style='vertical-align:center; align:center' src=img/fixation3.jpg></div><div class='cl'><div class='vertical-center'>$55<br>for<br>Katherine G</div></div><div class='cr'><div class='vertical-center'>$40<br>for<br>yourself</div></div><div class='respDivL'><div class='vertical-center'>(E)</div></div><div class='respDivR'><div class='vertical-center'>(I)</div></div></div>","I","$40<br>for<br>yourself","$55<br>for<br>4","1","40","55","4","SELF"
"html-keyboard-response","37","92738","0.0-6.0-3.10","631e8c52a408a788b7e62e11","bdp_sd","Sun Apr 09 2023 18:48:41 GMT-0500 (Central Daylight Time)","118058","","null","","","","","offerFB","","<div class='trialBorder'><div class='vertical-center'><img style='vertical-align:center; align:center' src=img/fixation3.jpg></div><div class='cl'><div class='vertical-center'>$55<br>for<br>Katherine G</div></div><div class='cr'><div class='vertical-center'><font style='color:orange'>$40<br>for<br>yourself</font></div></div><div class='respDivL'><div class='vertical-center'>(E)</div></div><div class='respDivR'><div class='vertical-center'><font style='color:orange'>(I)</font></div></div></div>","null","$40<br>for<br>yourself","$55<br>for<br>4","1","40","55","4",""
"html-keyboard-response","38","93241","0.0-6.0-1.11","631e8c52a408a788b7e62e11","bdp_sd","Sun Apr 09 2023 18:48:41 GMT-0500 (Central Daylight Time)","118058","","null","","","","","FIX","","<div class='trialBorder'><div class='vertical-center'><img style='vertical-align:center; align:center' src=img/fixation3.jpg></div></div>","null","","","","","","",""
"html-keyboard-response","39","93775","0.0-6.0-2.11","631e8c52a408a788b7e62e11","bdp_sd","Sun Apr 09 2023 18:48:41 GMT-0500 (Central Daylight Time)","118058","","531","","","","","offer","","<div class='trialBorder'><div class='vertical-center'><img style='vertical-align:center; align:center' src=img/fixation3.jpg></div><div class='cl'><div class='vertical-center'>$35<br>for<br>Christian K</div></div><div class='cr'><div class='vertical-center'>$24<br>for<br>yourself</div></div><div class='respDivL'><div class='vertical-center'>(E)</div></div><div class='respDivR'><div class='vertical-center'>(I)</div></div></div>","I","$24<br>for<br>yourself","$35<br>for<br>3","1","24","35","3","SELF"
"html-keyboard-response","40","94027","0.0-6.0-3.11","631e8c52a408a788b7e62e11","bdp_sd","Sun Apr 09 2023 18:48:41 GMT-0500 (Central Daylight Time)","118058","","null","","","","","offerFB","","<div class='trialBorder'><div class='vertical-center'><img style='vertical-align:center; align:center' src=img/fixation3.jpg></div><div class='cl'><div class='vertical-center'>$35<br>for<br>Christian K</div></div><div class='cr'><div class='vertical-center'><font style='color:orange'>$24<br>for<br>yourself</font></div></div><div class='respDivL'><div class='vertical-center'>(E)</div></div><div class='respDivR'><div class='vertical-center'><font style='color:orange'>(I)</font></div></div></div>","null","$24<br>for<br>yourself","$35<br>for<br>3","1","24","35","3",""
"html-keyboard-response","41","94529","0.0-6.0-1.12","631e8c52a408a788b7e62e11","bdp_sd","Sun Apr 09 2023 18:48:41 GMT-0500 (Central Daylight Time)","118058","","null","","","","","FIX","","<div class='trialBorder'><div class='vertical-center'><img style='vertical-align:center; align:center' src=img/fixation3.jpg></div></div>","null","","","","","","",""
"html-keyboard-response","42","95164","0.0-6.0-2.12","631e8c52a408a788b7e62e11","bdp_sd","Sun Apr 09 2023 18:48:41 GMT-0500 (Central Daylight Time)","118058","","634","","","","","offer","","<div class='trialBorder'><div class='vertical-center'><img style='vertical-align:center; align:center' src=img/fixation3.jpg></div><div class='cl'><div class='vertical-center'>$85<br>for<br>Travis N</div></div><div class='cr'><div class='vertical-center'>$31<br>for<br>yourself</div></div><div class='respDivL'><div class='vertical-center'>(E)</div></div><div class='respDivR'><div class='vertical-center'>(I)</div></div></div>","I","$31<br>for<br>yourself","$85<br>for<br>1","1","31","85","1","SELF"
"html-keyboard-response","43","95497","0.0-6.0-3.12","631e8c52a408a788b7e62e11","bdp_sd","Sun Apr 09 2023 18:48:41 GMT-0500 (Central Daylight Time)","118058","","null","","","","","offerFB","","<div class='trialBorder'><div class='vertical-center'><img style='vertical-align:center; align:center' src=img/fixation3.jpg></div><div class='cl'><div class='vertical-center'>$85<br>for<br>Travis N</div></div><div class='cr'><div class='vertical-center'><font style='color:orange'>$31<br>for<br>yourself</font></div></div><div class='respDivL'><div class='vertical-center'>(E)</div></div><div class='respDivR'><div class='vertical-center'><font style='color:orange'>(I)</font></div></div></div>","null","$31<br>for<br>yourself","$85<br>for<br>1","1","31","85","1",""
"html-keyboard-response","44","95999","0.0-6.0-1.13","631e8c52a408a788b7e62e11","bdp_sd","Sun Apr 09 2023 18:48:41 GMT-0500 (Central Daylight Time)","118058","","null","","","","","FIX","","<div class='trialBorder'><div class='vertical-center'><img style='vertical-align:center; align:center' src=img/fixation3.jpg></div></div>","null","","","","","","",""
"html-keyboard-response","45","96477","0.0-6.0-2.13","631e8c52a408a788b7e62e11","bdp_sd","Sun Apr 09 2023 18:48:41 GMT-0500 (Central Daylight Time)","118058","","477","","","","","offer","","<div class='trialBorder'><div class='vertical-center'><img style='vertical-align:center; align:center' src=img/fixation3.jpg></div><div class='cl'><div class='vertical-center'>$20<br>for<br>yourself</div></div><div class='cr'><div class='vertical-center'>$55<br>for<br>Travis N</div></div><div class='respDivL'><div class='vertical-center'>(E)</div></div><div class='respDivR'><div class='vertical-center'>(I)</div></div></div>","E","$20<br>for<br>yourself","$55<br>for<br>1","0","20","55","1","SELF"
"html-keyboard-response","46","96730","0.0-6.0-3.13","631e8c52a408a788b7e62e11","bdp_sd","Sun Apr 09 2023 18:48:41 GMT-0500 (Central Daylight Time)","118058","","null","","","","","offerFB","","<div class='trialBorder'><div class='vertical-center'><img style='vertical-align:center; align:center' src=img/fixation3.jpg></div><div class='cl'><div class='vertical-center'><font style='color:orange'>$20<br>for<br>yourself</font></div></div><div class='cr'><div class='vertical-center'>$55<br>for<br>Travis N</div></div><div class='respDivL'><div class='vertical-center'><font style='color:orange'>(E)</font></div></div><div class='respDivR'><div class='vertical-center'>(I)</div></div></div>","null","$20<br>for<br>yourself","$55<br>for<br>1","0","20","55","1",""
"html-keyboard-response","47","97232","0.0-6.0-1.14","631e8c52a408a788b7e62e11","bdp_sd","Sun Apr 09 2023 18:48:41 GMT-0500 (Central Daylight Time)","118058","","null","","","","","FIX","","<div class='trialBorder'><div class='vertical-center'><img style='vertical-align:center; align:center' src=img/fixation3.jpg></div></div>","null","","","","","","",""
"html-keyboard-response","48","97816","0.0-6.0-2.14","631e8c52a408a788b7e62e11","bdp_sd","Sun Apr 09 2023 18:48:41 GMT-0500 (Central Daylight Time)","118058","","582","","","","","offer","","<div class='trialBorder'><div class='vertical-center'><img style='vertical-align:center; align:center' src=img/fixation3.jpg></div><div class='cl'><div class='vertical-center'>$54<br>for<br>yourself</div></div><div class='cr'><div class='vertical-center'>$60<br>for<br>Jessica W</div></div><div class='respDivL'><div class='vertical-center'>(E)</div></div><div class='respDivR'><div class='vertical-center'>(I)</div></div></div>","E","$54<br>for<br>yourself","$60<br>for<br>5","0","54","60","5","SELF"
"html-keyboard-response","49","98068","0.0-6.0-3.14","631e8c52a408a788b7e62e11","bdp_sd","Sun Apr 09 2023 18:48:41 GMT-0500 (Central Daylight Time)","118058","","null","","","","","offerFB","","<div class='trialBorder'><div class='vertical-center'><img style='vertical-align:center; align:center' src=img/fixation3.jpg></div><div class='cl'><div class='vertical-center'><font style='color:orange'>$54<br>for<br>yourself</font></div></div><div class='cr'><div class='vertical-center'>$60<br>for<br>Jessica W</div></div><div class='respDivL'><div class='vertical-center'><font style='color:orange'>(E)</font></div></div><div class='respDivR'><div class='vertical-center'>(I)</div></div></div>","null","$54<br>for<br>yourself","$60<br>for<br>5","0","54","60","5",""
"html-keyboard-response","50","98570","0.0-6.0-1.15","631e8c52a408a788b7e62e11","bdp_sd","Sun Apr 09 2023 18:48:41 GMT-0500 (Central Daylight Time)","118058","","null","","","","","FIX","","<div class='trialBorder'><div class='vertical-center'><img style='vertical-align:center; align:center' src=img/fixation3.jpg></div></div>","null","","","","","","",""
"html-keyboard-response","51","99193","0.0-6.0-2.15","631e8c52a408a788b7e62e11","bdp_sd","Sun Apr 09 2023 18:48:41 GMT-0500 (Central Daylight Time)","118058","","622","","","","","offer","","<div class='trialBorder'><div class='vertical-center'><img style='vertical-align:center; align:center' src=img/fixation3.jpg></div><div class='cl'><div class='vertical-center'>$25<br>for<br>Jessica W</div></div><div class='cr'><div class='vertical-center'>$22<br>for<br>yourself</div></div><div class='respDivL'><div class='vertical-center'>(E)</div></div><div class='respDivR'><div class='vertical-center'>(I)</div></div></div>","I","$22<br>for<br>yourself","$25<br>for<br>5","1","22","25","5","SELF"
"html-keyboard-response","52","99445","0.0-6.0-3.15","631e8c52a408a788b7e62e11","bdp_sd","Sun Apr 09 2023 18:48:41 GMT-0500 (Central Daylight Time)","118058","","null","","","","","offerFB","","<div class='trialBorder'><div class='vertical-center'><img style='vertical-align:center; align:center' src=img/fixation3.jpg></div><div class='cl'><div class='vertical-center'>$25<br>for<br>Jessica W</div></div><div class='cr'><div class='vertical-center'><font style='color:orange'>$22<br>for<br>yourself</font></div></div><div class='respDivL'><div class='vertical-center'>(E)</div></div><div class='respDivR'><div class='vertical-center'><font style='color:orange'>(I)</font></div></div></div>","null","$22<br>for<br>yourself","$25<br>for<br>5","1","22","25","5",""
"html-keyboard-response","53","100025","0.0-6.0-1.16","631e8c52a408a788b7e62e11","bdp_sd","Sun Apr 09 2023 18:48:41 GMT-0500 (Central Daylight Time)","118058","","null","","","","","FIX","","<div class='trialBorder'><div class='vertical-center'><img style='vertical-align:center; align:center' src=img/fixation3.jpg></div></div>","null","","","","","","",""
"html-keyboard-response","54","101244","0.0-6.0-2.16","631e8c52a408a788b7e62e11","bdp_sd","Sun Apr 09 2023 18:48:41 GMT-0500 (Central Daylight Time)","118058","","1216","","","","","offer","","<div class='trialBorder'><div class='vertical-center'><img style='vertical-align:center; align:center' src=img/fixation3.jpg></div><div class='cl'><div class='vertical-center'>$30<br>for<br>Katherine G</div></div><div class='cr'><div class='vertical-center'>$25<br>for<br>yourself</div></div><div class='respDivL'><div class='vertical-center'>(E)</div></div><div class='respDivR'><div class='vertical-center'>(I)</div></div></div>","I","$25<br>for<br>yourself","$30<br>for<br>4","1","25","30","4","SELF"
"html-keyboard-response","55","101496","0.0-6.0-3.16","631e8c52a408a788b7e62e11","bdp_sd","Sun Apr 09 2023 18:48:41 GMT-0500 (Central Daylight Time)","118058","","null","","","","","offerFB","","<div class='trialBorder'><div class='vertical-center'><img style='vertical-align:center; align:center' src=img/fixation3.jpg></div><div class='cl'><div class='vertical-center'>$30<br>for<br>Katherine G</div></div><div class='cr'><div class='vertical-center'><font style='color:orange'>$25<br>for<br>yourself</font></div></div><div class='respDivL'><div class='vertical-center'>(E)</div></div><div class='respDivR'><div class='vertical-center'><font style='color:orange'>(I)</font></div></div></div>","null","$25<br>for<br>yourself","$30<br>for<br>4","1","25","30","4",""
"html-keyboard-response","56","101998","0.0-6.0-1.17","631e8c52a408a788b7e62e11","bdp_sd","Sun Apr 09 2023 18:48:41 GMT-0500 (Central Daylight Time)","118058","","null","","","","","FIX","","<div class='trialBorder'><div class='vertical-center'><img style='vertical-align:center; align:center' src=img/fixation3.jpg></div></div>","null","","","","","","",""
"html-keyboard-response","57","102883","0.0-6.0-2.17","631e8c52a408a788b7e62e11","bdp_sd","Sun Apr 09 2023 18:48:41 GMT-0500 (Central Daylight Time)","118058","","884","","","","","offer","","<div class='trialBorder'><div class='vertical-center'><img style='vertical-align:center; align:center' src=img/fixation3.jpg></div><div class='cl'><div class='vertical-center'>$25<br>for<br>Christian K</div></div><div class='cr'><div class='vertical-center'>$14<br>for<br>yourself</div></div><div class='respDivL'><div class='vertical-center'>(E)</div></div><div class='respDivR'><div class='vertical-center'>(I)</div></div></div>","I","$14<br>for<br>yourself","$25<br>for<br>3","1","14","25","3","SELF"
"html-keyboard-response","58","103137","0.0-6.0-3.17","631e8c52a408a788b7e62e11","bdp_sd","Sun Apr 09 2023 18:48:41 GMT-0500 (Central Daylight Time)","118058","","null","","","","","offerFB","","<div class='trialBorder'><div class='vertical-center'><img style='vertical-align:center; align:center' src=img/fixation3.jpg></div><div class='cl'><div class='vertical-center'>$25<br>for<br>Christian K</div></div><div class='cr'><div class='vertical-center'><font style='color:orange'>$14<br>for<br>yourself</font></div></div><div class='respDivL'><div class='vertical-center'>(E)</div></div><div class='respDivR'><div class='vertical-center'><font style='color:orange'>(I)</font></div></div></div>","null","$14<br>for<br>yourself","$25<br>for<br>3","1","14","25","3",""
"html-keyboard-response","59","103641","0.0-6.0-1.18","631e8c52a408a788b7e62e11","bdp_sd","Sun Apr 09 2023 18:48:41 GMT-0500 (Central Daylight Time)","118058","","null","","","","","FIX","","<div class='trialBorder'><div class='vertical-center'><img style='vertical-align:center; align:center' src=img/fixation3.jpg></div></div>","null","","","","","","",""
"html-keyboard-response","60","104347","0.0-6.0-2.18","631e8c52a408a788b7e62e11","bdp_sd","Sun Apr 09 2023 18:48:41 GMT-0500 (Central Daylight Time)","118058","","704","","","","","offer","","<div class='trialBorder'><div class='vertical-center'><img style='vertical-align:center; align:center' src=img/fixation3.jpg></div><div class='cl'><div class='vertical-center'>$49<br>for<br>yourself</div></div><div class='cr'><div class='vertical-center'>$60<br>for<br>Katherine G</div></div><div class='respDivL'><div class='vertical-center'>(E)</div></div><div class='respDivR'><div class='vertical-center'>(I)</div></div></div>","E","$49<br>for<br>yourself","$60<br>for<br>4","0","49","60","4","SELF"
"html-keyboard-response","61","104600","0.0-6.0-3.18","631e8c52a408a788b7e62e11","bdp_sd","Sun Apr 09 2023 18:48:41 GMT-0500 (Central Daylight Time)","118058","","null","","","","","offerFB","","<div class='trialBorder'><div class='vertical-center'><img style='vertical-align:center; align:center' src=img/fixation3.jpg></div><div class='cl'><div class='vertical-center'><font style='color:orange'>$49<br>for<br>yourself</font></div></div><div class='cr'><div class='vertical-center'>$60<br>for<br>Katherine G</div></div><div class='respDivL'><div class='vertical-center'><font style='color:orange'>(E)</font></div></div><div class='respDivR'><div class='vertical-center'>(I)</div></div></div>","null","$49<br>for<br>yourself","$60<br>for<br>4","0","49","60","4",""
"html-keyboard-response","62","105102","0.0-6.0-1.19","631e8c52a408a788b7e62e11","bdp_sd","Sun Apr 09 2023 18:48:41 GMT-0500 (Central Daylight Time)","118058","","null","","","","","FIX","","<div class='trialBorder'><div class='vertical-center'><img style='vertical-align:center; align:center' src=img/fixation3.jpg></div></div>","null","","","","","","",""
"html-keyboard-response","63","105618","0.0-6.0-2.19","631e8c52a408a788b7e62e11","bdp_sd","Sun Apr 09 2023 18:48:41 GMT-0500 (Central Daylight Time)","118058","","515","","","","","offer","","<div class='trialBorder'><div class='vertical-center'><img style='vertical-align:center; align:center' src=img/fixation3.jpg></div><div class='cl'><div class='vertical-center'>$85<br>for<br>Katherine G</div></div><div class='cr'><div class='vertical-center'>$69<br>for<br>yourself</div></div><div class='respDivL'><div class='vertical-center'>(E)</div></div><div class='respDivR'><div class='vertical-center'>(I)</div></div></div>","I","$69<br>for<br>yourself","$85<br>for<br>4","1","69","85","4","SELF"
"html-keyboard-response","64","105870","0.0-6.0-3.19","631e8c52a408a788b7e62e11","bdp_sd","Sun Apr 09 2023 18:48:41 GMT-0500 (Central Daylight Time)","118058","","null","","","","","offerFB","","<div class='trialBorder'><div class='vertical-center'><img style='vertical-align:center; align:center' src=img/fixation3.jpg></div><div class='cl'><div class='vertical-center'>$85<br>for<br>Katherine G</div></div><div class='cr'><div class='vertical-center'><font style='color:orange'>$69<br>for<br>yourself</font></div></div><div class='respDivL'><div class='vertical-center'>(E)</div></div><div class='respDivR'><div class='vertical-center'><font style='color:orange'>(I)</font></div></div></div>","null","$69<br>for<br>yourself","$85<br>for<br>4","1","69","85","4",""
"html-keyboard-response","65","106372","0.0-6.0-1.20","631e8c52a408a788b7e62e11","bdp_sd","Sun Apr 09 2023 18:48:41 GMT-0500 (Central Daylight Time)","118058","","null","","","","","FIX","","<div class='trialBorder'><div class='vertical-center'><img style='vertical-align:center; align:center' src=img/fixation3.jpg></div></div>","null","","","","","","",""
"html-keyboard-response","66","106843","0.0-6.0-2.20","631e8c52a408a788b7e62e11","bdp_sd","Sun Apr 09 2023 18:48:41 GMT-0500 (Central Daylight Time)","118058","","470","","","","","offer","","<div class='trialBorder'><div class='vertical-center'><img style='vertical-align:center; align:center' src=img/fixation3.jpg></div><div class='cl'><div class='vertical-center'>$47<br>for<br>yourself</div></div><div class='cr'><div class='vertical-center'>$50<br>for<br>Jessica W</div></div><div class='respDivL'><div class='vertical-center'>(E)</div></div><div class='respDivR'><div class='vertical-center'>(I)</div></div></div>","E","$47<br>for<br>yourself","$50<br>for<br>5","0","47","50","5","SELF"
"html-keyboard-response","67","107097","0.0-6.0-3.20","631e8c52a408a788b7e62e11","bdp_sd","Sun Apr 09 2023 18:48:41 GMT-0500 (Central Daylight Time)","118058","","null","","","","","offerFB","","<div class='trialBorder'><div class='vertical-center'><img style='vertical-align:center; align:center' src=img/fixation3.jpg></div><div class='cl'><div class='vertical-center'><font style='color:orange'>$47<br>for<br>yourself</font></div></div><div class='cr'><div class='vertical-center'>$50<br>for<br>Jessica W</div></div><div class='respDivL'><div class='vertical-center'><font style='color:orange'>(E)</font></div></div><div class='respDivR'><div class='vertical-center'>(I)</div></div></div>","null","$47<br>for<br>yourself","$50<br>for<br>5","0","47","50","5",""
"html-keyboard-response","68","107599","0.0-6.0-1.21","631e8c52a408a788b7e62e11","bdp_sd","Sun Apr 09 2023 18:48:41 GMT-0500 (Central Daylight Time)","118058","","null","","","","","FIX","","<div class='trialBorder'><div class='vertical-center'><img style='vertical-align:center; align:center' src=img/fixation3.jpg></div></div>","null","","","","","","",""
"html-keyboard-response","69","108133","0.0-6.0-2.21","631e8c52a408a788b7e62e11","bdp_sd","Sun Apr 09 2023 18:48:41 GMT-0500 (Central Daylight Time)","118058","","533","","","","","offer","","<div class='trialBorder'><div class='vertical-center'><img style='vertical-align:center; align:center' src=img/fixation3.jpg></div><div class='cl'><div class='vertical-center'>$33<br>for<br>yourself</div></div><div class='cr'><div class='vertical-center'>$80<br>for<br>Allison J</div></div><div class='respDivL'><div class='vertical-center'>(E)</div></div><div class='respDivR'><div class='vertical-center'>(I)</div></div></div>","I","$33<br>for<br>yourself","$80<br>for<br>2","0","33","80","2","OTHER"
"html-keyboard-response","70","108386","0.0-6.0-3.21","631e8c52a408a788b7e62e11","bdp_sd","Sun Apr 09 2023 18:48:41 GMT-0500 (Central Daylight Time)","118058","","null","","","","","offerFB","","<div class='trialBorder'><div class='vertical-center'><img style='vertical-align:center; align:center' src=img/fixation3.jpg></div><div class='cl'><div class='vertical-center'>$33<br>for<br>yourself</div></div><div class='cr'><div class='vertical-center'><font style='color:orange'>$80<br>for<br>Allison J</font></div></div><div class='respDivL'><div class='vertical-center'>(E)</div></div><div class='respDivR'><div class='vertical-center'><font style='color:orange'>(I)</font></div></div></div>","null","$33<br>for<br>yourself","$80<br>for<br>2","0","33","80","2",""
"html-keyboard-response","71","108887","0.0-6.0-1.22","631e8c52a408a788b7e62e11","bdp_sd","Sun Apr 09 2023 18:48:41 GMT-0500 (Central Daylight Time)","118058","","null","","","","","FIX","","<div class='trialBorder'><div class='vertical-center'><img style='vertical-align:center; align:center' src=img/fixation3.jpg></div></div>","null","","","","","","",""
"html-keyboard-response","72","109669","0.0-6.0-2.22","631e8c52a408a788b7e62e11","bdp_sd","Sun Apr 09 2023 18:48:41 GMT-0500 (Central Daylight Time)","118058","","780","","","","","offer","","<div class='trialBorder'><div class='vertical-center'><img style='vertical-align:center; align:center' src=img/fixation3.jpg></div><div class='cl'><div class='vertical-center'>$25<br>for<br>Katherine G</div></div><div class='cr'><div class='vertical-center'>$19<br>for<br>yourself</div></div><div class='respDivL'><div class='vertical-center'>(E)</div></div><div class='respDivR'><div class='vertical-center'>(I)</div></div></div>","I","$19<br>for<br>yourself","$25<br>for<br>4","1","19","25","4","SELF"
"html-keyboard-response","73","109924","0.0-6.0-3.22","631e8c52a408a788b7e62e11","bdp_sd","Sun Apr 09 2023 18:48:41 GMT-0500 (Central Daylight Time)","118058","","null","","","","","offerFB","","<div class='trialBorder'><div class='vertical-center'><img style='vertical-align:center; align:center' src=img/fixation3.jpg></div><div class='cl'><div class='vertical-center'>$25<br>for<br>Katherine G</div></div><div class='cr'><div class='vertical-center'><font style='color:orange'>$19<br>for<br>yourself</font></div></div><div class='respDivL'><div class='vertical-center'>(E)</div></div><div class='respDivR'><div class='vertical-center'><font style='color:orange'>(I)</font></div></div></div>","null","$19<br>for<br>yourself","$25<br>for<br>4","1","19","25","4",""
"html-keyboard-response","74","110426","0.0-6.0-1.23","631e8c52a408a788b7e62e11","bdp_sd","Sun Apr 09 2023 18:48:41 GMT-0500 (Central Daylight Time)","118058","","null","","","","","FIX","","<div class='trialBorder'><div class='vertical-center'><img style='vertical-align:center; align:center' src=img/fixation3.jpg></div></div>","null","","","","","","",""
"html-keyboard-response","75","111138","0.0-6.0-2.23","631e8c52a408a788b7e62e11","bdp_sd","Sun Apr 09 2023 18:48:41 GMT-0500 (Central Daylight Time)","118058","","710","","","","","offer","","<div class='trialBorder'><div class='vertical-center'><img style='vertical-align:center; align:center' src=img/fixation3.jpg></div><div class='cl'><div class='vertical-center'>$34<br>for<br>yourself</div></div><div class='cr'><div class='vertical-center'>$50<br>for<br>Katherine G</div></div><div class='respDivL'><div class='vertical-center'>(E)</div></div><div class='respDivR'><div class='vertical-center'>(I)</div></div></div>","E","$34<br>for<br>yourself","$50<br>for<br>4","0","34","50","4","SELF"
"html-keyboard-response","76","111391","0.0-6.0-3.23","631e8c52a408a788b7e62e11","bdp_sd","Sun Apr 09 2023 18:48:41 GMT-0500 (Central Daylight Time)","118058","","null","","","","","offerFB","","<div class='trialBorder'><div class='vertical-center'><img style='vertical-align:center; align:center' src=img/fixation3.jpg></div><div class='cl'><div class='vertical-center'><font style='color:orange'>$34<br>for<br>yourself</font></div></div><div class='cr'><div class='vertical-center'>$50<br>for<br>Katherine G</div></div><div class='respDivL'><div class='vertical-center'><font style='color:orange'>(E)</font></div></div><div class='respDivR'><div class='vertical-center'>(I)</div></div></div>","null","$34<br>for<br>yourself","$50<br>for<br>4","0","34","50","4",""
"html-keyboard-response","77","111892","0.0-6.0-1.24","631e8c52a408a788b7e62e11","bdp_sd","Sun Apr 09 2023 18:48:41 GMT-0500 (Central Daylight Time)","118058","","null","","","","","FIX","","<div class='trialBorder'><div class='vertical-center'><img style='vertical-align:center; align:center' src=img/fixation3.jpg></div></div>","null","","","","","","",""
"html-keyboard-response","78","112884","0.0-6.0-2.24","631e8c52a408a788b7e62e11","bdp_sd","Sun Apr 09 2023 18:48:41 GMT-0500 (Central Daylight Time)","118058","","991","","","","","offer","","<div class='trialBorder'><div class='vertical-center'><img style='vertical-align:center; align:center' src=img/fixation3.jpg></div><div class='cl'><div class='vertical-center'>$11<br>for<br>yourself</div></div><div class='cr'><div class='vertical-center'>$30<br>for<br>Allison J</div></div><div class='respDivL'><div class='vertical-center'>(E)</div></div><div class='respDivR'><div class='vertical-center'>(I)</div></div></div>","E","$11<br>for<br>yourself","$30<br>for<br>2","0","11","30","2","SELF"
"html-keyboard-response","79","113136","0.0-6.0-3.24","631e8c52a408a788b7e62e11","bdp_sd","Sun Apr 09 2023 18:48:41 GMT-0500 (Central Daylight Time)","118058","","null","","","","","offerFB","","<div class='trialBorder'><div class='vertical-center'><img style='vertical-align:center; align:center' src=img/fixation3.jpg></div><div class='cl'><div class='vertical-center'><font style='color:orange'>$11<br>for<br>yourself</font></div></div><div class='cr'><div class='vertical-center'>$30<br>for<br>Allison J</div></div><div class='respDivL'><div class='vertical-center'><font style='color:orange'>(E)</font></div></div><div class='respDivR'><div class='vertical-center'>(I)</div></div></div>","null","$11<br>for<br>yourself","$30<br>for<br>2","0","11","30","2",""
"html-keyboard-response","80","113641","0.0-6.0-1.25","631e8c52a408a788b7e62e11","bdp_sd","Sun Apr 09 2023 18:48:41 GMT-0500 (Central Daylight Time)","118058","","null","","","","","FIX","","<div class='trialBorder'><div class='vertical-center'><img style='vertical-align:center; align:center' src=img/fixation3.jpg></div></div>","null","","","","","","",""
"html-keyboard-response","81","114410","0.0-6.0-2.25","631e8c52a408a788b7e62e11","bdp_sd","Sun Apr 09 2023 18:48:41 GMT-0500 (Central Daylight Time)","118058","","767","","","","","offer","","<div class='trialBorder'><div class='vertical-center'><img style='vertical-align:center; align:center' src=img/fixation3.jpg></div><div class='cl'><div class='vertical-center'>$60<br>for<br>Christian K</div></div><div class='cr'><div class='vertical-center'>$25<br>for<br>yourself</div></div><div class='respDivL'><div class='vertical-center'>(E)</div></div><div class='respDivR'><div class='vertical-center'>(I)</div></div></div>","I","$25<br>for<br>yourself","$60<br>for<br>3","1","25","60","3","SELF"
"html-keyboard-response","82","114662","0.0-6.0-3.25","631e8c52a408a788b7e62e11","bdp_sd","Sun Apr 09 2023 18:48:41 GMT-0500 (Central Daylight Time)","118058","","null","","","","","offerFB","","<div class='trialBorder'><div class='vertical-center'><img style='vertical-align:center; align:center' src=img/fixation3.jpg></div><div class='cl'><div class='vertical-center'>$60<br>for<br>Christian K</div></div><div class='cr'><div class='vertical-center'><font style='color:orange'>$25<br>for<br>yourself</font></div></div><div class='respDivL'><div class='vertical-center'>(E)</div></div><div class='respDivR'><div class='vertical-center'><font style='color:orange'>(I)</font></div></div></div>","null","$25<br>for<br>yourself","$60<br>for<br>3","1","25","60","3",""
"html-keyboard-response","83","115164","0.0-6.0-1.26","631e8c52a408a788b7e62e11","bdp_sd","Sun Apr 09 2023 18:48:41 GMT-0500 (Central Daylight Time)","118058","","null","","","","","FIX","","<div class='trialBorder'><div class='vertical-center'><img style='vertical-align:center; align:center' src=img/fixation3.jpg></div></div>","null","","","","","","",""
"html-keyboard-response","84","116795","0.0-6.0-2.26","631e8c52a408a788b7e62e11","bdp_sd","Sun Apr 09 2023 18:48:41 GMT-0500 (Central Daylight Time)","118058","","1629","","","","","offer","","<div class='trialBorder'><div class='vertical-center'><img style='vertical-align:center; align:center' src=img/fixation3.jpg></div><div class='cl'><div class='vertical-center'>$55<br>for<br>Jessica W</div></div><div class='cr'><div class='vertical-center'>$54<br>for<br>yourself</div></div><div class='respDivL'><div class='vertical-center'>(E)</div></div><div class='respDivR'><div class='vertical-center'>(I)</div></div></div>","I","$54<br>for<br>yourself","$55<br>for<br>5","1","54","55","5","SELF"
"html-keyboard-response","85","117056","0.0-6.0-3.26","631e8c52a408a788b7e62e11","bdp_sd","Sun Apr 09 2023 18:48:41 GMT-0500 (Central Daylight Time)","118058","","null","","","","","offerFB","","<div class='trialBorder'><div class='vertical-center'><img style='vertical-align:center; align:center' src=img/fixation3.jpg></div><div class='cl'><div class='vertical-center'>$55<br>for<br>Jessica W</div></div><div class='cr'><div class='vertical-center'><font style='color:orange'>$54<br>for<br>yourself</font></div></div><div class='respDivL'><div class='vertical-center'>(E)</div></div><div class='respDivR'><div class='vertical-center'><font style='color:orange'>(I)</font></div></div></div>","null","$54<br>for<br>yourself","$55<br>for<br>5","1","54","55","5",""
"","","","","631e8c52a408a788b7e62e11","bdp_sd","Sun Apr 09 2023 18:48:41 GMT-0500 (Central Daylight Time)","118058","","","","fullscreenexit","86","117068","fullscreenexit","","","","","","","","","",""
"fullscreen","86","118057","0.0-7.0","631e8c52a408a788b7e62e11","bdp_sd","Sun Apr 09 2023 18:48:41 GMT-0500 (Central Daylight Time)","118058","","","","","","","","true","","","","","","","","",""
"html-keyboard-response","87","118559","0.0-8.0","","","","","","null","","","","","","","","null","","","","","","",""
