"trial_type","trial_index","time_elapsed","internal_node_id","subject_id","task","startTime","totalTime","view_history","rt","responses","event","trial","time","trialtype","success","stimulus","key_press","selfOffer","otherOffer","otherLeft","selfAmt","otherAmt","otherDist","chosen"
"pavlovia","0","2","0.0-0.0","5d13e3e6e51708001a43fa66","bdp_sd","Mon Mar 27 2023 13:01:14 GMT-0700 (Pacific Daylight Time)","280328","","","","","","","","","","","","","","","","",""
"instructions","1","987","0.0-1.0","5d13e3e6e51708001a43fa66","bdp_sd","Mon Mar 27 2023 13:01:14 GMT-0700 (Pacific Daylight Time)","280328","[{""page_index"":0,""viewing_time"":984}]","984","","","","","","","","","","","","","","",""
"survey-text","2","118442","0.0-2.0","5d13e3e6e51708001a43fa66","bdp_sd","Mon Mar 27 2023 13:01:14 GMT-0700 (Pacific Daylight Time)","280328","","117453","{""Q0"":""Jacob M."",""Q1"":""Rob G."",""Q2"":""Shaun J."",""Q3"":""Fred T."",""Q4"":""Susan G.""}","","","","","","","","","","","","","",""
"","","","","5d13e3e6e51708001a43fa66","bdp_sd","Mon Mar 27 2023 13:01:14 GMT-0700 (Pacific Daylight Time)","280328","","","","fullscreenenter","3","119981","fullscreenenter","","","","","","","","","",""
"fullscreen","3","120958","0.0-3.0","5d13e3e6e51708001a43fa66","bdp_sd","Mon Mar 27 2023 13:01:14 GMT-0700 (Pacific Daylight Time)","280328","","","","","","","","true","","","","","","","","",""
"instructions","4","134741","0.0-5.0","5d13e3e6e51708001a43fa66","bdp_sd","Mon Mar 27 2023 13:01:14 GMT-0700 (Pacific Daylight Time)","280328","[{""page_index"":0,""viewing_time"":3774},{""page_index"":1,""viewing_time"":6120},{""page_index"":2,""viewing_time"":3888}]","13782","","","","","","","","","","","","","","",""
"html-keyboard-response","5","135243","0.0-6.0-1.0","5d13e3e6e51708001a43fa66","bdp_sd","Mon Mar 27 2023 13:01:14 GMT-0700 (Pacific Daylight Time)","280328","","null","","","","","FIX","","<div class='trialBorder'><div class='vertical-center'><img style='vertical-align:center; align:center' src=img/fixation3.jpg></div></div>","null","","","","","","",""
"html-keyboard-response","6","138775","0.0-6.0-2.0","5d13e3e6e51708001a43fa66","bdp_sd","Mon Mar 27 2023 13:01:14 GMT-0700 (Pacific Daylight Time)","280328","","3530","","","","","offer","","<div class='trialBorder'><div class='vertical-center'><img style='vertical-align:center; align:center' src=img/fixation3.jpg></div><div class='cl'><div class='vertical-center'>$75<br>for<br>Shaun J.</div></div><div class='cr'><div class='vertical-center'>$41<br>for<br>yourself</div></div><div class='respDivL'><div class='vertical-center'>(E)</div></div><div class='respDivR'><div class='vertical-center'>(I)</div></div></div>","E","$41<br>for<br>yourself","$75<br>for<br>3","1","41","75","3","OTHER"
"html-keyboard-response","7","139028","0.0-6.0-3.0","5d13e3e6e51708001a43fa66","bdp_sd","Mon Mar 27 2023 13:01:14 GMT-0700 (Pacific Daylight Time)","280328","","null","","","","","offerFB","","<div class='trialBorder'><div class='vertical-center'><img style='vertical-align:center; align:center' src=img/fixation3.jpg></div><div class='cl'><div class='vertical-center'><font style='color:orange'>$75<br>for<br>Shaun J.</font></div></div><div class='cr'><div class='vertical-center'>$41<br>for<br>yourself</div></div><div class='respDivL'><div class='vertical-center'><font style='color:orange'>(E)</font></div></div><div class='respDivR'><div class='vertical-center'>(I)</div></div></div>","null","$41<br>for<br>yourself","$75<br>for<br>3","1","41","75","3",""
"html-keyboard-response","8","139529","0.0-6.0-1.1","5d13e3e6e51708001a43fa66","bdp_sd","Mon Mar 27 2023 13:01:14 GMT-0700 (Pacific Daylight Time)","280328","","null","","","","","FIX","","<div class='trialBorder'><div class='vertical-center'><img style='vertical-align:center; align:center' src=img/fixation3.jpg></div></div>","null","","","","","","",""
"html-keyboard-response","9","144583","0.0-6.0-2.1","5d13e3e6e51708001a43fa66","bdp_sd","Mon Mar 27 2023 13:01:14 GMT-0700 (Pacific Daylight Time)","280328","","5053","","","","","offer","","<div class='trialBorder'><div class='vertical-center'><img style='vertical-align:center; align:center' src=img/fixation3.jpg></div><div class='cl'><div class='vertical-center'>$40<br>for<br>yourself</div></div><div class='cr'><div class='vertical-center'>$55<br>for<br>Fred T.</div></div><div class='respDivL'><div class='vertical-center'>(E)</div></div><div class='respDivR'><div class='vertical-center'>(I)</div></div></div>","E","$40<br>for<br>yourself","$55<br>for<br>4","0","40","55","4","SELF"
"html-keyboard-response","10","144835","0.0-6.0-3.1","5d13e3e6e51708001a43fa66","bdp_sd","Mon Mar 27 2023 13:01:14 GMT-0700 (Pacific Daylight Time)","280328","","null","","","","","offerFB","","<div class='trialBorder'><div class='vertical-center'><img style='vertical-align:center; align:center' src=img/fixation3.jpg></div><div class='cl'><div class='vertical-center'><font style='color:orange'>$40<br>for<br>yourself</font></div></div><div class='cr'><div class='vertical-center'>$55<br>for<br>Fred T.</div></div><div class='respDivL'><div class='vertical-center'><font style='color:orange'>(E)</font></div></div><div class='respDivR'><div class='vertical-center'>(I)</div></div></div>","null","$40<br>for<br>yourself","$55<br>for<br>4","0","40","55","4",""
"html-keyboard-response","11","145336","0.0-6.0-1.2","5d13e3e6e51708001a43fa66","bdp_sd","Mon Mar 27 2023 13:01:14 GMT-0700 (Pacific Daylight Time)","280328","","null","","","","","FIX","","<div class='trialBorder'><div class='vertical-center'><img style='vertical-align:center; align:center' src=img/fixation3.jpg></div></div>","null","","","","","","",""
"html-keyboard-response","12","149256","0.0-6.0-2.2","5d13e3e6e51708001a43fa66","bdp_sd","Mon Mar 27 2023 13:01:14 GMT-0700 (Pacific Daylight Time)","280328","","3918","","","","","offer","","<div class='trialBorder'><div class='vertical-center'><img style='vertical-align:center; align:center' src=img/fixation3.jpg></div><div class='cl'><div class='vertical-center'>$54<br>for<br>yourself</div></div><div class='cr'><div class='vertical-center'>$60<br>for<br>Susan G.</div></div><div class='respDivL'><div class='vertical-center'>(E)</div></div><div class='respDivR'><div class='vertical-center'>(I)</div></div></div>","E","$54<br>for<br>yourself","$60<br>for<br>5","0","54","60","5","SELF"
"html-keyboard-response","13","149508","0.0-6.0-3.2","5d13e3e6e51708001a43fa66","bdp_sd","Mon Mar 27 2023 13:01:14 GMT-0700 (Pacific Daylight Time)","280328","","null","","","","","offerFB","","<div class='trialBorder'><div class='vertical-center'><img style='vertical-align:center; align:center' src=img/fixation3.jpg></div><div class='cl'><div class='vertical-center'><font style='color:orange'>$54<br>for<br>yourself</font></div></div><div class='cr'><div class='vertical-center'>$60<br>for<br>Susan G.</div></div><div class='respDivL'><div class='vertical-center'><font style='color:orange'>(E)</font></div></div><div class='respDivR'><div class='vertical-center'>(I)</div></div></div>","null","$54<br>for<br>yourself","$60<br>for<br>5","0","54","60","5",""
"html-keyboard-response","14","150010","0.0-6.0-1.3","5d13e3e6e51708001a43fa66","bdp_sd","Mon Mar 27 2023 13:01:14 GMT-0700 (Pacific Daylight Time)","280328","","null","","","","","FIX","","<div class='trialBorder'><div class='vertical-center'><img style='vertical-align:center; align:center' src=img/fixation3.jpg></div></div>","null","","","","","","",""
"html-keyboard-response","15","153023","0.0-6.0-2.3","5d13e3e6e51708001a43fa66","bdp_sd","Mon Mar 27 2023 13:01:14 GMT-0700 (Pacific Daylight Time)","280328","","3012","","","","","offer","","<div class='trialBorder'><div class='vertical-center'><img style='vertical-align:center; align:center' src=img/fixation3.jpg></div><div class='cl'><div class='vertical-center'>$28<br>for<br>yourself</div></div><div class='cr'><div class='vertical-center'>$30<br>for<br>Susan G.</div></div><div class='respDivL'><div class='vertical-center'>(E)</div></div><div class='respDivR'><div class='vertical-center'>(I)</div></div></div>","E","$28<br>for<br>yourself","$30<br>for<br>5","0","28","30","5","SELF"
"html-keyboard-response","16","153275","0.0-6.0-3.3","5d13e3e6e51708001a43fa66","bdp_sd","Mon Mar 27 2023 13:01:14 GMT-0700 (Pacific Daylight Time)","280328","","null","","","","","offerFB","","<div class='trialBorder'><div class='vertical-center'><img style='vertical-align:center; align:center' src=img/fixation3.jpg></div><div class='cl'><div class='vertical-center'><font style='color:orange'>$28<br>for<br>yourself</font></div></div><div class='cr'><div class='vertical-center'>$30<br>for<br>Susan G.</div></div><div class='respDivL'><div class='vertical-center'><font style='color:orange'>(E)</font></div></div><div class='respDivR'><div class='vertical-center'>(I)</div></div></div>","null","$28<br>for<br>yourself","$30<br>for<br>5","0","28","30","5",""
"html-keyboard-response","17","153776","0.0-6.0-1.4","5d13e3e6e51708001a43fa66","bdp_sd","Mon Mar 27 2023 13:01:14 GMT-0700 (Pacific Daylight Time)","280328","","null","","","","","FIX","","<div class='trialBorder'><div class='vertical-center'><img style='vertical-align:center; align:center' src=img/fixation3.jpg></div></div>","null","","","","","","",""
"html-keyboard-response","18","156984","0.0-6.0-2.4","5d13e3e6e51708001a43fa66","bdp_sd","Mon Mar 27 2023 13:01:14 GMT-0700 (Pacific Daylight Time)","280328","","3207","","","","","offer","","<div class='trialBorder'><div class='vertical-center'><img style='vertical-align:center; align:center' src=img/fixation3.jpg></div><div class='cl'><div class='vertical-center'>$49<br>for<br>yourself</div></div><div class='cr'><div class='vertical-center'>$60<br>for<br>Fred T.</div></div><div class='respDivL'><div class='vertical-center'>(E)</div></div><div class='respDivR'><div class='vertical-center'>(I)</div></div></div>","E","$49<br>for<br>yourself","$60<br>for<br>4","0","49","60","4","SELF"
"html-keyboard-response","19","157235","0.0-6.0-3.4","5d13e3e6e51708001a43fa66","bdp_sd","Mon Mar 27 2023 13:01:14 GMT-0700 (Pacific Daylight Time)","280328","","null","","","","","offerFB","","<div class='trialBorder'><div class='vertical-center'><img style='vertical-align:center; align:center' src=img/fixation3.jpg></div><div class='cl'><div class='vertical-center'><font style='color:orange'>$49<br>for<br>yourself</font></div></div><div class='cr'><div class='vertical-center'>$60<br>for<br>Fred T.</div></div><div class='respDivL'><div class='vertical-center'><font style='color:orange'>(E)</font></div></div><div class='respDivR'><div class='vertical-center'>(I)</div></div></div>","null","$49<br>for<br>yourself","$60<br>for<br>4","0","49","60","4",""
"html-keyboard-response","20","157737","0.0-6.0-1.5","5d13e3e6e51708001a43fa66","bdp_sd","Mon Mar 27 2023 13:01:14 GMT-0700 (Pacific Daylight Time)","280328","","null","","","","","FIX","","<div class='trialBorder'><div class='vertical-center'><img style='vertical-align:center; align:center' src=img/fixation3.jpg></div></div>","null","","","","","","",""
"html-keyboard-response","21","160911","0.0-6.0-2.5","5d13e3e6e51708001a43fa66","bdp_sd","Mon Mar 27 2023 13:01:14 GMT-0700 (Pacific Daylight Time)","280328","","3174","","","","","offer","","<div class='trialBorder'><div class='vertical-center'><img style='vertical-align:center; align:center' src=img/fixation3.jpg></div><div class='cl'><div class='vertical-center'>$75<br>for<br>Susan G.</div></div><div class='cr'><div class='vertical-center'>$67<br>for<br>yourself</div></div><div class='respDivL'><div class='vertical-center'>(E)</div></div><div class='respDivR'><div class='vertical-center'>(I)</div></div></div>","I","$67<br>for<br>yourself","$75<br>for<br>5","1","67","75","5","SELF"
"html-keyboard-response","22","161163","0.0-6.0-3.5","5d13e3e6e51708001a43fa66","bdp_sd","Mon Mar 27 2023 13:01:14 GMT-0700 (Pacific Daylight Time)","280328","","null","","","","","offerFB","","<div class='trialBorder'><div class='vertical-center'><img style='vertical-align:center; align:center' src=img/fixation3.jpg></div><div class='cl'><div class='vertical-center'>$75<br>for<br>Susan G.</div></div><div class='cr'><div class='vertical-center'><font style='color:orange'>$67<br>for<br>yourself</font></div></div><div class='respDivL'><div class='vertical-center'>(E)</div></div><div class='respDivR'><div class='vertical-center'><font style='color:orange'>(I)</font></div></div></div>","null","$67<br>for<br>yourself","$75<br>for<br>5","1","67","75","5",""
"html-keyboard-response","23","161664","0.0-6.0-1.6","5d13e3e6e51708001a43fa66","bdp_sd","Mon Mar 27 2023 13:01:14 GMT-0700 (Pacific Daylight Time)","280328","","null","","","","","FIX","","<div class='trialBorder'><div class='vertical-center'><img style='vertical-align:center; align:center' src=img/fixation3.jpg></div></div>","null","","","","","","",""
"html-keyboard-response","24","163648","0.0-6.0-2.6","5d13e3e6e51708001a43fa66","bdp_sd","Mon Mar 27 2023 13:01:14 GMT-0700 (Pacific Daylight Time)","280328","","1982","","","","","offer","","<div class='trialBorder'><div class='vertical-center'><img style='vertical-align:center; align:center' src=img/fixation3.jpg></div><div class='cl'><div class='vertical-center'>$85<br>for<br>Susan G.</div></div><div class='cr'><div class='vertical-center'>$80<br>for<br>yourself</div></div><div class='respDivL'><div class='vertical-center'>(E)</div></div><div class='respDivR'><div class='vertical-center'>(I)</div></div></div>","I","$80<br>for<br>yourself","$85<br>for<br>5","1","80","85","5","SELF"
"html-keyboard-response","25","163900","0.0-6.0-3.6","5d13e3e6e51708001a43fa66","bdp_sd","Mon Mar 27 2023 13:01:14 GMT-0700 (Pacific Daylight Time)","280328","","null","","","","","offerFB","","<div class='trialBorder'><div class='vertical-center'><img style='vertical-align:center; align:center' src=img/fixation3.jpg></div><div class='cl'><div class='vertical-center'>$85<br>for<br>Susan G.</div></div><div class='cr'><div class='vertical-center'><font style='color:orange'>$80<br>for<br>yourself</font></div></div><div class='respDivL'><div class='vertical-center'>(E)</div></div><div class='respDivR'><div class='vertical-center'><font style='color:orange'>(I)</font></div></div></div>","null","$80<br>for<br>yourself","$85<br>for<br>5","1","80","85","5",""
"html-keyboard-response","26","164401","0.0-6.0-1.7","5d13e3e6e51708001a43fa66","bdp_sd","Mon Mar 27 2023 13:01:14 GMT-0700 (Pacific Daylight Time)","280328","","null","","","","","FIX","","<div class='trialBorder'><div class='vertical-center'><img style='vertical-align:center; align:center' src=img/fixation3.jpg></div></div>","null","","","","","","",""
"html-keyboard-response","27","166912","0.0-6.0-2.7","5d13e3e6e51708001a43fa66","bdp_sd","Mon Mar 27 2023 13:01:14 GMT-0700 (Pacific Daylight Time)","280328","","2509","","","","","offer","","<div class='trialBorder'><div class='vertical-center'><img style='vertical-align:center; align:center' src=img/fixation3.jpg></div><div class='cl'><div class='vertical-center'>$25<br>for<br>yourself</div></div><div class='cr'><div class='vertical-center'>$60<br>for<br>Shaun J.</div></div><div class='respDivL'><div class='vertical-center'>(E)</div></div><div class='respDivR'><div class='vertical-center'>(I)</div></div></div>","I","$25<br>for<br>yourself","$60<br>for<br>3","0","25","60","3","OTHER"
"html-keyboard-response","28","167165","0.0-6.0-3.7","5d13e3e6e51708001a43fa66","bdp_sd","Mon Mar 27 2023 13:01:14 GMT-0700 (Pacific Daylight Time)","280328","","null","","","","","offerFB","","<div class='trialBorder'><div class='vertical-center'><img style='vertical-align:center; align:center' src=img/fixation3.jpg></div><div class='cl'><div class='vertical-center'>$25<br>for<br>yourself</div></div><div class='cr'><div class='vertical-center'><font style='color:orange'>$60<br>for<br>Shaun J.</font></div></div><div class='respDivL'><div class='vertical-center'>(E)</div></div><div class='respDivR'><div class='vertical-center'><font style='color:orange'>(I)</font></div></div></div>","null","$25<br>for<br>yourself","$60<br>for<br>3","0","25","60","3",""
"html-keyboard-response","29","167667","0.0-6.0-1.8","5d13e3e6e51708001a43fa66","bdp_sd","Mon Mar 27 2023 13:01:14 GMT-0700 (Pacific Daylight Time)","280328","","null","","","","","FIX","","<div class='trialBorder'><div class='vertical-center'><img style='vertical-align:center; align:center' src=img/fixation3.jpg></div></div>","null","","","","","","",""
"html-keyboard-response","30","171216","0.0-6.0-2.8","5d13e3e6e51708001a43fa66","bdp_sd","Mon Mar 27 2023 13:01:14 GMT-0700 (Pacific Daylight Time)","280328","","3549","","","","","offer","","<div class='trialBorder'><div class='vertical-center'><img style='vertical-align:center; align:center' src=img/fixation3.jpg></div><div class='cl'><div class='vertical-center'>$35<br>for<br>Rob G.</div></div><div class='cr'><div class='vertical-center'>$15<br>for<br>yourself</div></div><div class='respDivL'><div class='vertical-center'>(E)</div></div><div class='respDivR'><div class='vertical-center'>(I)</div></div></div>","I","$15<br>for<br>yourself","$35<br>for<br>2","1","15","35","2","SELF"
"html-keyboard-response","31","171469","0.0-6.0-3.8","5d13e3e6e51708001a43fa66","bdp_sd","Mon Mar 27 2023 13:01:14 GMT-0700 (Pacific Daylight Time)","280328","","null","","","","","offerFB","","<div class='trialBorder'><div class='vertical-center'><img style='vertical-align:center; align:center' src=img/fixation3.jpg></div><div class='cl'><div class='vertical-center'>$35<br>for<br>Rob G.</div></div><div class='cr'><div class='vertical-center'><font style='color:orange'>$15<br>for<br>yourself</font></div></div><div class='respDivL'><div class='vertical-center'>(E)</div></div><div class='respDivR'><div class='vertical-center'><font style='color:orange'>(I)</font></div></div></div>","null","$15<br>for<br>yourself","$35<br>for<br>2","1","15","35","2",""
"html-keyboard-response","32","171971","0.0-6.0-1.9","5d13e3e6e51708001a43fa66","bdp_sd","Mon Mar 27 2023 13:01:14 GMT-0700 (Pacific Daylight Time)","280328","","null","","","","","FIX","","<div class='trialBorder'><div class='vertical-center'><img style='vertical-align:center; align:center' src=img/fixation3.jpg></div></div>","null","","","","","","",""
"html-keyboard-response","33","173632","0.0-6.0-2.9","5d13e3e6e51708001a43fa66","bdp_sd","Mon Mar 27 2023 13:01:14 GMT-0700 (Pacific Daylight Time)","280328","","1659","","","","","offer","","<div class='trialBorder'><div class='vertical-center'><img style='vertical-align:center; align:center' src=img/fixation3.jpg></div><div class='cl'><div class='vertical-center'>$55<br>for<br>Susan G.</div></div><div class='cr'><div class='vertical-center'>$54<br>for<br>yourself</div></div><div class='respDivL'><div class='vertical-center'>(E)</div></div><div class='respDivR'><div class='vertical-center'>(I)</div></div></div>","I","$54<br>for<br>yourself","$55<br>for<br>5","1","54","55","5","SELF"
"html-keyboard-response","34","173884","0.0-6.0-3.9","5d13e3e6e51708001a43fa66","bdp_sd","Mon Mar 27 2023 13:01:14 GMT-0700 (Pacific Daylight Time)","280328","","null","","","","","offerFB","","<div class='trialBorder'><div class='vertical-center'><img style='vertical-align:center; align:center' src=img/fixation3.jpg></div><div class='cl'><div class='vertical-center'>$55<br>for<br>Susan G.</div></div><div class='cr'><div class='vertical-center'><font style='color:orange'>$54<br>for<br>yourself</font></div></div><div class='respDivL'><div class='vertical-center'>(E)</div></div><div class='respDivR'><div class='vertical-center'><font style='color:orange'>(I)</font></div></div></div>","null","$54<br>for<br>yourself","$55<br>for<br>5","1","54","55","5",""
"html-keyboard-response","35","174385","0.0-6.0-1.10","5d13e3e6e51708001a43fa66","bdp_sd","Mon Mar 27 2023 13:01:14 GMT-0700 (Pacific Daylight Time)","280328","","null","","","","","FIX","","<div class='trialBorder'><div class='vertical-center'><img style='vertical-align:center; align:center' src=img/fixation3.jpg></div></div>","null","","","","","","",""
"html-keyboard-response","36","176112","0.0-6.0-2.10","5d13e3e6e51708001a43fa66","bdp_sd","Mon Mar 27 2023 13:01:14 GMT-0700 (Pacific Daylight Time)","280328","","1725","","","","","offer","","<div class='trialBorder'><div class='vertical-center'><img style='vertical-align:center; align:center' src=img/fixation3.jpg></div><div class='cl'><div class='vertical-center'>$47<br>for<br>yourself</div></div><div class='cr'><div class='vertical-center'>$50<br>for<br>Susan G.</div></div><div class='respDivL'><div class='vertical-center'>(E)</div></div><div class='respDivR'><div class='vertical-center'>(I)</div></div></div>","E","$47<br>for<br>yourself","$50<br>for<br>5","0","47","50","5","SELF"
"html-keyboard-response","37","176363","0.0-6.0-3.10","5d13e3e6e51708001a43fa66","bdp_sd","Mon Mar 27 2023 13:01:14 GMT-0700 (Pacific Daylight Time)","280328","","null","","","","","offerFB","","<div class='trialBorder'><div class='vertical-center'><img style='vertical-align:center; align:center' src=img/fixation3.jpg></div><div class='cl'><div class='vertical-center'><font style='color:orange'>$47<br>for<br>yourself</font></div></div><div class='cr'><div class='vertical-center'>$50<br>for<br>Susan G.</div></div><div class='respDivL'><div class='vertical-center'><font style='color:orange'>(E)</font></div></div><div class='respDivR'><div class='vertical-center'>(I)</div></div></div>","null","$47<br>for<br>yourself","$50<br>for<br>5","0","47","50","5",""
"html-keyboard-response","38","176864","0.0-6.0-1.11","5d13e3e6e51708001a43fa66","bdp_sd","Mon Mar 27 2023 13:01:14 GMT-0700 (Pacific Daylight Time)","280328","","null","","","","","FIX","","<div class='trialBorder'><div class='vertical-center'><img style='vertical-align:center; align:center' src=img/fixation3.jpg></div></div>","null","","","","","","",""
"html-keyboard-response","39","178464","0.0-6.0-2.11","5d13e3e6e51708001a43fa66","bdp_sd","Mon Mar 27 2023 13:01:14 GMT-0700 (Pacific Daylight Time)","280328","","1598","","","","","offer","","<div class='trialBorder'><div class='vertical-center'><img style='vertical-align:center; align:center' src=img/fixation3.jpg></div><div class='cl'><div class='vertical-center'>$75<br>for<br>Fred T.</div></div><div class='cr'><div class='vertical-center'>$55<br>for<br>yourself</div></div><div class='respDivL'><div class='vertical-center'>(E)</div></div><div class='respDivR'><div class='vertical-center'>(I)</div></div></div>","I","$55<br>for<br>yourself","$75<br>for<br>4","1","55","75","4","SELF"
"html-keyboard-response","40","178715","0.0-6.0-3.11","5d13e3e6e51708001a43fa66","bdp_sd","Mon Mar 27 2023 13:01:14 GMT-0700 (Pacific Daylight Time)","280328","","null","","","","","offerFB","","<div class='trialBorder'><div class='vertical-center'><img style='vertical-align:center; align:center' src=img/fixation3.jpg></div><div class='cl'><div class='vertical-center'>$75<br>for<br>Fred T.</div></div><div class='cr'><div class='vertical-center'><font style='color:orange'>$55<br>for<br>yourself</font></div></div><div class='respDivL'><div class='vertical-center'>(E)</div></div><div class='respDivR'><div class='vertical-center'><font style='color:orange'>(I)</font></div></div></div>","null","$55<br>for<br>yourself","$75<br>for<br>4","1","55","75","4",""
"html-keyboard-response","41","179216","0.0-6.0-1.12","5d13e3e6e51708001a43fa66","bdp_sd","Mon Mar 27 2023 13:01:14 GMT-0700 (Pacific Daylight Time)","280328","","null","","","","","FIX","","<div class='trialBorder'><div class='vertical-center'><img style='vertical-align:center; align:center' src=img/fixation3.jpg></div></div>","null","","","","","","",""
"html-keyboard-response","42","180824","0.0-6.0-2.12","5d13e3e6e51708001a43fa66","bdp_sd","Mon Mar 27 2023 13:01:14 GMT-0700 (Pacific Daylight Time)","280328","","1608","","","","","offer","","<div class='trialBorder'><div class='vertical-center'><img style='vertical-align:center; align:center' src=img/fixation3.jpg></div><div class='cl'><div class='vertical-center'>$30<br>for<br>Rob G.</div></div><div class='cr'><div class='vertical-center'>$11<br>for<br>yourself</div></div><div class='respDivL'><div class='vertical-center'>(E)</div></div><div class='respDivR'><div class='vertical-center'>(I)</div></div></div>","I","$11<br>for<br>yourself","$30<br>for<br>2","1","11","30","2","SELF"
"html-keyboard-response","43","181076","0.0-6.0-3.12","5d13e3e6e51708001a43fa66","bdp_sd","Mon Mar 27 2023 13:01:14 GMT-0700 (Pacific Daylight Time)","280328","","null","","","","","offerFB","","<div class='trialBorder'><div class='vertical-center'><img style='vertical-align:center; align:center' src=img/fixation3.jpg></div><div class='cl'><div class='vertical-center'>$30<br>for<br>Rob G.</div></div><div class='cr'><div class='vertical-center'><font style='color:orange'>$11<br>for<br>yourself</font></div></div><div class='respDivL'><div class='vertical-center'>(E)</div></div><div class='respDivR'><div class='vertical-center'><font style='color:orange'>(I)</font></div></div></div>","null","$11<br>for<br>yourself","$30<br>for<br>2","1","11","30","2",""
"html-keyboard-response","44","181579","0.0-6.0-1.13","5d13e3e6e51708001a43fa66","bdp_sd","Mon Mar 27 2023 13:01:14 GMT-0700 (Pacific Daylight Time)","280328","","null","","","","","FIX","","<div class='trialBorder'><div class='vertical-center'><img style='vertical-align:center; align:center' src=img/fixation3.jpg></div></div>","null","","","","","","",""
"html-keyboard-response","45","184067","0.0-6.0-2.13","5d13e3e6e51708001a43fa66","bdp_sd","Mon Mar 27 2023 13:01:14 GMT-0700 (Pacific Daylight Time)","280328","","2488","","","","","offer","","<div class='trialBorder'><div class='vertical-center'><img style='vertical-align:center; align:center' src=img/fixation3.jpg></div><div class='cl'><div class='vertical-center'>$34<br>for<br>yourself</div></div><div class='cr'><div class='vertical-center'>$35<br>for<br>Susan G.</div></div><div class='respDivL'><div class='vertical-center'>(E)</div></div><div class='respDivR'><div class='vertical-center'>(I)</div></div></div>","E","$34<br>for<br>yourself","$35<br>for<br>5","0","34","35","5","SELF"
"html-keyboard-response","46","184319","0.0-6.0-3.13","5d13e3e6e51708001a43fa66","bdp_sd","Mon Mar 27 2023 13:01:14 GMT-0700 (Pacific Daylight Time)","280328","","null","","","","","offerFB","","<div class='trialBorder'><div class='vertical-center'><img style='vertical-align:center; align:center' src=img/fixation3.jpg></div><div class='cl'><div class='vertical-center'><font style='color:orange'>$34<br>for<br>yourself</font></div></div><div class='cr'><div class='vertical-center'>$35<br>for<br>Susan G.</div></div><div class='respDivL'><div class='vertical-center'><font style='color:orange'>(E)</font></div></div><div class='respDivR'><div class='vertical-center'>(I)</div></div></div>","null","$34<br>for<br>yourself","$35<br>for<br>5","0","34","35","5",""
"html-keyboard-response","47","184820","0.0-6.0-1.14","5d13e3e6e51708001a43fa66","bdp_sd","Mon Mar 27 2023 13:01:14 GMT-0700 (Pacific Daylight Time)","280328","","null","","","","","FIX","","<div class='trialBorder'><div class='vertical-center'><img style='vertical-align:center; align:center' src=img/fixation3.jpg></div></div>","null","","","","","","",""
"html-keyboard-response","48","186976","0.0-6.0-2.14","5d13e3e6e51708001a43fa66","bdp_sd","Mon Mar 27 2023 13:01:14 GMT-0700 (Pacific Daylight Time)","280328","","2155","","","","","offer","","<div class='trialBorder'><div class='vertical-center'><img style='vertical-align:center; align:center' src=img/fixation3.jpg></div><div class='cl'><div class='vertical-center'>$20<br>for<br>yourself</div></div><div class='cr'><div class='vertical-center'>$55<br>for<br>Jacob M.</div></div><div class='respDivL'><div class='vertical-center'>(E)</div></div><div class='respDivR'><div class='vertical-center'>(I)</div></div></div>","I","$20<br>for<br>yourself","$55<br>for<br>1","0","20","55","1","OTHER"
"html-keyboard-response","49","187228","0.0-6.0-3.14","5d13e3e6e51708001a43fa66","bdp_sd","Mon Mar 27 2023 13:01:14 GMT-0700 (Pacific Daylight Time)","280328","","null","","","","","offerFB","","<div class='trialBorder'><div class='vertical-center'><img style='vertical-align:center; align:center' src=img/fixation3.jpg></div><div class='cl'><div class='vertical-center'>$20<br>for<br>yourself</div></div><div class='cr'><div class='vertical-center'><font style='color:orange'>$55<br>for<br>Jacob M.</font></div></div><div class='respDivL'><div class='vertical-center'>(E)</div></div><div class='respDivR'><div class='vertical-center'><font style='color:orange'>(I)</font></div></div></div>","null","$20<br>for<br>yourself","$55<br>for<br>1","0","20","55","1",""
"html-keyboard-response","50","187729","0.0-6.0-1.15","5d13e3e6e51708001a43fa66","bdp_sd","Mon Mar 27 2023 13:01:14 GMT-0700 (Pacific Daylight Time)","280328","","null","","","","","FIX","","<div class='trialBorder'><div class='vertical-center'><img style='vertical-align:center; align:center' src=img/fixation3.jpg></div></div>","null","","","","","","",""
"html-keyboard-response","51","192232","0.0-6.0-2.15","5d13e3e6e51708001a43fa66","bdp_sd","Mon Mar 27 2023 13:01:14 GMT-0700 (Pacific Daylight Time)","280328","","4502","","","","","offer","","<div class='trialBorder'><div class='vertical-center'><img style='vertical-align:center; align:center' src=img/fixation3.jpg></div><div class='cl'><div class='vertical-center'>$19<br>for<br>yourself</div></div><div class='cr'><div class='vertical-center'>$25<br>for<br>Fred T.</div></div><div class='respDivL'><div class='vertical-center'>(E)</div></div><div class='respDivR'><div class='vertical-center'>(I)</div></div></div>","E","$19<br>for<br>yourself","$25<br>for<br>4","0","19","25","4","SELF"
"html-keyboard-response","52","192483","0.0-6.0-3.15","5d13e3e6e51708001a43fa66","bdp_sd","Mon Mar 27 2023 13:01:14 GMT-0700 (Pacific Daylight Time)","280328","","null","","","","","offerFB","","<div class='trialBorder'><div class='vertical-center'><img style='vertical-align:center; align:center' src=img/fixation3.jpg></div><div class='cl'><div class='vertical-center'><font style='color:orange'>$19<br>for<br>yourself</font></div></div><div class='cr'><div class='vertical-center'>$25<br>for<br>Fred T.</div></div><div class='respDivL'><div class='vertical-center'><font style='color:orange'>(E)</font></div></div><div class='respDivR'><div class='vertical-center'>(I)</div></div></div>","null","$19<br>for<br>yourself","$25<br>for<br>4","0","19","25","4",""
"html-keyboard-response","53","192985","0.0-6.0-1.16","5d13e3e6e51708001a43fa66","bdp_sd","Mon Mar 27 2023 13:01:14 GMT-0700 (Pacific Daylight Time)","280328","","null","","","","","FIX","","<div class='trialBorder'><div class='vertical-center'><img style='vertical-align:center; align:center' src=img/fixation3.jpg></div></div>","null","","","","","","",""
"html-keyboard-response","54","195922","0.0-6.0-2.16","5d13e3e6e51708001a43fa66","bdp_sd","Mon Mar 27 2023 13:01:14 GMT-0700 (Pacific Daylight Time)","280328","","2936","","","","","offer","","<div class='trialBorder'><div class='vertical-center'><img style='vertical-align:center; align:center' src=img/fixation3.jpg></div><div class='cl'><div class='vertical-center'>$25<br>for<br>yourself</div></div><div class='cr'><div class='vertical-center'>$30<br>for<br>Fred T.</div></div><div class='respDivL'><div class='vertical-center'>(E)</div></div><div class='respDivR'><div class='vertical-center'>(I)</div></div></div>","E","$25<br>for<br>yourself","$30<br>for<br>4","0","25","30","4","SELF"
"html-keyboard-response","55","196174","0.0-6.0-3.16","5d13e3e6e51708001a43fa66","bdp_sd","Mon Mar 27 2023 13:01:14 GMT-0700 (Pacific Daylight Time)","280328","","null","","","","","offerFB","","<div class='trialBorder'><div class='vertical-center'><img style='vertical-align:center; align:center' src=img/fixation3.jpg></div><div class='cl'><div class='vertical-center'><font style='color:orange'>$25<br>for<br>yourself</font></div></div><div class='cr'><div class='vertical-center'>$30<br>for<br>Fred T.</div></div><div class='respDivL'><div class='vertical-center'><font style='color:orange'>(E)</font></div></div><div class='respDivR'><div class='vertical-center'>(I)</div></div></div>","null","$25<br>for<br>yourself","$30<br>for<br>4","0","25","30","4",""
"html-keyboard-response","56","196675","0.0-6.0-1.17","5d13e3e6e51708001a43fa66","bdp_sd","Mon Mar 27 2023 13:01:14 GMT-0700 (Pacific Daylight Time)","280328","","null","","","","","FIX","","<div class='trialBorder'><div class='vertical-center'><img style='vertical-align:center; align:center' src=img/fixation3.jpg></div></div>","null","","","","","","",""
"html-keyboard-response","57","224633","0.0-6.0-2.17","5d13e3e6e51708001a43fa66","bdp_sd","Mon Mar 27 2023 13:01:14 GMT-0700 (Pacific Daylight Time)","280328","","27957","","","","","offer","","<div class='trialBorder'><div class='vertical-center'><img style='vertical-align:center; align:center' src=img/fixation3.jpg></div><div class='cl'><div class='vertical-center'>$85<br>for<br>Fred T.</div></div><div class='cr'><div class='vertical-center'>$69<br>for<br>yourself</div></div><div class='respDivL'><div class='vertical-center'>(E)</div></div><div class='respDivR'><div class='vertical-center'>(I)</div></div></div>","I","$69<br>for<br>yourself","$85<br>for<br>4","1","69","85","4","SELF"
"html-keyboard-response","58","224885","0.0-6.0-3.17","5d13e3e6e51708001a43fa66","bdp_sd","Mon Mar 27 2023 13:01:14 GMT-0700 (Pacific Daylight Time)","280328","","null","","","","","offerFB","","<div class='trialBorder'><div class='vertical-center'><img style='vertical-align:center; align:center' src=img/fixation3.jpg></div><div class='cl'><div class='vertical-center'>$85<br>for<br>Fred T.</div></div><div class='cr'><div class='vertical-center'><font style='color:orange'>$69<br>for<br>yourself</font></div></div><div class='respDivL'><div class='vertical-center'>(E)</div></div><div class='respDivR'><div class='vertical-center'><font style='color:orange'>(I)</font></div></div></div>","null","$69<br>for<br>yourself","$85<br>for<br>4","1","69","85","4",""
"html-keyboard-response","59","225386","0.0-6.0-1.18","5d13e3e6e51708001a43fa66","bdp_sd","Mon Mar 27 2023 13:01:14 GMT-0700 (Pacific Daylight Time)","280328","","null","","","","","FIX","","<div class='trialBorder'><div class='vertical-center'><img style='vertical-align:center; align:center' src=img/fixation3.jpg></div></div>","null","","","","","","",""
"html-keyboard-response","60","240171","0.0-6.0-2.18","5d13e3e6e51708001a43fa66","bdp_sd","Mon Mar 27 2023 13:01:14 GMT-0700 (Pacific Daylight Time)","280328","","14783","","","","","offer","","<div class='trialBorder'><div class='vertical-center'><img style='vertical-align:center; align:center' src=img/fixation3.jpg></div><div class='cl'><div class='vertical-center'>$22<br>for<br>yourself</div></div><div class='cr'><div class='vertical-center'>$25<br>for<br>Susan G.</div></div><div class='respDivL'><div class='vertical-center'>(E)</div></div><div class='respDivR'><div class='vertical-center'>(I)</div></div></div>","E","$22<br>for<br>yourself","$25<br>for<br>5","0","22","25","5","SELF"
"html-keyboard-response","61","240423","0.0-6.0-3.18","5d13e3e6e51708001a43fa66","bdp_sd","Mon Mar 27 2023 13:01:14 GMT-0700 (Pacific Daylight Time)","280328","","null","","","","","offerFB","","<div class='trialBorder'><div class='vertical-center'><img style='vertical-align:center; align:center' src=img/fixation3.jpg></div><div class='cl'><div class='vertical-center'><font style='color:orange'>$22<br>for<br>yourself</font></div></div><div class='cr'><div class='vertical-center'>$25<br>for<br>Susan G.</div></div><div class='respDivL'><div class='vertical-center'><font style='color:orange'>(E)</font></div></div><div class='respDivR'><div class='vertical-center'>(I)</div></div></div>","null","$22<br>for<br>yourself","$25<br>for<br>5","0","22","25","5",""
"html-keyboard-response","62","240924","0.0-6.0-1.19","5d13e3e6e51708001a43fa66","bdp_sd","Mon Mar 27 2023 13:01:14 GMT-0700 (Pacific Daylight Time)","280328","","null","","","","","FIX","","<div class='trialBorder'><div class='vertical-center'><img style='vertical-align:center; align:center' src=img/fixation3.jpg></div></div>","null","","","","","","",""
"html-keyboard-response","63","242633","0.0-6.0-2.19","5d13e3e6e51708001a43fa66","bdp_sd","Mon Mar 27 2023 13:01:14 GMT-0700 (Pacific Daylight Time)","280328","","1708","","","","","offer","","<div class='trialBorder'><div class='vertical-center'><img style='vertical-align:center; align:center' src=img/fixation3.jpg></div><div class='cl'><div class='vertical-center'>$50<br>for<br>Fred T.</div></div><div class='cr'><div class='vertical-center'>$34<br>for<br>yourself</div></div><div class='respDivL'><div class='vertical-center'>(E)</div></div><div class='respDivR'><div class='vertical-center'>(I)</div></div></div>","I","$34<br>for<br>yourself","$50<br>for<br>4","1","34","50","4","SELF"
"html-keyboard-response","64","242885","0.0-6.0-3.19","5d13e3e6e51708001a43fa66","bdp_sd","Mon Mar 27 2023 13:01:14 GMT-0700 (Pacific Daylight Time)","280328","","null","","","","","offerFB","","<div class='trialBorder'><div class='vertical-center'><img style='vertical-align:center; align:center' src=img/fixation3.jpg></div><div class='cl'><div class='vertical-center'>$50<br>for<br>Fred T.</div></div><div class='cr'><div class='vertical-center'><font style='color:orange'>$34<br>for<br>yourself</font></div></div><div class='respDivL'><div class='vertical-center'>(E)</div></div><div class='respDivR'><div class='vertical-center'><font style='color:orange'>(I)</font></div></div></div>","null","$34<br>for<br>yourself","$50<br>for<br>4","1","34","50","4",""
"html-keyboard-response","65","243386","0.0-6.0-1.20","5d13e3e6e51708001a43fa66","bdp_sd","Mon Mar 27 2023 13:01:14 GMT-0700 (Pacific Daylight Time)","280328","","null","","","","","FIX","","<div class='trialBorder'><div class='vertical-center'><img style='vertical-align:center; align:center' src=img/fixation3.jpg></div></div>","null","","","","","","",""
"html-keyboard-response","66","259571","0.0-6.0-2.20","5d13e3e6e51708001a43fa66","bdp_sd","Mon Mar 27 2023 13:01:14 GMT-0700 (Pacific Daylight Time)","280328","","16183","","","","","offer","","<div class='trialBorder'><div class='vertical-center'><img style='vertical-align:center; align:center' src=img/fixation3.jpg></div><div class='cl'><div class='vertical-center'>$80<br>for<br>Susan G.</div></div><div class='cr'><div class='vertical-center'>$78<br>for<br>yourself</div></div><div class='respDivL'><div class='vertical-center'>(E)</div></div><div class='respDivR'><div class='vertical-center'>(I)</div></div></div>","I","$78<br>for<br>yourself","$80<br>for<br>5","1","78","80","5","SELF"
"html-keyboard-response","67","259824","0.0-6.0-3.20","5d13e3e6e51708001a43fa66","bdp_sd","Mon Mar 27 2023 13:01:14 GMT-0700 (Pacific Daylight Time)","280328","","null","","","","","offerFB","","<div class='trialBorder'><div class='vertical-center'><img style='vertical-align:center; align:center' src=img/fixation3.jpg></div><div class='cl'><div class='vertical-center'>$80<br>for<br>Susan G.</div></div><div class='cr'><div class='vertical-center'><font style='color:orange'>$78<br>for<br>yourself</font></div></div><div class='respDivL'><div class='vertical-center'>(E)</div></div><div class='respDivR'><div class='vertical-center'><font style='color:orange'>(I)</font></div></div></div>","null","$78<br>for<br>yourself","$80<br>for<br>5","1","78","80","5",""
"html-keyboard-response","68","260326","0.0-6.0-1.21","5d13e3e6e51708001a43fa66","bdp_sd","Mon Mar 27 2023 13:01:14 GMT-0700 (Pacific Daylight Time)","280328","","null","","","","","FIX","","<div class='trialBorder'><div class='vertical-center'><img style='vertical-align:center; align:center' src=img/fixation3.jpg></div></div>","null","","","","","","",""
"html-keyboard-response","69","266235","0.0-6.0-2.21","5d13e3e6e51708001a43fa66","bdp_sd","Mon Mar 27 2023 13:01:14 GMT-0700 (Pacific Daylight Time)","280328","","5909","","","","","offer","","<div class='trialBorder'><div class='vertical-center'><img style='vertical-align:center; align:center' src=img/fixation3.jpg></div><div class='cl'><div class='vertical-center'>$35<br>for<br>Shaun J.</div></div><div class='cr'><div class='vertical-center'>$24<br>for<br>yourself</div></div><div class='respDivL'><div class='vertical-center'>(E)</div></div><div class='respDivR'><div class='vertical-center'>(I)</div></div></div>","E","$24<br>for<br>yourself","$35<br>for<br>3","1","24","35","3","OTHER"
"html-keyboard-response","70","266487","0.0-6.0-3.21","5d13e3e6e51708001a43fa66","bdp_sd","Mon Mar 27 2023 13:01:14 GMT-0700 (Pacific Daylight Time)","280328","","null","","","","","offerFB","","<div class='trialBorder'><div class='vertical-center'><img style='vertical-align:center; align:center' src=img/fixation3.jpg></div><div class='cl'><div class='vertical-center'><font style='color:orange'>$35<br>for<br>Shaun J.</font></div></div><div class='cr'><div class='vertical-center'>$24<br>for<br>yourself</div></div><div class='respDivL'><div class='vertical-center'><font style='color:orange'>(E)</font></div></div><div class='respDivR'><div class='vertical-center'>(I)</div></div></div>","null","$24<br>for<br>yourself","$35<br>for<br>3","1","24","35","3",""
"html-keyboard-response","71","266988","0.0-6.0-1.22","5d13e3e6e51708001a43fa66","bdp_sd","Mon Mar 27 2023 13:01:14 GMT-0700 (Pacific Daylight Time)","280328","","null","","","","","FIX","","<div class='trialBorder'><div class='vertical-center'><img style='vertical-align:center; align:center' src=img/fixation3.jpg></div></div>","null","","","","","","",""
"html-keyboard-response","72","269419","0.0-6.0-2.22","5d13e3e6e51708001a43fa66","bdp_sd","Mon Mar 27 2023 13:01:14 GMT-0700 (Pacific Daylight Time)","280328","","2429","","","","","offer","","<div class='trialBorder'><div class='vertical-center'><img style='vertical-align:center; align:center' src=img/fixation3.jpg></div><div class='cl'><div class='vertical-center'>$27<br>for<br>yourself</div></div><div class='cr'><div class='vertical-center'>$50<br>for<br>Shaun J.</div></div><div class='respDivL'><div class='vertical-center'>(E)</div></div><div class='respDivR'><div class='vertical-center'>(I)</div></div></div>","I","$27<br>for<br>yourself","$50<br>for<br>3","0","27","50","3","OTHER"
"html-keyboard-response","73","269670","0.0-6.0-3.22","5d13e3e6e51708001a43fa66","bdp_sd","Mon Mar 27 2023 13:01:14 GMT-0700 (Pacific Daylight Time)","280328","","null","","","","","offerFB","","<div class='trialBorder'><div class='vertical-center'><img style='vertical-align:center; align:center' src=img/fixation3.jpg></div><div class='cl'><div class='vertical-center'>$27<br>for<br>yourself</div></div><div class='cr'><div class='vertical-center'><font style='color:orange'>$50<br>for<br>Shaun J.</font></div></div><div class='respDivL'><div class='vertical-center'>(E)</div></div><div class='respDivR'><div class='vertical-center'><font style='color:orange'>(I)</font></div></div></div>","null","$27<br>for<br>yourself","$50<br>for<br>3","0","27","50","3",""
"html-keyboard-response","74","270172","0.0-6.0-1.23","5d13e3e6e51708001a43fa66","bdp_sd","Mon Mar 27 2023 13:01:14 GMT-0700 (Pacific Daylight Time)","280328","","null","","","","","FIX","","<div class='trialBorder'><div class='vertical-center'><img style='vertical-align:center; align:center' src=img/fixation3.jpg></div></div>","null","","","","","","",""
"html-keyboard-response","75","271691","0.0-6.0-2.23","5d13e3e6e51708001a43fa66","bdp_sd","Mon Mar 27 2023 13:01:14 GMT-0700 (Pacific Daylight Time)","280328","","1519","","","","","offer","","<div class='trialBorder'><div class='vertical-center'><img style='vertical-align:center; align:center' src=img/fixation3.jpg></div><div class='cl'><div class='vertical-center'>$14<br>for<br>yourself</div></div><div class='cr'><div class='vertical-center'>$25<br>for<br>Shaun J.</div></div><div class='respDivL'><div class='vertical-center'>(E)</div></div><div class='respDivR'><div class='vertical-center'>(I)</div></div></div>","I","$14<br>for<br>yourself","$25<br>for<br>3","0","14","25","3","OTHER"
"html-keyboard-response","76","271943","0.0-6.0-3.23","5d13e3e6e51708001a43fa66","bdp_sd","Mon Mar 27 2023 13:01:14 GMT-0700 (Pacific Daylight Time)","280328","","null","","","","","offerFB","","<div class='trialBorder'><div class='vertical-center'><img style='vertical-align:center; align:center' src=img/fixation3.jpg></div><div class='cl'><div class='vertical-center'>$14<br>for<br>yourself</div></div><div class='cr'><div class='vertical-center'><font style='color:orange'>$25<br>for<br>Shaun J.</font></div></div><div class='respDivL'><div class='vertical-center'>(E)</div></div><div class='respDivR'><div class='vertical-center'><font style='color:orange'>(I)</font></div></div></div>","null","$14<br>for<br>yourself","$25<br>for<br>3","0","14","25","3",""
"html-keyboard-response","77","272444","0.0-6.0-1.24","5d13e3e6e51708001a43fa66","bdp_sd","Mon Mar 27 2023 13:01:14 GMT-0700 (Pacific Daylight Time)","280328","","null","","","","","FIX","","<div class='trialBorder'><div class='vertical-center'><img style='vertical-align:center; align:center' src=img/fixation3.jpg></div></div>","null","","","","","","",""
"html-keyboard-response","78","273666","0.0-6.0-2.24","5d13e3e6e51708001a43fa66","bdp_sd","Mon Mar 27 2023 13:01:14 GMT-0700 (Pacific Daylight Time)","280328","","1221","","","","","offer","","<div class='trialBorder'><div class='vertical-center'><img style='vertical-align:center; align:center' src=img/fixation3.jpg></div><div class='cl'><div class='vertical-center'>$80<br>for<br>Rob G.</div></div><div class='cr'><div class='vertical-center'>$33<br>for<br>yourself</div></div><div class='respDivL'><div class='vertical-center'>(E)</div></div><div class='respDivR'><div class='vertical-center'>(I)</div></div></div>","I","$33<br>for<br>yourself","$80<br>for<br>2","1","33","80","2","SELF"
"html-keyboard-response","79","273917","0.0-6.0-3.24","5d13e3e6e51708001a43fa66","bdp_sd","Mon Mar 27 2023 13:01:14 GMT-0700 (Pacific Daylight Time)","280328","","null","","","","","offerFB","","<div class='trialBorder'><div class='vertical-center'><img style='vertical-align:center; align:center' src=img/fixation3.jpg></div><div class='cl'><div class='vertical-center'>$80<br>for<br>Rob G.</div></div><div class='cr'><div class='vertical-center'><font style='color:orange'>$33<br>for<br>yourself</font></div></div><div class='respDivL'><div class='vertical-center'>(E)</div></div><div class='respDivR'><div class='vertical-center'><font style='color:orange'>(I)</font></div></div></div>","null","$33<br>for<br>yourself","$80<br>for<br>2","1","33","80","2",""
"html-keyboard-response","80","274420","0.0-6.0-1.25","5d13e3e6e51708001a43fa66","bdp_sd","Mon Mar 27 2023 13:01:14 GMT-0700 (Pacific Daylight Time)","280328","","null","","","","","FIX","","<div class='trialBorder'><div class='vertical-center'><img style='vertical-align:center; align:center' src=img/fixation3.jpg></div></div>","null","","","","","","",""
"html-keyboard-response","81","276291","0.0-6.0-2.25","5d13e3e6e51708001a43fa66","bdp_sd","Mon Mar 27 2023 13:01:14 GMT-0700 (Pacific Daylight Time)","280328","","1870","","","","","offer","","<div class='trialBorder'><div class='vertical-center'><img style='vertical-align:center; align:center' src=img/fixation3.jpg></div><div class='cl'><div class='vertical-center'>$80<br>for<br>Shaun J.</div></div><div class='cr'><div class='vertical-center'>$54<br>for<br>yourself</div></div><div class='respDivL'><div class='vertical-center'>(E)</div></div><div class='respDivR'><div class='vertical-center'>(I)</div></div></div>","E","$54<br>for<br>yourself","$80<br>for<br>3","1","54","80","3","OTHER"
"html-keyboard-response","82","276542","0.0-6.0-3.25","5d13e3e6e51708001a43fa66","bdp_sd","Mon Mar 27 2023 13:01:14 GMT-0700 (Pacific Daylight Time)","280328","","null","","","","","offerFB","","<div class='trialBorder'><div class='vertical-center'><img style='vertical-align:center; align:center' src=img/fixation3.jpg></div><div class='cl'><div class='vertical-center'><font style='color:orange'>$80<br>for<br>Shaun J.</font></div></div><div class='cr'><div class='vertical-center'>$54<br>for<br>yourself</div></div><div class='respDivL'><div class='vertical-center'><font style='color:orange'>(E)</font></div></div><div class='respDivR'><div class='vertical-center'>(I)</div></div></div>","null","$54<br>for<br>yourself","$80<br>for<br>3","1","54","80","3",""
"html-keyboard-response","83","277044","0.0-6.0-1.26","5d13e3e6e51708001a43fa66","bdp_sd","Mon Mar 27 2023 13:01:14 GMT-0700 (Pacific Daylight Time)","280328","","null","","","","","FIX","","<div class='trialBorder'><div class='vertical-center'><img style='vertical-align:center; align:center' src=img/fixation3.jpg></div></div>","null","","","","","","",""
"html-keyboard-response","84","279075","0.0-6.0-2.26","5d13e3e6e51708001a43fa66","bdp_sd","Mon Mar 27 2023 13:01:14 GMT-0700 (Pacific Daylight Time)","280328","","2029","","","","","offer","","<div class='trialBorder'><div class='vertical-center'><img style='vertical-align:center; align:center' src=img/fixation3.jpg></div><div class='cl'><div class='vertical-center'>$31<br>for<br>yourself</div></div><div class='cr'><div class='vertical-center'>$85<br>for<br>Jacob M.</div></div><div class='respDivL'><div class='vertical-center'>(E)</div></div><div class='respDivR'><div class='vertical-center'>(I)</div></div></div>","I","$31<br>for<br>yourself","$85<br>for<br>1","0","31","85","1","OTHER"
"html-keyboard-response","85","279326","0.0-6.0-3.26","5d13e3e6e51708001a43fa66","bdp_sd","Mon Mar 27 2023 13:01:14 GMT-0700 (Pacific Daylight Time)","280328","","null","","","","","offerFB","","<div class='trialBorder'><div class='vertical-center'><img style='vertical-align:center; align:center' src=img/fixation3.jpg></div><div class='cl'><div class='vertical-center'>$31<br>for<br>yourself</div></div><div class='cr'><div class='vertical-center'><font style='color:orange'>$85<br>for<br>Jacob M.</font></div></div><div class='respDivL'><div class='vertical-center'>(E)</div></div><div class='respDivR'><div class='vertical-center'><font style='color:orange'>(I)</font></div></div></div>","null","$31<br>for<br>yourself","$85<br>for<br>1","0","31","85","1",""
"","","","","5d13e3e6e51708001a43fa66","bdp_sd","Mon Mar 27 2023 13:01:14 GMT-0700 (Pacific Daylight Time)","280328","","","","fullscreenexit","86","279362","fullscreenexit","","","","","","","","","",""
"fullscreen","86","280327","0.0-7.0","5d13e3e6e51708001a43fa66","bdp_sd","Mon Mar 27 2023 13:01:14 GMT-0700 (Pacific Daylight Time)","280328","","","","","","","","true","","","","","","","","",""
"html-keyboard-response","87","280829","0.0-8.0","","","","","","null","","","","","","","","null","","","","","","",""
