"trial_type","trial_index","time_elapsed","internal_node_id","subject_id","task","startTime","totalTime","view_history","rt","event","trial","time","trialtype","numBlurs","responses","success","stimulus","key_press","selfOffer","otherOffer","otherLeft","selfAmt","otherAmt","otherDist","chosen"
"pavlovia","0","8","0.0-0.0","63e5b3e89a3823139cb9d35e","bdp_sd","Mon Mar 27 2023 09:29:09 GMT-0600 (Central Standard Time)","240144","","","","","","","","","","","","","","","","","",""
"instructions","1","2357","0.0-1.0","63e5b3e89a3823139cb9d35e","bdp_sd","Mon Mar 27 2023 09:29:09 GMT-0600 (Central Standard Time)","240144","[{""page_index"":0,""viewing_time"":2347}]","2348","","","","","","","","","","","","","","","",""
"","","","","63e5b3e89a3823139cb9d35e","bdp_sd","Mon Mar 27 2023 09:29:09 GMT-0600 (Central Standard Time)","240144","","","blur","2","7381","blurevent","1","","","","","","","","","","",""
"","","","","63e5b3e89a3823139cb9d35e","bdp_sd","Mon Mar 27 2023 09:29:09 GMT-0600 (Central Standard Time)","240144","","","focus","2","9537","focusevent","","","","","","","","","","","",""
"survey-text","2","90622","0.0-2.0","63e5b3e89a3823139cb9d35e","bdp_sd","Mon Mar 27 2023 09:29:09 GMT-0600 (Central Standard Time)","240144","","88263","","","","","","{""Q0"":""Roman F"",""Q1"":""Carl P"",""Q2"":""Jenny T"",""Q3"":""Mark G"",""Q4"":""Sebastian M""}","","","","","","","","","",""
"","","","","63e5b3e89a3823139cb9d35e","bdp_sd","Mon Mar 27 2023 09:29:09 GMT-0600 (Central Standard Time)","240144","","","fullscreenenter","3","92810","fullscreenenter","","","","","","","","","","","",""
"fullscreen","3","93790","0.0-3.0","63e5b3e89a3823139cb9d35e","bdp_sd","Mon Mar 27 2023 09:29:09 GMT-0600 (Central Standard Time)","240144","","","","","","","","","true","","","","","","","","",""
"instructions","4","170387","0.0-5.0","63e5b3e89a3823139cb9d35e","bdp_sd","Mon Mar 27 2023 09:29:09 GMT-0600 (Central Standard Time)","240144","[{""page_index"":0,""viewing_time"":61940},{""page_index"":1,""viewing_time"":6207},{""page_index"":2,""viewing_time"":8448}]","76595","","","","","","","","","","","","","","","",""
"image-keyboard-response","5","176196","0.0-6.0-0.0-0.0","63e5b3e89a3823139cb9d35e","bdp_sd","Mon Mar 27 2023 09:29:09 GMT-0600 (Central Standard Time)","240144","","5806","","","","blurwarn","1","","","","49","","","","","","",""
"html-keyboard-response","6","176953","0.0-6.0-1.0","63e5b3e89a3823139cb9d35e","bdp_sd","Mon Mar 27 2023 09:29:09 GMT-0600 (Central Standard Time)","240144","","null","","","","FIX","","","","<div class='trialBorder'><div class='vertical-center'><img style='vertical-align:center; align:center' src=img/fixation3.jpg></div></div>","null","","","","","","",""
"html-keyboard-response","7","185002","0.0-6.0-2.0","63e5b3e89a3823139cb9d35e","bdp_sd","Mon Mar 27 2023 09:29:09 GMT-0600 (Central Standard Time)","240144","","8048","","","","offer","","","","<div class='trialBorder'><div class='vertical-center'><img style='vertical-align:center; align:center' src=img/fixation3.jpg></div><div class='cl'><div class='vertical-center'>$15<br>for<br>yourself</div></div><div class='cr'><div class='vertical-center'>$35<br>for<br>Carl P</div></div><div class='respDivL'><div class='vertical-center'>(E)</div></div><div class='respDivR'><div class='vertical-center'>(I)</div></div></div>","E","$15<br>for<br>yourself","$35<br>for<br>2","0","15","35","2","SELF"
"html-keyboard-response","8","185256","0.0-6.0-3.0","63e5b3e89a3823139cb9d35e","bdp_sd","Mon Mar 27 2023 09:29:09 GMT-0600 (Central Standard Time)","240144","","null","","","","offerFB","","","","<div class='trialBorder'><div class='vertical-center'><img style='vertical-align:center; align:center' src=img/fixation3.jpg></div><div class='cl'><div class='vertical-center'><font style='color:orange'>$15<br>for<br>yourself</font></div></div><div class='cr'><div class='vertical-center'>$35<br>for<br>Carl P</div></div><div class='respDivL'><div class='vertical-center'><font style='color:orange'>(E)</font></div></div><div class='respDivR'><div class='vertical-center'>(I)</div></div></div>","null","$15<br>for<br>yourself","$35<br>for<br>2","0","15","35","2",""
"html-keyboard-response","9","185758","0.0-6.0-1.1","63e5b3e89a3823139cb9d35e","bdp_sd","Mon Mar 27 2023 09:29:09 GMT-0600 (Central Standard Time)","240144","","null","","","","FIX","","","","<div class='trialBorder'><div class='vertical-center'><img style='vertical-align:center; align:center' src=img/fixation3.jpg></div></div>","null","","","","","","",""
"html-keyboard-response","10","187275","0.0-6.0-2.1","63e5b3e89a3823139cb9d35e","bdp_sd","Mon Mar 27 2023 09:29:09 GMT-0600 (Central Standard Time)","240144","","1515","","","","offer","","","","<div class='trialBorder'><div class='vertical-center'><img style='vertical-align:center; align:center' src=img/fixation3.jpg></div><div class='cl'><div class='vertical-center'>$25<br>for<br>Jenny T</div></div><div class='cr'><div class='vertical-center'>$14<br>for<br>yourself</div></div><div class='respDivL'><div class='vertical-center'>(E)</div></div><div class='respDivR'><div class='vertical-center'>(I)</div></div></div>","I","$14<br>for<br>yourself","$25<br>for<br>3","1","14","25","3","SELF"
"html-keyboard-response","11","187530","0.0-6.0-3.1","63e5b3e89a3823139cb9d35e","bdp_sd","Mon Mar 27 2023 09:29:09 GMT-0600 (Central Standard Time)","240144","","null","","","","offerFB","","","","<div class='trialBorder'><div class='vertical-center'><img style='vertical-align:center; align:center' src=img/fixation3.jpg></div><div class='cl'><div class='vertical-center'>$25<br>for<br>Jenny T</div></div><div class='cr'><div class='vertical-center'><font style='color:orange'>$14<br>for<br>yourself</font></div></div><div class='respDivL'><div class='vertical-center'>(E)</div></div><div class='respDivR'><div class='vertical-center'><font style='color:orange'>(I)</font></div></div></div>","null","$14<br>for<br>yourself","$25<br>for<br>3","1","14","25","3",""
"html-keyboard-response","12","188032","0.0-6.0-1.2","63e5b3e89a3823139cb9d35e","bdp_sd","Mon Mar 27 2023 09:29:09 GMT-0600 (Central Standard Time)","240144","","null","","","","FIX","","","","<div class='trialBorder'><div class='vertical-center'><img style='vertical-align:center; align:center' src=img/fixation3.jpg></div></div>","null","","","","","","",""
"html-keyboard-response","13","191651","0.0-6.0-2.2","63e5b3e89a3823139cb9d35e","bdp_sd","Mon Mar 27 2023 09:29:09 GMT-0600 (Central Standard Time)","240144","","3618","","","","offer","","","","<div class='trialBorder'><div class='vertical-center'><img style='vertical-align:center; align:center' src=img/fixation3.jpg></div><div class='cl'><div class='vertical-center'>$55<br>for<br>Roman F</div></div><div class='cr'><div class='vertical-center'>$20<br>for<br>yourself</div></div><div class='respDivL'><div class='vertical-center'>(E)</div></div><div class='respDivR'><div class='vertical-center'>(I)</div></div></div>","I","$20<br>for<br>yourself","$55<br>for<br>1","1","20","55","1","SELF"
"html-keyboard-response","14","191904","0.0-6.0-3.2","63e5b3e89a3823139cb9d35e","bdp_sd","Mon Mar 27 2023 09:29:09 GMT-0600 (Central Standard Time)","240144","","null","","","","offerFB","","","","<div class='trialBorder'><div class='vertical-center'><img style='vertical-align:center; align:center' src=img/fixation3.jpg></div><div class='cl'><div class='vertical-center'>$55<br>for<br>Roman F</div></div><div class='cr'><div class='vertical-center'><font style='color:orange'>$20<br>for<br>yourself</font></div></div><div class='respDivL'><div class='vertical-center'>(E)</div></div><div class='respDivR'><div class='vertical-center'><font style='color:orange'>(I)</font></div></div></div>","null","$20<br>for<br>yourself","$55<br>for<br>1","1","20","55","1",""
"html-keyboard-response","15","192406","0.0-6.0-1.3","63e5b3e89a3823139cb9d35e","bdp_sd","Mon Mar 27 2023 09:29:09 GMT-0600 (Central Standard Time)","240144","","null","","","","FIX","","","","<div class='trialBorder'><div class='vertical-center'><img style='vertical-align:center; align:center' src=img/fixation3.jpg></div></div>","null","","","","","","",""
"html-keyboard-response","16","194347","0.0-6.0-2.3","63e5b3e89a3823139cb9d35e","bdp_sd","Mon Mar 27 2023 09:29:09 GMT-0600 (Central Standard Time)","240144","","1938","","","","offer","","","","<div class='trialBorder'><div class='vertical-center'><img style='vertical-align:center; align:center' src=img/fixation3.jpg></div><div class='cl'><div class='vertical-center'>$60<br>for<br>Sebastian M</div></div><div class='cr'><div class='vertical-center'>$54<br>for<br>yourself</div></div><div class='respDivL'><div class='vertical-center'>(E)</div></div><div class='respDivR'><div class='vertical-center'>(I)</div></div></div>","I","$54<br>for<br>yourself","$60<br>for<br>5","1","54","60","5","SELF"
"html-keyboard-response","17","194599","0.0-6.0-3.3","63e5b3e89a3823139cb9d35e","bdp_sd","Mon Mar 27 2023 09:29:09 GMT-0600 (Central Standard Time)","240144","","null","","","","offerFB","","","","<div class='trialBorder'><div class='vertical-center'><img style='vertical-align:center; align:center' src=img/fixation3.jpg></div><div class='cl'><div class='vertical-center'>$60<br>for<br>Sebastian M</div></div><div class='cr'><div class='vertical-center'><font style='color:orange'>$54<br>for<br>yourself</font></div></div><div class='respDivL'><div class='vertical-center'>(E)</div></div><div class='respDivR'><div class='vertical-center'><font style='color:orange'>(I)</font></div></div></div>","null","$54<br>for<br>yourself","$60<br>for<br>5","1","54","60","5",""
"html-keyboard-response","18","195101","0.0-6.0-1.4","63e5b3e89a3823139cb9d35e","bdp_sd","Mon Mar 27 2023 09:29:09 GMT-0600 (Central Standard Time)","240144","","null","","","","FIX","","","","<div class='trialBorder'><div class='vertical-center'><img style='vertical-align:center; align:center' src=img/fixation3.jpg></div></div>","null","","","","","","",""
"html-keyboard-response","19","196675","0.0-6.0-2.4","63e5b3e89a3823139cb9d35e","bdp_sd","Mon Mar 27 2023 09:29:09 GMT-0600 (Central Standard Time)","240144","","1573","","","","offer","","","","<div class='trialBorder'><div class='vertical-center'><img style='vertical-align:center; align:center' src=img/fixation3.jpg></div><div class='cl'><div class='vertical-center'>$40<br>for<br>yourself</div></div><div class='cr'><div class='vertical-center'>$55<br>for<br>Mark G</div></div><div class='respDivL'><div class='vertical-center'>(E)</div></div><div class='respDivR'><div class='vertical-center'>(I)</div></div></div>","I","$40<br>for<br>yourself","$55<br>for<br>4","0","40","55","4","OTHER"
"html-keyboard-response","20","196929","0.0-6.0-3.4","63e5b3e89a3823139cb9d35e","bdp_sd","Mon Mar 27 2023 09:29:09 GMT-0600 (Central Standard Time)","240144","","null","","","","offerFB","","","","<div class='trialBorder'><div class='vertical-center'><img style='vertical-align:center; align:center' src=img/fixation3.jpg></div><div class='cl'><div class='vertical-center'>$40<br>for<br>yourself</div></div><div class='cr'><div class='vertical-center'><font style='color:orange'>$55<br>for<br>Mark G</font></div></div><div class='respDivL'><div class='vertical-center'>(E)</div></div><div class='respDivR'><div class='vertical-center'><font style='color:orange'>(I)</font></div></div></div>","null","$40<br>for<br>yourself","$55<br>for<br>4","0","40","55","4",""
"html-keyboard-response","21","197431","0.0-6.0-1.5","63e5b3e89a3823139cb9d35e","bdp_sd","Mon Mar 27 2023 09:29:09 GMT-0600 (Central Standard Time)","240144","","null","","","","FIX","","","","<div class='trialBorder'><div class='vertical-center'><img style='vertical-align:center; align:center' src=img/fixation3.jpg></div></div>","null","","","","","","",""
"html-keyboard-response","22","199627","0.0-6.0-2.5","63e5b3e89a3823139cb9d35e","bdp_sd","Mon Mar 27 2023 09:29:09 GMT-0600 (Central Standard Time)","240144","","2195","","","","offer","","","","<div class='trialBorder'><div class='vertical-center'><img style='vertical-align:center; align:center' src=img/fixation3.jpg></div><div class='cl'><div class='vertical-center'>$25<br>for<br>yourself</div></div><div class='cr'><div class='vertical-center'>$60<br>for<br>Jenny T</div></div><div class='respDivL'><div class='vertical-center'>(E)</div></div><div class='respDivR'><div class='vertical-center'>(I)</div></div></div>","I","$25<br>for<br>yourself","$60<br>for<br>3","0","25","60","3","OTHER"
"html-keyboard-response","23","199882","0.0-6.0-3.5","63e5b3e89a3823139cb9d35e","bdp_sd","Mon Mar 27 2023 09:29:09 GMT-0600 (Central Standard Time)","240144","","null","","","","offerFB","","","","<div class='trialBorder'><div class='vertical-center'><img style='vertical-align:center; align:center' src=img/fixation3.jpg></div><div class='cl'><div class='vertical-center'>$25<br>for<br>yourself</div></div><div class='cr'><div class='vertical-center'><font style='color:orange'>$60<br>for<br>Jenny T</font></div></div><div class='respDivL'><div class='vertical-center'>(E)</div></div><div class='respDivR'><div class='vertical-center'><font style='color:orange'>(I)</font></div></div></div>","null","$25<br>for<br>yourself","$60<br>for<br>3","0","25","60","3",""
"html-keyboard-response","24","200384","0.0-6.0-1.6","63e5b3e89a3823139cb9d35e","bdp_sd","Mon Mar 27 2023 09:29:09 GMT-0600 (Central Standard Time)","240144","","null","","","","FIX","","","","<div class='trialBorder'><div class='vertical-center'><img style='vertical-align:center; align:center' src=img/fixation3.jpg></div></div>","null","","","","","","",""
"html-keyboard-response","25","202363","0.0-6.0-2.6","63e5b3e89a3823139cb9d35e","bdp_sd","Mon Mar 27 2023 09:29:09 GMT-0600 (Central Standard Time)","240144","","1976","","","","offer","","","","<div class='trialBorder'><div class='vertical-center'><img style='vertical-align:center; align:center' src=img/fixation3.jpg></div><div class='cl'><div class='vertical-center'>$49<br>for<br>yourself</div></div><div class='cr'><div class='vertical-center'>$60<br>for<br>Mark G</div></div><div class='respDivL'><div class='vertical-center'>(E)</div></div><div class='respDivR'><div class='vertical-center'>(I)</div></div></div>","E","$49<br>for<br>yourself","$60<br>for<br>4","0","49","60","4","SELF"
"html-keyboard-response","26","202616","0.0-6.0-3.6","63e5b3e89a3823139cb9d35e","bdp_sd","Mon Mar 27 2023 09:29:09 GMT-0600 (Central Standard Time)","240144","","null","","","","offerFB","","","","<div class='trialBorder'><div class='vertical-center'><img style='vertical-align:center; align:center' src=img/fixation3.jpg></div><div class='cl'><div class='vertical-center'><font style='color:orange'>$49<br>for<br>yourself</font></div></div><div class='cr'><div class='vertical-center'>$60<br>for<br>Mark G</div></div><div class='respDivL'><div class='vertical-center'><font style='color:orange'>(E)</font></div></div><div class='respDivR'><div class='vertical-center'>(I)</div></div></div>","null","$49<br>for<br>yourself","$60<br>for<br>4","0","49","60","4",""
"html-keyboard-response","27","203117","0.0-6.0-1.7","63e5b3e89a3823139cb9d35e","bdp_sd","Mon Mar 27 2023 09:29:09 GMT-0600 (Central Standard Time)","240144","","null","","","","FIX","","","","<div class='trialBorder'><div class='vertical-center'><img style='vertical-align:center; align:center' src=img/fixation3.jpg></div></div>","null","","","","","","",""
"html-keyboard-response","28","204355","0.0-6.0-2.7","63e5b3e89a3823139cb9d35e","bdp_sd","Mon Mar 27 2023 09:29:09 GMT-0600 (Central Standard Time)","240144","","1237","","","","offer","","","","<div class='trialBorder'><div class='vertical-center'><img style='vertical-align:center; align:center' src=img/fixation3.jpg></div><div class='cl'><div class='vertical-center'>$41<br>for<br>yourself</div></div><div class='cr'><div class='vertical-center'>$75<br>for<br>Jenny T</div></div><div class='respDivL'><div class='vertical-center'>(E)</div></div><div class='respDivR'><div class='vertical-center'>(I)</div></div></div>","E","$41<br>for<br>yourself","$75<br>for<br>3","0","41","75","3","SELF"
"html-keyboard-response","29","204607","0.0-6.0-3.7","63e5b3e89a3823139cb9d35e","bdp_sd","Mon Mar 27 2023 09:29:09 GMT-0600 (Central Standard Time)","240144","","null","","","","offerFB","","","","<div class='trialBorder'><div class='vertical-center'><img style='vertical-align:center; align:center' src=img/fixation3.jpg></div><div class='cl'><div class='vertical-center'><font style='color:orange'>$41<br>for<br>yourself</font></div></div><div class='cr'><div class='vertical-center'>$75<br>for<br>Jenny T</div></div><div class='respDivL'><div class='vertical-center'><font style='color:orange'>(E)</font></div></div><div class='respDivR'><div class='vertical-center'>(I)</div></div></div>","null","$41<br>for<br>yourself","$75<br>for<br>3","0","41","75","3",""
"html-keyboard-response","30","205109","0.0-6.0-1.8","63e5b3e89a3823139cb9d35e","bdp_sd","Mon Mar 27 2023 09:29:09 GMT-0600 (Central Standard Time)","240144","","null","","","","FIX","","","","<div class='trialBorder'><div class='vertical-center'><img style='vertical-align:center; align:center' src=img/fixation3.jpg></div></div>","null","","","","","","",""
"html-keyboard-response","31","206323","0.0-6.0-2.8","63e5b3e89a3823139cb9d35e","bdp_sd","Mon Mar 27 2023 09:29:09 GMT-0600 (Central Standard Time)","240144","","1212","","","","offer","","","","<div class='trialBorder'><div class='vertical-center'><img style='vertical-align:center; align:center' src=img/fixation3.jpg></div><div class='cl'><div class='vertical-center'>$28<br>for<br>yourself</div></div><div class='cr'><div class='vertical-center'>$30<br>for<br>Sebastian M</div></div><div class='respDivL'><div class='vertical-center'>(E)</div></div><div class='respDivR'><div class='vertical-center'>(I)</div></div></div>","E","$28<br>for<br>yourself","$30<br>for<br>5","0","28","30","5","SELF"
"html-keyboard-response","32","206576","0.0-6.0-3.8","63e5b3e89a3823139cb9d35e","bdp_sd","Mon Mar 27 2023 09:29:09 GMT-0600 (Central Standard Time)","240144","","null","","","","offerFB","","","","<div class='trialBorder'><div class='vertical-center'><img style='vertical-align:center; align:center' src=img/fixation3.jpg></div><div class='cl'><div class='vertical-center'><font style='color:orange'>$28<br>for<br>yourself</font></div></div><div class='cr'><div class='vertical-center'>$30<br>for<br>Sebastian M</div></div><div class='respDivL'><div class='vertical-center'><font style='color:orange'>(E)</font></div></div><div class='respDivR'><div class='vertical-center'>(I)</div></div></div>","null","$28<br>for<br>yourself","$30<br>for<br>5","0","28","30","5",""
"html-keyboard-response","33","207078","0.0-6.0-1.9","63e5b3e89a3823139cb9d35e","bdp_sd","Mon Mar 27 2023 09:29:09 GMT-0600 (Central Standard Time)","240144","","null","","","","FIX","","","","<div class='trialBorder'><div class='vertical-center'><img style='vertical-align:center; align:center' src=img/fixation3.jpg></div></div>","null","","","","","","",""
"html-keyboard-response","34","208707","0.0-6.0-2.9","63e5b3e89a3823139cb9d35e","bdp_sd","Mon Mar 27 2023 09:29:09 GMT-0600 (Central Standard Time)","240144","","1627","","","","offer","","","","<div class='trialBorder'><div class='vertical-center'><img style='vertical-align:center; align:center' src=img/fixation3.jpg></div><div class='cl'><div class='vertical-center'>$75<br>for<br>Mark G</div></div><div class='cr'><div class='vertical-center'>$55<br>for<br>yourself</div></div><div class='respDivL'><div class='vertical-center'>(E)</div></div><div class='respDivR'><div class='vertical-center'>(I)</div></div></div>","I","$55<br>for<br>yourself","$75<br>for<br>4","1","55","75","4","SELF"
"html-keyboard-response","35","208959","0.0-6.0-3.9","63e5b3e89a3823139cb9d35e","bdp_sd","Mon Mar 27 2023 09:29:09 GMT-0600 (Central Standard Time)","240144","","null","","","","offerFB","","","","<div class='trialBorder'><div class='vertical-center'><img style='vertical-align:center; align:center' src=img/fixation3.jpg></div><div class='cl'><div class='vertical-center'>$75<br>for<br>Mark G</div></div><div class='cr'><div class='vertical-center'><font style='color:orange'>$55<br>for<br>yourself</font></div></div><div class='respDivL'><div class='vertical-center'>(E)</div></div><div class='respDivR'><div class='vertical-center'><font style='color:orange'>(I)</font></div></div></div>","null","$55<br>for<br>yourself","$75<br>for<br>4","1","55","75","4",""
"html-keyboard-response","36","209462","0.0-6.0-1.10","63e5b3e89a3823139cb9d35e","bdp_sd","Mon Mar 27 2023 09:29:09 GMT-0600 (Central Standard Time)","240144","","null","","","","FIX","","","","<div class='trialBorder'><div class='vertical-center'><img style='vertical-align:center; align:center' src=img/fixation3.jpg></div></div>","null","","","","","","",""
"html-keyboard-response","37","211012","0.0-6.0-2.10","63e5b3e89a3823139cb9d35e","bdp_sd","Mon Mar 27 2023 09:29:09 GMT-0600 (Central Standard Time)","240144","","1548","","","","offer","","","","<div class='trialBorder'><div class='vertical-center'><img style='vertical-align:center; align:center' src=img/fixation3.jpg></div><div class='cl'><div class='vertical-center'>$50<br>for<br>Jenny T</div></div><div class='cr'><div class='vertical-center'>$27<br>for<br>yourself</div></div><div class='respDivL'><div class='vertical-center'>(E)</div></div><div class='respDivR'><div class='vertical-center'>(I)</div></div></div>","E","$27<br>for<br>yourself","$50<br>for<br>3","1","27","50","3","OTHER"
"html-keyboard-response","38","211264","0.0-6.0-3.10","63e5b3e89a3823139cb9d35e","bdp_sd","Mon Mar 27 2023 09:29:09 GMT-0600 (Central Standard Time)","240144","","null","","","","offerFB","","","","<div class='trialBorder'><div class='vertical-center'><img style='vertical-align:center; align:center' src=img/fixation3.jpg></div><div class='cl'><div class='vertical-center'><font style='color:orange'>$50<br>for<br>Jenny T</font></div></div><div class='cr'><div class='vertical-center'>$27<br>for<br>yourself</div></div><div class='respDivL'><div class='vertical-center'><font style='color:orange'>(E)</font></div></div><div class='respDivR'><div class='vertical-center'>(I)</div></div></div>","null","$27<br>for<br>yourself","$50<br>for<br>3","1","27","50","3",""
"html-keyboard-response","39","211766","0.0-6.0-1.11","63e5b3e89a3823139cb9d35e","bdp_sd","Mon Mar 27 2023 09:29:09 GMT-0600 (Central Standard Time)","240144","","null","","","","FIX","","","","<div class='trialBorder'><div class='vertical-center'><img style='vertical-align:center; align:center' src=img/fixation3.jpg></div></div>","null","","","","","","",""
"html-keyboard-response","40","212859","0.0-6.0-2.11","63e5b3e89a3823139cb9d35e","bdp_sd","Mon Mar 27 2023 09:29:09 GMT-0600 (Central Standard Time)","240144","","1091","","","","offer","","","","<div class='trialBorder'><div class='vertical-center'><img style='vertical-align:center; align:center' src=img/fixation3.jpg></div><div class='cl'><div class='vertical-center'>$11<br>for<br>yourself</div></div><div class='cr'><div class='vertical-center'>$30<br>for<br>Carl P</div></div><div class='respDivL'><div class='vertical-center'>(E)</div></div><div class='respDivR'><div class='vertical-center'>(I)</div></div></div>","I","$11<br>for<br>yourself","$30<br>for<br>2","0","11","30","2","OTHER"
"html-keyboard-response","41","213111","0.0-6.0-3.11","63e5b3e89a3823139cb9d35e","bdp_sd","Mon Mar 27 2023 09:29:09 GMT-0600 (Central Standard Time)","240144","","null","","","","offerFB","","","","<div class='trialBorder'><div class='vertical-center'><img style='vertical-align:center; align:center' src=img/fixation3.jpg></div><div class='cl'><div class='vertical-center'>$11<br>for<br>yourself</div></div><div class='cr'><div class='vertical-center'><font style='color:orange'>$30<br>for<br>Carl P</font></div></div><div class='respDivL'><div class='vertical-center'>(E)</div></div><div class='respDivR'><div class='vertical-center'><font style='color:orange'>(I)</font></div></div></div>","null","$11<br>for<br>yourself","$30<br>for<br>2","0","11","30","2",""
"html-keyboard-response","42","213613","0.0-6.0-1.12","63e5b3e89a3823139cb9d35e","bdp_sd","Mon Mar 27 2023 09:29:09 GMT-0600 (Central Standard Time)","240144","","null","","","","FIX","","","","<div class='trialBorder'><div class='vertical-center'><img style='vertical-align:center; align:center' src=img/fixation3.jpg></div></div>","null","","","","","","",""
"html-keyboard-response","43","216428","0.0-6.0-2.12","63e5b3e89a3823139cb9d35e","bdp_sd","Mon Mar 27 2023 09:29:09 GMT-0600 (Central Standard Time)","240144","","2813","","","","offer","","","","<div class='trialBorder'><div class='vertical-center'><img style='vertical-align:center; align:center' src=img/fixation3.jpg></div><div class='cl'><div class='vertical-center'>$25<br>for<br>yourself</div></div><div class='cr'><div class='vertical-center'>$30<br>for<br>Mark G</div></div><div class='respDivL'><div class='vertical-center'>(E)</div></div><div class='respDivR'><div class='vertical-center'>(I)</div></div></div>","E","$25<br>for<br>yourself","$30<br>for<br>4","0","25","30","4","SELF"
"html-keyboard-response","44","216681","0.0-6.0-3.12","63e5b3e89a3823139cb9d35e","bdp_sd","Mon Mar 27 2023 09:29:09 GMT-0600 (Central Standard Time)","240144","","null","","","","offerFB","","","","<div class='trialBorder'><div class='vertical-center'><img style='vertical-align:center; align:center' src=img/fixation3.jpg></div><div class='cl'><div class='vertical-center'><font style='color:orange'>$25<br>for<br>yourself</font></div></div><div class='cr'><div class='vertical-center'>$30<br>for<br>Mark G</div></div><div class='respDivL'><div class='vertical-center'><font style='color:orange'>(E)</font></div></div><div class='respDivR'><div class='vertical-center'>(I)</div></div></div>","null","$25<br>for<br>yourself","$30<br>for<br>4","0","25","30","4",""
"html-keyboard-response","45","217182","0.0-6.0-1.13","63e5b3e89a3823139cb9d35e","bdp_sd","Mon Mar 27 2023 09:29:09 GMT-0600 (Central Standard Time)","240144","","null","","","","FIX","","","","<div class='trialBorder'><div class='vertical-center'><img style='vertical-align:center; align:center' src=img/fixation3.jpg></div></div>","null","","","","","","",""
"html-keyboard-response","46","217819","0.0-6.0-2.13","63e5b3e89a3823139cb9d35e","bdp_sd","Mon Mar 27 2023 09:29:09 GMT-0600 (Central Standard Time)","240144","","635","","","","offer","","","","<div class='trialBorder'><div class='vertical-center'><img style='vertical-align:center; align:center' src=img/fixation3.jpg></div><div class='cl'><div class='vertical-center'>$25<br>for<br>Sebastian M</div></div><div class='cr'><div class='vertical-center'>$22<br>for<br>yourself</div></div><div class='respDivL'><div class='vertical-center'>(E)</div></div><div class='respDivR'><div class='vertical-center'>(I)</div></div></div>","E","$22<br>for<br>yourself","$25<br>for<br>5","1","22","25","5","OTHER"
"html-keyboard-response","47","218071","0.0-6.0-3.13","63e5b3e89a3823139cb9d35e","bdp_sd","Mon Mar 27 2023 09:29:09 GMT-0600 (Central Standard Time)","240144","","null","","","","offerFB","","","","<div class='trialBorder'><div class='vertical-center'><img style='vertical-align:center; align:center' src=img/fixation3.jpg></div><div class='cl'><div class='vertical-center'><font style='color:orange'>$25<br>for<br>Sebastian M</font></div></div><div class='cr'><div class='vertical-center'>$22<br>for<br>yourself</div></div><div class='respDivL'><div class='vertical-center'><font style='color:orange'>(E)</font></div></div><div class='respDivR'><div class='vertical-center'>(I)</div></div></div>","null","$22<br>for<br>yourself","$25<br>for<br>5","1","22","25","5",""
"html-keyboard-response","48","218572","0.0-6.0-1.14","63e5b3e89a3823139cb9d35e","bdp_sd","Mon Mar 27 2023 09:29:09 GMT-0600 (Central Standard Time)","240144","","null","","","","FIX","","","","<div class='trialBorder'><div class='vertical-center'><img style='vertical-align:center; align:center' src=img/fixation3.jpg></div></div>","null","","","","","","",""
"html-keyboard-response","49","219828","0.0-6.0-2.14","63e5b3e89a3823139cb9d35e","bdp_sd","Mon Mar 27 2023 09:29:09 GMT-0600 (Central Standard Time)","240144","","1254","","","","offer","","","","<div class='trialBorder'><div class='vertical-center'><img style='vertical-align:center; align:center' src=img/fixation3.jpg></div><div class='cl'><div class='vertical-center'>$85<br>for<br>Mark G</div></div><div class='cr'><div class='vertical-center'>$69<br>for<br>yourself</div></div><div class='respDivL'><div class='vertical-center'>(E)</div></div><div class='respDivR'><div class='vertical-center'>(I)</div></div></div>","I","$69<br>for<br>yourself","$85<br>for<br>4","1","69","85","4","SELF"
"html-keyboard-response","50","220084","0.0-6.0-3.14","63e5b3e89a3823139cb9d35e","bdp_sd","Mon Mar 27 2023 09:29:09 GMT-0600 (Central Standard Time)","240144","","null","","","","offerFB","","","","<div class='trialBorder'><div class='vertical-center'><img style='vertical-align:center; align:center' src=img/fixation3.jpg></div><div class='cl'><div class='vertical-center'>$85<br>for<br>Mark G</div></div><div class='cr'><div class='vertical-center'><font style='color:orange'>$69<br>for<br>yourself</font></div></div><div class='respDivL'><div class='vertical-center'>(E)</div></div><div class='respDivR'><div class='vertical-center'><font style='color:orange'>(I)</font></div></div></div>","null","$69<br>for<br>yourself","$85<br>for<br>4","1","69","85","4",""
"html-keyboard-response","51","220585","0.0-6.0-1.15","63e5b3e89a3823139cb9d35e","bdp_sd","Mon Mar 27 2023 09:29:09 GMT-0600 (Central Standard Time)","240144","","null","","","","FIX","","","","<div class='trialBorder'><div class='vertical-center'><img style='vertical-align:center; align:center' src=img/fixation3.jpg></div></div>","null","","","","","","",""
"html-keyboard-response","52","222228","0.0-6.0-2.15","63e5b3e89a3823139cb9d35e","bdp_sd","Mon Mar 27 2023 09:29:09 GMT-0600 (Central Standard Time)","240144","","1640","","","","offer","","","","<div class='trialBorder'><div class='vertical-center'><img style='vertical-align:center; align:center' src=img/fixation3.jpg></div><div class='cl'><div class='vertical-center'>$34<br>for<br>yourself</div></div><div class='cr'><div class='vertical-center'>$50<br>for<br>Mark G</div></div><div class='respDivL'><div class='vertical-center'>(E)</div></div><div class='respDivR'><div class='vertical-center'>(I)</div></div></div>","I","$34<br>for<br>yourself","$50<br>for<br>4","0","34","50","4","OTHER"
"html-keyboard-response","53","222481","0.0-6.0-3.15","63e5b3e89a3823139cb9d35e","bdp_sd","Mon Mar 27 2023 09:29:09 GMT-0600 (Central Standard Time)","240144","","null","","","","offerFB","","","","<div class='trialBorder'><div class='vertical-center'><img style='vertical-align:center; align:center' src=img/fixation3.jpg></div><div class='cl'><div class='vertical-center'>$34<br>for<br>yourself</div></div><div class='cr'><div class='vertical-center'><font style='color:orange'>$50<br>for<br>Mark G</font></div></div><div class='respDivL'><div class='vertical-center'>(E)</div></div><div class='respDivR'><div class='vertical-center'><font style='color:orange'>(I)</font></div></div></div>","null","$34<br>for<br>yourself","$50<br>for<br>4","0","34","50","4",""
"html-keyboard-response","54","222983","0.0-6.0-1.16","63e5b3e89a3823139cb9d35e","bdp_sd","Mon Mar 27 2023 09:29:09 GMT-0600 (Central Standard Time)","240144","","null","","","","FIX","","","","<div class='trialBorder'><div class='vertical-center'><img style='vertical-align:center; align:center' src=img/fixation3.jpg></div></div>","null","","","","","","",""
"html-keyboard-response","55","223890","0.0-6.0-2.16","63e5b3e89a3823139cb9d35e","bdp_sd","Mon Mar 27 2023 09:29:09 GMT-0600 (Central Standard Time)","240144","","905","","","","offer","","","","<div class='trialBorder'><div class='vertical-center'><img style='vertical-align:center; align:center' src=img/fixation3.jpg></div><div class='cl'><div class='vertical-center'>$24<br>for<br>yourself</div></div><div class='cr'><div class='vertical-center'>$35<br>for<br>Jenny T</div></div><div class='respDivL'><div class='vertical-center'>(E)</div></div><div class='respDivR'><div class='vertical-center'>(I)</div></div></div>","E","$24<br>for<br>yourself","$35<br>for<br>3","0","24","35","3","SELF"
"html-keyboard-response","56","224142","0.0-6.0-3.16","63e5b3e89a3823139cb9d35e","bdp_sd","Mon Mar 27 2023 09:29:09 GMT-0600 (Central Standard Time)","240144","","null","","","","offerFB","","","","<div class='trialBorder'><div class='vertical-center'><img style='vertical-align:center; align:center' src=img/fixation3.jpg></div><div class='cl'><div class='vertical-center'><font style='color:orange'>$24<br>for<br>yourself</font></div></div><div class='cr'><div class='vertical-center'>$35<br>for<br>Jenny T</div></div><div class='respDivL'><div class='vertical-center'><font style='color:orange'>(E)</font></div></div><div class='respDivR'><div class='vertical-center'>(I)</div></div></div>","null","$24<br>for<br>yourself","$35<br>for<br>3","0","24","35","3",""
"html-keyboard-response","57","224644","0.0-6.0-1.17","63e5b3e89a3823139cb9d35e","bdp_sd","Mon Mar 27 2023 09:29:09 GMT-0600 (Central Standard Time)","240144","","null","","","","FIX","","","","<div class='trialBorder'><div class='vertical-center'><img style='vertical-align:center; align:center' src=img/fixation3.jpg></div></div>","null","","","","","","",""
"html-keyboard-response","58","225531","0.0-6.0-2.17","63e5b3e89a3823139cb9d35e","bdp_sd","Mon Mar 27 2023 09:29:09 GMT-0600 (Central Standard Time)","240144","","885","","","","offer","","","","<div class='trialBorder'><div class='vertical-center'><img style='vertical-align:center; align:center' src=img/fixation3.jpg></div><div class='cl'><div class='vertical-center'>$47<br>for<br>yourself</div></div><div class='cr'><div class='vertical-center'>$50<br>for<br>Sebastian M</div></div><div class='respDivL'><div class='vertical-center'>(E)</div></div><div class='respDivR'><div class='vertical-center'>(I)</div></div></div>","E","$47<br>for<br>yourself","$50<br>for<br>5","0","47","50","5","SELF"
"html-keyboard-response","59","225782","0.0-6.0-3.17","63e5b3e89a3823139cb9d35e","bdp_sd","Mon Mar 27 2023 09:29:09 GMT-0600 (Central Standard Time)","240144","","null","","","","offerFB","","","","<div class='trialBorder'><div class='vertical-center'><img style='vertical-align:center; align:center' src=img/fixation3.jpg></div><div class='cl'><div class='vertical-center'><font style='color:orange'>$47<br>for<br>yourself</font></div></div><div class='cr'><div class='vertical-center'>$50<br>for<br>Sebastian M</div></div><div class='respDivL'><div class='vertical-center'><font style='color:orange'>(E)</font></div></div><div class='respDivR'><div class='vertical-center'>(I)</div></div></div>","null","$47<br>for<br>yourself","$50<br>for<br>5","0","47","50","5",""
"html-keyboard-response","60","226284","0.0-6.0-1.18","63e5b3e89a3823139cb9d35e","bdp_sd","Mon Mar 27 2023 09:29:09 GMT-0600 (Central Standard Time)","240144","","null","","","","FIX","","","","<div class='trialBorder'><div class='vertical-center'><img style='vertical-align:center; align:center' src=img/fixation3.jpg></div></div>","null","","","","","","",""
"html-keyboard-response","61","226923","0.0-6.0-2.18","63e5b3e89a3823139cb9d35e","bdp_sd","Mon Mar 27 2023 09:29:09 GMT-0600 (Central Standard Time)","240144","","637","","","","offer","","","","<div class='trialBorder'><div class='vertical-center'><img style='vertical-align:center; align:center' src=img/fixation3.jpg></div><div class='cl'><div class='vertical-center'>$67<br>for<br>yourself</div></div><div class='cr'><div class='vertical-center'>$75<br>for<br>Sebastian M</div></div><div class='respDivL'><div class='vertical-center'>(E)</div></div><div class='respDivR'><div class='vertical-center'>(I)</div></div></div>","E","$67<br>for<br>yourself","$75<br>for<br>5","0","67","75","5","SELF"
"html-keyboard-response","62","227175","0.0-6.0-3.18","63e5b3e89a3823139cb9d35e","bdp_sd","Mon Mar 27 2023 09:29:09 GMT-0600 (Central Standard Time)","240144","","null","","","","offerFB","","","","<div class='trialBorder'><div class='vertical-center'><img style='vertical-align:center; align:center' src=img/fixation3.jpg></div><div class='cl'><div class='vertical-center'><font style='color:orange'>$67<br>for<br>yourself</font></div></div><div class='cr'><div class='vertical-center'>$75<br>for<br>Sebastian M</div></div><div class='respDivL'><div class='vertical-center'><font style='color:orange'>(E)</font></div></div><div class='respDivR'><div class='vertical-center'>(I)</div></div></div>","null","$67<br>for<br>yourself","$75<br>for<br>5","0","67","75","5",""
"html-keyboard-response","63","227678","0.0-6.0-1.19","63e5b3e89a3823139cb9d35e","bdp_sd","Mon Mar 27 2023 09:29:09 GMT-0600 (Central Standard Time)","240144","","null","","","","FIX","","","","<div class='trialBorder'><div class='vertical-center'><img style='vertical-align:center; align:center' src=img/fixation3.jpg></div></div>","null","","","","","","",""
"html-keyboard-response","64","228651","0.0-6.0-2.19","63e5b3e89a3823139cb9d35e","bdp_sd","Mon Mar 27 2023 09:29:09 GMT-0600 (Central Standard Time)","240144","","971","","","","offer","","","","<div class='trialBorder'><div class='vertical-center'><img style='vertical-align:center; align:center' src=img/fixation3.jpg></div><div class='cl'><div class='vertical-center'>$80<br>for<br>Carl P</div></div><div class='cr'><div class='vertical-center'>$33<br>for<br>yourself</div></div><div class='respDivL'><div class='vertical-center'>(E)</div></div><div class='respDivR'><div class='vertical-center'>(I)</div></div></div>","E","$33<br>for<br>yourself","$80<br>for<br>2","1","33","80","2","OTHER"
"html-keyboard-response","65","228903","0.0-6.0-3.19","63e5b3e89a3823139cb9d35e","bdp_sd","Mon Mar 27 2023 09:29:09 GMT-0600 (Central Standard Time)","240144","","null","","","","offerFB","","","","<div class='trialBorder'><div class='vertical-center'><img style='vertical-align:center; align:center' src=img/fixation3.jpg></div><div class='cl'><div class='vertical-center'><font style='color:orange'>$80<br>for<br>Carl P</font></div></div><div class='cr'><div class='vertical-center'>$33<br>for<br>yourself</div></div><div class='respDivL'><div class='vertical-center'><font style='color:orange'>(E)</font></div></div><div class='respDivR'><div class='vertical-center'>(I)</div></div></div>","null","$33<br>for<br>yourself","$80<br>for<br>2","1","33","80","2",""
"html-keyboard-response","66","229404","0.0-6.0-1.20","63e5b3e89a3823139cb9d35e","bdp_sd","Mon Mar 27 2023 09:29:09 GMT-0600 (Central Standard Time)","240144","","null","","","","FIX","","","","<div class='trialBorder'><div class='vertical-center'><img style='vertical-align:center; align:center' src=img/fixation3.jpg></div></div>","null","","","","","","",""
"html-keyboard-response","67","230771","0.0-6.0-2.20","63e5b3e89a3823139cb9d35e","bdp_sd","Mon Mar 27 2023 09:29:09 GMT-0600 (Central Standard Time)","240144","","1365","","","","offer","","","","<div class='trialBorder'><div class='vertical-center'><img style='vertical-align:center; align:center' src=img/fixation3.jpg></div><div class='cl'><div class='vertical-center'>$25<br>for<br>Mark G</div></div><div class='cr'><div class='vertical-center'>$19<br>for<br>yourself</div></div><div class='respDivL'><div class='vertical-center'>(E)</div></div><div class='respDivR'><div class='vertical-center'>(I)</div></div></div>","I","$19<br>for<br>yourself","$25<br>for<br>4","1","19","25","4","SELF"
"html-keyboard-response","68","231023","0.0-6.0-3.20","63e5b3e89a3823139cb9d35e","bdp_sd","Mon Mar 27 2023 09:29:09 GMT-0600 (Central Standard Time)","240144","","null","","","","offerFB","","","","<div class='trialBorder'><div class='vertical-center'><img style='vertical-align:center; align:center' src=img/fixation3.jpg></div><div class='cl'><div class='vertical-center'>$25<br>for<br>Mark G</div></div><div class='cr'><div class='vertical-center'><font style='color:orange'>$19<br>for<br>yourself</font></div></div><div class='respDivL'><div class='vertical-center'>(E)</div></div><div class='respDivR'><div class='vertical-center'><font style='color:orange'>(I)</font></div></div></div>","null","$19<br>for<br>yourself","$25<br>for<br>4","1","19","25","4",""
"html-keyboard-response","69","231525","0.0-6.0-1.21","63e5b3e89a3823139cb9d35e","bdp_sd","Mon Mar 27 2023 09:29:09 GMT-0600 (Central Standard Time)","240144","","null","","","","FIX","","","","<div class='trialBorder'><div class='vertical-center'><img style='vertical-align:center; align:center' src=img/fixation3.jpg></div></div>","null","","","","","","",""
"html-keyboard-response","70","232259","0.0-6.0-2.21","63e5b3e89a3823139cb9d35e","bdp_sd","Mon Mar 27 2023 09:29:09 GMT-0600 (Central Standard Time)","240144","","732","","","","offer","","","","<div class='trialBorder'><div class='vertical-center'><img style='vertical-align:center; align:center' src=img/fixation3.jpg></div><div class='cl'><div class='vertical-center'>$80<br>for<br>yourself</div></div><div class='cr'><div class='vertical-center'>$85<br>for<br>Sebastian M</div></div><div class='respDivL'><div class='vertical-center'>(E)</div></div><div class='respDivR'><div class='vertical-center'>(I)</div></div></div>","E","$80<br>for<br>yourself","$85<br>for<br>5","0","80","85","5","SELF"
"html-keyboard-response","71","232512","0.0-6.0-3.21","63e5b3e89a3823139cb9d35e","bdp_sd","Mon Mar 27 2023 09:29:09 GMT-0600 (Central Standard Time)","240144","","null","","","","offerFB","","","","<div class='trialBorder'><div class='vertical-center'><img style='vertical-align:center; align:center' src=img/fixation3.jpg></div><div class='cl'><div class='vertical-center'><font style='color:orange'>$80<br>for<br>yourself</font></div></div><div class='cr'><div class='vertical-center'>$85<br>for<br>Sebastian M</div></div><div class='respDivL'><div class='vertical-center'><font style='color:orange'>(E)</font></div></div><div class='respDivR'><div class='vertical-center'>(I)</div></div></div>","null","$80<br>for<br>yourself","$85<br>for<br>5","0","80","85","5",""
"html-keyboard-response","72","233014","0.0-6.0-1.22","63e5b3e89a3823139cb9d35e","bdp_sd","Mon Mar 27 2023 09:29:09 GMT-0600 (Central Standard Time)","240144","","null","","","","FIX","","","","<div class='trialBorder'><div class='vertical-center'><img style='vertical-align:center; align:center' src=img/fixation3.jpg></div></div>","null","","","","","","",""
"html-keyboard-response","73","233699","0.0-6.0-2.22","63e5b3e89a3823139cb9d35e","bdp_sd","Mon Mar 27 2023 09:29:09 GMT-0600 (Central Standard Time)","240144","","683","","","","offer","","","","<div class='trialBorder'><div class='vertical-center'><img style='vertical-align:center; align:center' src=img/fixation3.jpg></div><div class='cl'><div class='vertical-center'>$80<br>for<br>Jenny T</div></div><div class='cr'><div class='vertical-center'>$54<br>for<br>yourself</div></div><div class='respDivL'><div class='vertical-center'>(E)</div></div><div class='respDivR'><div class='vertical-center'>(I)</div></div></div>","E","$54<br>for<br>yourself","$80<br>for<br>3","1","54","80","3","OTHER"
"html-keyboard-response","74","233951","0.0-6.0-3.22","63e5b3e89a3823139cb9d35e","bdp_sd","Mon Mar 27 2023 09:29:09 GMT-0600 (Central Standard Time)","240144","","null","","","","offerFB","","","","<div class='trialBorder'><div class='vertical-center'><img style='vertical-align:center; align:center' src=img/fixation3.jpg></div><div class='cl'><div class='vertical-center'><font style='color:orange'>$80<br>for<br>Jenny T</font></div></div><div class='cr'><div class='vertical-center'>$54<br>for<br>yourself</div></div><div class='respDivL'><div class='vertical-center'><font style='color:orange'>(E)</font></div></div><div class='respDivR'><div class='vertical-center'>(I)</div></div></div>","null","$54<br>for<br>yourself","$80<br>for<br>3","1","54","80","3",""
"html-keyboard-response","75","234453","0.0-6.0-1.23","63e5b3e89a3823139cb9d35e","bdp_sd","Mon Mar 27 2023 09:29:09 GMT-0600 (Central Standard Time)","240144","","null","","","","FIX","","","","<div class='trialBorder'><div class='vertical-center'><img style='vertical-align:center; align:center' src=img/fixation3.jpg></div></div>","null","","","","","","",""
"html-keyboard-response","76","234987","0.0-6.0-2.23","63e5b3e89a3823139cb9d35e","bdp_sd","Mon Mar 27 2023 09:29:09 GMT-0600 (Central Standard Time)","240144","","532","","","","offer","","","","<div class='trialBorder'><div class='vertical-center'><img style='vertical-align:center; align:center' src=img/fixation3.jpg></div><div class='cl'><div class='vertical-center'>$55<br>for<br>Sebastian M</div></div><div class='cr'><div class='vertical-center'>$54<br>for<br>yourself</div></div><div class='respDivL'><div class='vertical-center'>(E)</div></div><div class='respDivR'><div class='vertical-center'>(I)</div></div></div>","I","$54<br>for<br>yourself","$55<br>for<br>5","1","54","55","5","SELF"
"html-keyboard-response","77","235239","0.0-6.0-3.23","63e5b3e89a3823139cb9d35e","bdp_sd","Mon Mar 27 2023 09:29:09 GMT-0600 (Central Standard Time)","240144","","null","","","","offerFB","","","","<div class='trialBorder'><div class='vertical-center'><img style='vertical-align:center; align:center' src=img/fixation3.jpg></div><div class='cl'><div class='vertical-center'>$55<br>for<br>Sebastian M</div></div><div class='cr'><div class='vertical-center'><font style='color:orange'>$54<br>for<br>yourself</font></div></div><div class='respDivL'><div class='vertical-center'>(E)</div></div><div class='respDivR'><div class='vertical-center'><font style='color:orange'>(I)</font></div></div></div>","null","$54<br>for<br>yourself","$55<br>for<br>5","1","54","55","5",""
"html-keyboard-response","78","235740","0.0-6.0-1.24","63e5b3e89a3823139cb9d35e","bdp_sd","Mon Mar 27 2023 09:29:09 GMT-0600 (Central Standard Time)","240144","","null","","","","FIX","","","","<div class='trialBorder'><div class='vertical-center'><img style='vertical-align:center; align:center' src=img/fixation3.jpg></div></div>","null","","","","","","",""
"html-keyboard-response","79","236595","0.0-6.0-2.24","63e5b3e89a3823139cb9d35e","bdp_sd","Mon Mar 27 2023 09:29:09 GMT-0600 (Central Standard Time)","240144","","854","","","","offer","","","","<div class='trialBorder'><div class='vertical-center'><img style='vertical-align:center; align:center' src=img/fixation3.jpg></div><div class='cl'><div class='vertical-center'>$35<br>for<br>Sebastian M</div></div><div class='cr'><div class='vertical-center'>$34<br>for<br>yourself</div></div><div class='respDivL'><div class='vertical-center'>(E)</div></div><div class='respDivR'><div class='vertical-center'>(I)</div></div></div>","I","$34<br>for<br>yourself","$35<br>for<br>5","1","34","35","5","SELF"
"html-keyboard-response","80","236848","0.0-6.0-3.24","63e5b3e89a3823139cb9d35e","bdp_sd","Mon Mar 27 2023 09:29:09 GMT-0600 (Central Standard Time)","240144","","null","","","","offerFB","","","","<div class='trialBorder'><div class='vertical-center'><img style='vertical-align:center; align:center' src=img/fixation3.jpg></div><div class='cl'><div class='vertical-center'>$35<br>for<br>Sebastian M</div></div><div class='cr'><div class='vertical-center'><font style='color:orange'>$34<br>for<br>yourself</font></div></div><div class='respDivL'><div class='vertical-center'>(E)</div></div><div class='respDivR'><div class='vertical-center'><font style='color:orange'>(I)</font></div></div></div>","null","$34<br>for<br>yourself","$35<br>for<br>5","1","34","35","5",""
"html-keyboard-response","81","237350","0.0-6.0-1.25","63e5b3e89a3823139cb9d35e","bdp_sd","Mon Mar 27 2023 09:29:09 GMT-0600 (Central Standard Time)","240144","","null","","","","FIX","","","","<div class='trialBorder'><div class='vertical-center'><img style='vertical-align:center; align:center' src=img/fixation3.jpg></div></div>","null","","","","","","",""
"html-keyboard-response","82","237731","0.0-6.0-2.25","63e5b3e89a3823139cb9d35e","bdp_sd","Mon Mar 27 2023 09:29:09 GMT-0600 (Central Standard Time)","240144","","380","","","","offer","","","","<div class='trialBorder'><div class='vertical-center'><img style='vertical-align:center; align:center' src=img/fixation3.jpg></div><div class='cl'><div class='vertical-center'>$78<br>for<br>yourself</div></div><div class='cr'><div class='vertical-center'>$80<br>for<br>Sebastian M</div></div><div class='respDivL'><div class='vertical-center'>(E)</div></div><div class='respDivR'><div class='vertical-center'>(I)</div></div></div>","I","$78<br>for<br>yourself","$80<br>for<br>5","0","78","80","5","OTHER"
"html-keyboard-response","83","237983","0.0-6.0-3.25","63e5b3e89a3823139cb9d35e","bdp_sd","Mon Mar 27 2023 09:29:09 GMT-0600 (Central Standard Time)","240144","","null","","","","offerFB","","","","<div class='trialBorder'><div class='vertical-center'><img style='vertical-align:center; align:center' src=img/fixation3.jpg></div><div class='cl'><div class='vertical-center'>$78<br>for<br>yourself</div></div><div class='cr'><div class='vertical-center'><font style='color:orange'>$80<br>for<br>Sebastian M</font></div></div><div class='respDivL'><div class='vertical-center'>(E)</div></div><div class='respDivR'><div class='vertical-center'><font style='color:orange'>(I)</font></div></div></div>","null","$78<br>for<br>yourself","$80<br>for<br>5","0","78","80","5",""
"html-keyboard-response","84","238485","0.0-6.0-1.26","63e5b3e89a3823139cb9d35e","bdp_sd","Mon Mar 27 2023 09:29:09 GMT-0600 (Central Standard Time)","240144","","null","","","","FIX","","","","<div class='trialBorder'><div class='vertical-center'><img style='vertical-align:center; align:center' src=img/fixation3.jpg></div></div>","null","","","","","","",""
"html-keyboard-response","85","238891","0.0-6.0-2.26","63e5b3e89a3823139cb9d35e","bdp_sd","Mon Mar 27 2023 09:29:09 GMT-0600 (Central Standard Time)","240144","","404","","","","offer","","","","<div class='trialBorder'><div class='vertical-center'><img style='vertical-align:center; align:center' src=img/fixation3.jpg></div><div class='cl'><div class='vertical-center'>$85<br>for<br>Roman F</div></div><div class='cr'><div class='vertical-center'>$31<br>for<br>yourself</div></div><div class='respDivL'><div class='vertical-center'>(E)</div></div><div class='respDivR'><div class='vertical-center'>(I)</div></div></div>","E","$31<br>for<br>yourself","$85<br>for<br>1","1","31","85","1","OTHER"
"html-keyboard-response","86","239143","0.0-6.0-3.26","63e5b3e89a3823139cb9d35e","bdp_sd","Mon Mar 27 2023 09:29:09 GMT-0600 (Central Standard Time)","240144","","null","","","","offerFB","","","","<div class='trialBorder'><div class='vertical-center'><img style='vertical-align:center; align:center' src=img/fixation3.jpg></div><div class='cl'><div class='vertical-center'><font style='color:orange'>$85<br>for<br>Roman F</font></div></div><div class='cr'><div class='vertical-center'>$31<br>for<br>yourself</div></div><div class='respDivL'><div class='vertical-center'><font style='color:orange'>(E)</font></div></div><div class='respDivR'><div class='vertical-center'>(I)</div></div></div>","null","$31<br>for<br>yourself","$85<br>for<br>1","1","31","85","1",""
"","","","","63e5b3e89a3823139cb9d35e","bdp_sd","Mon Mar 27 2023 09:29:09 GMT-0600 (Central Standard Time)","240144","","","fullscreenexit","87","239170","fullscreenexit","","","","","","","","","","","",""
"fullscreen","87","240144","0.0-7.0","63e5b3e89a3823139cb9d35e","bdp_sd","Mon Mar 27 2023 09:29:09 GMT-0600 (Central Standard Time)","240144","","","","","","","","","true","","","","","","","","",""
"html-keyboard-response","88","240646","0.0-8.0","","","","","","null","","","","","","","","","null","","","","","","",""
