"trial_type","trial_index","time_elapsed","internal_node_id","subject_id","task","startTime","totalTime","view_history","rt","responses","event","trial","time","trialtype","success","stimulus","key_press","selfOffer","otherOffer","otherLeft","selfAmt","otherAmt","otherDist","chosen"
"pavlovia","0","2","0.0-0.0","ds_test","bdp_sd","Sun Feb 19 2023 18:32:01 GMT-0500 (Eastern Standard Time)","43966","","","","","","","","","","","","","","","","",""
"instructions","1","2643","0.0-1.0","ds_test","bdp_sd","Sun Feb 19 2023 18:32:01 GMT-0500 (Eastern Standard Time)","43966","[{""page_index"":0,""viewing_time"":2640}]","2641","","","","","","","","","","","","","","",""
"survey-text","2","14153","0.0-2.0","ds_test","bdp_sd","Sun Feb 19 2023 18:32:01 GMT-0500 (Eastern Standard Time)","43966","","11508","{""Q0"":""qw"",""Q1"":""fbf"",""Q2"":""qwe"",""Q3"":""cwds"",""Q4"":""dw""}","","","","","","","","","","","","","",""
"","","","","ds_test","bdp_sd","Sun Feb 19 2023 18:32:01 GMT-0500 (Eastern Standard Time)","43966","","","","fullscreenenter","3","15640","fullscreenenter","","","","","","","","","",""
"fullscreen","3","16647","0.0-3.0","ds_test","bdp_sd","Sun Feb 19 2023 18:32:01 GMT-0500 (Eastern Standard Time)","43966","","","","","","","","true","","","","","","","","",""
"instructions","4","18433","0.0-5.0","ds_test","bdp_sd","Sun Feb 19 2023 18:32:01 GMT-0500 (Eastern Standard Time)","43966","[{""page_index"":0,""viewing_time"":725},{""page_index"":1,""viewing_time"":681},{""page_index"":2,""viewing_time"":379}]","1785","","","","","","","","","","","","","","",""
"html-keyboard-response","5","18942","0.0-6.0-1.0","ds_test","bdp_sd","Sun Feb 19 2023 18:32:01 GMT-0500 (Eastern Standard Time)","43966","","null","","","","","FIX","","<div class='trialBorder'><div class='vertical-center'><img style='vertical-align:center; align:center' src=img/fixation3.jpg></div></div>","null","","","","","","",""
"html-keyboard-response","6","20322","0.0-6.0-2.0","ds_test","bdp_sd","Sun Feb 19 2023 18:32:01 GMT-0500 (Eastern Standard Time)","43966","","1378","","","","","offer","","<div class='trialBorder'><div class='vertical-center'><img style='vertical-align:center; align:center' src=img/fixation3.jpg></div><div class='cl'><div class='vertical-center'>$25<br>for<br>qwe</div></div><div class='cr'><div class='vertical-center'>$14<br>for<br>yourself</div></div><div class='respDivL'><div class='vertical-center'>(E)</div></div><div class='respDivR'><div class='vertical-center'>(I)</div></div></div>","E","$14<br>for<br>yourself","$25<br>for<br>3","1","14","25","3","OTHER"
"html-keyboard-response","7","20576","0.0-6.0-3.0","ds_test","bdp_sd","Sun Feb 19 2023 18:32:01 GMT-0500 (Eastern Standard Time)","43966","","null","","","","","offer","","<div class='trialBorder'><div class='vertical-center'><img style='vertical-align:center; align:center' src=img/fixation3.jpg></div><div class='cl'><div class='vertical-center'><font style='color:orange'>$25<br>for<br>qwe</font></div></div><div class='cr'><div class='vertical-center'>$14<br>for<br>yourself</div></div><div class='respDivL'><div class='vertical-center'><font style='color:orange'>(E)</font></div></div><div class='respDivR'><div class='vertical-center'>(I)</div></div></div>","null","$14<br>for<br>yourself","$25<br>for<br>3","1","14","25","3",""
"html-keyboard-response","8","21086","0.0-6.0-1.1","ds_test","bdp_sd","Sun Feb 19 2023 18:32:01 GMT-0500 (Eastern Standard Time)","43966","","null","","","","","FIX","","<div class='trialBorder'><div class='vertical-center'><img style='vertical-align:center; align:center' src=img/fixation3.jpg></div></div>","null","","","","","","",""
"html-keyboard-response","9","21149","0.0-6.0-2.1","ds_test","bdp_sd","Sun Feb 19 2023 18:32:01 GMT-0500 (Eastern Standard Time)","43966","","60","","","","","offer","","<div class='trialBorder'><div class='vertical-center'><img style='vertical-align:center; align:center' src=img/fixation3.jpg></div><div class='cl'><div class='vertical-center'>$25<br>for<br>yourself</div></div><div class='cr'><div class='vertical-center'>$60<br>for<br>qwe</div></div><div class='respDivL'><div class='vertical-center'>(E)</div></div><div class='respDivR'><div class='vertical-center'>(I)</div></div></div>","E","$25<br>for<br>yourself","$60<br>for<br>3","0","25","60","3","SELF"
"html-keyboard-response","10","21406","0.0-6.0-3.1","ds_test","bdp_sd","Sun Feb 19 2023 18:32:01 GMT-0500 (Eastern Standard Time)","43966","","null","","","","","offer","","<div class='trialBorder'><div class='vertical-center'><img style='vertical-align:center; align:center' src=img/fixation3.jpg></div><div class='cl'><div class='vertical-center'><font style='color:orange'>$25<br>for<br>yourself</font></div></div><div class='cr'><div class='vertical-center'>$60<br>for<br>qwe</div></div><div class='respDivL'><div class='vertical-center'><font style='color:orange'>(E)</font></div></div><div class='respDivR'><div class='vertical-center'>(I)</div></div></div>","null","$25<br>for<br>yourself","$60<br>for<br>3","0","25","60","3",""
"html-keyboard-response","11","21919","0.0-6.0-1.2","ds_test","bdp_sd","Sun Feb 19 2023 18:32:01 GMT-0500 (Eastern Standard Time)","43966","","null","","","","","FIX","","<div class='trialBorder'><div class='vertical-center'><img style='vertical-align:center; align:center' src=img/fixation3.jpg></div></div>","null","","","","","","",""
"html-keyboard-response","12","21924","0.0-6.0-2.2","ds_test","bdp_sd","Sun Feb 19 2023 18:32:01 GMT-0500 (Eastern Standard Time)","43966","","2","","","","","offer","","<div class='trialBorder'><div class='vertical-center'><img style='vertical-align:center; align:center' src=img/fixation3.jpg></div><div class='cl'><div class='vertical-center'>$67<br>for<br>yourself</div></div><div class='cr'><div class='vertical-center'>$75<br>for<br>dw</div></div><div class='respDivL'><div class='vertical-center'>(E)</div></div><div class='respDivR'><div class='vertical-center'>(I)</div></div></div>","E","$67<br>for<br>yourself","$75<br>for<br>5","0","67","75","5","SELF"
"html-keyboard-response","13","22179","0.0-6.0-3.2","ds_test","bdp_sd","Sun Feb 19 2023 18:32:01 GMT-0500 (Eastern Standard Time)","43966","","null","","","","","offer","","<div class='trialBorder'><div class='vertical-center'><img style='vertical-align:center; align:center' src=img/fixation3.jpg></div><div class='cl'><div class='vertical-center'><font style='color:orange'>$67<br>for<br>yourself</font></div></div><div class='cr'><div class='vertical-center'>$75<br>for<br>dw</div></div><div class='respDivL'><div class='vertical-center'><font style='color:orange'>(E)</font></div></div><div class='respDivR'><div class='vertical-center'>(I)</div></div></div>","null","$67<br>for<br>yourself","$75<br>for<br>5","0","67","75","5",""
"html-keyboard-response","14","22687","0.0-6.0-1.3","ds_test","bdp_sd","Sun Feb 19 2023 18:32:01 GMT-0500 (Eastern Standard Time)","43966","","null","","","","","FIX","","<div class='trialBorder'><div class='vertical-center'><img style='vertical-align:center; align:center' src=img/fixation3.jpg></div></div>","null","","","","","","",""
"html-keyboard-response","15","22688","0.0-6.0-2.3","ds_test","bdp_sd","Sun Feb 19 2023 18:32:01 GMT-0500 (Eastern Standard Time)","43966","","0","","","","","offer","","<div class='trialBorder'><div class='vertical-center'><img style='vertical-align:center; align:center' src=img/fixation3.jpg></div><div class='cl'><div class='vertical-center'>$54<br>for<br>yourself</div></div><div class='cr'><div class='vertical-center'>$80<br>for<br>qwe</div></div><div class='respDivL'><div class='vertical-center'>(E)</div></div><div class='respDivR'><div class='vertical-center'>(I)</div></div></div>","E","$54<br>for<br>yourself","$80<br>for<br>3","0","54","80","3","SELF"
"html-keyboard-response","16","22951","0.0-6.0-3.3","ds_test","bdp_sd","Sun Feb 19 2023 18:32:01 GMT-0500 (Eastern Standard Time)","43966","","null","","","","","offer","","<div class='trialBorder'><div class='vertical-center'><img style='vertical-align:center; align:center' src=img/fixation3.jpg></div><div class='cl'><div class='vertical-center'><font style='color:orange'>$54<br>for<br>yourself</font></div></div><div class='cr'><div class='vertical-center'>$80<br>for<br>qwe</div></div><div class='respDivL'><div class='vertical-center'><font style='color:orange'>(E)</font></div></div><div class='respDivR'><div class='vertical-center'>(I)</div></div></div>","null","$54<br>for<br>yourself","$80<br>for<br>3","0","54","80","3",""
"html-keyboard-response","17","23463","0.0-6.0-1.4","ds_test","bdp_sd","Sun Feb 19 2023 18:32:01 GMT-0500 (Eastern Standard Time)","43966","","null","","","","","FIX","","<div class='trialBorder'><div class='vertical-center'><img style='vertical-align:center; align:center' src=img/fixation3.jpg></div></div>","null","","","","","","",""
"html-keyboard-response","18","23500","0.0-6.0-2.4","ds_test","bdp_sd","Sun Feb 19 2023 18:32:01 GMT-0500 (Eastern Standard Time)","43966","","35","","","","","offer","","<div class='trialBorder'><div class='vertical-center'><img style='vertical-align:center; align:center' src=img/fixation3.jpg></div><div class='cl'><div class='vertical-center'>$60<br>for<br>cwds</div></div><div class='cr'><div class='vertical-center'>$49<br>for<br>yourself</div></div><div class='respDivL'><div class='vertical-center'>(E)</div></div><div class='respDivR'><div class='vertical-center'>(I)</div></div></div>","E","$49<br>for<br>yourself","$60<br>for<br>4","1","49","60","4","OTHER"
"html-keyboard-response","19","23758","0.0-6.0-3.4","ds_test","bdp_sd","Sun Feb 19 2023 18:32:01 GMT-0500 (Eastern Standard Time)","43966","","null","","","","","offer","","<div class='trialBorder'><div class='vertical-center'><img style='vertical-align:center; align:center' src=img/fixation3.jpg></div><div class='cl'><div class='vertical-center'><font style='color:orange'>$60<br>for<br>cwds</font></div></div><div class='cr'><div class='vertical-center'>$49<br>for<br>yourself</div></div><div class='respDivL'><div class='vertical-center'><font style='color:orange'>(E)</font></div></div><div class='respDivR'><div class='vertical-center'>(I)</div></div></div>","null","$49<br>for<br>yourself","$60<br>for<br>4","1","49","60","4",""
"html-keyboard-response","20","24270","0.0-6.0-1.5","ds_test","bdp_sd","Sun Feb 19 2023 18:32:01 GMT-0500 (Eastern Standard Time)","43966","","null","","","","","FIX","","<div class='trialBorder'><div class='vertical-center'><img style='vertical-align:center; align:center' src=img/fixation3.jpg></div></div>","null","","","","","","",""
"html-keyboard-response","21","24341","0.0-6.0-2.5","ds_test","bdp_sd","Sun Feb 19 2023 18:32:01 GMT-0500 (Eastern Standard Time)","43966","","69","","","","","offer","","<div class='trialBorder'><div class='vertical-center'><img style='vertical-align:center; align:center' src=img/fixation3.jpg></div><div class='cl'><div class='vertical-center'>$20<br>for<br>yourself</div></div><div class='cr'><div class='vertical-center'>$55<br>for<br>qw</div></div><div class='respDivL'><div class='vertical-center'>(E)</div></div><div class='respDivR'><div class='vertical-center'>(I)</div></div></div>","E","$20<br>for<br>yourself","$55<br>for<br>1","0","20","55","1","SELF"
"html-keyboard-response","22","24595","0.0-6.0-3.5","ds_test","bdp_sd","Sun Feb 19 2023 18:32:01 GMT-0500 (Eastern Standard Time)","43966","","null","","","","","offer","","<div class='trialBorder'><div class='vertical-center'><img style='vertical-align:center; align:center' src=img/fixation3.jpg></div><div class='cl'><div class='vertical-center'><font style='color:orange'>$20<br>for<br>yourself</font></div></div><div class='cr'><div class='vertical-center'>$55<br>for<br>qw</div></div><div class='respDivL'><div class='vertical-center'><font style='color:orange'>(E)</font></div></div><div class='respDivR'><div class='vertical-center'>(I)</div></div></div>","null","$20<br>for<br>yourself","$55<br>for<br>1","0","20","55","1",""
"html-keyboard-response","23","25102","0.0-6.0-1.6","ds_test","bdp_sd","Sun Feb 19 2023 18:32:01 GMT-0500 (Eastern Standard Time)","43966","","null","","","","","FIX","","<div class='trialBorder'><div class='vertical-center'><img style='vertical-align:center; align:center' src=img/fixation3.jpg></div></div>","null","","","","","","",""
"html-keyboard-response","24","25233","0.0-6.0-2.6","ds_test","bdp_sd","Sun Feb 19 2023 18:32:01 GMT-0500 (Eastern Standard Time)","43966","","129","","","","","offer","","<div class='trialBorder'><div class='vertical-center'><img style='vertical-align:center; align:center' src=img/fixation3.jpg></div><div class='cl'><div class='vertical-center'>$35<br>for<br>dw</div></div><div class='cr'><div class='vertical-center'>$34<br>for<br>yourself</div></div><div class='respDivL'><div class='vertical-center'>(E)</div></div><div class='respDivR'><div class='vertical-center'>(I)</div></div></div>","E","$34<br>for<br>yourself","$35<br>for<br>5","1","34","35","5","OTHER"
"html-keyboard-response","25","25491","0.0-6.0-3.6","ds_test","bdp_sd","Sun Feb 19 2023 18:32:01 GMT-0500 (Eastern Standard Time)","43966","","null","","","","","offer","","<div class='trialBorder'><div class='vertical-center'><img style='vertical-align:center; align:center' src=img/fixation3.jpg></div><div class='cl'><div class='vertical-center'><font style='color:orange'>$35<br>for<br>dw</font></div></div><div class='cr'><div class='vertical-center'>$34<br>for<br>yourself</div></div><div class='respDivL'><div class='vertical-center'><font style='color:orange'>(E)</font></div></div><div class='respDivR'><div class='vertical-center'>(I)</div></div></div>","null","$34<br>for<br>yourself","$35<br>for<br>5","1","34","35","5",""
"html-keyboard-response","26","25997","0.0-6.0-1.7","ds_test","bdp_sd","Sun Feb 19 2023 18:32:01 GMT-0500 (Eastern Standard Time)","43966","","null","","","","","FIX","","<div class='trialBorder'><div class='vertical-center'><img style='vertical-align:center; align:center' src=img/fixation3.jpg></div></div>","null","","","","","","",""
"html-keyboard-response","27","26103","0.0-6.0-2.7","ds_test","bdp_sd","Sun Feb 19 2023 18:32:01 GMT-0500 (Eastern Standard Time)","43966","","105","","","","","offer","","<div class='trialBorder'><div class='vertical-center'><img style='vertical-align:center; align:center' src=img/fixation3.jpg></div><div class='cl'><div class='vertical-center'>$80<br>for<br>dw</div></div><div class='cr'><div class='vertical-center'>$78<br>for<br>yourself</div></div><div class='respDivL'><div class='vertical-center'>(E)</div></div><div class='respDivR'><div class='vertical-center'>(I)</div></div></div>","E","$78<br>for<br>yourself","$80<br>for<br>5","1","78","80","5","OTHER"
"html-keyboard-response","28","26354","0.0-6.0-3.7","ds_test","bdp_sd","Sun Feb 19 2023 18:32:01 GMT-0500 (Eastern Standard Time)","43966","","null","","","","","offer","","<div class='trialBorder'><div class='vertical-center'><img style='vertical-align:center; align:center' src=img/fixation3.jpg></div><div class='cl'><div class='vertical-center'><font style='color:orange'>$80<br>for<br>dw</font></div></div><div class='cr'><div class='vertical-center'>$78<br>for<br>yourself</div></div><div class='respDivL'><div class='vertical-center'><font style='color:orange'>(E)</font></div></div><div class='respDivR'><div class='vertical-center'>(I)</div></div></div>","null","$78<br>for<br>yourself","$80<br>for<br>5","1","78","80","5",""
"html-keyboard-response","29","26855","0.0-6.0-1.8","ds_test","bdp_sd","Sun Feb 19 2023 18:32:01 GMT-0500 (Eastern Standard Time)","43966","","null","","","","","FIX","","<div class='trialBorder'><div class='vertical-center'><img style='vertical-align:center; align:center' src=img/fixation3.jpg></div></div>","null","","","","","","",""
"html-keyboard-response","30","27019","0.0-6.0-2.8","ds_test","bdp_sd","Sun Feb 19 2023 18:32:01 GMT-0500 (Eastern Standard Time)","43966","","162","","","","","offer","","<div class='trialBorder'><div class='vertical-center'><img style='vertical-align:center; align:center' src=img/fixation3.jpg></div><div class='cl'><div class='vertical-center'>$85<br>for<br>dw</div></div><div class='cr'><div class='vertical-center'>$80<br>for<br>yourself</div></div><div class='respDivL'><div class='vertical-center'>(E)</div></div><div class='respDivR'><div class='vertical-center'>(I)</div></div></div>","E","$80<br>for<br>yourself","$85<br>for<br>5","1","80","85","5","OTHER"
"html-keyboard-response","31","27278","0.0-6.0-3.8","ds_test","bdp_sd","Sun Feb 19 2023 18:32:01 GMT-0500 (Eastern Standard Time)","43966","","null","","","","","offer","","<div class='trialBorder'><div class='vertical-center'><img style='vertical-align:center; align:center' src=img/fixation3.jpg></div><div class='cl'><div class='vertical-center'><font style='color:orange'>$85<br>for<br>dw</font></div></div><div class='cr'><div class='vertical-center'>$80<br>for<br>yourself</div></div><div class='respDivL'><div class='vertical-center'><font style='color:orange'>(E)</font></div></div><div class='respDivR'><div class='vertical-center'>(I)</div></div></div>","null","$80<br>for<br>yourself","$85<br>for<br>5","1","80","85","5",""
"html-keyboard-response","32","27786","0.0-6.0-1.9","ds_test","bdp_sd","Sun Feb 19 2023 18:32:01 GMT-0500 (Eastern Standard Time)","43966","","null","","","","","FIX","","<div class='trialBorder'><div class='vertical-center'><img style='vertical-align:center; align:center' src=img/fixation3.jpg></div></div>","null","","","","","","",""
"html-keyboard-response","33","27893","0.0-6.0-2.9","ds_test","bdp_sd","Sun Feb 19 2023 18:32:01 GMT-0500 (Eastern Standard Time)","43966","","106","","","","","offer","","<div class='trialBorder'><div class='vertical-center'><img style='vertical-align:center; align:center' src=img/fixation3.jpg></div><div class='cl'><div class='vertical-center'>$11<br>for<br>yourself</div></div><div class='cr'><div class='vertical-center'>$30<br>for<br>fbf</div></div><div class='respDivL'><div class='vertical-center'>(E)</div></div><div class='respDivR'><div class='vertical-center'>(I)</div></div></div>","E","$11<br>for<br>yourself","$30<br>for<br>2","0","11","30","2","SELF"
"html-keyboard-response","34","28148","0.0-6.0-3.9","ds_test","bdp_sd","Sun Feb 19 2023 18:32:01 GMT-0500 (Eastern Standard Time)","43966","","null","","","","","offer","","<div class='trialBorder'><div class='vertical-center'><img style='vertical-align:center; align:center' src=img/fixation3.jpg></div><div class='cl'><div class='vertical-center'><font style='color:orange'>$11<br>for<br>yourself</font></div></div><div class='cr'><div class='vertical-center'>$30<br>for<br>fbf</div></div><div class='respDivL'><div class='vertical-center'><font style='color:orange'>(E)</font></div></div><div class='respDivR'><div class='vertical-center'>(I)</div></div></div>","null","$11<br>for<br>yourself","$30<br>for<br>2","0","11","30","2",""
"html-keyboard-response","35","28654","0.0-6.0-1.10","ds_test","bdp_sd","Sun Feb 19 2023 18:32:01 GMT-0500 (Eastern Standard Time)","43966","","null","","","","","FIX","","<div class='trialBorder'><div class='vertical-center'><img style='vertical-align:center; align:center' src=img/fixation3.jpg></div></div>","null","","","","","","",""
"html-keyboard-response","36","28800","0.0-6.0-2.10","ds_test","bdp_sd","Sun Feb 19 2023 18:32:01 GMT-0500 (Eastern Standard Time)","43966","","143","","","","","offer","","<div class='trialBorder'><div class='vertical-center'><img style='vertical-align:center; align:center' src=img/fixation3.jpg></div><div class='cl'><div class='vertical-center'>$75<br>for<br>cwds</div></div><div class='cr'><div class='vertical-center'>$55<br>for<br>yourself</div></div><div class='respDivL'><div class='vertical-center'>(E)</div></div><div class='respDivR'><div class='vertical-center'>(I)</div></div></div>","E","$55<br>for<br>yourself","$75<br>for<br>4","1","55","75","4","OTHER"
"html-keyboard-response","37","29065","0.0-6.0-3.10","ds_test","bdp_sd","Sun Feb 19 2023 18:32:01 GMT-0500 (Eastern Standard Time)","43966","","null","","","","","offer","","<div class='trialBorder'><div class='vertical-center'><img style='vertical-align:center; align:center' src=img/fixation3.jpg></div><div class='cl'><div class='vertical-center'><font style='color:orange'>$75<br>for<br>cwds</font></div></div><div class='cr'><div class='vertical-center'>$55<br>for<br>yourself</div></div><div class='respDivL'><div class='vertical-center'><font style='color:orange'>(E)</font></div></div><div class='respDivR'><div class='vertical-center'>(I)</div></div></div>","null","$55<br>for<br>yourself","$75<br>for<br>4","1","55","75","4",""
"html-keyboard-response","38","29571","0.0-6.0-1.11","ds_test","bdp_sd","Sun Feb 19 2023 18:32:01 GMT-0500 (Eastern Standard Time)","43966","","null","","","","","FIX","","<div class='trialBorder'><div class='vertical-center'><img style='vertical-align:center; align:center' src=img/fixation3.jpg></div></div>","null","","","","","","",""
"html-keyboard-response","39","29681","0.0-6.0-2.11","ds_test","bdp_sd","Sun Feb 19 2023 18:32:01 GMT-0500 (Eastern Standard Time)","43966","","108","","","","","offer","","<div class='trialBorder'><div class='vertical-center'><img style='vertical-align:center; align:center' src=img/fixation3.jpg></div><div class='cl'><div class='vertical-center'>$85<br>for<br>cwds</div></div><div class='cr'><div class='vertical-center'>$69<br>for<br>yourself</div></div><div class='respDivL'><div class='vertical-center'>(E)</div></div><div class='respDivR'><div class='vertical-center'>(I)</div></div></div>","E","$69<br>for<br>yourself","$85<br>for<br>4","1","69","85","4","OTHER"
"html-keyboard-response","40","29939","0.0-6.0-3.11","ds_test","bdp_sd","Sun Feb 19 2023 18:32:01 GMT-0500 (Eastern Standard Time)","43966","","null","","","","","offer","","<div class='trialBorder'><div class='vertical-center'><img style='vertical-align:center; align:center' src=img/fixation3.jpg></div><div class='cl'><div class='vertical-center'><font style='color:orange'>$85<br>for<br>cwds</font></div></div><div class='cr'><div class='vertical-center'>$69<br>for<br>yourself</div></div><div class='respDivL'><div class='vertical-center'><font style='color:orange'>(E)</font></div></div><div class='respDivR'><div class='vertical-center'>(I)</div></div></div>","null","$69<br>for<br>yourself","$85<br>for<br>4","1","69","85","4",""
"html-keyboard-response","41","30440","0.0-6.0-1.12","ds_test","bdp_sd","Sun Feb 19 2023 18:32:01 GMT-0500 (Eastern Standard Time)","43966","","null","","","","","FIX","","<div class='trialBorder'><div class='vertical-center'><img style='vertical-align:center; align:center' src=img/fixation3.jpg></div></div>","null","","","","","","",""
"html-keyboard-response","42","30631","0.0-6.0-2.12","ds_test","bdp_sd","Sun Feb 19 2023 18:32:01 GMT-0500 (Eastern Standard Time)","43966","","191","","","","","offer","","<div class='trialBorder'><div class='vertical-center'><img style='vertical-align:center; align:center' src=img/fixation3.jpg></div><div class='cl'><div class='vertical-center'>$55<br>for<br>dw</div></div><div class='cr'><div class='vertical-center'>$54<br>for<br>yourself</div></div><div class='respDivL'><div class='vertical-center'>(E)</div></div><div class='respDivR'><div class='vertical-center'>(I)</div></div></div>","E","$54<br>for<br>yourself","$55<br>for<br>5","1","54","55","5","OTHER"
"html-keyboard-response","43","30894","0.0-6.0-3.12","ds_test","bdp_sd","Sun Feb 19 2023 18:32:01 GMT-0500 (Eastern Standard Time)","43966","","null","","","","","offer","","<div class='trialBorder'><div class='vertical-center'><img style='vertical-align:center; align:center' src=img/fixation3.jpg></div><div class='cl'><div class='vertical-center'><font style='color:orange'>$55<br>for<br>dw</font></div></div><div class='cr'><div class='vertical-center'>$54<br>for<br>yourself</div></div><div class='respDivL'><div class='vertical-center'><font style='color:orange'>(E)</font></div></div><div class='respDivR'><div class='vertical-center'>(I)</div></div></div>","null","$54<br>for<br>yourself","$55<br>for<br>5","1","54","55","5",""
"html-keyboard-response","44","31395","0.0-6.0-1.13","ds_test","bdp_sd","Sun Feb 19 2023 18:32:01 GMT-0500 (Eastern Standard Time)","43966","","null","","","","","FIX","","<div class='trialBorder'><div class='vertical-center'><img style='vertical-align:center; align:center' src=img/fixation3.jpg></div></div>","null","","","","","","",""
"html-keyboard-response","45","31489","0.0-6.0-2.13","ds_test","bdp_sd","Sun Feb 19 2023 18:32:01 GMT-0500 (Eastern Standard Time)","43966","","91","","","","","offer","","<div class='trialBorder'><div class='vertical-center'><img style='vertical-align:center; align:center' src=img/fixation3.jpg></div><div class='cl'><div class='vertical-center'>$85<br>for<br>qw</div></div><div class='cr'><div class='vertical-center'>$31<br>for<br>yourself</div></div><div class='respDivL'><div class='vertical-center'>(E)</div></div><div class='respDivR'><div class='vertical-center'>(I)</div></div></div>","E","$31<br>for<br>yourself","$85<br>for<br>1","1","31","85","1","OTHER"
"html-keyboard-response","46","31747","0.0-6.0-3.13","ds_test","bdp_sd","Sun Feb 19 2023 18:32:01 GMT-0500 (Eastern Standard Time)","43966","","null","","","","","offer","","<div class='trialBorder'><div class='vertical-center'><img style='vertical-align:center; align:center' src=img/fixation3.jpg></div><div class='cl'><div class='vertical-center'><font style='color:orange'>$85<br>for<br>qw</font></div></div><div class='cr'><div class='vertical-center'>$31<br>for<br>yourself</div></div><div class='respDivL'><div class='vertical-center'><font style='color:orange'>(E)</font></div></div><div class='respDivR'><div class='vertical-center'>(I)</div></div></div>","null","$31<br>for<br>yourself","$85<br>for<br>1","1","31","85","1",""
"html-keyboard-response","47","32254","0.0-6.0-1.14","ds_test","bdp_sd","Sun Feb 19 2023 18:32:01 GMT-0500 (Eastern Standard Time)","43966","","null","","","","","FIX","","<div class='trialBorder'><div class='vertical-center'><img style='vertical-align:center; align:center' src=img/fixation3.jpg></div></div>","null","","","","","","",""
"html-keyboard-response","48","32653","0.0-6.0-2.14","ds_test","bdp_sd","Sun Feb 19 2023 18:32:01 GMT-0500 (Eastern Standard Time)","43966","","397","","","","","offer","","<div class='trialBorder'><div class='vertical-center'><img style='vertical-align:center; align:center' src=img/fixation3.jpg></div><div class='cl'><div class='vertical-center'>$30<br>for<br>dw</div></div><div class='cr'><div class='vertical-center'>$28<br>for<br>yourself</div></div><div class='respDivL'><div class='vertical-center'>(E)</div></div><div class='respDivR'><div class='vertical-center'>(I)</div></div></div>","I","$28<br>for<br>yourself","$30<br>for<br>5","1","28","30","5","SELF"
"html-keyboard-response","49","32910","0.0-6.0-3.14","ds_test","bdp_sd","Sun Feb 19 2023 18:32:01 GMT-0500 (Eastern Standard Time)","43966","","null","","","","","offer","","<div class='trialBorder'><div class='vertical-center'><img style='vertical-align:center; align:center' src=img/fixation3.jpg></div><div class='cl'><div class='vertical-center'>$30<br>for<br>dw</div></div><div class='cr'><div class='vertical-center'><font style='color:orange'>$28<br>for<br>yourself</font></div></div><div class='respDivL'><div class='vertical-center'>(E)</div></div><div class='respDivR'><div class='vertical-center'><font style='color:orange'>(I)</font></div></div></div>","null","$28<br>for<br>yourself","$30<br>for<br>5","1","28","30","5",""
"html-keyboard-response","50","33422","0.0-6.0-1.15","ds_test","bdp_sd","Sun Feb 19 2023 18:32:01 GMT-0500 (Eastern Standard Time)","43966","","null","","","","","FIX","","<div class='trialBorder'><div class='vertical-center'><img style='vertical-align:center; align:center' src=img/fixation3.jpg></div></div>","null","","","","","","",""
"html-keyboard-response","51","33488","0.0-6.0-2.15","ds_test","bdp_sd","Sun Feb 19 2023 18:32:01 GMT-0500 (Eastern Standard Time)","43966","","64","","","","","offer","","<div class='trialBorder'><div class='vertical-center'><img style='vertical-align:center; align:center' src=img/fixation3.jpg></div><div class='cl'><div class='vertical-center'>$33<br>for<br>yourself</div></div><div class='cr'><div class='vertical-center'>$80<br>for<br>fbf</div></div><div class='respDivL'><div class='vertical-center'>(E)</div></div><div class='respDivR'><div class='vertical-center'>(I)</div></div></div>","I","$33<br>for<br>yourself","$80<br>for<br>2","0","33","80","2","OTHER"
"html-keyboard-response","52","33747","0.0-6.0-3.15","ds_test","bdp_sd","Sun Feb 19 2023 18:32:01 GMT-0500 (Eastern Standard Time)","43966","","null","","","","","offer","","<div class='trialBorder'><div class='vertical-center'><img style='vertical-align:center; align:center' src=img/fixation3.jpg></div><div class='cl'><div class='vertical-center'>$33<br>for<br>yourself</div></div><div class='cr'><div class='vertical-center'><font style='color:orange'>$80<br>for<br>fbf</font></div></div><div class='respDivL'><div class='vertical-center'>(E)</div></div><div class='respDivR'><div class='vertical-center'><font style='color:orange'>(I)</font></div></div></div>","null","$33<br>for<br>yourself","$80<br>for<br>2","0","33","80","2",""
"html-keyboard-response","53","34254","0.0-6.0-1.16","ds_test","bdp_sd","Sun Feb 19 2023 18:32:01 GMT-0500 (Eastern Standard Time)","43966","","null","","","","","FIX","","<div class='trialBorder'><div class='vertical-center'><img style='vertical-align:center; align:center' src=img/fixation3.jpg></div></div>","null","","","","","","",""
"html-keyboard-response","54","34384","0.0-6.0-2.16","ds_test","bdp_sd","Sun Feb 19 2023 18:32:01 GMT-0500 (Eastern Standard Time)","43966","","127","","","","","offer","","<div class='trialBorder'><div class='vertical-center'><img style='vertical-align:center; align:center' src=img/fixation3.jpg></div><div class='cl'><div class='vertical-center'>$55<br>for<br>cwds</div></div><div class='cr'><div class='vertical-center'>$40<br>for<br>yourself</div></div><div class='respDivL'><div class='vertical-center'>(E)</div></div><div class='respDivR'><div class='vertical-center'>(I)</div></div></div>","I","$40<br>for<br>yourself","$55<br>for<br>4","1","40","55","4","SELF"
"html-keyboard-response","55","34647","0.0-6.0-3.16","ds_test","bdp_sd","Sun Feb 19 2023 18:32:01 GMT-0500 (Eastern Standard Time)","43966","","null","","","","","offer","","<div class='trialBorder'><div class='vertical-center'><img style='vertical-align:center; align:center' src=img/fixation3.jpg></div><div class='cl'><div class='vertical-center'>$55<br>for<br>cwds</div></div><div class='cr'><div class='vertical-center'><font style='color:orange'>$40<br>for<br>yourself</font></div></div><div class='respDivL'><div class='vertical-center'>(E)</div></div><div class='respDivR'><div class='vertical-center'><font style='color:orange'>(I)</font></div></div></div>","null","$40<br>for<br>yourself","$55<br>for<br>4","1","40","55","4",""
"html-keyboard-response","56","35159","0.0-6.0-1.17","ds_test","bdp_sd","Sun Feb 19 2023 18:32:01 GMT-0500 (Eastern Standard Time)","43966","","null","","","","","FIX","","<div class='trialBorder'><div class='vertical-center'><img style='vertical-align:center; align:center' src=img/fixation3.jpg></div></div>","null","","","","","","",""
"html-keyboard-response","57","35262","0.0-6.0-2.17","ds_test","bdp_sd","Sun Feb 19 2023 18:32:01 GMT-0500 (Eastern Standard Time)","43966","","101","","","","","offer","","<div class='trialBorder'><div class='vertical-center'><img style='vertical-align:center; align:center' src=img/fixation3.jpg></div><div class='cl'><div class='vertical-center'>$60<br>for<br>dw</div></div><div class='cr'><div class='vertical-center'>$54<br>for<br>yourself</div></div><div class='respDivL'><div class='vertical-center'>(E)</div></div><div class='respDivR'><div class='vertical-center'>(I)</div></div></div>","I","$54<br>for<br>yourself","$60<br>for<br>5","1","54","60","5","SELF"
"html-keyboard-response","58","35518","0.0-6.0-3.17","ds_test","bdp_sd","Sun Feb 19 2023 18:32:01 GMT-0500 (Eastern Standard Time)","43966","","null","","","","","offer","","<div class='trialBorder'><div class='vertical-center'><img style='vertical-align:center; align:center' src=img/fixation3.jpg></div><div class='cl'><div class='vertical-center'>$60<br>for<br>dw</div></div><div class='cr'><div class='vertical-center'><font style='color:orange'>$54<br>for<br>yourself</font></div></div><div class='respDivL'><div class='vertical-center'>(E)</div></div><div class='respDivR'><div class='vertical-center'><font style='color:orange'>(I)</font></div></div></div>","null","$54<br>for<br>yourself","$60<br>for<br>5","1","54","60","5",""
"html-keyboard-response","59","36030","0.0-6.0-1.18","ds_test","bdp_sd","Sun Feb 19 2023 18:32:01 GMT-0500 (Eastern Standard Time)","43966","","null","","","","","FIX","","<div class='trialBorder'><div class='vertical-center'><img style='vertical-align:center; align:center' src=img/fixation3.jpg></div></div>","null","","","","","","",""
"html-keyboard-response","60","36053","0.0-6.0-2.18","ds_test","bdp_sd","Sun Feb 19 2023 18:32:01 GMT-0500 (Eastern Standard Time)","43966","","23","","","","","offer","","<div class='trialBorder'><div class='vertical-center'><img style='vertical-align:center; align:center' src=img/fixation3.jpg></div><div class='cl'><div class='vertical-center'>$19<br>for<br>yourself</div></div><div class='cr'><div class='vertical-center'>$25<br>for<br>cwds</div></div><div class='respDivL'><div class='vertical-center'>(E)</div></div><div class='respDivR'><div class='vertical-center'>(I)</div></div></div>","I","$19<br>for<br>yourself","$25<br>for<br>4","0","19","25","4","OTHER"
"html-keyboard-response","61","36311","0.0-6.0-3.18","ds_test","bdp_sd","Sun Feb 19 2023 18:32:01 GMT-0500 (Eastern Standard Time)","43966","","null","","","","","offer","","<div class='trialBorder'><div class='vertical-center'><img style='vertical-align:center; align:center' src=img/fixation3.jpg></div><div class='cl'><div class='vertical-center'>$19<br>for<br>yourself</div></div><div class='cr'><div class='vertical-center'><font style='color:orange'>$25<br>for<br>cwds</font></div></div><div class='respDivL'><div class='vertical-center'>(E)</div></div><div class='respDivR'><div class='vertical-center'><font style='color:orange'>(I)</font></div></div></div>","null","$19<br>for<br>yourself","$25<br>for<br>4","0","19","25","4",""
"html-keyboard-response","62","36818","0.0-6.0-1.19","ds_test","bdp_sd","Sun Feb 19 2023 18:32:01 GMT-0500 (Eastern Standard Time)","43966","","null","","","","","FIX","","<div class='trialBorder'><div class='vertical-center'><img style='vertical-align:center; align:center' src=img/fixation3.jpg></div></div>","null","","","","","","",""
"html-keyboard-response","63","37004","0.0-6.0-2.19","ds_test","bdp_sd","Sun Feb 19 2023 18:32:01 GMT-0500 (Eastern Standard Time)","43966","","184","","","","","offer","","<div class='trialBorder'><div class='vertical-center'><img style='vertical-align:center; align:center' src=img/fixation3.jpg></div><div class='cl'><div class='vertical-center'>$27<br>for<br>yourself</div></div><div class='cr'><div class='vertical-center'>$50<br>for<br>qwe</div></div><div class='respDivL'><div class='vertical-center'>(E)</div></div><div class='respDivR'><div class='vertical-center'>(I)</div></div></div>","I","$27<br>for<br>yourself","$50<br>for<br>3","0","27","50","3","OTHER"
"html-keyboard-response","64","37262","0.0-6.0-3.19","ds_test","bdp_sd","Sun Feb 19 2023 18:32:01 GMT-0500 (Eastern Standard Time)","43966","","null","","","","","offer","","<div class='trialBorder'><div class='vertical-center'><img style='vertical-align:center; align:center' src=img/fixation3.jpg></div><div class='cl'><div class='vertical-center'>$27<br>for<br>yourself</div></div><div class='cr'><div class='vertical-center'><font style='color:orange'>$50<br>for<br>qwe</font></div></div><div class='respDivL'><div class='vertical-center'>(E)</div></div><div class='respDivR'><div class='vertical-center'><font style='color:orange'>(I)</font></div></div></div>","null","$27<br>for<br>yourself","$50<br>for<br>3","0","27","50","3",""
"html-keyboard-response","65","37774","0.0-6.0-1.20","ds_test","bdp_sd","Sun Feb 19 2023 18:32:01 GMT-0500 (Eastern Standard Time)","43966","","null","","","","","FIX","","<div class='trialBorder'><div class='vertical-center'><img style='vertical-align:center; align:center' src=img/fixation3.jpg></div></div>","null","","","","","","",""
"html-keyboard-response","66","37782","0.0-6.0-2.20","ds_test","bdp_sd","Sun Feb 19 2023 18:32:01 GMT-0500 (Eastern Standard Time)","43966","","6","","","","","offer","","<div class='trialBorder'><div class='vertical-center'><img style='vertical-align:center; align:center' src=img/fixation3.jpg></div><div class='cl'><div class='vertical-center'>$15<br>for<br>yourself</div></div><div class='cr'><div class='vertical-center'>$35<br>for<br>fbf</div></div><div class='respDivL'><div class='vertical-center'>(E)</div></div><div class='respDivR'><div class='vertical-center'>(I)</div></div></div>","I","$15<br>for<br>yourself","$35<br>for<br>2","0","15","35","2","OTHER"
"html-keyboard-response","67","38035","0.0-6.0-3.20","ds_test","bdp_sd","Sun Feb 19 2023 18:32:01 GMT-0500 (Eastern Standard Time)","43966","","null","","","","","offer","","<div class='trialBorder'><div class='vertical-center'><img style='vertical-align:center; align:center' src=img/fixation3.jpg></div><div class='cl'><div class='vertical-center'>$15<br>for<br>yourself</div></div><div class='cr'><div class='vertical-center'><font style='color:orange'>$35<br>for<br>fbf</font></div></div><div class='respDivL'><div class='vertical-center'>(E)</div></div><div class='respDivR'><div class='vertical-center'><font style='color:orange'>(I)</font></div></div></div>","null","$15<br>for<br>yourself","$35<br>for<br>2","0","15","35","2",""
"html-keyboard-response","68","38542","0.0-6.0-1.21","ds_test","bdp_sd","Sun Feb 19 2023 18:32:01 GMT-0500 (Eastern Standard Time)","43966","","null","","","","","FIX","","<div class='trialBorder'><div class='vertical-center'><img style='vertical-align:center; align:center' src=img/fixation3.jpg></div></div>","null","","","","","","",""
"html-keyboard-response","69","38548","0.0-6.0-2.21","ds_test","bdp_sd","Sun Feb 19 2023 18:32:01 GMT-0500 (Eastern Standard Time)","43966","","6","","","","","offer","","<div class='trialBorder'><div class='vertical-center'><img style='vertical-align:center; align:center' src=img/fixation3.jpg></div><div class='cl'><div class='vertical-center'>$34<br>for<br>yourself</div></div><div class='cr'><div class='vertical-center'>$50<br>for<br>cwds</div></div><div class='respDivL'><div class='vertical-center'>(E)</div></div><div class='respDivR'><div class='vertical-center'>(I)</div></div></div>","I","$34<br>for<br>yourself","$50<br>for<br>4","0","34","50","4","OTHER"
"html-keyboard-response","70","38803","0.0-6.0-3.21","ds_test","bdp_sd","Sun Feb 19 2023 18:32:01 GMT-0500 (Eastern Standard Time)","43966","","null","","","","","offer","","<div class='trialBorder'><div class='vertical-center'><img style='vertical-align:center; align:center' src=img/fixation3.jpg></div><div class='cl'><div class='vertical-center'>$34<br>for<br>yourself</div></div><div class='cr'><div class='vertical-center'><font style='color:orange'>$50<br>for<br>cwds</font></div></div><div class='respDivL'><div class='vertical-center'>(E)</div></div><div class='respDivR'><div class='vertical-center'><font style='color:orange'>(I)</font></div></div></div>","null","$34<br>for<br>yourself","$50<br>for<br>4","0","34","50","4",""
"html-keyboard-response","71","39309","0.0-6.0-1.22","ds_test","bdp_sd","Sun Feb 19 2023 18:32:01 GMT-0500 (Eastern Standard Time)","43966","","null","","","","","FIX","","<div class='trialBorder'><div class='vertical-center'><img style='vertical-align:center; align:center' src=img/fixation3.jpg></div></div>","null","","","","","","",""
"html-keyboard-response","72","39348","0.0-6.0-2.22","ds_test","bdp_sd","Sun Feb 19 2023 18:32:01 GMT-0500 (Eastern Standard Time)","43966","","38","","","","","offer","","<div class='trialBorder'><div class='vertical-center'><img style='vertical-align:center; align:center' src=img/fixation3.jpg></div><div class='cl'><div class='vertical-center'>$75<br>for<br>qwe</div></div><div class='cr'><div class='vertical-center'>$41<br>for<br>yourself</div></div><div class='respDivL'><div class='vertical-center'>(E)</div></div><div class='respDivR'><div class='vertical-center'>(I)</div></div></div>","I","$41<br>for<br>yourself","$75<br>for<br>3","1","41","75","3","SELF"
"html-keyboard-response","73","39604","0.0-6.0-3.22","ds_test","bdp_sd","Sun Feb 19 2023 18:32:01 GMT-0500 (Eastern Standard Time)","43966","","null","","","","","offer","","<div class='trialBorder'><div class='vertical-center'><img style='vertical-align:center; align:center' src=img/fixation3.jpg></div><div class='cl'><div class='vertical-center'>$75<br>for<br>qwe</div></div><div class='cr'><div class='vertical-center'><font style='color:orange'>$41<br>for<br>yourself</font></div></div><div class='respDivL'><div class='vertical-center'>(E)</div></div><div class='respDivR'><div class='vertical-center'><font style='color:orange'>(I)</font></div></div></div>","null","$41<br>for<br>yourself","$75<br>for<br>3","1","41","75","3",""
"html-keyboard-response","74","40111","0.0-6.0-1.23","ds_test","bdp_sd","Sun Feb 19 2023 18:32:01 GMT-0500 (Eastern Standard Time)","43966","","null","","","","","FIX","","<div class='trialBorder'><div class='vertical-center'><img style='vertical-align:center; align:center' src=img/fixation3.jpg></div></div>","null","","","","","","",""
"html-keyboard-response","75","40144","0.0-6.0-2.23","ds_test","bdp_sd","Sun Feb 19 2023 18:32:01 GMT-0500 (Eastern Standard Time)","43966","","31","","","","","offer","","<div class='trialBorder'><div class='vertical-center'><img style='vertical-align:center; align:center' src=img/fixation3.jpg></div><div class='cl'><div class='vertical-center'>$25<br>for<br>yourself</div></div><div class='cr'><div class='vertical-center'>$30<br>for<br>cwds</div></div><div class='respDivL'><div class='vertical-center'>(E)</div></div><div class='respDivR'><div class='vertical-center'>(I)</div></div></div>","I","$25<br>for<br>yourself","$30<br>for<br>4","0","25","30","4","OTHER"
"html-keyboard-response","76","40404","0.0-6.0-3.23","ds_test","bdp_sd","Sun Feb 19 2023 18:32:01 GMT-0500 (Eastern Standard Time)","43966","","null","","","","","offer","","<div class='trialBorder'><div class='vertical-center'><img style='vertical-align:center; align:center' src=img/fixation3.jpg></div><div class='cl'><div class='vertical-center'>$25<br>for<br>yourself</div></div><div class='cr'><div class='vertical-center'><font style='color:orange'>$30<br>for<br>cwds</font></div></div><div class='respDivL'><div class='vertical-center'>(E)</div></div><div class='respDivR'><div class='vertical-center'><font style='color:orange'>(I)</font></div></div></div>","null","$25<br>for<br>yourself","$30<br>for<br>4","0","25","30","4",""
"html-keyboard-response","77","40910","0.0-6.0-1.24","ds_test","bdp_sd","Sun Feb 19 2023 18:32:01 GMT-0500 (Eastern Standard Time)","43966","","null","","","","","FIX","","<div class='trialBorder'><div class='vertical-center'><img style='vertical-align:center; align:center' src=img/fixation3.jpg></div></div>","null","","","","","","",""
"html-keyboard-response","78","40999","0.0-6.0-2.24","ds_test","bdp_sd","Sun Feb 19 2023 18:32:01 GMT-0500 (Eastern Standard Time)","43966","","86","","","","","offer","","<div class='trialBorder'><div class='vertical-center'><img style='vertical-align:center; align:center' src=img/fixation3.jpg></div><div class='cl'><div class='vertical-center'>$47<br>for<br>yourself</div></div><div class='cr'><div class='vertical-center'>$50<br>for<br>dw</div></div><div class='respDivL'><div class='vertical-center'>(E)</div></div><div class='respDivR'><div class='vertical-center'>(I)</div></div></div>","I","$47<br>for<br>yourself","$50<br>for<br>5","0","47","50","5","OTHER"
"html-keyboard-response","79","41255","0.0-6.0-3.24","ds_test","bdp_sd","Sun Feb 19 2023 18:32:01 GMT-0500 (Eastern Standard Time)","43966","","null","","","","","offer","","<div class='trialBorder'><div class='vertical-center'><img style='vertical-align:center; align:center' src=img/fixation3.jpg></div><div class='cl'><div class='vertical-center'>$47<br>for<br>yourself</div></div><div class='cr'><div class='vertical-center'><font style='color:orange'>$50<br>for<br>dw</font></div></div><div class='respDivL'><div class='vertical-center'>(E)</div></div><div class='respDivR'><div class='vertical-center'><font style='color:orange'>(I)</font></div></div></div>","null","$47<br>for<br>yourself","$50<br>for<br>5","0","47","50","5",""
"html-keyboard-response","80","41765","0.0-6.0-1.25","ds_test","bdp_sd","Sun Feb 19 2023 18:32:01 GMT-0500 (Eastern Standard Time)","43966","","null","","","","","FIX","","<div class='trialBorder'><div class='vertical-center'><img style='vertical-align:center; align:center' src=img/fixation3.jpg></div></div>","null","","","","","","",""
"html-keyboard-response","81","41864","0.0-6.0-2.25","ds_test","bdp_sd","Sun Feb 19 2023 18:32:01 GMT-0500 (Eastern Standard Time)","43966","","98","","","","","offer","","<div class='trialBorder'><div class='vertical-center'><img style='vertical-align:center; align:center' src=img/fixation3.jpg></div><div class='cl'><div class='vertical-center'>$24<br>for<br>yourself</div></div><div class='cr'><div class='vertical-center'>$35<br>for<br>qwe</div></div><div class='respDivL'><div class='vertical-center'>(E)</div></div><div class='respDivR'><div class='vertical-center'>(I)</div></div></div>","I","$24<br>for<br>yourself","$35<br>for<br>3","0","24","35","3","OTHER"
"html-keyboard-response","82","42126","0.0-6.0-3.25","ds_test","bdp_sd","Sun Feb 19 2023 18:32:01 GMT-0500 (Eastern Standard Time)","43966","","null","","","","","offer","","<div class='trialBorder'><div class='vertical-center'><img style='vertical-align:center; align:center' src=img/fixation3.jpg></div><div class='cl'><div class='vertical-center'>$24<br>for<br>yourself</div></div><div class='cr'><div class='vertical-center'><font style='color:orange'>$35<br>for<br>qwe</font></div></div><div class='respDivL'><div class='vertical-center'>(E)</div></div><div class='respDivR'><div class='vertical-center'><font style='color:orange'>(I)</font></div></div></div>","null","$24<br>for<br>yourself","$35<br>for<br>3","0","24","35","3",""
"html-keyboard-response","83","42638","0.0-6.0-1.26","ds_test","bdp_sd","Sun Feb 19 2023 18:32:01 GMT-0500 (Eastern Standard Time)","43966","","null","","","","","FIX","","<div class='trialBorder'><div class='vertical-center'><img style='vertical-align:center; align:center' src=img/fixation3.jpg></div></div>","null","","","","","","",""
"html-keyboard-response","84","42702","0.0-6.0-2.26","ds_test","bdp_sd","Sun Feb 19 2023 18:32:01 GMT-0500 (Eastern Standard Time)","43966","","64","","","","","offer","","<div class='trialBorder'><div class='vertical-center'><img style='vertical-align:center; align:center' src=img/fixation3.jpg></div><div class='cl'><div class='vertical-center'>$22<br>for<br>yourself</div></div><div class='cr'><div class='vertical-center'>$25<br>for<br>dw</div></div><div class='respDivL'><div class='vertical-center'>(E)</div></div><div class='respDivR'><div class='vertical-center'>(I)</div></div></div>","I","$22<br>for<br>yourself","$25<br>for<br>5","0","22","25","5","OTHER"
"html-keyboard-response","85","42958","0.0-6.0-3.26","ds_test","bdp_sd","Sun Feb 19 2023 18:32:01 GMT-0500 (Eastern Standard Time)","43966","","null","","","","","offer","","<div class='trialBorder'><div class='vertical-center'><img style='vertical-align:center; align:center' src=img/fixation3.jpg></div><div class='cl'><div class='vertical-center'>$22<br>for<br>yourself</div></div><div class='cr'><div class='vertical-center'><font style='color:orange'>$25<br>for<br>dw</font></div></div><div class='respDivL'><div class='vertical-center'>(E)</div></div><div class='respDivR'><div class='vertical-center'><font style='color:orange'>(I)</font></div></div></div>","null","$22<br>for<br>yourself","$25<br>for<br>5","0","22","25","5",""
"","","","","ds_test","bdp_sd","Sun Feb 19 2023 18:32:01 GMT-0500 (Eastern Standard Time)","43966","","","","fullscreenexit","86","42965","fullscreenexit","","","","","","","","","",""
"fullscreen","86","43966","0.0-7.0","ds_test","bdp_sd","Sun Feb 19 2023 18:32:01 GMT-0500 (Eastern Standard Time)","43966","","","","","","","","true","","","","","","","","",""
"html-keyboard-response","87","44478","0.0-8.0","","","","","","null","","","","","","","","null","","","","","","",""
