"trial_type","trial_index","time_elapsed","internal_node_id","subject_id","task","startTime","totalTime","view_history","rt","responses","event","trial","time","trialtype","success","stimulus","key_press","selfOffer","otherOffer","otherLeft","selfAmt","otherAmt","otherDist","chosen"
"pavlovia","0","10","0.0-0.0","63f791c69ca73d3460eeb2d9","bdp_sd","Sun Mar 26 2023 08:05:43 GMT-0700 (Pacific Daylight Time)","374590","","","","","","","","","","","","","","","","",""
"instructions","1","11421","0.0-1.0","63f791c69ca73d3460eeb2d9","bdp_sd","Sun Mar 26 2023 08:05:43 GMT-0700 (Pacific Daylight Time)","374590","[{""page_index"":0,""viewing_time"":11410}]","11410","","","","","","","","","","","","","","",""
"survey-text","2","235223","0.0-2.0","63f791c69ca73d3460eeb2d9","bdp_sd","Sun Mar 26 2023 08:05:43 GMT-0700 (Pacific Daylight Time)","374590","","223800","{""Q0"":""SS"",""Q1"":""IM"",""Q2"":""KL"",""Q3"":""LF"",""Q4"":""NB""}","","","","","","","","","","","","","",""
"","","","","63f791c69ca73d3460eeb2d9","bdp_sd","Sun Mar 26 2023 08:05:43 GMT-0700 (Pacific Daylight Time)","374590","","","","fullscreenenter","3","236647","fullscreenenter","","","","","","","","","",""
"fullscreen","3","237643","0.0-3.0","63f791c69ca73d3460eeb2d9","bdp_sd","Sun Mar 26 2023 08:05:43 GMT-0700 (Pacific Daylight Time)","374590","","","","","","","","true","","","","","","","","",""
"instructions","4","293834","0.0-5.0","63f791c69ca73d3460eeb2d9","bdp_sd","Sun Mar 26 2023 08:05:43 GMT-0700 (Pacific Daylight Time)","374590","[{""page_index"":0,""viewing_time"":8201},{""page_index"":1,""viewing_time"":37362},{""page_index"":2,""viewing_time"":10625}]","56189","","","","","","","","","","","","","","",""
"html-keyboard-response","5","294338","0.0-6.0-1.0","63f791c69ca73d3460eeb2d9","bdp_sd","Sun Mar 26 2023 08:05:43 GMT-0700 (Pacific Daylight Time)","374590","","null","","","","","FIX","","<div class='trialBorder'><div class='vertical-center'><img style='vertical-align:center; align:center' src=img/fixation3.jpg></div></div>","null","","","","","","",""
"html-keyboard-response","6","297272","0.0-6.0-2.0","63f791c69ca73d3460eeb2d9","bdp_sd","Sun Mar 26 2023 08:05:43 GMT-0700 (Pacific Daylight Time)","374590","","2931","","","","","offer","","<div class='trialBorder'><div class='vertical-center'><img style='vertical-align:center; align:center' src=img/fixation3.jpg></div><div class='cl'><div class='vertical-center'>$25<br>for<br>NB</div></div><div class='cr'><div class='vertical-center'>$22<br>for<br>yourself</div></div><div class='respDivL'><div class='vertical-center'>(E)</div></div><div class='respDivR'><div class='vertical-center'>(I)</div></div></div>","I","$22<br>for<br>yourself","$25<br>for<br>5","1","22","25","5","SELF"
"html-keyboard-response","7","297525","0.0-6.0-3.0","63f791c69ca73d3460eeb2d9","bdp_sd","Sun Mar 26 2023 08:05:43 GMT-0700 (Pacific Daylight Time)","374590","","null","","","","","offerFB","","<div class='trialBorder'><div class='vertical-center'><img style='vertical-align:center; align:center' src=img/fixation3.jpg></div><div class='cl'><div class='vertical-center'>$25<br>for<br>NB</div></div><div class='cr'><div class='vertical-center'><font style='color:orange'>$22<br>for<br>yourself</font></div></div><div class='respDivL'><div class='vertical-center'>(E)</div></div><div class='respDivR'><div class='vertical-center'><font style='color:orange'>(I)</font></div></div></div>","null","$22<br>for<br>yourself","$25<br>for<br>5","1","22","25","5",""
"html-keyboard-response","8","298027","0.0-6.0-1.1","63f791c69ca73d3460eeb2d9","bdp_sd","Sun Mar 26 2023 08:05:43 GMT-0700 (Pacific Daylight Time)","374590","","null","","","","","FIX","","<div class='trialBorder'><div class='vertical-center'><img style='vertical-align:center; align:center' src=img/fixation3.jpg></div></div>","null","","","","","","",""
"html-keyboard-response","9","300663","0.0-6.0-2.1","63f791c69ca73d3460eeb2d9","bdp_sd","Sun Mar 26 2023 08:05:43 GMT-0700 (Pacific Daylight Time)","374590","","2634","","","","","offer","","<div class='trialBorder'><div class='vertical-center'><img style='vertical-align:center; align:center' src=img/fixation3.jpg></div><div class='cl'><div class='vertical-center'>$34<br>for<br>yourself</div></div><div class='cr'><div class='vertical-center'>$35<br>for<br>NB</div></div><div class='respDivL'><div class='vertical-center'>(E)</div></div><div class='respDivR'><div class='vertical-center'>(I)</div></div></div>","E","$34<br>for<br>yourself","$35<br>for<br>5","0","34","35","5","SELF"
"html-keyboard-response","10","300915","0.0-6.0-3.1","63f791c69ca73d3460eeb2d9","bdp_sd","Sun Mar 26 2023 08:05:43 GMT-0700 (Pacific Daylight Time)","374590","","null","","","","","offerFB","","<div class='trialBorder'><div class='vertical-center'><img style='vertical-align:center; align:center' src=img/fixation3.jpg></div><div class='cl'><div class='vertical-center'><font style='color:orange'>$34<br>for<br>yourself</font></div></div><div class='cr'><div class='vertical-center'>$35<br>for<br>NB</div></div><div class='respDivL'><div class='vertical-center'><font style='color:orange'>(E)</font></div></div><div class='respDivR'><div class='vertical-center'>(I)</div></div></div>","null","$34<br>for<br>yourself","$35<br>for<br>5","0","34","35","5",""
"html-keyboard-response","11","301417","0.0-6.0-1.2","63f791c69ca73d3460eeb2d9","bdp_sd","Sun Mar 26 2023 08:05:43 GMT-0700 (Pacific Daylight Time)","374590","","null","","","","","FIX","","<div class='trialBorder'><div class='vertical-center'><img style='vertical-align:center; align:center' src=img/fixation3.jpg></div></div>","null","","","","","","",""
"html-keyboard-response","12","307186","0.0-6.0-2.2","63f791c69ca73d3460eeb2d9","bdp_sd","Sun Mar 26 2023 08:05:43 GMT-0700 (Pacific Daylight Time)","374590","","5768","","","","","offer","","<div class='trialBorder'><div class='vertical-center'><img style='vertical-align:center; align:center' src=img/fixation3.jpg></div><div class='cl'><div class='vertical-center'>$60<br>for<br>LF</div></div><div class='cr'><div class='vertical-center'>$49<br>for<br>yourself</div></div><div class='respDivL'><div class='vertical-center'>(E)</div></div><div class='respDivR'><div class='vertical-center'>(I)</div></div></div>","I","$49<br>for<br>yourself","$60<br>for<br>4","1","49","60","4","SELF"
"html-keyboard-response","13","307439","0.0-6.0-3.2","63f791c69ca73d3460eeb2d9","bdp_sd","Sun Mar 26 2023 08:05:43 GMT-0700 (Pacific Daylight Time)","374590","","null","","","","","offerFB","","<div class='trialBorder'><div class='vertical-center'><img style='vertical-align:center; align:center' src=img/fixation3.jpg></div><div class='cl'><div class='vertical-center'>$60<br>for<br>LF</div></div><div class='cr'><div class='vertical-center'><font style='color:orange'>$49<br>for<br>yourself</font></div></div><div class='respDivL'><div class='vertical-center'>(E)</div></div><div class='respDivR'><div class='vertical-center'><font style='color:orange'>(I)</font></div></div></div>","null","$49<br>for<br>yourself","$60<br>for<br>4","1","49","60","4",""
"html-keyboard-response","14","307942","0.0-6.0-1.3","63f791c69ca73d3460eeb2d9","bdp_sd","Sun Mar 26 2023 08:05:43 GMT-0700 (Pacific Daylight Time)","374590","","null","","","","","FIX","","<div class='trialBorder'><div class='vertical-center'><img style='vertical-align:center; align:center' src=img/fixation3.jpg></div></div>","null","","","","","","",""
"html-keyboard-response","15","309654","0.0-6.0-2.3","63f791c69ca73d3460eeb2d9","bdp_sd","Sun Mar 26 2023 08:05:43 GMT-0700 (Pacific Daylight Time)","374590","","1710","","","","","offer","","<div class='trialBorder'><div class='vertical-center'><img style='vertical-align:center; align:center' src=img/fixation3.jpg></div><div class='cl'><div class='vertical-center'>$47<br>for<br>yourself</div></div><div class='cr'><div class='vertical-center'>$50<br>for<br>NB</div></div><div class='respDivL'><div class='vertical-center'>(E)</div></div><div class='respDivR'><div class='vertical-center'>(I)</div></div></div>","E","$47<br>for<br>yourself","$50<br>for<br>5","0","47","50","5","SELF"
"html-keyboard-response","16","309906","0.0-6.0-3.3","63f791c69ca73d3460eeb2d9","bdp_sd","Sun Mar 26 2023 08:05:43 GMT-0700 (Pacific Daylight Time)","374590","","null","","","","","offerFB","","<div class='trialBorder'><div class='vertical-center'><img style='vertical-align:center; align:center' src=img/fixation3.jpg></div><div class='cl'><div class='vertical-center'><font style='color:orange'>$47<br>for<br>yourself</font></div></div><div class='cr'><div class='vertical-center'>$50<br>for<br>NB</div></div><div class='respDivL'><div class='vertical-center'><font style='color:orange'>(E)</font></div></div><div class='respDivR'><div class='vertical-center'>(I)</div></div></div>","null","$47<br>for<br>yourself","$50<br>for<br>5","0","47","50","5",""
"html-keyboard-response","17","310408","0.0-6.0-1.4","63f791c69ca73d3460eeb2d9","bdp_sd","Sun Mar 26 2023 08:05:43 GMT-0700 (Pacific Daylight Time)","374590","","null","","","","","FIX","","<div class='trialBorder'><div class='vertical-center'><img style='vertical-align:center; align:center' src=img/fixation3.jpg></div></div>","null","","","","","","",""
"html-keyboard-response","18","316125","0.0-6.0-2.4","63f791c69ca73d3460eeb2d9","bdp_sd","Sun Mar 26 2023 08:05:43 GMT-0700 (Pacific Daylight Time)","374590","","5715","","","","","offer","","<div class='trialBorder'><div class='vertical-center'><img style='vertical-align:center; align:center' src=img/fixation3.jpg></div><div class='cl'><div class='vertical-center'>$33<br>for<br>yourself</div></div><div class='cr'><div class='vertical-center'>$80<br>for<br>IM</div></div><div class='respDivL'><div class='vertical-center'>(E)</div></div><div class='respDivR'><div class='vertical-center'>(I)</div></div></div>","E","$33<br>for<br>yourself","$80<br>for<br>2","0","33","80","2","SELF"
"html-keyboard-response","19","316378","0.0-6.0-3.4","63f791c69ca73d3460eeb2d9","bdp_sd","Sun Mar 26 2023 08:05:43 GMT-0700 (Pacific Daylight Time)","374590","","null","","","","","offerFB","","<div class='trialBorder'><div class='vertical-center'><img style='vertical-align:center; align:center' src=img/fixation3.jpg></div><div class='cl'><div class='vertical-center'><font style='color:orange'>$33<br>for<br>yourself</font></div></div><div class='cr'><div class='vertical-center'>$80<br>for<br>IM</div></div><div class='respDivL'><div class='vertical-center'><font style='color:orange'>(E)</font></div></div><div class='respDivR'><div class='vertical-center'>(I)</div></div></div>","null","$33<br>for<br>yourself","$80<br>for<br>2","0","33","80","2",""
"html-keyboard-response","20","316880","0.0-6.0-1.5","63f791c69ca73d3460eeb2d9","bdp_sd","Sun Mar 26 2023 08:05:43 GMT-0700 (Pacific Daylight Time)","374590","","null","","","","","FIX","","<div class='trialBorder'><div class='vertical-center'><img style='vertical-align:center; align:center' src=img/fixation3.jpg></div></div>","null","","","","","","",""
"html-keyboard-response","21","317895","0.0-6.0-2.5","63f791c69ca73d3460eeb2d9","bdp_sd","Sun Mar 26 2023 08:05:43 GMT-0700 (Pacific Daylight Time)","374590","","1013","","","","","offer","","<div class='trialBorder'><div class='vertical-center'><img style='vertical-align:center; align:center' src=img/fixation3.jpg></div><div class='cl'><div class='vertical-center'>$50<br>for<br>LF</div></div><div class='cr'><div class='vertical-center'>$34<br>for<br>yourself</div></div><div class='respDivL'><div class='vertical-center'>(E)</div></div><div class='respDivR'><div class='vertical-center'>(I)</div></div></div>","I","$34<br>for<br>yourself","$50<br>for<br>4","1","34","50","4","SELF"
"html-keyboard-response","22","318147","0.0-6.0-3.5","63f791c69ca73d3460eeb2d9","bdp_sd","Sun Mar 26 2023 08:05:43 GMT-0700 (Pacific Daylight Time)","374590","","null","","","","","offerFB","","<div class='trialBorder'><div class='vertical-center'><img style='vertical-align:center; align:center' src=img/fixation3.jpg></div><div class='cl'><div class='vertical-center'>$50<br>for<br>LF</div></div><div class='cr'><div class='vertical-center'><font style='color:orange'>$34<br>for<br>yourself</font></div></div><div class='respDivL'><div class='vertical-center'>(E)</div></div><div class='respDivR'><div class='vertical-center'><font style='color:orange'>(I)</font></div></div></div>","null","$34<br>for<br>yourself","$50<br>for<br>4","1","34","50","4",""
"html-keyboard-response","23","318649","0.0-6.0-1.6","63f791c69ca73d3460eeb2d9","bdp_sd","Sun Mar 26 2023 08:05:43 GMT-0700 (Pacific Daylight Time)","374590","","null","","","","","FIX","","<div class='trialBorder'><div class='vertical-center'><img style='vertical-align:center; align:center' src=img/fixation3.jpg></div></div>","null","","","","","","",""
"html-keyboard-response","24","322759","0.0-6.0-2.6","63f791c69ca73d3460eeb2d9","bdp_sd","Sun Mar 26 2023 08:05:43 GMT-0700 (Pacific Daylight Time)","374590","","4108","","","","","offer","","<div class='trialBorder'><div class='vertical-center'><img style='vertical-align:center; align:center' src=img/fixation3.jpg></div><div class='cl'><div class='vertical-center'>$80<br>for<br>KL</div></div><div class='cr'><div class='vertical-center'>$54<br>for<br>yourself</div></div><div class='respDivL'><div class='vertical-center'>(E)</div></div><div class='respDivR'><div class='vertical-center'>(I)</div></div></div>","I","$54<br>for<br>yourself","$80<br>for<br>3","1","54","80","3","SELF"
"html-keyboard-response","25","323013","0.0-6.0-3.6","63f791c69ca73d3460eeb2d9","bdp_sd","Sun Mar 26 2023 08:05:43 GMT-0700 (Pacific Daylight Time)","374590","","null","","","","","offerFB","","<div class='trialBorder'><div class='vertical-center'><img style='vertical-align:center; align:center' src=img/fixation3.jpg></div><div class='cl'><div class='vertical-center'>$80<br>for<br>KL</div></div><div class='cr'><div class='vertical-center'><font style='color:orange'>$54<br>for<br>yourself</font></div></div><div class='respDivL'><div class='vertical-center'>(E)</div></div><div class='respDivR'><div class='vertical-center'><font style='color:orange'>(I)</font></div></div></div>","null","$54<br>for<br>yourself","$80<br>for<br>3","1","54","80","3",""
"html-keyboard-response","26","323514","0.0-6.0-1.7","63f791c69ca73d3460eeb2d9","bdp_sd","Sun Mar 26 2023 08:05:43 GMT-0700 (Pacific Daylight Time)","374590","","null","","","","","FIX","","<div class='trialBorder'><div class='vertical-center'><img style='vertical-align:center; align:center' src=img/fixation3.jpg></div></div>","null","","","","","","",""
"html-keyboard-response","27","330728","0.0-6.0-2.7","63f791c69ca73d3460eeb2d9","bdp_sd","Sun Mar 26 2023 08:05:43 GMT-0700 (Pacific Daylight Time)","374590","","7212","","","","","offer","","<div class='trialBorder'><div class='vertical-center'><img style='vertical-align:center; align:center' src=img/fixation3.jpg></div><div class='cl'><div class='vertical-center'>$55<br>for<br>SS</div></div><div class='cr'><div class='vertical-center'>$20<br>for<br>yourself</div></div><div class='respDivL'><div class='vertical-center'>(E)</div></div><div class='respDivR'><div class='vertical-center'>(I)</div></div></div>","I","$20<br>for<br>yourself","$55<br>for<br>1","1","20","55","1","SELF"
"html-keyboard-response","28","330982","0.0-6.0-3.7","63f791c69ca73d3460eeb2d9","bdp_sd","Sun Mar 26 2023 08:05:43 GMT-0700 (Pacific Daylight Time)","374590","","null","","","","","offerFB","","<div class='trialBorder'><div class='vertical-center'><img style='vertical-align:center; align:center' src=img/fixation3.jpg></div><div class='cl'><div class='vertical-center'>$55<br>for<br>SS</div></div><div class='cr'><div class='vertical-center'><font style='color:orange'>$20<br>for<br>yourself</font></div></div><div class='respDivL'><div class='vertical-center'>(E)</div></div><div class='respDivR'><div class='vertical-center'><font style='color:orange'>(I)</font></div></div></div>","null","$20<br>for<br>yourself","$55<br>for<br>1","1","20","55","1",""
"html-keyboard-response","29","331484","0.0-6.0-1.8","63f791c69ca73d3460eeb2d9","bdp_sd","Sun Mar 26 2023 08:05:43 GMT-0700 (Pacific Daylight Time)","374590","","null","","","","","FIX","","<div class='trialBorder'><div class='vertical-center'><img style='vertical-align:center; align:center' src=img/fixation3.jpg></div></div>","null","","","","","","",""
"html-keyboard-response","30","332786","0.0-6.0-2.8","63f791c69ca73d3460eeb2d9","bdp_sd","Sun Mar 26 2023 08:05:43 GMT-0700 (Pacific Daylight Time)","374590","","1300","","","","","offer","","<div class='trialBorder'><div class='vertical-center'><img style='vertical-align:center; align:center' src=img/fixation3.jpg></div><div class='cl'><div class='vertical-center'>$85<br>for<br>LF</div></div><div class='cr'><div class='vertical-center'>$69<br>for<br>yourself</div></div><div class='respDivL'><div class='vertical-center'>(E)</div></div><div class='respDivR'><div class='vertical-center'>(I)</div></div></div>","I","$69<br>for<br>yourself","$85<br>for<br>4","1","69","85","4","SELF"
"html-keyboard-response","31","333038","0.0-6.0-3.8","63f791c69ca73d3460eeb2d9","bdp_sd","Sun Mar 26 2023 08:05:43 GMT-0700 (Pacific Daylight Time)","374590","","null","","","","","offerFB","","<div class='trialBorder'><div class='vertical-center'><img style='vertical-align:center; align:center' src=img/fixation3.jpg></div><div class='cl'><div class='vertical-center'>$85<br>for<br>LF</div></div><div class='cr'><div class='vertical-center'><font style='color:orange'>$69<br>for<br>yourself</font></div></div><div class='respDivL'><div class='vertical-center'>(E)</div></div><div class='respDivR'><div class='vertical-center'><font style='color:orange'>(I)</font></div></div></div>","null","$69<br>for<br>yourself","$85<br>for<br>4","1","69","85","4",""
"html-keyboard-response","32","333539","0.0-6.0-1.9","63f791c69ca73d3460eeb2d9","bdp_sd","Sun Mar 26 2023 08:05:43 GMT-0700 (Pacific Daylight Time)","374590","","null","","","","","FIX","","<div class='trialBorder'><div class='vertical-center'><img style='vertical-align:center; align:center' src=img/fixation3.jpg></div></div>","null","","","","","","",""
"html-keyboard-response","33","334661","0.0-6.0-2.9","63f791c69ca73d3460eeb2d9","bdp_sd","Sun Mar 26 2023 08:05:43 GMT-0700 (Pacific Daylight Time)","374590","","1120","","","","","offer","","<div class='trialBorder'><div class='vertical-center'><img style='vertical-align:center; align:center' src=img/fixation3.jpg></div><div class='cl'><div class='vertical-center'>$55<br>for<br>NB</div></div><div class='cr'><div class='vertical-center'>$54<br>for<br>yourself</div></div><div class='respDivL'><div class='vertical-center'>(E)</div></div><div class='respDivR'><div class='vertical-center'>(I)</div></div></div>","I","$54<br>for<br>yourself","$55<br>for<br>5","1","54","55","5","SELF"
"html-keyboard-response","34","334913","0.0-6.0-3.9","63f791c69ca73d3460eeb2d9","bdp_sd","Sun Mar 26 2023 08:05:43 GMT-0700 (Pacific Daylight Time)","374590","","null","","","","","offerFB","","<div class='trialBorder'><div class='vertical-center'><img style='vertical-align:center; align:center' src=img/fixation3.jpg></div><div class='cl'><div class='vertical-center'>$55<br>for<br>NB</div></div><div class='cr'><div class='vertical-center'><font style='color:orange'>$54<br>for<br>yourself</font></div></div><div class='respDivL'><div class='vertical-center'>(E)</div></div><div class='respDivR'><div class='vertical-center'><font style='color:orange'>(I)</font></div></div></div>","null","$54<br>for<br>yourself","$55<br>for<br>5","1","54","55","5",""
"html-keyboard-response","35","335416","0.0-6.0-1.10","63f791c69ca73d3460eeb2d9","bdp_sd","Sun Mar 26 2023 08:05:43 GMT-0700 (Pacific Daylight Time)","374590","","null","","","","","FIX","","<div class='trialBorder'><div class='vertical-center'><img style='vertical-align:center; align:center' src=img/fixation3.jpg></div></div>","null","","","","","","",""
"html-keyboard-response","36","337496","0.0-6.0-2.10","63f791c69ca73d3460eeb2d9","bdp_sd","Sun Mar 26 2023 08:05:43 GMT-0700 (Pacific Daylight Time)","374590","","2078","","","","","offer","","<div class='trialBorder'><div class='vertical-center'><img style='vertical-align:center; align:center' src=img/fixation3.jpg></div><div class='cl'><div class='vertical-center'>$15<br>for<br>yourself</div></div><div class='cr'><div class='vertical-center'>$35<br>for<br>IM</div></div><div class='respDivL'><div class='vertical-center'>(E)</div></div><div class='respDivR'><div class='vertical-center'>(I)</div></div></div>","E","$15<br>for<br>yourself","$35<br>for<br>2","0","15","35","2","SELF"
"html-keyboard-response","37","337749","0.0-6.0-3.10","63f791c69ca73d3460eeb2d9","bdp_sd","Sun Mar 26 2023 08:05:43 GMT-0700 (Pacific Daylight Time)","374590","","null","","","","","offerFB","","<div class='trialBorder'><div class='vertical-center'><img style='vertical-align:center; align:center' src=img/fixation3.jpg></div><div class='cl'><div class='vertical-center'><font style='color:orange'>$15<br>for<br>yourself</font></div></div><div class='cr'><div class='vertical-center'>$35<br>for<br>IM</div></div><div class='respDivL'><div class='vertical-center'><font style='color:orange'>(E)</font></div></div><div class='respDivR'><div class='vertical-center'>(I)</div></div></div>","null","$15<br>for<br>yourself","$35<br>for<br>2","0","15","35","2",""
"html-keyboard-response","38","338250","0.0-6.0-1.11","63f791c69ca73d3460eeb2d9","bdp_sd","Sun Mar 26 2023 08:05:43 GMT-0700 (Pacific Daylight Time)","374590","","null","","","","","FIX","","<div class='trialBorder'><div class='vertical-center'><img style='vertical-align:center; align:center' src=img/fixation3.jpg></div></div>","null","","","","","","",""
"html-keyboard-response","39","339647","0.0-6.0-2.11","63f791c69ca73d3460eeb2d9","bdp_sd","Sun Mar 26 2023 08:05:43 GMT-0700 (Pacific Daylight Time)","374590","","1395","","","","","offer","","<div class='trialBorder'><div class='vertical-center'><img style='vertical-align:center; align:center' src=img/fixation3.jpg></div><div class='cl'><div class='vertical-center'>$50<br>for<br>KL</div></div><div class='cr'><div class='vertical-center'>$27<br>for<br>yourself</div></div><div class='respDivL'><div class='vertical-center'>(E)</div></div><div class='respDivR'><div class='vertical-center'>(I)</div></div></div>","I","$27<br>for<br>yourself","$50<br>for<br>3","1","27","50","3","SELF"
"html-keyboard-response","40","339899","0.0-6.0-3.11","63f791c69ca73d3460eeb2d9","bdp_sd","Sun Mar 26 2023 08:05:43 GMT-0700 (Pacific Daylight Time)","374590","","null","","","","","offerFB","","<div class='trialBorder'><div class='vertical-center'><img style='vertical-align:center; align:center' src=img/fixation3.jpg></div><div class='cl'><div class='vertical-center'>$50<br>for<br>KL</div></div><div class='cr'><div class='vertical-center'><font style='color:orange'>$27<br>for<br>yourself</font></div></div><div class='respDivL'><div class='vertical-center'>(E)</div></div><div class='respDivR'><div class='vertical-center'><font style='color:orange'>(I)</font></div></div></div>","null","$27<br>for<br>yourself","$50<br>for<br>3","1","27","50","3",""
"html-keyboard-response","41","340402","0.0-6.0-1.12","63f791c69ca73d3460eeb2d9","bdp_sd","Sun Mar 26 2023 08:05:43 GMT-0700 (Pacific Daylight Time)","374590","","null","","","","","FIX","","<div class='trialBorder'><div class='vertical-center'><img style='vertical-align:center; align:center' src=img/fixation3.jpg></div></div>","null","","","","","","",""
"html-keyboard-response","42","341631","0.0-6.0-2.12","63f791c69ca73d3460eeb2d9","bdp_sd","Sun Mar 26 2023 08:05:43 GMT-0700 (Pacific Daylight Time)","374590","","1227","","","","","offer","","<div class='trialBorder'><div class='vertical-center'><img style='vertical-align:center; align:center' src=img/fixation3.jpg></div><div class='cl'><div class='vertical-center'>$30<br>for<br>LF</div></div><div class='cr'><div class='vertical-center'>$25<br>for<br>yourself</div></div><div class='respDivL'><div class='vertical-center'>(E)</div></div><div class='respDivR'><div class='vertical-center'>(I)</div></div></div>","I","$25<br>for<br>yourself","$30<br>for<br>4","1","25","30","4","SELF"
"html-keyboard-response","43","341884","0.0-6.0-3.12","63f791c69ca73d3460eeb2d9","bdp_sd","Sun Mar 26 2023 08:05:43 GMT-0700 (Pacific Daylight Time)","374590","","null","","","","","offerFB","","<div class='trialBorder'><div class='vertical-center'><img style='vertical-align:center; align:center' src=img/fixation3.jpg></div><div class='cl'><div class='vertical-center'>$30<br>for<br>LF</div></div><div class='cr'><div class='vertical-center'><font style='color:orange'>$25<br>for<br>yourself</font></div></div><div class='respDivL'><div class='vertical-center'>(E)</div></div><div class='respDivR'><div class='vertical-center'><font style='color:orange'>(I)</font></div></div></div>","null","$25<br>for<br>yourself","$30<br>for<br>4","1","25","30","4",""
"html-keyboard-response","44","342386","0.0-6.0-1.13","63f791c69ca73d3460eeb2d9","bdp_sd","Sun Mar 26 2023 08:05:43 GMT-0700 (Pacific Daylight Time)","374590","","null","","","","","FIX","","<div class='trialBorder'><div class='vertical-center'><img style='vertical-align:center; align:center' src=img/fixation3.jpg></div></div>","null","","","","","","",""
"html-keyboard-response","45","344264","0.0-6.0-2.13","63f791c69ca73d3460eeb2d9","bdp_sd","Sun Mar 26 2023 08:05:43 GMT-0700 (Pacific Daylight Time)","374590","","1876","","","","","offer","","<div class='trialBorder'><div class='vertical-center'><img style='vertical-align:center; align:center' src=img/fixation3.jpg></div><div class='cl'><div class='vertical-center'>$25<br>for<br>yourself</div></div><div class='cr'><div class='vertical-center'>$60<br>for<br>KL</div></div><div class='respDivL'><div class='vertical-center'>(E)</div></div><div class='respDivR'><div class='vertical-center'>(I)</div></div></div>","E","$25<br>for<br>yourself","$60<br>for<br>3","0","25","60","3","SELF"
"html-keyboard-response","46","344516","0.0-6.0-3.13","63f791c69ca73d3460eeb2d9","bdp_sd","Sun Mar 26 2023 08:05:43 GMT-0700 (Pacific Daylight Time)","374590","","null","","","","","offerFB","","<div class='trialBorder'><div class='vertical-center'><img style='vertical-align:center; align:center' src=img/fixation3.jpg></div><div class='cl'><div class='vertical-center'><font style='color:orange'>$25<br>for<br>yourself</font></div></div><div class='cr'><div class='vertical-center'>$60<br>for<br>KL</div></div><div class='respDivL'><div class='vertical-center'><font style='color:orange'>(E)</font></div></div><div class='respDivR'><div class='vertical-center'>(I)</div></div></div>","null","$25<br>for<br>yourself","$60<br>for<br>3","0","25","60","3",""
"html-keyboard-response","47","345018","0.0-6.0-1.14","63f791c69ca73d3460eeb2d9","bdp_sd","Sun Mar 26 2023 08:05:43 GMT-0700 (Pacific Daylight Time)","374590","","null","","","","","FIX","","<div class='trialBorder'><div class='vertical-center'><img style='vertical-align:center; align:center' src=img/fixation3.jpg></div></div>","null","","","","","","",""
"html-keyboard-response","48","346803","0.0-6.0-2.14","63f791c69ca73d3460eeb2d9","bdp_sd","Sun Mar 26 2023 08:05:43 GMT-0700 (Pacific Daylight Time)","374590","","1783","","","","","offer","","<div class='trialBorder'><div class='vertical-center'><img style='vertical-align:center; align:center' src=img/fixation3.jpg></div><div class='cl'><div class='vertical-center'>$55<br>for<br>LF</div></div><div class='cr'><div class='vertical-center'>$40<br>for<br>yourself</div></div><div class='respDivL'><div class='vertical-center'>(E)</div></div><div class='respDivR'><div class='vertical-center'>(I)</div></div></div>","I","$40<br>for<br>yourself","$55<br>for<br>4","1","40","55","4","SELF"
"html-keyboard-response","49","347055","0.0-6.0-3.14","63f791c69ca73d3460eeb2d9","bdp_sd","Sun Mar 26 2023 08:05:43 GMT-0700 (Pacific Daylight Time)","374590","","null","","","","","offerFB","","<div class='trialBorder'><div class='vertical-center'><img style='vertical-align:center; align:center' src=img/fixation3.jpg></div><div class='cl'><div class='vertical-center'>$55<br>for<br>LF</div></div><div class='cr'><div class='vertical-center'><font style='color:orange'>$40<br>for<br>yourself</font></div></div><div class='respDivL'><div class='vertical-center'>(E)</div></div><div class='respDivR'><div class='vertical-center'><font style='color:orange'>(I)</font></div></div></div>","null","$40<br>for<br>yourself","$55<br>for<br>4","1","40","55","4",""
"html-keyboard-response","50","347556","0.0-6.0-1.15","63f791c69ca73d3460eeb2d9","bdp_sd","Sun Mar 26 2023 08:05:43 GMT-0700 (Pacific Daylight Time)","374590","","null","","","","","FIX","","<div class='trialBorder'><div class='vertical-center'><img style='vertical-align:center; align:center' src=img/fixation3.jpg></div></div>","null","","","","","","",""
"html-keyboard-response","51","348986","0.0-6.0-2.15","63f791c69ca73d3460eeb2d9","bdp_sd","Sun Mar 26 2023 08:05:43 GMT-0700 (Pacific Daylight Time)","374590","","1427","","","","","offer","","<div class='trialBorder'><div class='vertical-center'><img style='vertical-align:center; align:center' src=img/fixation3.jpg></div><div class='cl'><div class='vertical-center'>$35<br>for<br>KL</div></div><div class='cr'><div class='vertical-center'>$24<br>for<br>yourself</div></div><div class='respDivL'><div class='vertical-center'>(E)</div></div><div class='respDivR'><div class='vertical-center'>(I)</div></div></div>","I","$24<br>for<br>yourself","$35<br>for<br>3","1","24","35","3","SELF"
"html-keyboard-response","52","349238","0.0-6.0-3.15","63f791c69ca73d3460eeb2d9","bdp_sd","Sun Mar 26 2023 08:05:43 GMT-0700 (Pacific Daylight Time)","374590","","null","","","","","offerFB","","<div class='trialBorder'><div class='vertical-center'><img style='vertical-align:center; align:center' src=img/fixation3.jpg></div><div class='cl'><div class='vertical-center'>$35<br>for<br>KL</div></div><div class='cr'><div class='vertical-center'><font style='color:orange'>$24<br>for<br>yourself</font></div></div><div class='respDivL'><div class='vertical-center'>(E)</div></div><div class='respDivR'><div class='vertical-center'><font style='color:orange'>(I)</font></div></div></div>","null","$24<br>for<br>yourself","$35<br>for<br>3","1","24","35","3",""
"html-keyboard-response","53","349740","0.0-6.0-1.16","63f791c69ca73d3460eeb2d9","bdp_sd","Sun Mar 26 2023 08:05:43 GMT-0700 (Pacific Daylight Time)","374590","","null","","","","","FIX","","<div class='trialBorder'><div class='vertical-center'><img style='vertical-align:center; align:center' src=img/fixation3.jpg></div></div>","null","","","","","","",""
"html-keyboard-response","54","350727","0.0-6.0-2.16","63f791c69ca73d3460eeb2d9","bdp_sd","Sun Mar 26 2023 08:05:43 GMT-0700 (Pacific Daylight Time)","374590","","984","","","","","offer","","<div class='trialBorder'><div class='vertical-center'><img style='vertical-align:center; align:center' src=img/fixation3.jpg></div><div class='cl'><div class='vertical-center'>$80<br>for<br>NB</div></div><div class='cr'><div class='vertical-center'>$78<br>for<br>yourself</div></div><div class='respDivL'><div class='vertical-center'>(E)</div></div><div class='respDivR'><div class='vertical-center'>(I)</div></div></div>","I","$78<br>for<br>yourself","$80<br>for<br>5","1","78","80","5","SELF"
"html-keyboard-response","55","350979","0.0-6.0-3.16","63f791c69ca73d3460eeb2d9","bdp_sd","Sun Mar 26 2023 08:05:43 GMT-0700 (Pacific Daylight Time)","374590","","null","","","","","offerFB","","<div class='trialBorder'><div class='vertical-center'><img style='vertical-align:center; align:center' src=img/fixation3.jpg></div><div class='cl'><div class='vertical-center'>$80<br>for<br>NB</div></div><div class='cr'><div class='vertical-center'><font style='color:orange'>$78<br>for<br>yourself</font></div></div><div class='respDivL'><div class='vertical-center'>(E)</div></div><div class='respDivR'><div class='vertical-center'><font style='color:orange'>(I)</font></div></div></div>","null","$78<br>for<br>yourself","$80<br>for<br>5","1","78","80","5",""
"html-keyboard-response","56","351482","0.0-6.0-1.17","63f791c69ca73d3460eeb2d9","bdp_sd","Sun Mar 26 2023 08:05:43 GMT-0700 (Pacific Daylight Time)","374590","","null","","","","","FIX","","<div class='trialBorder'><div class='vertical-center'><img style='vertical-align:center; align:center' src=img/fixation3.jpg></div></div>","null","","","","","","",""
"html-keyboard-response","57","352895","0.0-6.0-2.17","63f791c69ca73d3460eeb2d9","bdp_sd","Sun Mar 26 2023 08:05:43 GMT-0700 (Pacific Daylight Time)","374590","","1411","","","","","offer","","<div class='trialBorder'><div class='vertical-center'><img style='vertical-align:center; align:center' src=img/fixation3.jpg></div><div class='cl'><div class='vertical-center'>$41<br>for<br>yourself</div></div><div class='cr'><div class='vertical-center'>$75<br>for<br>KL</div></div><div class='respDivL'><div class='vertical-center'>(E)</div></div><div class='respDivR'><div class='vertical-center'>(I)</div></div></div>","E","$41<br>for<br>yourself","$75<br>for<br>3","0","41","75","3","SELF"
"html-keyboard-response","58","353146","0.0-6.0-3.17","63f791c69ca73d3460eeb2d9","bdp_sd","Sun Mar 26 2023 08:05:43 GMT-0700 (Pacific Daylight Time)","374590","","null","","","","","offerFB","","<div class='trialBorder'><div class='vertical-center'><img style='vertical-align:center; align:center' src=img/fixation3.jpg></div><div class='cl'><div class='vertical-center'><font style='color:orange'>$41<br>for<br>yourself</font></div></div><div class='cr'><div class='vertical-center'>$75<br>for<br>KL</div></div><div class='respDivL'><div class='vertical-center'><font style='color:orange'>(E)</font></div></div><div class='respDivR'><div class='vertical-center'>(I)</div></div></div>","null","$41<br>for<br>yourself","$75<br>for<br>3","0","41","75","3",""
"html-keyboard-response","59","353649","0.0-6.0-1.18","63f791c69ca73d3460eeb2d9","bdp_sd","Sun Mar 26 2023 08:05:43 GMT-0700 (Pacific Daylight Time)","374590","","null","","","","","FIX","","<div class='trialBorder'><div class='vertical-center'><img style='vertical-align:center; align:center' src=img/fixation3.jpg></div></div>","null","","","","","","",""
"html-keyboard-response","60","354824","0.0-6.0-2.18","63f791c69ca73d3460eeb2d9","bdp_sd","Sun Mar 26 2023 08:05:43 GMT-0700 (Pacific Daylight Time)","374590","","1173","","","","","offer","","<div class='trialBorder'><div class='vertical-center'><img style='vertical-align:center; align:center' src=img/fixation3.jpg></div><div class='cl'><div class='vertical-center'>$14<br>for<br>yourself</div></div><div class='cr'><div class='vertical-center'>$25<br>for<br>KL</div></div><div class='respDivL'><div class='vertical-center'>(E)</div></div><div class='respDivR'><div class='vertical-center'>(I)</div></div></div>","E","$14<br>for<br>yourself","$25<br>for<br>3","0","14","25","3","SELF"
"html-keyboard-response","61","355075","0.0-6.0-3.18","63f791c69ca73d3460eeb2d9","bdp_sd","Sun Mar 26 2023 08:05:43 GMT-0700 (Pacific Daylight Time)","374590","","null","","","","","offerFB","","<div class='trialBorder'><div class='vertical-center'><img style='vertical-align:center; align:center' src=img/fixation3.jpg></div><div class='cl'><div class='vertical-center'><font style='color:orange'>$14<br>for<br>yourself</font></div></div><div class='cr'><div class='vertical-center'>$25<br>for<br>KL</div></div><div class='respDivL'><div class='vertical-center'><font style='color:orange'>(E)</font></div></div><div class='respDivR'><div class='vertical-center'>(I)</div></div></div>","null","$14<br>for<br>yourself","$25<br>for<br>3","0","14","25","3",""
"html-keyboard-response","62","355577","0.0-6.0-1.19","63f791c69ca73d3460eeb2d9","bdp_sd","Sun Mar 26 2023 08:05:43 GMT-0700 (Pacific Daylight Time)","374590","","null","","","","","FIX","","<div class='trialBorder'><div class='vertical-center'><img style='vertical-align:center; align:center' src=img/fixation3.jpg></div></div>","null","","","","","","",""
"html-keyboard-response","63","356830","0.0-6.0-2.19","63f791c69ca73d3460eeb2d9","bdp_sd","Sun Mar 26 2023 08:05:43 GMT-0700 (Pacific Daylight Time)","374590","","1251","","","","","offer","","<div class='trialBorder'><div class='vertical-center'><img style='vertical-align:center; align:center' src=img/fixation3.jpg></div><div class='cl'><div class='vertical-center'>$80<br>for<br>yourself</div></div><div class='cr'><div class='vertical-center'>$85<br>for<br>NB</div></div><div class='respDivL'><div class='vertical-center'>(E)</div></div><div class='respDivR'><div class='vertical-center'>(I)</div></div></div>","E","$80<br>for<br>yourself","$85<br>for<br>5","0","80","85","5","SELF"
"html-keyboard-response","64","357082","0.0-6.0-3.19","63f791c69ca73d3460eeb2d9","bdp_sd","Sun Mar 26 2023 08:05:43 GMT-0700 (Pacific Daylight Time)","374590","","null","","","","","offerFB","","<div class='trialBorder'><div class='vertical-center'><img style='vertical-align:center; align:center' src=img/fixation3.jpg></div><div class='cl'><div class='vertical-center'><font style='color:orange'>$80<br>for<br>yourself</font></div></div><div class='cr'><div class='vertical-center'>$85<br>for<br>NB</div></div><div class='respDivL'><div class='vertical-center'><font style='color:orange'>(E)</font></div></div><div class='respDivR'><div class='vertical-center'>(I)</div></div></div>","null","$80<br>for<br>yourself","$85<br>for<br>5","0","80","85","5",""
"html-keyboard-response","65","357584","0.0-6.0-1.20","63f791c69ca73d3460eeb2d9","bdp_sd","Sun Mar 26 2023 08:05:43 GMT-0700 (Pacific Daylight Time)","374590","","null","","","","","FIX","","<div class='trialBorder'><div class='vertical-center'><img style='vertical-align:center; align:center' src=img/fixation3.jpg></div></div>","null","","","","","","",""
"html-keyboard-response","66","360122","0.0-6.0-2.20","63f791c69ca73d3460eeb2d9","bdp_sd","Sun Mar 26 2023 08:05:43 GMT-0700 (Pacific Daylight Time)","374590","","2536","","","","","offer","","<div class='trialBorder'><div class='vertical-center'><img style='vertical-align:center; align:center' src=img/fixation3.jpg></div><div class='cl'><div class='vertical-center'>$28<br>for<br>yourself</div></div><div class='cr'><div class='vertical-center'>$30<br>for<br>NB</div></div><div class='respDivL'><div class='vertical-center'>(E)</div></div><div class='respDivR'><div class='vertical-center'>(I)</div></div></div>","E","$28<br>for<br>yourself","$30<br>for<br>5","0","28","30","5","SELF"
"html-keyboard-response","67","360375","0.0-6.0-3.20","63f791c69ca73d3460eeb2d9","bdp_sd","Sun Mar 26 2023 08:05:43 GMT-0700 (Pacific Daylight Time)","374590","","null","","","","","offerFB","","<div class='trialBorder'><div class='vertical-center'><img style='vertical-align:center; align:center' src=img/fixation3.jpg></div><div class='cl'><div class='vertical-center'><font style='color:orange'>$28<br>for<br>yourself</font></div></div><div class='cr'><div class='vertical-center'>$30<br>for<br>NB</div></div><div class='respDivL'><div class='vertical-center'><font style='color:orange'>(E)</font></div></div><div class='respDivR'><div class='vertical-center'>(I)</div></div></div>","null","$28<br>for<br>yourself","$30<br>for<br>5","0","28","30","5",""
"html-keyboard-response","68","360877","0.0-6.0-1.21","63f791c69ca73d3460eeb2d9","bdp_sd","Sun Mar 26 2023 08:05:43 GMT-0700 (Pacific Daylight Time)","374590","","null","","","","","FIX","","<div class='trialBorder'><div class='vertical-center'><img style='vertical-align:center; align:center' src=img/fixation3.jpg></div></div>","null","","","","","","",""
"html-keyboard-response","69","362561","0.0-6.0-2.21","63f791c69ca73d3460eeb2d9","bdp_sd","Sun Mar 26 2023 08:05:43 GMT-0700 (Pacific Daylight Time)","374590","","1682","","","","","offer","","<div class='trialBorder'><div class='vertical-center'><img style='vertical-align:center; align:center' src=img/fixation3.jpg></div><div class='cl'><div class='vertical-center'>$25<br>for<br>LF</div></div><div class='cr'><div class='vertical-center'>$19<br>for<br>yourself</div></div><div class='respDivL'><div class='vertical-center'>(E)</div></div><div class='respDivR'><div class='vertical-center'>(I)</div></div></div>","I","$19<br>for<br>yourself","$25<br>for<br>4","1","19","25","4","SELF"
"html-keyboard-response","70","362813","0.0-6.0-3.21","63f791c69ca73d3460eeb2d9","bdp_sd","Sun Mar 26 2023 08:05:43 GMT-0700 (Pacific Daylight Time)","374590","","null","","","","","offerFB","","<div class='trialBorder'><div class='vertical-center'><img style='vertical-align:center; align:center' src=img/fixation3.jpg></div><div class='cl'><div class='vertical-center'>$25<br>for<br>LF</div></div><div class='cr'><div class='vertical-center'><font style='color:orange'>$19<br>for<br>yourself</font></div></div><div class='respDivL'><div class='vertical-center'>(E)</div></div><div class='respDivR'><div class='vertical-center'><font style='color:orange'>(I)</font></div></div></div>","null","$19<br>for<br>yourself","$25<br>for<br>4","1","19","25","4",""
"html-keyboard-response","71","363314","0.0-6.0-1.22","63f791c69ca73d3460eeb2d9","bdp_sd","Sun Mar 26 2023 08:05:43 GMT-0700 (Pacific Daylight Time)","374590","","null","","","","","FIX","","<div class='trialBorder'><div class='vertical-center'><img style='vertical-align:center; align:center' src=img/fixation3.jpg></div></div>","null","","","","","","",""
"html-keyboard-response","72","365022","0.0-6.0-2.22","63f791c69ca73d3460eeb2d9","bdp_sd","Sun Mar 26 2023 08:05:43 GMT-0700 (Pacific Daylight Time)","374590","","1705","","","","","offer","","<div class='trialBorder'><div class='vertical-center'><img style='vertical-align:center; align:center' src=img/fixation3.jpg></div><div class='cl'><div class='vertical-center'>$31<br>for<br>yourself</div></div><div class='cr'><div class='vertical-center'>$85<br>for<br>SS</div></div><div class='respDivL'><div class='vertical-center'>(E)</div></div><div class='respDivR'><div class='vertical-center'>(I)</div></div></div>","E","$31<br>for<br>yourself","$85<br>for<br>1","0","31","85","1","SELF"
"html-keyboard-response","73","365274","0.0-6.0-3.22","63f791c69ca73d3460eeb2d9","bdp_sd","Sun Mar 26 2023 08:05:43 GMT-0700 (Pacific Daylight Time)","374590","","null","","","","","offerFB","","<div class='trialBorder'><div class='vertical-center'><img style='vertical-align:center; align:center' src=img/fixation3.jpg></div><div class='cl'><div class='vertical-center'><font style='color:orange'>$31<br>for<br>yourself</font></div></div><div class='cr'><div class='vertical-center'>$85<br>for<br>SS</div></div><div class='respDivL'><div class='vertical-center'><font style='color:orange'>(E)</font></div></div><div class='respDivR'><div class='vertical-center'>(I)</div></div></div>","null","$31<br>for<br>yourself","$85<br>for<br>1","0","31","85","1",""
"html-keyboard-response","74","365776","0.0-6.0-1.23","63f791c69ca73d3460eeb2d9","bdp_sd","Sun Mar 26 2023 08:05:43 GMT-0700 (Pacific Daylight Time)","374590","","null","","","","","FIX","","<div class='trialBorder'><div class='vertical-center'><img style='vertical-align:center; align:center' src=img/fixation3.jpg></div></div>","null","","","","","","",""
"html-keyboard-response","75","367544","0.0-6.0-2.23","63f791c69ca73d3460eeb2d9","bdp_sd","Sun Mar 26 2023 08:05:43 GMT-0700 (Pacific Daylight Time)","374590","","1766","","","","","offer","","<div class='trialBorder'><div class='vertical-center'><img style='vertical-align:center; align:center' src=img/fixation3.jpg></div><div class='cl'><div class='vertical-center'>$67<br>for<br>yourself</div></div><div class='cr'><div class='vertical-center'>$75<br>for<br>NB</div></div><div class='respDivL'><div class='vertical-center'>(E)</div></div><div class='respDivR'><div class='vertical-center'>(I)</div></div></div>","E","$67<br>for<br>yourself","$75<br>for<br>5","0","67","75","5","SELF"
"html-keyboard-response","76","367796","0.0-6.0-3.23","63f791c69ca73d3460eeb2d9","bdp_sd","Sun Mar 26 2023 08:05:43 GMT-0700 (Pacific Daylight Time)","374590","","null","","","","","offerFB","","<div class='trialBorder'><div class='vertical-center'><img style='vertical-align:center; align:center' src=img/fixation3.jpg></div><div class='cl'><div class='vertical-center'><font style='color:orange'>$67<br>for<br>yourself</font></div></div><div class='cr'><div class='vertical-center'>$75<br>for<br>NB</div></div><div class='respDivL'><div class='vertical-center'><font style='color:orange'>(E)</font></div></div><div class='respDivR'><div class='vertical-center'>(I)</div></div></div>","null","$67<br>for<br>yourself","$75<br>for<br>5","0","67","75","5",""
"html-keyboard-response","77","368298","0.0-6.0-1.24","63f791c69ca73d3460eeb2d9","bdp_sd","Sun Mar 26 2023 08:05:43 GMT-0700 (Pacific Daylight Time)","374590","","null","","","","","FIX","","<div class='trialBorder'><div class='vertical-center'><img style='vertical-align:center; align:center' src=img/fixation3.jpg></div></div>","null","","","","","","",""
"html-keyboard-response","78","369579","0.0-6.0-2.24","63f791c69ca73d3460eeb2d9","bdp_sd","Sun Mar 26 2023 08:05:43 GMT-0700 (Pacific Daylight Time)","374590","","1279","","","","","offer","","<div class='trialBorder'><div class='vertical-center'><img style='vertical-align:center; align:center' src=img/fixation3.jpg></div><div class='cl'><div class='vertical-center'>$54<br>for<br>yourself</div></div><div class='cr'><div class='vertical-center'>$60<br>for<br>NB</div></div><div class='respDivL'><div class='vertical-center'>(E)</div></div><div class='respDivR'><div class='vertical-center'>(I)</div></div></div>","E","$54<br>for<br>yourself","$60<br>for<br>5","0","54","60","5","SELF"
"html-keyboard-response","79","369830","0.0-6.0-3.24","63f791c69ca73d3460eeb2d9","bdp_sd","Sun Mar 26 2023 08:05:43 GMT-0700 (Pacific Daylight Time)","374590","","null","","","","","offerFB","","<div class='trialBorder'><div class='vertical-center'><img style='vertical-align:center; align:center' src=img/fixation3.jpg></div><div class='cl'><div class='vertical-center'><font style='color:orange'>$54<br>for<br>yourself</font></div></div><div class='cr'><div class='vertical-center'>$60<br>for<br>NB</div></div><div class='respDivL'><div class='vertical-center'><font style='color:orange'>(E)</font></div></div><div class='respDivR'><div class='vertical-center'>(I)</div></div></div>","null","$54<br>for<br>yourself","$60<br>for<br>5","0","54","60","5",""
"html-keyboard-response","80","370332","0.0-6.0-1.25","63f791c69ca73d3460eeb2d9","bdp_sd","Sun Mar 26 2023 08:05:43 GMT-0700 (Pacific Daylight Time)","374590","","null","","","","","FIX","","<div class='trialBorder'><div class='vertical-center'><img style='vertical-align:center; align:center' src=img/fixation3.jpg></div></div>","null","","","","","","",""
"html-keyboard-response","81","371598","0.0-6.0-2.25","63f791c69ca73d3460eeb2d9","bdp_sd","Sun Mar 26 2023 08:05:43 GMT-0700 (Pacific Daylight Time)","374590","","1263","","","","","offer","","<div class='trialBorder'><div class='vertical-center'><img style='vertical-align:center; align:center' src=img/fixation3.jpg></div><div class='cl'><div class='vertical-center'>$55<br>for<br>yourself</div></div><div class='cr'><div class='vertical-center'>$75<br>for<br>LF</div></div><div class='respDivL'><div class='vertical-center'>(E)</div></div><div class='respDivR'><div class='vertical-center'>(I)</div></div></div>","E","$55<br>for<br>yourself","$75<br>for<br>4","0","55","75","4","SELF"
"html-keyboard-response","82","371849","0.0-6.0-3.25","63f791c69ca73d3460eeb2d9","bdp_sd","Sun Mar 26 2023 08:05:43 GMT-0700 (Pacific Daylight Time)","374590","","null","","","","","offerFB","","<div class='trialBorder'><div class='vertical-center'><img style='vertical-align:center; align:center' src=img/fixation3.jpg></div><div class='cl'><div class='vertical-center'><font style='color:orange'>$55<br>for<br>yourself</font></div></div><div class='cr'><div class='vertical-center'>$75<br>for<br>LF</div></div><div class='respDivL'><div class='vertical-center'><font style='color:orange'>(E)</font></div></div><div class='respDivR'><div class='vertical-center'>(I)</div></div></div>","null","$55<br>for<br>yourself","$75<br>for<br>4","0","55","75","4",""
"html-keyboard-response","83","372352","0.0-6.0-1.26","63f791c69ca73d3460eeb2d9","bdp_sd","Sun Mar 26 2023 08:05:43 GMT-0700 (Pacific Daylight Time)","374590","","null","","","","","FIX","","<div class='trialBorder'><div class='vertical-center'><img style='vertical-align:center; align:center' src=img/fixation3.jpg></div></div>","null","","","","","","",""
"html-keyboard-response","84","373336","0.0-6.0-2.26","63f791c69ca73d3460eeb2d9","bdp_sd","Sun Mar 26 2023 08:05:43 GMT-0700 (Pacific Daylight Time)","374590","","981","","","","","offer","","<div class='trialBorder'><div class='vertical-center'><img style='vertical-align:center; align:center' src=img/fixation3.jpg></div><div class='cl'><div class='vertical-center'>$30<br>for<br>IM</div></div><div class='cr'><div class='vertical-center'>$11<br>for<br>yourself</div></div><div class='respDivL'><div class='vertical-center'>(E)</div></div><div class='respDivR'><div class='vertical-center'>(I)</div></div></div>","I","$11<br>for<br>yourself","$30<br>for<br>2","1","11","30","2","SELF"
"html-keyboard-response","85","373588","0.0-6.0-3.26","63f791c69ca73d3460eeb2d9","bdp_sd","Sun Mar 26 2023 08:05:43 GMT-0700 (Pacific Daylight Time)","374590","","null","","","","","offerFB","","<div class='trialBorder'><div class='vertical-center'><img style='vertical-align:center; align:center' src=img/fixation3.jpg></div><div class='cl'><div class='vertical-center'>$30<br>for<br>IM</div></div><div class='cr'><div class='vertical-center'><font style='color:orange'>$11<br>for<br>yourself</font></div></div><div class='respDivL'><div class='vertical-center'>(E)</div></div><div class='respDivR'><div class='vertical-center'><font style='color:orange'>(I)</font></div></div></div>","null","$11<br>for<br>yourself","$30<br>for<br>2","1","11","30","2",""
"","","","","63f791c69ca73d3460eeb2d9","bdp_sd","Sun Mar 26 2023 08:05:43 GMT-0700 (Pacific Daylight Time)","374590","","","","fullscreenexit","86","373591","fullscreenexit","","","","","","","","","",""
"fullscreen","86","374589","0.0-7.0","63f791c69ca73d3460eeb2d9","bdp_sd","Sun Mar 26 2023 08:05:43 GMT-0700 (Pacific Daylight Time)","374590","","","","","","","","true","","","","","","","","",""
"html-keyboard-response","87","375091","0.0-8.0","","","","","","null","","","","","","","","null","","","","","","",""
