"trial_type","trial_index","time_elapsed","internal_node_id","subject_id","task","startTime","totalTime","view_history","rt","responses","event","trial","time","trialtype","success","stimulus","key_press","selfOffer","otherOffer","otherLeft","selfAmt","otherAmt","otherDist","chosen"
"pavlovia","0","11","0.0-0.0","6400ed09421b2727c2f7c553","bdp_sd","Sat Mar 25 2023 22:15:42 GMT-0400 (Eastern Daylight Time)","272900","","","","","","","","","","","","","","","","",""
"instructions","1","2718","0.0-1.0","6400ed09421b2727c2f7c553","bdp_sd","Sat Mar 25 2023 22:15:42 GMT-0400 (Eastern Daylight Time)","272900","[{""page_index"":0,""viewing_time"":2705}]","2706","","","","","","","","","","","","","","",""
"survey-text","2","120990","0.0-2.0","6400ed09421b2727c2f7c553","bdp_sd","Sat Mar 25 2023 22:15:42 GMT-0400 (Eastern Daylight Time)","272900","","118271","{""Q0"":""Anders M"",""Q1"":""Nora C"",""Q2"":""Manuel E"",""Q3"":""Seth C"",""Q4"":""Sam C""}","","","","","","","","","","","","","",""
"","","","","6400ed09421b2727c2f7c553","bdp_sd","Sat Mar 25 2023 22:15:42 GMT-0400 (Eastern Daylight Time)","272900","","","","fullscreenenter","3","122951","fullscreenenter","","","","","","","","","",""
"fullscreen","3","123916","0.0-3.0","6400ed09421b2727c2f7c553","bdp_sd","Sat Mar 25 2023 22:15:42 GMT-0400 (Eastern Daylight Time)","272900","","","","","","","","true","","","","","","","","",""
"instructions","4","165552","0.0-5.0","6400ed09421b2727c2f7c553","bdp_sd","Sat Mar 25 2023 22:15:42 GMT-0400 (Eastern Daylight Time)","272900","[{""page_index"":0,""viewing_time"":11338},{""page_index"":1,""viewing_time"":22130},{""page_index"":2,""viewing_time"":8166}]","41634","","","","","","","","","","","","","","",""
"html-keyboard-response","5","166058","0.0-6.0-1.0","6400ed09421b2727c2f7c553","bdp_sd","Sat Mar 25 2023 22:15:42 GMT-0400 (Eastern Daylight Time)","272900","","null","","","","","FIX","","<div class='trialBorder'><div class='vertical-center'><img style='vertical-align:center; align:center' src=img/fixation3.jpg></div></div>","null","","","","","","",""
"html-keyboard-response","6","173110","0.0-6.0-2.0","6400ed09421b2727c2f7c553","bdp_sd","Sat Mar 25 2023 22:15:42 GMT-0400 (Eastern Daylight Time)","272900","","7050","","","","","offer","","<div class='trialBorder'><div class='vertical-center'><img style='vertical-align:center; align:center' src=img/fixation3.jpg></div><div class='cl'><div class='vertical-center'>$35<br>for<br>Sam C</div></div><div class='cr'><div class='vertical-center'>$34<br>for<br>yourself</div></div><div class='respDivL'><div class='vertical-center'>(E)</div></div><div class='respDivR'><div class='vertical-center'>(I)</div></div></div>","I","$34<br>for<br>yourself","$35<br>for<br>5","1","34","35","5","SELF"
"html-keyboard-response","7","173366","0.0-6.0-3.0","6400ed09421b2727c2f7c553","bdp_sd","Sat Mar 25 2023 22:15:42 GMT-0400 (Eastern Daylight Time)","272900","","null","","","","","offerFB","","<div class='trialBorder'><div class='vertical-center'><img style='vertical-align:center; align:center' src=img/fixation3.jpg></div><div class='cl'><div class='vertical-center'>$35<br>for<br>Sam C</div></div><div class='cr'><div class='vertical-center'><font style='color:orange'>$34<br>for<br>yourself</font></div></div><div class='respDivL'><div class='vertical-center'>(E)</div></div><div class='respDivR'><div class='vertical-center'><font style='color:orange'>(I)</font></div></div></div>","null","$34<br>for<br>yourself","$35<br>for<br>5","1","34","35","5",""
"html-keyboard-response","8","173868","0.0-6.0-1.1","6400ed09421b2727c2f7c553","bdp_sd","Sat Mar 25 2023 22:15:42 GMT-0400 (Eastern Daylight Time)","272900","","null","","","","","FIX","","<div class='trialBorder'><div class='vertical-center'><img style='vertical-align:center; align:center' src=img/fixation3.jpg></div></div>","null","","","","","","",""
"html-keyboard-response","9","178709","0.0-6.0-2.1","6400ed09421b2727c2f7c553","bdp_sd","Sat Mar 25 2023 22:15:42 GMT-0400 (Eastern Daylight Time)","272900","","4839","","","","","offer","","<div class='trialBorder'><div class='vertical-center'><img style='vertical-align:center; align:center' src=img/fixation3.jpg></div><div class='cl'><div class='vertical-center'>$11<br>for<br>yourself</div></div><div class='cr'><div class='vertical-center'>$30<br>for<br>Nora C</div></div><div class='respDivL'><div class='vertical-center'>(E)</div></div><div class='respDivR'><div class='vertical-center'>(I)</div></div></div>","I","$11<br>for<br>yourself","$30<br>for<br>2","0","11","30","2","OTHER"
"html-keyboard-response","10","178962","0.0-6.0-3.1","6400ed09421b2727c2f7c553","bdp_sd","Sat Mar 25 2023 22:15:42 GMT-0400 (Eastern Daylight Time)","272900","","null","","","","","offerFB","","<div class='trialBorder'><div class='vertical-center'><img style='vertical-align:center; align:center' src=img/fixation3.jpg></div><div class='cl'><div class='vertical-center'>$11<br>for<br>yourself</div></div><div class='cr'><div class='vertical-center'><font style='color:orange'>$30<br>for<br>Nora C</font></div></div><div class='respDivL'><div class='vertical-center'>(E)</div></div><div class='respDivR'><div class='vertical-center'><font style='color:orange'>(I)</font></div></div></div>","null","$11<br>for<br>yourself","$30<br>for<br>2","0","11","30","2",""
"html-keyboard-response","11","179465","0.0-6.0-1.2","6400ed09421b2727c2f7c553","bdp_sd","Sat Mar 25 2023 22:15:42 GMT-0400 (Eastern Daylight Time)","272900","","null","","","","","FIX","","<div class='trialBorder'><div class='vertical-center'><img style='vertical-align:center; align:center' src=img/fixation3.jpg></div></div>","null","","","","","","",""
"html-keyboard-response","12","182277","0.0-6.0-2.2","6400ed09421b2727c2f7c553","bdp_sd","Sat Mar 25 2023 22:15:42 GMT-0400 (Eastern Daylight Time)","272900","","2810","","","","","offer","","<div class='trialBorder'><div class='vertical-center'><img style='vertical-align:center; align:center' src=img/fixation3.jpg></div><div class='cl'><div class='vertical-center'>$67<br>for<br>yourself</div></div><div class='cr'><div class='vertical-center'>$75<br>for<br>Sam C</div></div><div class='respDivL'><div class='vertical-center'>(E)</div></div><div class='respDivR'><div class='vertical-center'>(I)</div></div></div>","E","$67<br>for<br>yourself","$75<br>for<br>5","0","67","75","5","SELF"
"html-keyboard-response","13","182532","0.0-6.0-3.2","6400ed09421b2727c2f7c553","bdp_sd","Sat Mar 25 2023 22:15:42 GMT-0400 (Eastern Daylight Time)","272900","","null","","","","","offerFB","","<div class='trialBorder'><div class='vertical-center'><img style='vertical-align:center; align:center' src=img/fixation3.jpg></div><div class='cl'><div class='vertical-center'><font style='color:orange'>$67<br>for<br>yourself</font></div></div><div class='cr'><div class='vertical-center'>$75<br>for<br>Sam C</div></div><div class='respDivL'><div class='vertical-center'><font style='color:orange'>(E)</font></div></div><div class='respDivR'><div class='vertical-center'>(I)</div></div></div>","null","$67<br>for<br>yourself","$75<br>for<br>5","0","67","75","5",""
"html-keyboard-response","14","183034","0.0-6.0-1.3","6400ed09421b2727c2f7c553","bdp_sd","Sat Mar 25 2023 22:15:42 GMT-0400 (Eastern Daylight Time)","272900","","null","","","","","FIX","","<div class='trialBorder'><div class='vertical-center'><img style='vertical-align:center; align:center' src=img/fixation3.jpg></div></div>","null","","","","","","",""
"html-keyboard-response","15","188463","0.0-6.0-2.3","6400ed09421b2727c2f7c553","bdp_sd","Sat Mar 25 2023 22:15:42 GMT-0400 (Eastern Daylight Time)","272900","","5427","","","","","offer","","<div class='trialBorder'><div class='vertical-center'><img style='vertical-align:center; align:center' src=img/fixation3.jpg></div><div class='cl'><div class='vertical-center'>$75<br>for<br>Seth C</div></div><div class='cr'><div class='vertical-center'>$55<br>for<br>yourself</div></div><div class='respDivL'><div class='vertical-center'>(E)</div></div><div class='respDivR'><div class='vertical-center'>(I)</div></div></div>","E","$55<br>for<br>yourself","$75<br>for<br>4","1","55","75","4","OTHER"
"html-keyboard-response","16","188719","0.0-6.0-3.3","6400ed09421b2727c2f7c553","bdp_sd","Sat Mar 25 2023 22:15:42 GMT-0400 (Eastern Daylight Time)","272900","","null","","","","","offerFB","","<div class='trialBorder'><div class='vertical-center'><img style='vertical-align:center; align:center' src=img/fixation3.jpg></div><div class='cl'><div class='vertical-center'><font style='color:orange'>$75<br>for<br>Seth C</font></div></div><div class='cr'><div class='vertical-center'>$55<br>for<br>yourself</div></div><div class='respDivL'><div class='vertical-center'><font style='color:orange'>(E)</font></div></div><div class='respDivR'><div class='vertical-center'>(I)</div></div></div>","null","$55<br>for<br>yourself","$75<br>for<br>4","1","55","75","4",""
"html-keyboard-response","17","189221","0.0-6.0-1.4","6400ed09421b2727c2f7c553","bdp_sd","Sat Mar 25 2023 22:15:42 GMT-0400 (Eastern Daylight Time)","272900","","null","","","","","FIX","","<div class='trialBorder'><div class='vertical-center'><img style='vertical-align:center; align:center' src=img/fixation3.jpg></div></div>","null","","","","","","",""
"html-keyboard-response","18","191902","0.0-6.0-2.4","6400ed09421b2727c2f7c553","bdp_sd","Sat Mar 25 2023 22:15:42 GMT-0400 (Eastern Daylight Time)","272900","","2679","","","","","offer","","<div class='trialBorder'><div class='vertical-center'><img style='vertical-align:center; align:center' src=img/fixation3.jpg></div><div class='cl'><div class='vertical-center'>$60<br>for<br>Sam C</div></div><div class='cr'><div class='vertical-center'>$54<br>for<br>yourself</div></div><div class='respDivL'><div class='vertical-center'>(E)</div></div><div class='respDivR'><div class='vertical-center'>(I)</div></div></div>","I","$54<br>for<br>yourself","$60<br>for<br>5","1","54","60","5","SELF"
"html-keyboard-response","19","192159","0.0-6.0-3.4","6400ed09421b2727c2f7c553","bdp_sd","Sat Mar 25 2023 22:15:42 GMT-0400 (Eastern Daylight Time)","272900","","null","","","","","offerFB","","<div class='trialBorder'><div class='vertical-center'><img style='vertical-align:center; align:center' src=img/fixation3.jpg></div><div class='cl'><div class='vertical-center'>$60<br>for<br>Sam C</div></div><div class='cr'><div class='vertical-center'><font style='color:orange'>$54<br>for<br>yourself</font></div></div><div class='respDivL'><div class='vertical-center'>(E)</div></div><div class='respDivR'><div class='vertical-center'><font style='color:orange'>(I)</font></div></div></div>","null","$54<br>for<br>yourself","$60<br>for<br>5","1","54","60","5",""
"html-keyboard-response","20","192674","0.0-6.0-1.5","6400ed09421b2727c2f7c553","bdp_sd","Sat Mar 25 2023 22:15:42 GMT-0400 (Eastern Daylight Time)","272900","","null","","","","","FIX","","<div class='trialBorder'><div class='vertical-center'><img style='vertical-align:center; align:center' src=img/fixation3.jpg></div></div>","null","","","","","","",""
"html-keyboard-response","21","199015","0.0-6.0-2.5","6400ed09421b2727c2f7c553","bdp_sd","Sat Mar 25 2023 22:15:42 GMT-0400 (Eastern Daylight Time)","272900","","6339","","","","","offer","","<div class='trialBorder'><div class='vertical-center'><img style='vertical-align:center; align:center' src=img/fixation3.jpg></div><div class='cl'><div class='vertical-center'>$24<br>for<br>yourself</div></div><div class='cr'><div class='vertical-center'>$35<br>for<br>Manuel E</div></div><div class='respDivL'><div class='vertical-center'>(E)</div></div><div class='respDivR'><div class='vertical-center'>(I)</div></div></div>","E","$24<br>for<br>yourself","$35<br>for<br>3","0","24","35","3","SELF"
"html-keyboard-response","22","199269","0.0-6.0-3.5","6400ed09421b2727c2f7c553","bdp_sd","Sat Mar 25 2023 22:15:42 GMT-0400 (Eastern Daylight Time)","272900","","null","","","","","offerFB","","<div class='trialBorder'><div class='vertical-center'><img style='vertical-align:center; align:center' src=img/fixation3.jpg></div><div class='cl'><div class='vertical-center'><font style='color:orange'>$24<br>for<br>yourself</font></div></div><div class='cr'><div class='vertical-center'>$35<br>for<br>Manuel E</div></div><div class='respDivL'><div class='vertical-center'><font style='color:orange'>(E)</font></div></div><div class='respDivR'><div class='vertical-center'>(I)</div></div></div>","null","$24<br>for<br>yourself","$35<br>for<br>3","0","24","35","3",""
"html-keyboard-response","23","199772","0.0-6.0-1.6","6400ed09421b2727c2f7c553","bdp_sd","Sat Mar 25 2023 22:15:42 GMT-0400 (Eastern Daylight Time)","272900","","null","","","","","FIX","","<div class='trialBorder'><div class='vertical-center'><img style='vertical-align:center; align:center' src=img/fixation3.jpg></div></div>","null","","","","","","",""
"html-keyboard-response","24","201958","0.0-6.0-2.6","6400ed09421b2727c2f7c553","bdp_sd","Sat Mar 25 2023 22:15:42 GMT-0400 (Eastern Daylight Time)","272900","","2185","","","","","offer","","<div class='trialBorder'><div class='vertical-center'><img style='vertical-align:center; align:center' src=img/fixation3.jpg></div><div class='cl'><div class='vertical-center'>$30<br>for<br>Seth C</div></div><div class='cr'><div class='vertical-center'>$25<br>for<br>yourself</div></div><div class='respDivL'><div class='vertical-center'>(E)</div></div><div class='respDivR'><div class='vertical-center'>(I)</div></div></div>","I","$25<br>for<br>yourself","$30<br>for<br>4","1","25","30","4","SELF"
"html-keyboard-response","25","202215","0.0-6.0-3.6","6400ed09421b2727c2f7c553","bdp_sd","Sat Mar 25 2023 22:15:42 GMT-0400 (Eastern Daylight Time)","272900","","null","","","","","offerFB","","<div class='trialBorder'><div class='vertical-center'><img style='vertical-align:center; align:center' src=img/fixation3.jpg></div><div class='cl'><div class='vertical-center'>$30<br>for<br>Seth C</div></div><div class='cr'><div class='vertical-center'><font style='color:orange'>$25<br>for<br>yourself</font></div></div><div class='respDivL'><div class='vertical-center'>(E)</div></div><div class='respDivR'><div class='vertical-center'><font style='color:orange'>(I)</font></div></div></div>","null","$25<br>for<br>yourself","$30<br>for<br>4","1","25","30","4",""
"html-keyboard-response","26","202717","0.0-6.0-1.7","6400ed09421b2727c2f7c553","bdp_sd","Sat Mar 25 2023 22:15:42 GMT-0400 (Eastern Daylight Time)","272900","","null","","","","","FIX","","<div class='trialBorder'><div class='vertical-center'><img style='vertical-align:center; align:center' src=img/fixation3.jpg></div></div>","null","","","","","","",""
"html-keyboard-response","27","205098","0.0-6.0-2.7","6400ed09421b2727c2f7c553","bdp_sd","Sat Mar 25 2023 22:15:42 GMT-0400 (Eastern Daylight Time)","272900","","2379","","","","","offer","","<div class='trialBorder'><div class='vertical-center'><img style='vertical-align:center; align:center' src=img/fixation3.jpg></div><div class='cl'><div class='vertical-center'>$78<br>for<br>yourself</div></div><div class='cr'><div class='vertical-center'>$80<br>for<br>Sam C</div></div><div class='respDivL'><div class='vertical-center'>(E)</div></div><div class='respDivR'><div class='vertical-center'>(I)</div></div></div>","E","$78<br>for<br>yourself","$80<br>for<br>5","0","78","80","5","SELF"
"html-keyboard-response","28","205351","0.0-6.0-3.7","6400ed09421b2727c2f7c553","bdp_sd","Sat Mar 25 2023 22:15:42 GMT-0400 (Eastern Daylight Time)","272900","","null","","","","","offerFB","","<div class='trialBorder'><div class='vertical-center'><img style='vertical-align:center; align:center' src=img/fixation3.jpg></div><div class='cl'><div class='vertical-center'><font style='color:orange'>$78<br>for<br>yourself</font></div></div><div class='cr'><div class='vertical-center'>$80<br>for<br>Sam C</div></div><div class='respDivL'><div class='vertical-center'><font style='color:orange'>(E)</font></div></div><div class='respDivR'><div class='vertical-center'>(I)</div></div></div>","null","$78<br>for<br>yourself","$80<br>for<br>5","0","78","80","5",""
"html-keyboard-response","29","205852","0.0-6.0-1.8","6400ed09421b2727c2f7c553","bdp_sd","Sat Mar 25 2023 22:15:42 GMT-0400 (Eastern Daylight Time)","272900","","null","","","","","FIX","","<div class='trialBorder'><div class='vertical-center'><img style='vertical-align:center; align:center' src=img/fixation3.jpg></div></div>","null","","","","","","",""
"html-keyboard-response","30","207599","0.0-6.0-2.8","6400ed09421b2727c2f7c553","bdp_sd","Sat Mar 25 2023 22:15:42 GMT-0400 (Eastern Daylight Time)","272900","","1745","","","","","offer","","<div class='trialBorder'><div class='vertical-center'><img style='vertical-align:center; align:center' src=img/fixation3.jpg></div><div class='cl'><div class='vertical-center'>$15<br>for<br>yourself</div></div><div class='cr'><div class='vertical-center'>$35<br>for<br>Nora C</div></div><div class='respDivL'><div class='vertical-center'>(E)</div></div><div class='respDivR'><div class='vertical-center'>(I)</div></div></div>","I","$15<br>for<br>yourself","$35<br>for<br>2","0","15","35","2","OTHER"
"html-keyboard-response","31","207852","0.0-6.0-3.8","6400ed09421b2727c2f7c553","bdp_sd","Sat Mar 25 2023 22:15:42 GMT-0400 (Eastern Daylight Time)","272900","","null","","","","","offerFB","","<div class='trialBorder'><div class='vertical-center'><img style='vertical-align:center; align:center' src=img/fixation3.jpg></div><div class='cl'><div class='vertical-center'>$15<br>for<br>yourself</div></div><div class='cr'><div class='vertical-center'><font style='color:orange'>$35<br>for<br>Nora C</font></div></div><div class='respDivL'><div class='vertical-center'>(E)</div></div><div class='respDivR'><div class='vertical-center'><font style='color:orange'>(I)</font></div></div></div>","null","$15<br>for<br>yourself","$35<br>for<br>2","0","15","35","2",""
"html-keyboard-response","32","208355","0.0-6.0-1.9","6400ed09421b2727c2f7c553","bdp_sd","Sat Mar 25 2023 22:15:42 GMT-0400 (Eastern Daylight Time)","272900","","null","","","","","FIX","","<div class='trialBorder'><div class='vertical-center'><img style='vertical-align:center; align:center' src=img/fixation3.jpg></div></div>","null","","","","","","",""
"html-keyboard-response","33","212293","0.0-6.0-2.9","6400ed09421b2727c2f7c553","bdp_sd","Sat Mar 25 2023 22:15:42 GMT-0400 (Eastern Daylight Time)","272900","","3935","","","","","offer","","<div class='trialBorder'><div class='vertical-center'><img style='vertical-align:center; align:center' src=img/fixation3.jpg></div><div class='cl'><div class='vertical-center'>$30<br>for<br>Sam C</div></div><div class='cr'><div class='vertical-center'>$28<br>for<br>yourself</div></div><div class='respDivL'><div class='vertical-center'>(E)</div></div><div class='respDivR'><div class='vertical-center'>(I)</div></div></div>","I","$28<br>for<br>yourself","$30<br>for<br>5","1","28","30","5","SELF"
"html-keyboard-response","34","212552","0.0-6.0-3.9","6400ed09421b2727c2f7c553","bdp_sd","Sat Mar 25 2023 22:15:42 GMT-0400 (Eastern Daylight Time)","272900","","null","","","","","offerFB","","<div class='trialBorder'><div class='vertical-center'><img style='vertical-align:center; align:center' src=img/fixation3.jpg></div><div class='cl'><div class='vertical-center'>$30<br>for<br>Sam C</div></div><div class='cr'><div class='vertical-center'><font style='color:orange'>$28<br>for<br>yourself</font></div></div><div class='respDivL'><div class='vertical-center'>(E)</div></div><div class='respDivR'><div class='vertical-center'><font style='color:orange'>(I)</font></div></div></div>","null","$28<br>for<br>yourself","$30<br>for<br>5","1","28","30","5",""
"html-keyboard-response","35","213055","0.0-6.0-1.10","6400ed09421b2727c2f7c553","bdp_sd","Sat Mar 25 2023 22:15:42 GMT-0400 (Eastern Daylight Time)","272900","","null","","","","","FIX","","<div class='trialBorder'><div class='vertical-center'><img style='vertical-align:center; align:center' src=img/fixation3.jpg></div></div>","null","","","","","","",""
"html-keyboard-response","36","216096","0.0-6.0-2.10","6400ed09421b2727c2f7c553","bdp_sd","Sat Mar 25 2023 22:15:42 GMT-0400 (Eastern Daylight Time)","272900","","3040","","","","","offer","","<div class='trialBorder'><div class='vertical-center'><img style='vertical-align:center; align:center' src=img/fixation3.jpg></div><div class='cl'><div class='vertical-center'>$20<br>for<br>yourself</div></div><div class='cr'><div class='vertical-center'>$55<br>for<br>Anders M</div></div><div class='respDivL'><div class='vertical-center'>(E)</div></div><div class='respDivR'><div class='vertical-center'>(I)</div></div></div>","I","$20<br>for<br>yourself","$55<br>for<br>1","0","20","55","1","OTHER"
"html-keyboard-response","37","216349","0.0-6.0-3.10","6400ed09421b2727c2f7c553","bdp_sd","Sat Mar 25 2023 22:15:42 GMT-0400 (Eastern Daylight Time)","272900","","null","","","","","offerFB","","<div class='trialBorder'><div class='vertical-center'><img style='vertical-align:center; align:center' src=img/fixation3.jpg></div><div class='cl'><div class='vertical-center'>$20<br>for<br>yourself</div></div><div class='cr'><div class='vertical-center'><font style='color:orange'>$55<br>for<br>Anders M</font></div></div><div class='respDivL'><div class='vertical-center'>(E)</div></div><div class='respDivR'><div class='vertical-center'><font style='color:orange'>(I)</font></div></div></div>","null","$20<br>for<br>yourself","$55<br>for<br>1","0","20","55","1",""
"html-keyboard-response","38","216851","0.0-6.0-1.11","6400ed09421b2727c2f7c553","bdp_sd","Sat Mar 25 2023 22:15:42 GMT-0400 (Eastern Daylight Time)","272900","","null","","","","","FIX","","<div class='trialBorder'><div class='vertical-center'><img style='vertical-align:center; align:center' src=img/fixation3.jpg></div></div>","null","","","","","","",""
"html-keyboard-response","39","223489","0.0-6.0-2.11","6400ed09421b2727c2f7c553","bdp_sd","Sat Mar 25 2023 22:15:42 GMT-0400 (Eastern Daylight Time)","272900","","6636","","","","","offer","","<div class='trialBorder'><div class='vertical-center'><img style='vertical-align:center; align:center' src=img/fixation3.jpg></div><div class='cl'><div class='vertical-center'>$49<br>for<br>yourself</div></div><div class='cr'><div class='vertical-center'>$60<br>for<br>Seth C</div></div><div class='respDivL'><div class='vertical-center'>(E)</div></div><div class='respDivR'><div class='vertical-center'>(I)</div></div></div>","E","$49<br>for<br>yourself","$60<br>for<br>4","0","49","60","4","SELF"
"html-keyboard-response","40","223743","0.0-6.0-3.11","6400ed09421b2727c2f7c553","bdp_sd","Sat Mar 25 2023 22:15:42 GMT-0400 (Eastern Daylight Time)","272900","","null","","","","","offerFB","","<div class='trialBorder'><div class='vertical-center'><img style='vertical-align:center; align:center' src=img/fixation3.jpg></div><div class='cl'><div class='vertical-center'><font style='color:orange'>$49<br>for<br>yourself</font></div></div><div class='cr'><div class='vertical-center'>$60<br>for<br>Seth C</div></div><div class='respDivL'><div class='vertical-center'><font style='color:orange'>(E)</font></div></div><div class='respDivR'><div class='vertical-center'>(I)</div></div></div>","null","$49<br>for<br>yourself","$60<br>for<br>4","0","49","60","4",""
"html-keyboard-response","41","224246","0.0-6.0-1.12","6400ed09421b2727c2f7c553","bdp_sd","Sat Mar 25 2023 22:15:42 GMT-0400 (Eastern Daylight Time)","272900","","null","","","","","FIX","","<div class='trialBorder'><div class='vertical-center'><img style='vertical-align:center; align:center' src=img/fixation3.jpg></div></div>","null","","","","","","",""
"html-keyboard-response","42","226291","0.0-6.0-2.12","6400ed09421b2727c2f7c553","bdp_sd","Sat Mar 25 2023 22:15:42 GMT-0400 (Eastern Daylight Time)","272900","","2043","","","","","offer","","<div class='trialBorder'><div class='vertical-center'><img style='vertical-align:center; align:center' src=img/fixation3.jpg></div><div class='cl'><div class='vertical-center'>$55<br>for<br>Sam C</div></div><div class='cr'><div class='vertical-center'>$54<br>for<br>yourself</div></div><div class='respDivL'><div class='vertical-center'>(E)</div></div><div class='respDivR'><div class='vertical-center'>(I)</div></div></div>","I","$54<br>for<br>yourself","$55<br>for<br>5","1","54","55","5","SELF"
"html-keyboard-response","43","226543","0.0-6.0-3.12","6400ed09421b2727c2f7c553","bdp_sd","Sat Mar 25 2023 22:15:42 GMT-0400 (Eastern Daylight Time)","272900","","null","","","","","offerFB","","<div class='trialBorder'><div class='vertical-center'><img style='vertical-align:center; align:center' src=img/fixation3.jpg></div><div class='cl'><div class='vertical-center'>$55<br>for<br>Sam C</div></div><div class='cr'><div class='vertical-center'><font style='color:orange'>$54<br>for<br>yourself</font></div></div><div class='respDivL'><div class='vertical-center'>(E)</div></div><div class='respDivR'><div class='vertical-center'><font style='color:orange'>(I)</font></div></div></div>","null","$54<br>for<br>yourself","$55<br>for<br>5","1","54","55","5",""
"html-keyboard-response","44","227046","0.0-6.0-1.13","6400ed09421b2727c2f7c553","bdp_sd","Sat Mar 25 2023 22:15:42 GMT-0400 (Eastern Daylight Time)","272900","","null","","","","","FIX","","<div class='trialBorder'><div class='vertical-center'><img style='vertical-align:center; align:center' src=img/fixation3.jpg></div></div>","null","","","","","","",""
"html-keyboard-response","45","230165","0.0-6.0-2.13","6400ed09421b2727c2f7c553","bdp_sd","Sat Mar 25 2023 22:15:42 GMT-0400 (Eastern Daylight Time)","272900","","3116","","","","","offer","","<div class='trialBorder'><div class='vertical-center'><img style='vertical-align:center; align:center' src=img/fixation3.jpg></div><div class='cl'><div class='vertical-center'>$50<br>for<br>Seth C</div></div><div class='cr'><div class='vertical-center'>$34<br>for<br>yourself</div></div><div class='respDivL'><div class='vertical-center'>(E)</div></div><div class='respDivR'><div class='vertical-center'>(I)</div></div></div>","E","$34<br>for<br>yourself","$50<br>for<br>4","1","34","50","4","OTHER"
"html-keyboard-response","46","230418","0.0-6.0-3.13","6400ed09421b2727c2f7c553","bdp_sd","Sat Mar 25 2023 22:15:42 GMT-0400 (Eastern Daylight Time)","272900","","null","","","","","offerFB","","<div class='trialBorder'><div class='vertical-center'><img style='vertical-align:center; align:center' src=img/fixation3.jpg></div><div class='cl'><div class='vertical-center'><font style='color:orange'>$50<br>for<br>Seth C</font></div></div><div class='cr'><div class='vertical-center'>$34<br>for<br>yourself</div></div><div class='respDivL'><div class='vertical-center'><font style='color:orange'>(E)</font></div></div><div class='respDivR'><div class='vertical-center'>(I)</div></div></div>","null","$34<br>for<br>yourself","$50<br>for<br>4","1","34","50","4",""
"html-keyboard-response","47","230920","0.0-6.0-1.14","6400ed09421b2727c2f7c553","bdp_sd","Sat Mar 25 2023 22:15:42 GMT-0400 (Eastern Daylight Time)","272900","","null","","","","","FIX","","<div class='trialBorder'><div class='vertical-center'><img style='vertical-align:center; align:center' src=img/fixation3.jpg></div></div>","null","","","","","","",""
"html-keyboard-response","48","233040","0.0-6.0-2.14","6400ed09421b2727c2f7c553","bdp_sd","Sat Mar 25 2023 22:15:42 GMT-0400 (Eastern Daylight Time)","272900","","2117","","","","","offer","","<div class='trialBorder'><div class='vertical-center'><img style='vertical-align:center; align:center' src=img/fixation3.jpg></div><div class='cl'><div class='vertical-center'>$31<br>for<br>yourself</div></div><div class='cr'><div class='vertical-center'>$85<br>for<br>Anders M</div></div><div class='respDivL'><div class='vertical-center'>(E)</div></div><div class='respDivR'><div class='vertical-center'>(I)</div></div></div>","I","$31<br>for<br>yourself","$85<br>for<br>1","0","31","85","1","OTHER"
"html-keyboard-response","49","233292","0.0-6.0-3.14","6400ed09421b2727c2f7c553","bdp_sd","Sat Mar 25 2023 22:15:42 GMT-0400 (Eastern Daylight Time)","272900","","null","","","","","offerFB","","<div class='trialBorder'><div class='vertical-center'><img style='vertical-align:center; align:center' src=img/fixation3.jpg></div><div class='cl'><div class='vertical-center'>$31<br>for<br>yourself</div></div><div class='cr'><div class='vertical-center'><font style='color:orange'>$85<br>for<br>Anders M</font></div></div><div class='respDivL'><div class='vertical-center'>(E)</div></div><div class='respDivR'><div class='vertical-center'><font style='color:orange'>(I)</font></div></div></div>","null","$31<br>for<br>yourself","$85<br>for<br>1","0","31","85","1",""
"html-keyboard-response","50","233794","0.0-6.0-1.15","6400ed09421b2727c2f7c553","bdp_sd","Sat Mar 25 2023 22:15:42 GMT-0400 (Eastern Daylight Time)","272900","","null","","","","","FIX","","<div class='trialBorder'><div class='vertical-center'><img style='vertical-align:center; align:center' src=img/fixation3.jpg></div></div>","null","","","","","","",""
"html-keyboard-response","51","235899","0.0-6.0-2.15","6400ed09421b2727c2f7c553","bdp_sd","Sat Mar 25 2023 22:15:42 GMT-0400 (Eastern Daylight Time)","272900","","2103","","","","","offer","","<div class='trialBorder'><div class='vertical-center'><img style='vertical-align:center; align:center' src=img/fixation3.jpg></div><div class='cl'><div class='vertical-center'>$50<br>for<br>Manuel E</div></div><div class='cr'><div class='vertical-center'>$27<br>for<br>yourself</div></div><div class='respDivL'><div class='vertical-center'>(E)</div></div><div class='respDivR'><div class='vertical-center'>(I)</div></div></div>","E","$27<br>for<br>yourself","$50<br>for<br>3","1","27","50","3","OTHER"
"html-keyboard-response","52","236152","0.0-6.0-3.15","6400ed09421b2727c2f7c553","bdp_sd","Sat Mar 25 2023 22:15:42 GMT-0400 (Eastern Daylight Time)","272900","","null","","","","","offerFB","","<div class='trialBorder'><div class='vertical-center'><img style='vertical-align:center; align:center' src=img/fixation3.jpg></div><div class='cl'><div class='vertical-center'><font style='color:orange'>$50<br>for<br>Manuel E</font></div></div><div class='cr'><div class='vertical-center'>$27<br>for<br>yourself</div></div><div class='respDivL'><div class='vertical-center'><font style='color:orange'>(E)</font></div></div><div class='respDivR'><div class='vertical-center'>(I)</div></div></div>","null","$27<br>for<br>yourself","$50<br>for<br>3","1","27","50","3",""
"html-keyboard-response","53","236655","0.0-6.0-1.16","6400ed09421b2727c2f7c553","bdp_sd","Sat Mar 25 2023 22:15:42 GMT-0400 (Eastern Daylight Time)","272900","","null","","","","","FIX","","<div class='trialBorder'><div class='vertical-center'><img style='vertical-align:center; align:center' src=img/fixation3.jpg></div></div>","null","","","","","","",""
"html-keyboard-response","54","238319","0.0-6.0-2.16","6400ed09421b2727c2f7c553","bdp_sd","Sat Mar 25 2023 22:15:42 GMT-0400 (Eastern Daylight Time)","272900","","1662","","","","","offer","","<div class='trialBorder'><div class='vertical-center'><img style='vertical-align:center; align:center' src=img/fixation3.jpg></div><div class='cl'><div class='vertical-center'>$80<br>for<br>Nora C</div></div><div class='cr'><div class='vertical-center'>$33<br>for<br>yourself</div></div><div class='respDivL'><div class='vertical-center'>(E)</div></div><div class='respDivR'><div class='vertical-center'>(I)</div></div></div>","E","$33<br>for<br>yourself","$80<br>for<br>2","1","33","80","2","OTHER"
"html-keyboard-response","55","238574","0.0-6.0-3.16","6400ed09421b2727c2f7c553","bdp_sd","Sat Mar 25 2023 22:15:42 GMT-0400 (Eastern Daylight Time)","272900","","null","","","","","offerFB","","<div class='trialBorder'><div class='vertical-center'><img style='vertical-align:center; align:center' src=img/fixation3.jpg></div><div class='cl'><div class='vertical-center'><font style='color:orange'>$80<br>for<br>Nora C</font></div></div><div class='cr'><div class='vertical-center'>$33<br>for<br>yourself</div></div><div class='respDivL'><div class='vertical-center'><font style='color:orange'>(E)</font></div></div><div class='respDivR'><div class='vertical-center'>(I)</div></div></div>","null","$33<br>for<br>yourself","$80<br>for<br>2","1","33","80","2",""
"html-keyboard-response","56","239083","0.0-6.0-1.17","6400ed09421b2727c2f7c553","bdp_sd","Sat Mar 25 2023 22:15:42 GMT-0400 (Eastern Daylight Time)","272900","","null","","","","","FIX","","<div class='trialBorder'><div class='vertical-center'><img style='vertical-align:center; align:center' src=img/fixation3.jpg></div></div>","null","","","","","","",""
"html-keyboard-response","57","241161","0.0-6.0-2.17","6400ed09421b2727c2f7c553","bdp_sd","Sat Mar 25 2023 22:15:42 GMT-0400 (Eastern Daylight Time)","272900","","2075","","","","","offer","","<div class='trialBorder'><div class='vertical-center'><img style='vertical-align:center; align:center' src=img/fixation3.jpg></div><div class='cl'><div class='vertical-center'>$47<br>for<br>yourself</div></div><div class='cr'><div class='vertical-center'>$50<br>for<br>Sam C</div></div><div class='respDivL'><div class='vertical-center'>(E)</div></div><div class='respDivR'><div class='vertical-center'>(I)</div></div></div>","E","$47<br>for<br>yourself","$50<br>for<br>5","0","47","50","5","SELF"
"html-keyboard-response","58","241414","0.0-6.0-3.17","6400ed09421b2727c2f7c553","bdp_sd","Sat Mar 25 2023 22:15:42 GMT-0400 (Eastern Daylight Time)","272900","","null","","","","","offerFB","","<div class='trialBorder'><div class='vertical-center'><img style='vertical-align:center; align:center' src=img/fixation3.jpg></div><div class='cl'><div class='vertical-center'><font style='color:orange'>$47<br>for<br>yourself</font></div></div><div class='cr'><div class='vertical-center'>$50<br>for<br>Sam C</div></div><div class='respDivL'><div class='vertical-center'><font style='color:orange'>(E)</font></div></div><div class='respDivR'><div class='vertical-center'>(I)</div></div></div>","null","$47<br>for<br>yourself","$50<br>for<br>5","0","47","50","5",""
"html-keyboard-response","59","241920","0.0-6.0-1.18","6400ed09421b2727c2f7c553","bdp_sd","Sat Mar 25 2023 22:15:42 GMT-0400 (Eastern Daylight Time)","272900","","null","","","","","FIX","","<div class='trialBorder'><div class='vertical-center'><img style='vertical-align:center; align:center' src=img/fixation3.jpg></div></div>","null","","","","","","",""
"html-keyboard-response","60","244177","0.0-6.0-2.18","6400ed09421b2727c2f7c553","bdp_sd","Sat Mar 25 2023 22:15:42 GMT-0400 (Eastern Daylight Time)","272900","","2255","","","","","offer","","<div class='trialBorder'><div class='vertical-center'><img style='vertical-align:center; align:center' src=img/fixation3.jpg></div><div class='cl'><div class='vertical-center'>$55<br>for<br>Seth C</div></div><div class='cr'><div class='vertical-center'>$40<br>for<br>yourself</div></div><div class='respDivL'><div class='vertical-center'>(E)</div></div><div class='respDivR'><div class='vertical-center'>(I)</div></div></div>","I","$40<br>for<br>yourself","$55<br>for<br>4","1","40","55","4","SELF"
"html-keyboard-response","61","244430","0.0-6.0-3.18","6400ed09421b2727c2f7c553","bdp_sd","Sat Mar 25 2023 22:15:42 GMT-0400 (Eastern Daylight Time)","272900","","null","","","","","offerFB","","<div class='trialBorder'><div class='vertical-center'><img style='vertical-align:center; align:center' src=img/fixation3.jpg></div><div class='cl'><div class='vertical-center'>$55<br>for<br>Seth C</div></div><div class='cr'><div class='vertical-center'><font style='color:orange'>$40<br>for<br>yourself</font></div></div><div class='respDivL'><div class='vertical-center'>(E)</div></div><div class='respDivR'><div class='vertical-center'><font style='color:orange'>(I)</font></div></div></div>","null","$40<br>for<br>yourself","$55<br>for<br>4","1","40","55","4",""
"html-keyboard-response","62","244944","0.0-6.0-1.19","6400ed09421b2727c2f7c553","bdp_sd","Sat Mar 25 2023 22:15:42 GMT-0400 (Eastern Daylight Time)","272900","","null","","","","","FIX","","<div class='trialBorder'><div class='vertical-center'><img style='vertical-align:center; align:center' src=img/fixation3.jpg></div></div>","null","","","","","","",""
"html-keyboard-response","63","246954","0.0-6.0-2.19","6400ed09421b2727c2f7c553","bdp_sd","Sat Mar 25 2023 22:15:42 GMT-0400 (Eastern Daylight Time)","272900","","2001","","","","","offer","","<div class='trialBorder'><div class='vertical-center'><img style='vertical-align:center; align:center' src=img/fixation3.jpg></div><div class='cl'><div class='vertical-center'>$22<br>for<br>yourself</div></div><div class='cr'><div class='vertical-center'>$25<br>for<br>Sam C</div></div><div class='respDivL'><div class='vertical-center'>(E)</div></div><div class='respDivR'><div class='vertical-center'>(I)</div></div></div>","E","$22<br>for<br>yourself","$25<br>for<br>5","0","22","25","5","SELF"
"html-keyboard-response","64","247209","0.0-6.0-3.19","6400ed09421b2727c2f7c553","bdp_sd","Sat Mar 25 2023 22:15:42 GMT-0400 (Eastern Daylight Time)","272900","","null","","","","","offerFB","","<div class='trialBorder'><div class='vertical-center'><img style='vertical-align:center; align:center' src=img/fixation3.jpg></div><div class='cl'><div class='vertical-center'><font style='color:orange'>$22<br>for<br>yourself</font></div></div><div class='cr'><div class='vertical-center'>$25<br>for<br>Sam C</div></div><div class='respDivL'><div class='vertical-center'><font style='color:orange'>(E)</font></div></div><div class='respDivR'><div class='vertical-center'>(I)</div></div></div>","null","$22<br>for<br>yourself","$25<br>for<br>5","0","22","25","5",""
"html-keyboard-response","65","247710","0.0-6.0-1.20","6400ed09421b2727c2f7c553","bdp_sd","Sat Mar 25 2023 22:15:42 GMT-0400 (Eastern Daylight Time)","272900","","null","","","","","FIX","","<div class='trialBorder'><div class='vertical-center'><img style='vertical-align:center; align:center' src=img/fixation3.jpg></div></div>","null","","","","","","",""
"html-keyboard-response","66","250312","0.0-6.0-2.20","6400ed09421b2727c2f7c553","bdp_sd","Sat Mar 25 2023 22:15:42 GMT-0400 (Eastern Daylight Time)","272900","","2599","","","","","offer","","<div class='trialBorder'><div class='vertical-center'><img style='vertical-align:center; align:center' src=img/fixation3.jpg></div><div class='cl'><div class='vertical-center'>$60<br>for<br>Manuel E</div></div><div class='cr'><div class='vertical-center'>$25<br>for<br>yourself</div></div><div class='respDivL'><div class='vertical-center'>(E)</div></div><div class='respDivR'><div class='vertical-center'>(I)</div></div></div>","E","$25<br>for<br>yourself","$60<br>for<br>3","1","25","60","3","OTHER"
"html-keyboard-response","67","250565","0.0-6.0-3.20","6400ed09421b2727c2f7c553","bdp_sd","Sat Mar 25 2023 22:15:42 GMT-0400 (Eastern Daylight Time)","272900","","null","","","","","offerFB","","<div class='trialBorder'><div class='vertical-center'><img style='vertical-align:center; align:center' src=img/fixation3.jpg></div><div class='cl'><div class='vertical-center'><font style='color:orange'>$60<br>for<br>Manuel E</font></div></div><div class='cr'><div class='vertical-center'>$25<br>for<br>yourself</div></div><div class='respDivL'><div class='vertical-center'><font style='color:orange'>(E)</font></div></div><div class='respDivR'><div class='vertical-center'>(I)</div></div></div>","null","$25<br>for<br>yourself","$60<br>for<br>3","1","25","60","3",""
"html-keyboard-response","68","251067","0.0-6.0-1.21","6400ed09421b2727c2f7c553","bdp_sd","Sat Mar 25 2023 22:15:42 GMT-0400 (Eastern Daylight Time)","272900","","null","","","","","FIX","","<div class='trialBorder'><div class='vertical-center'><img style='vertical-align:center; align:center' src=img/fixation3.jpg></div></div>","null","","","","","","",""
"html-keyboard-response","69","253603","0.0-6.0-2.21","6400ed09421b2727c2f7c553","bdp_sd","Sat Mar 25 2023 22:15:42 GMT-0400 (Eastern Daylight Time)","272900","","2535","","","","","offer","","<div class='trialBorder'><div class='vertical-center'><img style='vertical-align:center; align:center' src=img/fixation3.jpg></div><div class='cl'><div class='vertical-center'>$14<br>for<br>yourself</div></div><div class='cr'><div class='vertical-center'>$25<br>for<br>Manuel E</div></div><div class='respDivL'><div class='vertical-center'>(E)</div></div><div class='respDivR'><div class='vertical-center'>(I)</div></div></div>","E","$14<br>for<br>yourself","$25<br>for<br>3","0","14","25","3","SELF"
"html-keyboard-response","70","253861","0.0-6.0-3.21","6400ed09421b2727c2f7c553","bdp_sd","Sat Mar 25 2023 22:15:42 GMT-0400 (Eastern Daylight Time)","272900","","null","","","","","offerFB","","<div class='trialBorder'><div class='vertical-center'><img style='vertical-align:center; align:center' src=img/fixation3.jpg></div><div class='cl'><div class='vertical-center'><font style='color:orange'>$14<br>for<br>yourself</font></div></div><div class='cr'><div class='vertical-center'>$25<br>for<br>Manuel E</div></div><div class='respDivL'><div class='vertical-center'><font style='color:orange'>(E)</font></div></div><div class='respDivR'><div class='vertical-center'>(I)</div></div></div>","null","$14<br>for<br>yourself","$25<br>for<br>3","0","14","25","3",""
"html-keyboard-response","71","254363","0.0-6.0-1.22","6400ed09421b2727c2f7c553","bdp_sd","Sat Mar 25 2023 22:15:42 GMT-0400 (Eastern Daylight Time)","272900","","null","","","","","FIX","","<div class='trialBorder'><div class='vertical-center'><img style='vertical-align:center; align:center' src=img/fixation3.jpg></div></div>","null","","","","","","",""
"html-keyboard-response","72","257460","0.0-6.0-2.22","6400ed09421b2727c2f7c553","bdp_sd","Sat Mar 25 2023 22:15:42 GMT-0400 (Eastern Daylight Time)","272900","","3096","","","","","offer","","<div class='trialBorder'><div class='vertical-center'><img style='vertical-align:center; align:center' src=img/fixation3.jpg></div><div class='cl'><div class='vertical-center'>$85<br>for<br>Seth C</div></div><div class='cr'><div class='vertical-center'>$69<br>for<br>yourself</div></div><div class='respDivL'><div class='vertical-center'>(E)</div></div><div class='respDivR'><div class='vertical-center'>(I)</div></div></div>","I","$69<br>for<br>yourself","$85<br>for<br>4","1","69","85","4","SELF"
"html-keyboard-response","73","257716","0.0-6.0-3.22","6400ed09421b2727c2f7c553","bdp_sd","Sat Mar 25 2023 22:15:42 GMT-0400 (Eastern Daylight Time)","272900","","null","","","","","offerFB","","<div class='trialBorder'><div class='vertical-center'><img style='vertical-align:center; align:center' src=img/fixation3.jpg></div><div class='cl'><div class='vertical-center'>$85<br>for<br>Seth C</div></div><div class='cr'><div class='vertical-center'><font style='color:orange'>$69<br>for<br>yourself</font></div></div><div class='respDivL'><div class='vertical-center'>(E)</div></div><div class='respDivR'><div class='vertical-center'><font style='color:orange'>(I)</font></div></div></div>","null","$69<br>for<br>yourself","$85<br>for<br>4","1","69","85","4",""
"html-keyboard-response","74","258217","0.0-6.0-1.23","6400ed09421b2727c2f7c553","bdp_sd","Sat Mar 25 2023 22:15:42 GMT-0400 (Eastern Daylight Time)","272900","","null","","","","","FIX","","<div class='trialBorder'><div class='vertical-center'><img style='vertical-align:center; align:center' src=img/fixation3.jpg></div></div>","null","","","","","","",""
"html-keyboard-response","75","260866","0.0-6.0-2.23","6400ed09421b2727c2f7c553","bdp_sd","Sat Mar 25 2023 22:15:42 GMT-0400 (Eastern Daylight Time)","272900","","2647","","","","","offer","","<div class='trialBorder'><div class='vertical-center'><img style='vertical-align:center; align:center' src=img/fixation3.jpg></div><div class='cl'><div class='vertical-center'>$41<br>for<br>yourself</div></div><div class='cr'><div class='vertical-center'>$75<br>for<br>Manuel E</div></div><div class='respDivL'><div class='vertical-center'>(E)</div></div><div class='respDivR'><div class='vertical-center'>(I)</div></div></div>","I","$41<br>for<br>yourself","$75<br>for<br>3","0","41","75","3","OTHER"
"html-keyboard-response","76","261119","0.0-6.0-3.23","6400ed09421b2727c2f7c553","bdp_sd","Sat Mar 25 2023 22:15:42 GMT-0400 (Eastern Daylight Time)","272900","","null","","","","","offerFB","","<div class='trialBorder'><div class='vertical-center'><img style='vertical-align:center; align:center' src=img/fixation3.jpg></div><div class='cl'><div class='vertical-center'>$41<br>for<br>yourself</div></div><div class='cr'><div class='vertical-center'><font style='color:orange'>$75<br>for<br>Manuel E</font></div></div><div class='respDivL'><div class='vertical-center'>(E)</div></div><div class='respDivR'><div class='vertical-center'><font style='color:orange'>(I)</font></div></div></div>","null","$41<br>for<br>yourself","$75<br>for<br>3","0","41","75","3",""
"html-keyboard-response","77","261624","0.0-6.0-1.24","6400ed09421b2727c2f7c553","bdp_sd","Sat Mar 25 2023 22:15:42 GMT-0400 (Eastern Daylight Time)","272900","","null","","","","","FIX","","<div class='trialBorder'><div class='vertical-center'><img style='vertical-align:center; align:center' src=img/fixation3.jpg></div></div>","null","","","","","","",""
"html-keyboard-response","78","264422","0.0-6.0-2.24","6400ed09421b2727c2f7c553","bdp_sd","Sat Mar 25 2023 22:15:42 GMT-0400 (Eastern Daylight Time)","272900","","2797","","","","","offer","","<div class='trialBorder'><div class='vertical-center'><img style='vertical-align:center; align:center' src=img/fixation3.jpg></div><div class='cl'><div class='vertical-center'>$80<br>for<br>Manuel E</div></div><div class='cr'><div class='vertical-center'>$54<br>for<br>yourself</div></div><div class='respDivL'><div class='vertical-center'>(E)</div></div><div class='respDivR'><div class='vertical-center'>(I)</div></div></div>","E","$54<br>for<br>yourself","$80<br>for<br>3","1","54","80","3","OTHER"
"html-keyboard-response","79","264675","0.0-6.0-3.24","6400ed09421b2727c2f7c553","bdp_sd","Sat Mar 25 2023 22:15:42 GMT-0400 (Eastern Daylight Time)","272900","","null","","","","","offerFB","","<div class='trialBorder'><div class='vertical-center'><img style='vertical-align:center; align:center' src=img/fixation3.jpg></div><div class='cl'><div class='vertical-center'><font style='color:orange'>$80<br>for<br>Manuel E</font></div></div><div class='cr'><div class='vertical-center'>$54<br>for<br>yourself</div></div><div class='respDivL'><div class='vertical-center'><font style='color:orange'>(E)</font></div></div><div class='respDivR'><div class='vertical-center'>(I)</div></div></div>","null","$54<br>for<br>yourself","$80<br>for<br>3","1","54","80","3",""
"html-keyboard-response","80","265178","0.0-6.0-1.25","6400ed09421b2727c2f7c553","bdp_sd","Sat Mar 25 2023 22:15:42 GMT-0400 (Eastern Daylight Time)","272900","","null","","","","","FIX","","<div class='trialBorder'><div class='vertical-center'><img style='vertical-align:center; align:center' src=img/fixation3.jpg></div></div>","null","","","","","","",""
"html-keyboard-response","81","268309","0.0-6.0-2.25","6400ed09421b2727c2f7c553","bdp_sd","Sat Mar 25 2023 22:15:42 GMT-0400 (Eastern Daylight Time)","272900","","3128","","","","","offer","","<div class='trialBorder'><div class='vertical-center'><img style='vertical-align:center; align:center' src=img/fixation3.jpg></div><div class='cl'><div class='vertical-center'>$19<br>for<br>yourself</div></div><div class='cr'><div class='vertical-center'>$25<br>for<br>Seth C</div></div><div class='respDivL'><div class='vertical-center'>(E)</div></div><div class='respDivR'><div class='vertical-center'>(I)</div></div></div>","I","$19<br>for<br>yourself","$25<br>for<br>4","0","19","25","4","OTHER"
"html-keyboard-response","82","268565","0.0-6.0-3.25","6400ed09421b2727c2f7c553","bdp_sd","Sat Mar 25 2023 22:15:42 GMT-0400 (Eastern Daylight Time)","272900","","null","","","","","offerFB","","<div class='trialBorder'><div class='vertical-center'><img style='vertical-align:center; align:center' src=img/fixation3.jpg></div><div class='cl'><div class='vertical-center'>$19<br>for<br>yourself</div></div><div class='cr'><div class='vertical-center'><font style='color:orange'>$25<br>for<br>Seth C</font></div></div><div class='respDivL'><div class='vertical-center'>(E)</div></div><div class='respDivR'><div class='vertical-center'><font style='color:orange'>(I)</font></div></div></div>","null","$19<br>for<br>yourself","$25<br>for<br>4","0","19","25","4",""
"html-keyboard-response","83","269067","0.0-6.0-1.26","6400ed09421b2727c2f7c553","bdp_sd","Sat Mar 25 2023 22:15:42 GMT-0400 (Eastern Daylight Time)","272900","","null","","","","","FIX","","<div class='trialBorder'><div class='vertical-center'><img style='vertical-align:center; align:center' src=img/fixation3.jpg></div></div>","null","","","","","","",""
"html-keyboard-response","84","271643","0.0-6.0-2.26","6400ed09421b2727c2f7c553","bdp_sd","Sat Mar 25 2023 22:15:42 GMT-0400 (Eastern Daylight Time)","272900","","2575","","","","","offer","","<div class='trialBorder'><div class='vertical-center'><img style='vertical-align:center; align:center' src=img/fixation3.jpg></div><div class='cl'><div class='vertical-center'>$85<br>for<br>Sam C</div></div><div class='cr'><div class='vertical-center'>$80<br>for<br>yourself</div></div><div class='respDivL'><div class='vertical-center'>(E)</div></div><div class='respDivR'><div class='vertical-center'>(I)</div></div></div>","I","$80<br>for<br>yourself","$85<br>for<br>5","1","80","85","5","SELF"
"html-keyboard-response","85","271896","0.0-6.0-3.26","6400ed09421b2727c2f7c553","bdp_sd","Sat Mar 25 2023 22:15:42 GMT-0400 (Eastern Daylight Time)","272900","","null","","","","","offerFB","","<div class='trialBorder'><div class='vertical-center'><img style='vertical-align:center; align:center' src=img/fixation3.jpg></div><div class='cl'><div class='vertical-center'>$85<br>for<br>Sam C</div></div><div class='cr'><div class='vertical-center'><font style='color:orange'>$80<br>for<br>yourself</font></div></div><div class='respDivL'><div class='vertical-center'>(E)</div></div><div class='respDivR'><div class='vertical-center'><font style='color:orange'>(I)</font></div></div></div>","null","$80<br>for<br>yourself","$85<br>for<br>5","1","80","85","5",""
"","","","","6400ed09421b2727c2f7c553","bdp_sd","Sat Mar 25 2023 22:15:42 GMT-0400 (Eastern Daylight Time)","272900","","","","fullscreenexit","86","271944","fullscreenexit","","","","","","","","","",""
"fullscreen","86","272900","0.0-7.0","6400ed09421b2727c2f7c553","bdp_sd","Sat Mar 25 2023 22:15:42 GMT-0400 (Eastern Daylight Time)","272900","","","","","","","","true","","","","","","","","",""
"html-keyboard-response","87","273402","0.0-8.0","","","","","","null","","","","","","","","null","","","","","","",""
