"trial_type","trial_index","time_elapsed","internal_node_id","subject_id","task","startTime","totalTime","view_history","rt","responses","event","trial","time","trialtype","success","numBlurs","stimulus","key_press","selfOffer","otherOffer","otherLeft","selfAmt","otherAmt","otherDist","chosen"
"pavlovia","0","5","0.0-0.0","60fd738c235e974993ad455c","bdp_sd","Tue Mar 28 2023 16:33:17 GMT-0500 (Central Daylight Time)","459656","","","","","","","","","","","","","","","","","",""
"instructions","1","1652","0.0-1.0","60fd738c235e974993ad455c","bdp_sd","Tue Mar 28 2023 16:33:17 GMT-0500 (Central Daylight Time)","459656","[{""page_index"":0,""viewing_time"":1646}]","1646","","","","","","","","","","","","","","","",""
"survey-text","2","107190","0.0-2.0","60fd738c235e974993ad455c","bdp_sd","Tue Mar 28 2023 16:33:17 GMT-0500 (Central Daylight Time)","459656","","105536","{""Q0"":""Briana G"",""Q1"":""Keela V"",""Q2"":""Shu L"",""Q3"":""Linda J"",""Q4"":""Celeste Y""}","","","","","","","","","","","","","","",""
"","","","","60fd738c235e974993ad455c","bdp_sd","Tue Mar 28 2023 16:33:17 GMT-0500 (Central Daylight Time)","459656","","","","fullscreenenter","3","110501","fullscreenenter","","","","","","","","","","",""
"fullscreen","3","111492","0.0-3.0","60fd738c235e974993ad455c","bdp_sd","Tue Mar 28 2023 16:33:17 GMT-0500 (Central Daylight Time)","459656","","","","","","","","true","","","","","","","","","",""
"","","","","60fd738c235e974993ad455c","bdp_sd","Tue Mar 28 2023 16:33:17 GMT-0500 (Central Daylight Time)","459656","","","","blur","4","155696","blurevent","","1","","","","","","","","",""
"","","","","60fd738c235e974993ad455c","bdp_sd","Tue Mar 28 2023 16:33:17 GMT-0500 (Central Daylight Time)","459656","","","","focus","4","282272","focusevent","","","","","","","","","","",""
"","","","","60fd738c235e974993ad455c","bdp_sd","Tue Mar 28 2023 16:33:17 GMT-0500 (Central Daylight Time)","459656","","","","blur","4","299181","blurevent","","","","","","","","","","",""
"","","","","60fd738c235e974993ad455c","bdp_sd","Tue Mar 28 2023 16:33:17 GMT-0500 (Central Daylight Time)","459656","","","","focus","4","299997","focusevent","","","","","","","","","","",""
"instructions","4","342306","0.0-5.0","60fd738c235e974993ad455c","bdp_sd","Tue Mar 28 2023 16:33:17 GMT-0500 (Central Daylight Time)","459656","[{""page_index"":0,""viewing_time"":171628},{""page_index"":1,""viewing_time"":35584},{""page_index"":2,""viewing_time"":23599}]","230812","","","","","","","","","","","","","","","",""
"image-keyboard-response","5","348740","0.0-6.0-0.0-0.0","60fd738c235e974993ad455c","bdp_sd","Tue Mar 28 2023 16:33:17 GMT-0500 (Central Daylight Time)","459656","","6432","","","","","blurwarn","","1","","49","","","","","","",""
"html-keyboard-response","6","349495","0.0-6.0-1.0","60fd738c235e974993ad455c","bdp_sd","Tue Mar 28 2023 16:33:17 GMT-0500 (Central Daylight Time)","459656","","null","","","","","FIX","","","<div class='trialBorder'><div class='vertical-center'><img style='vertical-align:center; align:center' src=img/fixation3.jpg></div></div>","null","","","","","","",""
"html-keyboard-response","7","354052","0.0-6.0-2.0","60fd738c235e974993ad455c","bdp_sd","Tue Mar 28 2023 16:33:17 GMT-0500 (Central Daylight Time)","459656","","4554","","","","","offer","","","<div class='trialBorder'><div class='vertical-center'><img style='vertical-align:center; align:center' src=img/fixation3.jpg></div><div class='cl'><div class='vertical-center'>$75<br>for<br>Celeste Y</div></div><div class='cr'><div class='vertical-center'>$67<br>for<br>yourself</div></div><div class='respDivL'><div class='vertical-center'>(E)</div></div><div class='respDivR'><div class='vertical-center'>(I)</div></div></div>","I","$67<br>for<br>yourself","$75<br>for<br>5","1","67","75","5","SELF"
"html-keyboard-response","8","354307","0.0-6.0-3.0","60fd738c235e974993ad455c","bdp_sd","Tue Mar 28 2023 16:33:17 GMT-0500 (Central Daylight Time)","459656","","null","","","","","offerFB","","","<div class='trialBorder'><div class='vertical-center'><img style='vertical-align:center; align:center' src=img/fixation3.jpg></div><div class='cl'><div class='vertical-center'>$75<br>for<br>Celeste Y</div></div><div class='cr'><div class='vertical-center'><font style='color:orange'>$67<br>for<br>yourself</font></div></div><div class='respDivL'><div class='vertical-center'>(E)</div></div><div class='respDivR'><div class='vertical-center'><font style='color:orange'>(I)</font></div></div></div>","null","$67<br>for<br>yourself","$75<br>for<br>5","1","67","75","5",""
"html-keyboard-response","9","354809","0.0-6.0-1.1","60fd738c235e974993ad455c","bdp_sd","Tue Mar 28 2023 16:33:17 GMT-0500 (Central Daylight Time)","459656","","null","","","","","FIX","","","<div class='trialBorder'><div class='vertical-center'><img style='vertical-align:center; align:center' src=img/fixation3.jpg></div></div>","null","","","","","","",""
"html-keyboard-response","10","358850","0.0-6.0-2.1","60fd738c235e974993ad455c","bdp_sd","Tue Mar 28 2023 16:33:17 GMT-0500 (Central Daylight Time)","459656","","4038","","","","","offer","","","<div class='trialBorder'><div class='vertical-center'><img style='vertical-align:center; align:center' src=img/fixation3.jpg></div><div class='cl'><div class='vertical-center'>$60<br>for<br>Linda J</div></div><div class='cr'><div class='vertical-center'>$49<br>for<br>yourself</div></div><div class='respDivL'><div class='vertical-center'>(E)</div></div><div class='respDivR'><div class='vertical-center'>(I)</div></div></div>","I","$49<br>for<br>yourself","$60<br>for<br>4","1","49","60","4","SELF"
"html-keyboard-response","11","359102","0.0-6.0-3.1","60fd738c235e974993ad455c","bdp_sd","Tue Mar 28 2023 16:33:17 GMT-0500 (Central Daylight Time)","459656","","null","","","","","offerFB","","","<div class='trialBorder'><div class='vertical-center'><img style='vertical-align:center; align:center' src=img/fixation3.jpg></div><div class='cl'><div class='vertical-center'>$60<br>for<br>Linda J</div></div><div class='cr'><div class='vertical-center'><font style='color:orange'>$49<br>for<br>yourself</font></div></div><div class='respDivL'><div class='vertical-center'>(E)</div></div><div class='respDivR'><div class='vertical-center'><font style='color:orange'>(I)</font></div></div></div>","null","$49<br>for<br>yourself","$60<br>for<br>4","1","49","60","4",""
"html-keyboard-response","12","359604","0.0-6.0-1.2","60fd738c235e974993ad455c","bdp_sd","Tue Mar 28 2023 16:33:17 GMT-0500 (Central Daylight Time)","459656","","null","","","","","FIX","","","<div class='trialBorder'><div class='vertical-center'><img style='vertical-align:center; align:center' src=img/fixation3.jpg></div></div>","null","","","","","","",""
"html-keyboard-response","13","363265","0.0-6.0-2.2","60fd738c235e974993ad455c","bdp_sd","Tue Mar 28 2023 16:33:17 GMT-0500 (Central Daylight Time)","459656","","3660","","","","","offer","","","<div class='trialBorder'><div class='vertical-center'><img style='vertical-align:center; align:center' src=img/fixation3.jpg></div><div class='cl'><div class='vertical-center'>$20<br>for<br>yourself</div></div><div class='cr'><div class='vertical-center'>$55<br>for<br>Briana G</div></div><div class='respDivL'><div class='vertical-center'>(E)</div></div><div class='respDivR'><div class='vertical-center'>(I)</div></div></div>","I","$20<br>for<br>yourself","$55<br>for<br>1","0","20","55","1","OTHER"
"html-keyboard-response","14","363518","0.0-6.0-3.2","60fd738c235e974993ad455c","bdp_sd","Tue Mar 28 2023 16:33:17 GMT-0500 (Central Daylight Time)","459656","","null","","","","","offerFB","","","<div class='trialBorder'><div class='vertical-center'><img style='vertical-align:center; align:center' src=img/fixation3.jpg></div><div class='cl'><div class='vertical-center'>$20<br>for<br>yourself</div></div><div class='cr'><div class='vertical-center'><font style='color:orange'>$55<br>for<br>Briana G</font></div></div><div class='respDivL'><div class='vertical-center'>(E)</div></div><div class='respDivR'><div class='vertical-center'><font style='color:orange'>(I)</font></div></div></div>","null","$20<br>for<br>yourself","$55<br>for<br>1","0","20","55","1",""
"html-keyboard-response","15","364020","0.0-6.0-1.3","60fd738c235e974993ad455c","bdp_sd","Tue Mar 28 2023 16:33:17 GMT-0500 (Central Daylight Time)","459656","","null","","","","","FIX","","","<div class='trialBorder'><div class='vertical-center'><img style='vertical-align:center; align:center' src=img/fixation3.jpg></div></div>","null","","","","","","",""
"html-keyboard-response","16","366403","0.0-6.0-2.3","60fd738c235e974993ad455c","bdp_sd","Tue Mar 28 2023 16:33:17 GMT-0500 (Central Daylight Time)","459656","","2382","","","","","offer","","","<div class='trialBorder'><div class='vertical-center'><img style='vertical-align:center; align:center' src=img/fixation3.jpg></div><div class='cl'><div class='vertical-center'>$80<br>for<br>Celeste Y</div></div><div class='cr'><div class='vertical-center'>$78<br>for<br>yourself</div></div><div class='respDivL'><div class='vertical-center'>(E)</div></div><div class='respDivR'><div class='vertical-center'>(I)</div></div></div>","I","$78<br>for<br>yourself","$80<br>for<br>5","1","78","80","5","SELF"
"html-keyboard-response","17","366655","0.0-6.0-3.3","60fd738c235e974993ad455c","bdp_sd","Tue Mar 28 2023 16:33:17 GMT-0500 (Central Daylight Time)","459656","","null","","","","","offerFB","","","<div class='trialBorder'><div class='vertical-center'><img style='vertical-align:center; align:center' src=img/fixation3.jpg></div><div class='cl'><div class='vertical-center'>$80<br>for<br>Celeste Y</div></div><div class='cr'><div class='vertical-center'><font style='color:orange'>$78<br>for<br>yourself</font></div></div><div class='respDivL'><div class='vertical-center'>(E)</div></div><div class='respDivR'><div class='vertical-center'><font style='color:orange'>(I)</font></div></div></div>","null","$78<br>for<br>yourself","$80<br>for<br>5","1","78","80","5",""
"html-keyboard-response","18","367157","0.0-6.0-1.4","60fd738c235e974993ad455c","bdp_sd","Tue Mar 28 2023 16:33:17 GMT-0500 (Central Daylight Time)","459656","","null","","","","","FIX","","","<div class='trialBorder'><div class='vertical-center'><img style='vertical-align:center; align:center' src=img/fixation3.jpg></div></div>","null","","","","","","",""
"html-keyboard-response","19","370451","0.0-6.0-2.4","60fd738c235e974993ad455c","bdp_sd","Tue Mar 28 2023 16:33:17 GMT-0500 (Central Daylight Time)","459656","","3292","","","","","offer","","","<div class='trialBorder'><div class='vertical-center'><img style='vertical-align:center; align:center' src=img/fixation3.jpg></div><div class='cl'><div class='vertical-center'>$11<br>for<br>yourself</div></div><div class='cr'><div class='vertical-center'>$30<br>for<br>Keela V</div></div><div class='respDivL'><div class='vertical-center'>(E)</div></div><div class='respDivR'><div class='vertical-center'>(I)</div></div></div>","I","$11<br>for<br>yourself","$30<br>for<br>2","0","11","30","2","OTHER"
"html-keyboard-response","20","370704","0.0-6.0-3.4","60fd738c235e974993ad455c","bdp_sd","Tue Mar 28 2023 16:33:17 GMT-0500 (Central Daylight Time)","459656","","null","","","","","offerFB","","","<div class='trialBorder'><div class='vertical-center'><img style='vertical-align:center; align:center' src=img/fixation3.jpg></div><div class='cl'><div class='vertical-center'>$11<br>for<br>yourself</div></div><div class='cr'><div class='vertical-center'><font style='color:orange'>$30<br>for<br>Keela V</font></div></div><div class='respDivL'><div class='vertical-center'>(E)</div></div><div class='respDivR'><div class='vertical-center'><font style='color:orange'>(I)</font></div></div></div>","null","$11<br>for<br>yourself","$30<br>for<br>2","0","11","30","2",""
"html-keyboard-response","21","371205","0.0-6.0-1.5","60fd738c235e974993ad455c","bdp_sd","Tue Mar 28 2023 16:33:17 GMT-0500 (Central Daylight Time)","459656","","null","","","","","FIX","","","<div class='trialBorder'><div class='vertical-center'><img style='vertical-align:center; align:center' src=img/fixation3.jpg></div></div>","null","","","","","","",""
"html-keyboard-response","22","376612","0.0-6.0-2.5","60fd738c235e974993ad455c","bdp_sd","Tue Mar 28 2023 16:33:17 GMT-0500 (Central Daylight Time)","459656","","5405","","","","","offer","","","<div class='trialBorder'><div class='vertical-center'><img style='vertical-align:center; align:center' src=img/fixation3.jpg></div><div class='cl'><div class='vertical-center'>$55<br>for<br>yourself</div></div><div class='cr'><div class='vertical-center'>$75<br>for<br>Linda J</div></div><div class='respDivL'><div class='vertical-center'>(E)</div></div><div class='respDivR'><div class='vertical-center'>(I)</div></div></div>","E","$55<br>for<br>yourself","$75<br>for<br>4","0","55","75","4","SELF"
"html-keyboard-response","23","376866","0.0-6.0-3.5","60fd738c235e974993ad455c","bdp_sd","Tue Mar 28 2023 16:33:17 GMT-0500 (Central Daylight Time)","459656","","null","","","","","offerFB","","","<div class='trialBorder'><div class='vertical-center'><img style='vertical-align:center; align:center' src=img/fixation3.jpg></div><div class='cl'><div class='vertical-center'><font style='color:orange'>$55<br>for<br>yourself</font></div></div><div class='cr'><div class='vertical-center'>$75<br>for<br>Linda J</div></div><div class='respDivL'><div class='vertical-center'><font style='color:orange'>(E)</font></div></div><div class='respDivR'><div class='vertical-center'>(I)</div></div></div>","null","$55<br>for<br>yourself","$75<br>for<br>4","0","55","75","4",""
"html-keyboard-response","24","377368","0.0-6.0-1.6","60fd738c235e974993ad455c","bdp_sd","Tue Mar 28 2023 16:33:17 GMT-0500 (Central Daylight Time)","459656","","null","","","","","FIX","","","<div class='trialBorder'><div class='vertical-center'><img style='vertical-align:center; align:center' src=img/fixation3.jpg></div></div>","null","","","","","","",""
"html-keyboard-response","25","379602","0.0-6.0-2.6","60fd738c235e974993ad455c","bdp_sd","Tue Mar 28 2023 16:33:17 GMT-0500 (Central Daylight Time)","459656","","2231","","","","","offer","","","<div class='trialBorder'><div class='vertical-center'><img style='vertical-align:center; align:center' src=img/fixation3.jpg></div><div class='cl'><div class='vertical-center'>$54<br>for<br>yourself</div></div><div class='cr'><div class='vertical-center'>$80<br>for<br>Shu L</div></div><div class='respDivL'><div class='vertical-center'>(E)</div></div><div class='respDivR'><div class='vertical-center'>(I)</div></div></div>","I","$54<br>for<br>yourself","$80<br>for<br>3","0","54","80","3","OTHER"
"html-keyboard-response","26","379855","0.0-6.0-3.6","60fd738c235e974993ad455c","bdp_sd","Tue Mar 28 2023 16:33:17 GMT-0500 (Central Daylight Time)","459656","","null","","","","","offerFB","","","<div class='trialBorder'><div class='vertical-center'><img style='vertical-align:center; align:center' src=img/fixation3.jpg></div><div class='cl'><div class='vertical-center'>$54<br>for<br>yourself</div></div><div class='cr'><div class='vertical-center'><font style='color:orange'>$80<br>for<br>Shu L</font></div></div><div class='respDivL'><div class='vertical-center'>(E)</div></div><div class='respDivR'><div class='vertical-center'><font style='color:orange'>(I)</font></div></div></div>","null","$54<br>for<br>yourself","$80<br>for<br>3","0","54","80","3",""
"html-keyboard-response","27","380357","0.0-6.0-1.7","60fd738c235e974993ad455c","bdp_sd","Tue Mar 28 2023 16:33:17 GMT-0500 (Central Daylight Time)","459656","","null","","","","","FIX","","","<div class='trialBorder'><div class='vertical-center'><img style='vertical-align:center; align:center' src=img/fixation3.jpg></div></div>","null","","","","","","",""
"html-keyboard-response","28","387859","0.0-6.0-2.7","60fd738c235e974993ad455c","bdp_sd","Tue Mar 28 2023 16:33:17 GMT-0500 (Central Daylight Time)","459656","","7501","","","","","offer","","","<div class='trialBorder'><div class='vertical-center'><img style='vertical-align:center; align:center' src=img/fixation3.jpg></div><div class='cl'><div class='vertical-center'>$47<br>for<br>yourself</div></div><div class='cr'><div class='vertical-center'>$50<br>for<br>Celeste Y</div></div><div class='respDivL'><div class='vertical-center'>(E)</div></div><div class='respDivR'><div class='vertical-center'>(I)</div></div></div>","E","$47<br>for<br>yourself","$50<br>for<br>5","0","47","50","5","SELF"
"html-keyboard-response","29","388114","0.0-6.0-3.7","60fd738c235e974993ad455c","bdp_sd","Tue Mar 28 2023 16:33:17 GMT-0500 (Central Daylight Time)","459656","","null","","","","","offerFB","","","<div class='trialBorder'><div class='vertical-center'><img style='vertical-align:center; align:center' src=img/fixation3.jpg></div><div class='cl'><div class='vertical-center'><font style='color:orange'>$47<br>for<br>yourself</font></div></div><div class='cr'><div class='vertical-center'>$50<br>for<br>Celeste Y</div></div><div class='respDivL'><div class='vertical-center'><font style='color:orange'>(E)</font></div></div><div class='respDivR'><div class='vertical-center'>(I)</div></div></div>","null","$47<br>for<br>yourself","$50<br>for<br>5","0","47","50","5",""
"html-keyboard-response","30","388615","0.0-6.0-1.8","60fd738c235e974993ad455c","bdp_sd","Tue Mar 28 2023 16:33:17 GMT-0500 (Central Daylight Time)","459656","","null","","","","","FIX","","","<div class='trialBorder'><div class='vertical-center'><img style='vertical-align:center; align:center' src=img/fixation3.jpg></div></div>","null","","","","","","",""
"html-keyboard-response","31","390354","0.0-6.0-2.8","60fd738c235e974993ad455c","bdp_sd","Tue Mar 28 2023 16:33:17 GMT-0500 (Central Daylight Time)","459656","","1736","","","","","offer","","","<div class='trialBorder'><div class='vertical-center'><img style='vertical-align:center; align:center' src=img/fixation3.jpg></div><div class='cl'><div class='vertical-center'>$28<br>for<br>yourself</div></div><div class='cr'><div class='vertical-center'>$30<br>for<br>Celeste Y</div></div><div class='respDivL'><div class='vertical-center'>(E)</div></div><div class='respDivR'><div class='vertical-center'>(I)</div></div></div>","E","$28<br>for<br>yourself","$30<br>for<br>5","0","28","30","5","SELF"
"html-keyboard-response","32","390605","0.0-6.0-3.8","60fd738c235e974993ad455c","bdp_sd","Tue Mar 28 2023 16:33:17 GMT-0500 (Central Daylight Time)","459656","","null","","","","","offerFB","","","<div class='trialBorder'><div class='vertical-center'><img style='vertical-align:center; align:center' src=img/fixation3.jpg></div><div class='cl'><div class='vertical-center'><font style='color:orange'>$28<br>for<br>yourself</font></div></div><div class='cr'><div class='vertical-center'>$30<br>for<br>Celeste Y</div></div><div class='respDivL'><div class='vertical-center'><font style='color:orange'>(E)</font></div></div><div class='respDivR'><div class='vertical-center'>(I)</div></div></div>","null","$28<br>for<br>yourself","$30<br>for<br>5","0","28","30","5",""
"html-keyboard-response","33","391107","0.0-6.0-1.9","60fd738c235e974993ad455c","bdp_sd","Tue Mar 28 2023 16:33:17 GMT-0500 (Central Daylight Time)","459656","","null","","","","","FIX","","","<div class='trialBorder'><div class='vertical-center'><img style='vertical-align:center; align:center' src=img/fixation3.jpg></div></div>","null","","","","","","",""
"html-keyboard-response","34","392802","0.0-6.0-2.9","60fd738c235e974993ad455c","bdp_sd","Tue Mar 28 2023 16:33:17 GMT-0500 (Central Daylight Time)","459656","","1693","","","","","offer","","","<div class='trialBorder'><div class='vertical-center'><img style='vertical-align:center; align:center' src=img/fixation3.jpg></div><div class='cl'><div class='vertical-center'>$25<br>for<br>yourself</div></div><div class='cr'><div class='vertical-center'>$30<br>for<br>Linda J</div></div><div class='respDivL'><div class='vertical-center'>(E)</div></div><div class='respDivR'><div class='vertical-center'>(I)</div></div></div>","E","$25<br>for<br>yourself","$30<br>for<br>4","0","25","30","4","SELF"
"html-keyboard-response","35","393055","0.0-6.0-3.9","60fd738c235e974993ad455c","bdp_sd","Tue Mar 28 2023 16:33:17 GMT-0500 (Central Daylight Time)","459656","","null","","","","","offerFB","","","<div class='trialBorder'><div class='vertical-center'><img style='vertical-align:center; align:center' src=img/fixation3.jpg></div><div class='cl'><div class='vertical-center'><font style='color:orange'>$25<br>for<br>yourself</font></div></div><div class='cr'><div class='vertical-center'>$30<br>for<br>Linda J</div></div><div class='respDivL'><div class='vertical-center'><font style='color:orange'>(E)</font></div></div><div class='respDivR'><div class='vertical-center'>(I)</div></div></div>","null","$25<br>for<br>yourself","$30<br>for<br>4","0","25","30","4",""
"html-keyboard-response","36","393557","0.0-6.0-1.10","60fd738c235e974993ad455c","bdp_sd","Tue Mar 28 2023 16:33:17 GMT-0500 (Central Daylight Time)","459656","","null","","","","","FIX","","","<div class='trialBorder'><div class='vertical-center'><img style='vertical-align:center; align:center' src=img/fixation3.jpg></div></div>","null","","","","","","",""
"html-keyboard-response","37","396722","0.0-6.0-2.10","60fd738c235e974993ad455c","bdp_sd","Tue Mar 28 2023 16:33:17 GMT-0500 (Central Daylight Time)","459656","","3164","","","","","offer","","","<div class='trialBorder'><div class='vertical-center'><img style='vertical-align:center; align:center' src=img/fixation3.jpg></div><div class='cl'><div class='vertical-center'>$19<br>for<br>yourself</div></div><div class='cr'><div class='vertical-center'>$25<br>for<br>Linda J</div></div><div class='respDivL'><div class='vertical-center'>(E)</div></div><div class='respDivR'><div class='vertical-center'>(I)</div></div></div>","I","$19<br>for<br>yourself","$25<br>for<br>4","0","19","25","4","OTHER"
"html-keyboard-response","38","396975","0.0-6.0-3.10","60fd738c235e974993ad455c","bdp_sd","Tue Mar 28 2023 16:33:17 GMT-0500 (Central Daylight Time)","459656","","null","","","","","offerFB","","","<div class='trialBorder'><div class='vertical-center'><img style='vertical-align:center; align:center' src=img/fixation3.jpg></div><div class='cl'><div class='vertical-center'>$19<br>for<br>yourself</div></div><div class='cr'><div class='vertical-center'><font style='color:orange'>$25<br>for<br>Linda J</font></div></div><div class='respDivL'><div class='vertical-center'>(E)</div></div><div class='respDivR'><div class='vertical-center'><font style='color:orange'>(I)</font></div></div></div>","null","$19<br>for<br>yourself","$25<br>for<br>4","0","19","25","4",""
"html-keyboard-response","39","397477","0.0-6.0-1.11","60fd738c235e974993ad455c","bdp_sd","Tue Mar 28 2023 16:33:17 GMT-0500 (Central Daylight Time)","459656","","null","","","","","FIX","","","<div class='trialBorder'><div class='vertical-center'><img style='vertical-align:center; align:center' src=img/fixation3.jpg></div></div>","null","","","","","","",""
"html-keyboard-response","40","400339","0.0-6.0-2.11","60fd738c235e974993ad455c","bdp_sd","Tue Mar 28 2023 16:33:17 GMT-0500 (Central Daylight Time)","459656","","2861","","","","","offer","","","<div class='trialBorder'><div class='vertical-center'><img style='vertical-align:center; align:center' src=img/fixation3.jpg></div><div class='cl'><div class='vertical-center'>$69<br>for<br>yourself</div></div><div class='cr'><div class='vertical-center'>$85<br>for<br>Linda J</div></div><div class='respDivL'><div class='vertical-center'>(E)</div></div><div class='respDivR'><div class='vertical-center'>(I)</div></div></div>","I","$69<br>for<br>yourself","$85<br>for<br>4","0","69","85","4","OTHER"
"html-keyboard-response","41","400593","0.0-6.0-3.11","60fd738c235e974993ad455c","bdp_sd","Tue Mar 28 2023 16:33:17 GMT-0500 (Central Daylight Time)","459656","","null","","","","","offerFB","","","<div class='trialBorder'><div class='vertical-center'><img style='vertical-align:center; align:center' src=img/fixation3.jpg></div><div class='cl'><div class='vertical-center'>$69<br>for<br>yourself</div></div><div class='cr'><div class='vertical-center'><font style='color:orange'>$85<br>for<br>Linda J</font></div></div><div class='respDivL'><div class='vertical-center'>(E)</div></div><div class='respDivR'><div class='vertical-center'><font style='color:orange'>(I)</font></div></div></div>","null","$69<br>for<br>yourself","$85<br>for<br>4","0","69","85","4",""
"html-keyboard-response","42","401095","0.0-6.0-1.12","60fd738c235e974993ad455c","bdp_sd","Tue Mar 28 2023 16:33:17 GMT-0500 (Central Daylight Time)","459656","","null","","","","","FIX","","","<div class='trialBorder'><div class='vertical-center'><img style='vertical-align:center; align:center' src=img/fixation3.jpg></div></div>","null","","","","","","",""
"html-keyboard-response","43","404371","0.0-6.0-2.12","60fd738c235e974993ad455c","bdp_sd","Tue Mar 28 2023 16:33:17 GMT-0500 (Central Daylight Time)","459656","","3274","","","","","offer","","","<div class='trialBorder'><div class='vertical-center'><img style='vertical-align:center; align:center' src=img/fixation3.jpg></div><div class='cl'><div class='vertical-center'>$50<br>for<br>Linda J</div></div><div class='cr'><div class='vertical-center'>$34<br>for<br>yourself</div></div><div class='respDivL'><div class='vertical-center'>(E)</div></div><div class='respDivR'><div class='vertical-center'>(I)</div></div></div>","I","$34<br>for<br>yourself","$50<br>for<br>4","1","34","50","4","SELF"
"html-keyboard-response","44","404625","0.0-6.0-3.12","60fd738c235e974993ad455c","bdp_sd","Tue Mar 28 2023 16:33:17 GMT-0500 (Central Daylight Time)","459656","","null","","","","","offerFB","","","<div class='trialBorder'><div class='vertical-center'><img style='vertical-align:center; align:center' src=img/fixation3.jpg></div><div class='cl'><div class='vertical-center'>$50<br>for<br>Linda J</div></div><div class='cr'><div class='vertical-center'><font style='color:orange'>$34<br>for<br>yourself</font></div></div><div class='respDivL'><div class='vertical-center'>(E)</div></div><div class='respDivR'><div class='vertical-center'><font style='color:orange'>(I)</font></div></div></div>","null","$34<br>for<br>yourself","$50<br>for<br>4","1","34","50","4",""
"html-keyboard-response","45","405127","0.0-6.0-1.13","60fd738c235e974993ad455c","bdp_sd","Tue Mar 28 2023 16:33:17 GMT-0500 (Central Daylight Time)","459656","","null","","","","","FIX","","","<div class='trialBorder'><div class='vertical-center'><img style='vertical-align:center; align:center' src=img/fixation3.jpg></div></div>","null","","","","","","",""
"html-keyboard-response","46","406770","0.0-6.0-2.13","60fd738c235e974993ad455c","bdp_sd","Tue Mar 28 2023 16:33:17 GMT-0500 (Central Daylight Time)","459656","","1642","","","","","offer","","","<div class='trialBorder'><div class='vertical-center'><img style='vertical-align:center; align:center' src=img/fixation3.jpg></div><div class='cl'><div class='vertical-center'>$33<br>for<br>yourself</div></div><div class='cr'><div class='vertical-center'>$80<br>for<br>Keela V</div></div><div class='respDivL'><div class='vertical-center'>(E)</div></div><div class='respDivR'><div class='vertical-center'>(I)</div></div></div>","I","$33<br>for<br>yourself","$80<br>for<br>2","0","33","80","2","OTHER"
"html-keyboard-response","47","407022","0.0-6.0-3.13","60fd738c235e974993ad455c","bdp_sd","Tue Mar 28 2023 16:33:17 GMT-0500 (Central Daylight Time)","459656","","null","","","","","offerFB","","","<div class='trialBorder'><div class='vertical-center'><img style='vertical-align:center; align:center' src=img/fixation3.jpg></div><div class='cl'><div class='vertical-center'>$33<br>for<br>yourself</div></div><div class='cr'><div class='vertical-center'><font style='color:orange'>$80<br>for<br>Keela V</font></div></div><div class='respDivL'><div class='vertical-center'>(E)</div></div><div class='respDivR'><div class='vertical-center'><font style='color:orange'>(I)</font></div></div></div>","null","$33<br>for<br>yourself","$80<br>for<br>2","0","33","80","2",""
"html-keyboard-response","48","407524","0.0-6.0-1.14","60fd738c235e974993ad455c","bdp_sd","Tue Mar 28 2023 16:33:17 GMT-0500 (Central Daylight Time)","459656","","null","","","","","FIX","","","<div class='trialBorder'><div class='vertical-center'><img style='vertical-align:center; align:center' src=img/fixation3.jpg></div></div>","null","","","","","","",""
"html-keyboard-response","49","409937","0.0-6.0-2.14","60fd738c235e974993ad455c","bdp_sd","Tue Mar 28 2023 16:33:17 GMT-0500 (Central Daylight Time)","459656","","2412","","","","","offer","","","<div class='trialBorder'><div class='vertical-center'><img style='vertical-align:center; align:center' src=img/fixation3.jpg></div><div class='cl'><div class='vertical-center'>$55<br>for<br>Linda J</div></div><div class='cr'><div class='vertical-center'>$40<br>for<br>yourself</div></div><div class='respDivL'><div class='vertical-center'>(E)</div></div><div class='respDivR'><div class='vertical-center'>(I)</div></div></div>","I","$40<br>for<br>yourself","$55<br>for<br>4","1","40","55","4","SELF"
"html-keyboard-response","50","410189","0.0-6.0-3.14","60fd738c235e974993ad455c","bdp_sd","Tue Mar 28 2023 16:33:17 GMT-0500 (Central Daylight Time)","459656","","null","","","","","offerFB","","","<div class='trialBorder'><div class='vertical-center'><img style='vertical-align:center; align:center' src=img/fixation3.jpg></div><div class='cl'><div class='vertical-center'>$55<br>for<br>Linda J</div></div><div class='cr'><div class='vertical-center'><font style='color:orange'>$40<br>for<br>yourself</font></div></div><div class='respDivL'><div class='vertical-center'>(E)</div></div><div class='respDivR'><div class='vertical-center'><font style='color:orange'>(I)</font></div></div></div>","null","$40<br>for<br>yourself","$55<br>for<br>4","1","40","55","4",""
"html-keyboard-response","51","410692","0.0-6.0-1.15","60fd738c235e974993ad455c","bdp_sd","Tue Mar 28 2023 16:33:17 GMT-0500 (Central Daylight Time)","459656","","null","","","","","FIX","","","<div class='trialBorder'><div class='vertical-center'><img style='vertical-align:center; align:center' src=img/fixation3.jpg></div></div>","null","","","","","","",""
"html-keyboard-response","52","412996","0.0-6.0-2.15","60fd738c235e974993ad455c","bdp_sd","Tue Mar 28 2023 16:33:17 GMT-0500 (Central Daylight Time)","459656","","2302","","","","","offer","","","<div class='trialBorder'><div class='vertical-center'><img style='vertical-align:center; align:center' src=img/fixation3.jpg></div><div class='cl'><div class='vertical-center'>$35<br>for<br>Shu L</div></div><div class='cr'><div class='vertical-center'>$24<br>for<br>yourself</div></div><div class='respDivL'><div class='vertical-center'>(E)</div></div><div class='respDivR'><div class='vertical-center'>(I)</div></div></div>","I","$24<br>for<br>yourself","$35<br>for<br>3","1","24","35","3","SELF"
"html-keyboard-response","53","413248","0.0-6.0-3.15","60fd738c235e974993ad455c","bdp_sd","Tue Mar 28 2023 16:33:17 GMT-0500 (Central Daylight Time)","459656","","null","","","","","offerFB","","","<div class='trialBorder'><div class='vertical-center'><img style='vertical-align:center; align:center' src=img/fixation3.jpg></div><div class='cl'><div class='vertical-center'>$35<br>for<br>Shu L</div></div><div class='cr'><div class='vertical-center'><font style='color:orange'>$24<br>for<br>yourself</font></div></div><div class='respDivL'><div class='vertical-center'>(E)</div></div><div class='respDivR'><div class='vertical-center'><font style='color:orange'>(I)</font></div></div></div>","null","$24<br>for<br>yourself","$35<br>for<br>3","1","24","35","3",""
"html-keyboard-response","54","413750","0.0-6.0-1.16","60fd738c235e974993ad455c","bdp_sd","Tue Mar 28 2023 16:33:17 GMT-0500 (Central Daylight Time)","459656","","null","","","","","FIX","","","<div class='trialBorder'><div class='vertical-center'><img style='vertical-align:center; align:center' src=img/fixation3.jpg></div></div>","null","","","","","","",""
"html-keyboard-response","55","416947","0.0-6.0-2.16","60fd738c235e974993ad455c","bdp_sd","Tue Mar 28 2023 16:33:17 GMT-0500 (Central Daylight Time)","459656","","3194","","","","","offer","","","<div class='trialBorder'><div class='vertical-center'><img style='vertical-align:center; align:center' src=img/fixation3.jpg></div><div class='cl'><div class='vertical-center'>$60<br>for<br>Celeste Y</div></div><div class='cr'><div class='vertical-center'>$54<br>for<br>yourself</div></div><div class='respDivL'><div class='vertical-center'>(E)</div></div><div class='respDivR'><div class='vertical-center'>(I)</div></div></div>","I","$54<br>for<br>yourself","$60<br>for<br>5","1","54","60","5","SELF"
"html-keyboard-response","56","417199","0.0-6.0-3.16","60fd738c235e974993ad455c","bdp_sd","Tue Mar 28 2023 16:33:17 GMT-0500 (Central Daylight Time)","459656","","null","","","","","offerFB","","","<div class='trialBorder'><div class='vertical-center'><img style='vertical-align:center; align:center' src=img/fixation3.jpg></div><div class='cl'><div class='vertical-center'>$60<br>for<br>Celeste Y</div></div><div class='cr'><div class='vertical-center'><font style='color:orange'>$54<br>for<br>yourself</font></div></div><div class='respDivL'><div class='vertical-center'>(E)</div></div><div class='respDivR'><div class='vertical-center'><font style='color:orange'>(I)</font></div></div></div>","null","$54<br>for<br>yourself","$60<br>for<br>5","1","54","60","5",""
"html-keyboard-response","57","417701","0.0-6.0-1.17","60fd738c235e974993ad455c","bdp_sd","Tue Mar 28 2023 16:33:17 GMT-0500 (Central Daylight Time)","459656","","null","","","","","FIX","","","<div class='trialBorder'><div class='vertical-center'><img style='vertical-align:center; align:center' src=img/fixation3.jpg></div></div>","null","","","","","","",""
"html-keyboard-response","58","419683","0.0-6.0-2.17","60fd738c235e974993ad455c","bdp_sd","Tue Mar 28 2023 16:33:17 GMT-0500 (Central Daylight Time)","459656","","1979","","","","","offer","","","<div class='trialBorder'><div class='vertical-center'><img style='vertical-align:center; align:center' src=img/fixation3.jpg></div><div class='cl'><div class='vertical-center'>$55<br>for<br>Celeste Y</div></div><div class='cr'><div class='vertical-center'>$54<br>for<br>yourself</div></div><div class='respDivL'><div class='vertical-center'>(E)</div></div><div class='respDivR'><div class='vertical-center'>(I)</div></div></div>","I","$54<br>for<br>yourself","$55<br>for<br>5","1","54","55","5","SELF"
"html-keyboard-response","59","419936","0.0-6.0-3.17","60fd738c235e974993ad455c","bdp_sd","Tue Mar 28 2023 16:33:17 GMT-0500 (Central Daylight Time)","459656","","null","","","","","offerFB","","","<div class='trialBorder'><div class='vertical-center'><img style='vertical-align:center; align:center' src=img/fixation3.jpg></div><div class='cl'><div class='vertical-center'>$55<br>for<br>Celeste Y</div></div><div class='cr'><div class='vertical-center'><font style='color:orange'>$54<br>for<br>yourself</font></div></div><div class='respDivL'><div class='vertical-center'>(E)</div></div><div class='respDivR'><div class='vertical-center'><font style='color:orange'>(I)</font></div></div></div>","null","$54<br>for<br>yourself","$55<br>for<br>5","1","54","55","5",""
"html-keyboard-response","60","420438","0.0-6.0-1.18","60fd738c235e974993ad455c","bdp_sd","Tue Mar 28 2023 16:33:17 GMT-0500 (Central Daylight Time)","459656","","null","","","","","FIX","","","<div class='trialBorder'><div class='vertical-center'><img style='vertical-align:center; align:center' src=img/fixation3.jpg></div></div>","null","","","","","","",""
"html-keyboard-response","61","421714","0.0-6.0-2.18","60fd738c235e974993ad455c","bdp_sd","Tue Mar 28 2023 16:33:17 GMT-0500 (Central Daylight Time)","459656","","1275","","","","","offer","","","<div class='trialBorder'><div class='vertical-center'><img style='vertical-align:center; align:center' src=img/fixation3.jpg></div><div class='cl'><div class='vertical-center'>$85<br>for<br>Briana G</div></div><div class='cr'><div class='vertical-center'>$31<br>for<br>yourself</div></div><div class='respDivL'><div class='vertical-center'>(E)</div></div><div class='respDivR'><div class='vertical-center'>(I)</div></div></div>","E","$31<br>for<br>yourself","$85<br>for<br>1","1","31","85","1","OTHER"
"html-keyboard-response","62","421966","0.0-6.0-3.18","60fd738c235e974993ad455c","bdp_sd","Tue Mar 28 2023 16:33:17 GMT-0500 (Central Daylight Time)","459656","","null","","","","","offerFB","","","<div class='trialBorder'><div class='vertical-center'><img style='vertical-align:center; align:center' src=img/fixation3.jpg></div><div class='cl'><div class='vertical-center'><font style='color:orange'>$85<br>for<br>Briana G</font></div></div><div class='cr'><div class='vertical-center'>$31<br>for<br>yourself</div></div><div class='respDivL'><div class='vertical-center'><font style='color:orange'>(E)</font></div></div><div class='respDivR'><div class='vertical-center'>(I)</div></div></div>","null","$31<br>for<br>yourself","$85<br>for<br>1","1","31","85","1",""
"html-keyboard-response","63","422468","0.0-6.0-1.19","60fd738c235e974993ad455c","bdp_sd","Tue Mar 28 2023 16:33:17 GMT-0500 (Central Daylight Time)","459656","","null","","","","","FIX","","","<div class='trialBorder'><div class='vertical-center'><img style='vertical-align:center; align:center' src=img/fixation3.jpg></div></div>","null","","","","","","",""
"html-keyboard-response","64","424339","0.0-6.0-2.19","60fd738c235e974993ad455c","bdp_sd","Tue Mar 28 2023 16:33:17 GMT-0500 (Central Daylight Time)","459656","","1870","","","","","offer","","","<div class='trialBorder'><div class='vertical-center'><img style='vertical-align:center; align:center' src=img/fixation3.jpg></div><div class='cl'><div class='vertical-center'>$25<br>for<br>Shu L</div></div><div class='cr'><div class='vertical-center'>$14<br>for<br>yourself</div></div><div class='respDivL'><div class='vertical-center'>(E)</div></div><div class='respDivR'><div class='vertical-center'>(I)</div></div></div>","E","$14<br>for<br>yourself","$25<br>for<br>3","1","14","25","3","OTHER"
"html-keyboard-response","65","424591","0.0-6.0-3.19","60fd738c235e974993ad455c","bdp_sd","Tue Mar 28 2023 16:33:17 GMT-0500 (Central Daylight Time)","459656","","null","","","","","offerFB","","","<div class='trialBorder'><div class='vertical-center'><img style='vertical-align:center; align:center' src=img/fixation3.jpg></div><div class='cl'><div class='vertical-center'><font style='color:orange'>$25<br>for<br>Shu L</font></div></div><div class='cr'><div class='vertical-center'>$14<br>for<br>yourself</div></div><div class='respDivL'><div class='vertical-center'><font style='color:orange'>(E)</font></div></div><div class='respDivR'><div class='vertical-center'>(I)</div></div></div>","null","$14<br>for<br>yourself","$25<br>for<br>3","1","14","25","3",""
"html-keyboard-response","66","425093","0.0-6.0-1.20","60fd738c235e974993ad455c","bdp_sd","Tue Mar 28 2023 16:33:17 GMT-0500 (Central Daylight Time)","459656","","null","","","","","FIX","","","<div class='trialBorder'><div class='vertical-center'><img style='vertical-align:center; align:center' src=img/fixation3.jpg></div></div>","null","","","","","","",""
"html-keyboard-response","67","427697","0.0-6.0-2.20","60fd738c235e974993ad455c","bdp_sd","Tue Mar 28 2023 16:33:17 GMT-0500 (Central Daylight Time)","459656","","2603","","","","","offer","","","<div class='trialBorder'><div class='vertical-center'><img style='vertical-align:center; align:center' src=img/fixation3.jpg></div><div class='cl'><div class='vertical-center'>$25<br>for<br>yourself</div></div><div class='cr'><div class='vertical-center'>$60<br>for<br>Shu L</div></div><div class='respDivL'><div class='vertical-center'>(E)</div></div><div class='respDivR'><div class='vertical-center'>(I)</div></div></div>","I","$25<br>for<br>yourself","$60<br>for<br>3","0","25","60","3","OTHER"
"html-keyboard-response","68","427957","0.0-6.0-3.20","60fd738c235e974993ad455c","bdp_sd","Tue Mar 28 2023 16:33:17 GMT-0500 (Central Daylight Time)","459656","","null","","","","","offerFB","","","<div class='trialBorder'><div class='vertical-center'><img style='vertical-align:center; align:center' src=img/fixation3.jpg></div><div class='cl'><div class='vertical-center'>$25<br>for<br>yourself</div></div><div class='cr'><div class='vertical-center'><font style='color:orange'>$60<br>for<br>Shu L</font></div></div><div class='respDivL'><div class='vertical-center'>(E)</div></div><div class='respDivR'><div class='vertical-center'><font style='color:orange'>(I)</font></div></div></div>","null","$25<br>for<br>yourself","$60<br>for<br>3","0","25","60","3",""
"html-keyboard-response","69","428459","0.0-6.0-1.21","60fd738c235e974993ad455c","bdp_sd","Tue Mar 28 2023 16:33:17 GMT-0500 (Central Daylight Time)","459656","","null","","","","","FIX","","","<div class='trialBorder'><div class='vertical-center'><img style='vertical-align:center; align:center' src=img/fixation3.jpg></div></div>","null","","","","","","",""
"html-keyboard-response","70","429730","0.0-6.0-2.21","60fd738c235e974993ad455c","bdp_sd","Tue Mar 28 2023 16:33:17 GMT-0500 (Central Daylight Time)","459656","","1270","","","","","offer","","","<div class='trialBorder'><div class='vertical-center'><img style='vertical-align:center; align:center' src=img/fixation3.jpg></div><div class='cl'><div class='vertical-center'>$15<br>for<br>yourself</div></div><div class='cr'><div class='vertical-center'>$35<br>for<br>Keela V</div></div><div class='respDivL'><div class='vertical-center'>(E)</div></div><div class='respDivR'><div class='vertical-center'>(I)</div></div></div>","I","$15<br>for<br>yourself","$35<br>for<br>2","0","15","35","2","OTHER"
"html-keyboard-response","71","429983","0.0-6.0-3.21","60fd738c235e974993ad455c","bdp_sd","Tue Mar 28 2023 16:33:17 GMT-0500 (Central Daylight Time)","459656","","null","","","","","offerFB","","","<div class='trialBorder'><div class='vertical-center'><img style='vertical-align:center; align:center' src=img/fixation3.jpg></div><div class='cl'><div class='vertical-center'>$15<br>for<br>yourself</div></div><div class='cr'><div class='vertical-center'><font style='color:orange'>$35<br>for<br>Keela V</font></div></div><div class='respDivL'><div class='vertical-center'>(E)</div></div><div class='respDivR'><div class='vertical-center'><font style='color:orange'>(I)</font></div></div></div>","null","$15<br>for<br>yourself","$35<br>for<br>2","0","15","35","2",""
"html-keyboard-response","72","430484","0.0-6.0-1.22","60fd738c235e974993ad455c","bdp_sd","Tue Mar 28 2023 16:33:17 GMT-0500 (Central Daylight Time)","459656","","null","","","","","FIX","","","<div class='trialBorder'><div class='vertical-center'><img style='vertical-align:center; align:center' src=img/fixation3.jpg></div></div>","null","","","","","","",""
"html-keyboard-response","73","432020","0.0-6.0-2.22","60fd738c235e974993ad455c","bdp_sd","Tue Mar 28 2023 16:33:17 GMT-0500 (Central Daylight Time)","459656","","1534","","","","","offer","","","<div class='trialBorder'><div class='vertical-center'><img style='vertical-align:center; align:center' src=img/fixation3.jpg></div><div class='cl'><div class='vertical-center'>$41<br>for<br>yourself</div></div><div class='cr'><div class='vertical-center'>$75<br>for<br>Shu L</div></div><div class='respDivL'><div class='vertical-center'>(E)</div></div><div class='respDivR'><div class='vertical-center'>(I)</div></div></div>","I","$41<br>for<br>yourself","$75<br>for<br>3","0","41","75","3","OTHER"
"html-keyboard-response","74","432273","0.0-6.0-3.22","60fd738c235e974993ad455c","bdp_sd","Tue Mar 28 2023 16:33:17 GMT-0500 (Central Daylight Time)","459656","","null","","","","","offerFB","","","<div class='trialBorder'><div class='vertical-center'><img style='vertical-align:center; align:center' src=img/fixation3.jpg></div><div class='cl'><div class='vertical-center'>$41<br>for<br>yourself</div></div><div class='cr'><div class='vertical-center'><font style='color:orange'>$75<br>for<br>Shu L</font></div></div><div class='respDivL'><div class='vertical-center'>(E)</div></div><div class='respDivR'><div class='vertical-center'><font style='color:orange'>(I)</font></div></div></div>","null","$41<br>for<br>yourself","$75<br>for<br>3","0","41","75","3",""
"html-keyboard-response","75","432774","0.0-6.0-1.23","60fd738c235e974993ad455c","bdp_sd","Tue Mar 28 2023 16:33:17 GMT-0500 (Central Daylight Time)","459656","","null","","","","","FIX","","","<div class='trialBorder'><div class='vertical-center'><img style='vertical-align:center; align:center' src=img/fixation3.jpg></div></div>","null","","","","","","",""
"html-keyboard-response","76","434498","0.0-6.0-2.23","60fd738c235e974993ad455c","bdp_sd","Tue Mar 28 2023 16:33:17 GMT-0500 (Central Daylight Time)","459656","","1722","","","","","offer","","","<div class='trialBorder'><div class='vertical-center'><img style='vertical-align:center; align:center' src=img/fixation3.jpg></div><div class='cl'><div class='vertical-center'>$25<br>for<br>Celeste Y</div></div><div class='cr'><div class='vertical-center'>$22<br>for<br>yourself</div></div><div class='respDivL'><div class='vertical-center'>(E)</div></div><div class='respDivR'><div class='vertical-center'>(I)</div></div></div>","E","$22<br>for<br>yourself","$25<br>for<br>5","1","22","25","5","OTHER"
"html-keyboard-response","77","434750","0.0-6.0-3.23","60fd738c235e974993ad455c","bdp_sd","Tue Mar 28 2023 16:33:17 GMT-0500 (Central Daylight Time)","459656","","null","","","","","offerFB","","","<div class='trialBorder'><div class='vertical-center'><img style='vertical-align:center; align:center' src=img/fixation3.jpg></div><div class='cl'><div class='vertical-center'><font style='color:orange'>$25<br>for<br>Celeste Y</font></div></div><div class='cr'><div class='vertical-center'>$22<br>for<br>yourself</div></div><div class='respDivL'><div class='vertical-center'><font style='color:orange'>(E)</font></div></div><div class='respDivR'><div class='vertical-center'>(I)</div></div></div>","null","$22<br>for<br>yourself","$25<br>for<br>5","1","22","25","5",""
"html-keyboard-response","78","435251","0.0-6.0-1.24","60fd738c235e974993ad455c","bdp_sd","Tue Mar 28 2023 16:33:17 GMT-0500 (Central Daylight Time)","459656","","null","","","","","FIX","","","<div class='trialBorder'><div class='vertical-center'><img style='vertical-align:center; align:center' src=img/fixation3.jpg></div></div>","null","","","","","","",""
"html-keyboard-response","79","453058","0.0-6.0-2.24","60fd738c235e974993ad455c","bdp_sd","Tue Mar 28 2023 16:33:17 GMT-0500 (Central Daylight Time)","459656","","17806","","","","","offer","","","<div class='trialBorder'><div class='vertical-center'><img style='vertical-align:center; align:center' src=img/fixation3.jpg></div><div class='cl'><div class='vertical-center'>$85<br>for<br>Celeste Y</div></div><div class='cr'><div class='vertical-center'>$80<br>for<br>yourself</div></div><div class='respDivL'><div class='vertical-center'>(E)</div></div><div class='respDivR'><div class='vertical-center'>(I)</div></div></div>","I","$80<br>for<br>yourself","$85<br>for<br>5","1","80","85","5","SELF"
"html-keyboard-response","80","453310","0.0-6.0-3.24","60fd738c235e974993ad455c","bdp_sd","Tue Mar 28 2023 16:33:17 GMT-0500 (Central Daylight Time)","459656","","null","","","","","offerFB","","","<div class='trialBorder'><div class='vertical-center'><img style='vertical-align:center; align:center' src=img/fixation3.jpg></div><div class='cl'><div class='vertical-center'>$85<br>for<br>Celeste Y</div></div><div class='cr'><div class='vertical-center'><font style='color:orange'>$80<br>for<br>yourself</font></div></div><div class='respDivL'><div class='vertical-center'>(E)</div></div><div class='respDivR'><div class='vertical-center'><font style='color:orange'>(I)</font></div></div></div>","null","$80<br>for<br>yourself","$85<br>for<br>5","1","80","85","5",""
"html-keyboard-response","81","453811","0.0-6.0-1.25","60fd738c235e974993ad455c","bdp_sd","Tue Mar 28 2023 16:33:17 GMT-0500 (Central Daylight Time)","459656","","null","","","","","FIX","","","<div class='trialBorder'><div class='vertical-center'><img style='vertical-align:center; align:center' src=img/fixation3.jpg></div></div>","null","","","","","","",""
"html-keyboard-response","82","455746","0.0-6.0-2.25","60fd738c235e974993ad455c","bdp_sd","Tue Mar 28 2023 16:33:17 GMT-0500 (Central Daylight Time)","459656","","1934","","","","","offer","","","<div class='trialBorder'><div class='vertical-center'><img style='vertical-align:center; align:center' src=img/fixation3.jpg></div><div class='cl'><div class='vertical-center'>$50<br>for<br>Shu L</div></div><div class='cr'><div class='vertical-center'>$27<br>for<br>yourself</div></div><div class='respDivL'><div class='vertical-center'>(E)</div></div><div class='respDivR'><div class='vertical-center'>(I)</div></div></div>","E","$27<br>for<br>yourself","$50<br>for<br>3","1","27","50","3","OTHER"
"html-keyboard-response","83","455998","0.0-6.0-3.25","60fd738c235e974993ad455c","bdp_sd","Tue Mar 28 2023 16:33:17 GMT-0500 (Central Daylight Time)","459656","","null","","","","","offerFB","","","<div class='trialBorder'><div class='vertical-center'><img style='vertical-align:center; align:center' src=img/fixation3.jpg></div><div class='cl'><div class='vertical-center'><font style='color:orange'>$50<br>for<br>Shu L</font></div></div><div class='cr'><div class='vertical-center'>$27<br>for<br>yourself</div></div><div class='respDivL'><div class='vertical-center'><font style='color:orange'>(E)</font></div></div><div class='respDivR'><div class='vertical-center'>(I)</div></div></div>","null","$27<br>for<br>yourself","$50<br>for<br>3","1","27","50","3",""
"html-keyboard-response","84","456500","0.0-6.0-1.26","60fd738c235e974993ad455c","bdp_sd","Tue Mar 28 2023 16:33:17 GMT-0500 (Central Daylight Time)","459656","","null","","","","","FIX","","","<div class='trialBorder'><div class='vertical-center'><img style='vertical-align:center; align:center' src=img/fixation3.jpg></div></div>","null","","","","","","",""
"html-keyboard-response","85","458402","0.0-6.0-2.26","60fd738c235e974993ad455c","bdp_sd","Tue Mar 28 2023 16:33:17 GMT-0500 (Central Daylight Time)","459656","","1900","","","","","offer","","","<div class='trialBorder'><div class='vertical-center'><img style='vertical-align:center; align:center' src=img/fixation3.jpg></div><div class='cl'><div class='vertical-center'>$35<br>for<br>Celeste Y</div></div><div class='cr'><div class='vertical-center'>$34<br>for<br>yourself</div></div><div class='respDivL'><div class='vertical-center'>(E)</div></div><div class='respDivR'><div class='vertical-center'>(I)</div></div></div>","I","$34<br>for<br>yourself","$35<br>for<br>5","1","34","35","5","SELF"
"html-keyboard-response","86","458655","0.0-6.0-3.26","60fd738c235e974993ad455c","bdp_sd","Tue Mar 28 2023 16:33:17 GMT-0500 (Central Daylight Time)","459656","","null","","","","","offerFB","","","<div class='trialBorder'><div class='vertical-center'><img style='vertical-align:center; align:center' src=img/fixation3.jpg></div><div class='cl'><div class='vertical-center'>$35<br>for<br>Celeste Y</div></div><div class='cr'><div class='vertical-center'><font style='color:orange'>$34<br>for<br>yourself</font></div></div><div class='respDivL'><div class='vertical-center'>(E)</div></div><div class='respDivR'><div class='vertical-center'><font style='color:orange'>(I)</font></div></div></div>","null","$34<br>for<br>yourself","$35<br>for<br>5","1","34","35","5",""
"","","","","60fd738c235e974993ad455c","bdp_sd","Tue Mar 28 2023 16:33:17 GMT-0500 (Central Daylight Time)","459656","","","","fullscreenexit","87","458667","fullscreenexit","","","","","","","","","","",""
"fullscreen","87","459656","0.0-7.0","60fd738c235e974993ad455c","bdp_sd","Tue Mar 28 2023 16:33:17 GMT-0500 (Central Daylight Time)","459656","","","","","","","","true","","","","","","","","","",""
"html-keyboard-response","88","460157","0.0-8.0","","","","","","null","","","","","","","","","null","","","","","","",""
