"trial_type","trial_index","time_elapsed","internal_node_id","subject_id","task","startTime","totalTime","view_history","rt","responses","event","trial","time","trialtype","success","stimulus","key_press","selfOffer","otherOffer","otherLeft","selfAmt","otherAmt","otherDist","chosen"
"pavlovia","0","2","0.0-0.0","63ed15bed4665c62d9e6dbb2","bdp_sd","Fri Mar 24 2023 20:55:29 GMT-0400 (Eastern Daylight Time)","197801","","","","","","","","","","","","","","","","",""
"instructions","1","1780","0.0-1.0","63ed15bed4665c62d9e6dbb2","bdp_sd","Fri Mar 24 2023 20:55:29 GMT-0400 (Eastern Daylight Time)","197801","[{""page_index"":0,""viewing_time"":1778}]","1778","","","","","","","","","","","","","","",""
"survey-text","2","97879","0.0-2.0","63ed15bed4665c62d9e6dbb2","bdp_sd","Fri Mar 24 2023 20:55:29 GMT-0400 (Eastern Daylight Time)","197801","","96097","{""Q0"":""Heather B"",""Q1"":""Pumpkin K"",""Q2"":""Naomi Kb "",""Q3"":""Laheeb K"",""Q4"":""Alea K""}","","","","","","","","","","","","","",""
"","","","","63ed15bed4665c62d9e6dbb2","bdp_sd","Fri Mar 24 2023 20:55:29 GMT-0400 (Eastern Daylight Time)","197801","","","","fullscreenenter","3","99150","fullscreenenter","","","","","","","","","",""
"fullscreen","3","100139","0.0-3.0","63ed15bed4665c62d9e6dbb2","bdp_sd","Fri Mar 24 2023 20:55:29 GMT-0400 (Eastern Daylight Time)","197801","","","","","","","","true","","","","","","","","",""
"instructions","4","120356","0.0-5.0","63ed15bed4665c62d9e6dbb2","bdp_sd","Fri Mar 24 2023 20:55:29 GMT-0400 (Eastern Daylight Time)","197801","[{""page_index"":0,""viewing_time"":11917},{""page_index"":1,""viewing_time"":7143},{""page_index"":2,""viewing_time"":1155}]","20215","","","","","","","","","","","","","","",""
"html-keyboard-response","5","120857","0.0-6.0-1.0","63ed15bed4665c62d9e6dbb2","bdp_sd","Fri Mar 24 2023 20:55:29 GMT-0400 (Eastern Daylight Time)","197801","","null","","","","","FIX","","<div class='trialBorder'><div class='vertical-center'><img style='vertical-align:center; align:center' src=img/fixation3.jpg></div></div>","null","","","","","","",""
"html-keyboard-response","6","130973","0.0-6.0-2.0","63ed15bed4665c62d9e6dbb2","bdp_sd","Fri Mar 24 2023 20:55:29 GMT-0400 (Eastern Daylight Time)","197801","","10115","","","","","offer","","<div class='trialBorder'><div class='vertical-center'><img style='vertical-align:center; align:center' src=img/fixation3.jpg></div><div class='cl'><div class='vertical-center'>$31<br>for<br>yourself</div></div><div class='cr'><div class='vertical-center'>$85<br>for<br>Heather B</div></div><div class='respDivL'><div class='vertical-center'>(E)</div></div><div class='respDivR'><div class='vertical-center'>(I)</div></div></div>","I","$31<br>for<br>yourself","$85<br>for<br>1","0","31","85","1","OTHER"
"html-keyboard-response","7","131225","0.0-6.0-3.0","63ed15bed4665c62d9e6dbb2","bdp_sd","Fri Mar 24 2023 20:55:29 GMT-0400 (Eastern Daylight Time)","197801","","null","","","","","offerFB","","<div class='trialBorder'><div class='vertical-center'><img style='vertical-align:center; align:center' src=img/fixation3.jpg></div><div class='cl'><div class='vertical-center'>$31<br>for<br>yourself</div></div><div class='cr'><div class='vertical-center'><font style='color:orange'>$85<br>for<br>Heather B</font></div></div><div class='respDivL'><div class='vertical-center'>(E)</div></div><div class='respDivR'><div class='vertical-center'><font style='color:orange'>(I)</font></div></div></div>","null","$31<br>for<br>yourself","$85<br>for<br>1","0","31","85","1",""
"html-keyboard-response","8","131727","0.0-6.0-1.1","63ed15bed4665c62d9e6dbb2","bdp_sd","Fri Mar 24 2023 20:55:29 GMT-0400 (Eastern Daylight Time)","197801","","null","","","","","FIX","","<div class='trialBorder'><div class='vertical-center'><img style='vertical-align:center; align:center' src=img/fixation3.jpg></div></div>","null","","","","","","",""
"html-keyboard-response","9","137384","0.0-6.0-2.1","63ed15bed4665c62d9e6dbb2","bdp_sd","Fri Mar 24 2023 20:55:29 GMT-0400 (Eastern Daylight Time)","197801","","5656","","","","","offer","","<div class='trialBorder'><div class='vertical-center'><img style='vertical-align:center; align:center' src=img/fixation3.jpg></div><div class='cl'><div class='vertical-center'>$50<br>for<br>Alea K</div></div><div class='cr'><div class='vertical-center'>$47<br>for<br>yourself</div></div><div class='respDivL'><div class='vertical-center'>(E)</div></div><div class='respDivR'><div class='vertical-center'>(I)</div></div></div>","I","$47<br>for<br>yourself","$50<br>for<br>5","1","47","50","5","SELF"
"html-keyboard-response","10","137636","0.0-6.0-3.1","63ed15bed4665c62d9e6dbb2","bdp_sd","Fri Mar 24 2023 20:55:29 GMT-0400 (Eastern Daylight Time)","197801","","null","","","","","offerFB","","<div class='trialBorder'><div class='vertical-center'><img style='vertical-align:center; align:center' src=img/fixation3.jpg></div><div class='cl'><div class='vertical-center'>$50<br>for<br>Alea K</div></div><div class='cr'><div class='vertical-center'><font style='color:orange'>$47<br>for<br>yourself</font></div></div><div class='respDivL'><div class='vertical-center'>(E)</div></div><div class='respDivR'><div class='vertical-center'><font style='color:orange'>(I)</font></div></div></div>","null","$47<br>for<br>yourself","$50<br>for<br>5","1","47","50","5",""
"html-keyboard-response","11","138138","0.0-6.0-1.2","63ed15bed4665c62d9e6dbb2","bdp_sd","Fri Mar 24 2023 20:55:29 GMT-0400 (Eastern Daylight Time)","197801","","null","","","","","FIX","","<div class='trialBorder'><div class='vertical-center'><img style='vertical-align:center; align:center' src=img/fixation3.jpg></div></div>","null","","","","","","",""
"html-keyboard-response","12","139938","0.0-6.0-2.2","63ed15bed4665c62d9e6dbb2","bdp_sd","Fri Mar 24 2023 20:55:29 GMT-0400 (Eastern Daylight Time)","197801","","1800","","","","","offer","","<div class='trialBorder'><div class='vertical-center'><img style='vertical-align:center; align:center' src=img/fixation3.jpg></div><div class='cl'><div class='vertical-center'>$78<br>for<br>yourself</div></div><div class='cr'><div class='vertical-center'>$80<br>for<br>Alea K</div></div><div class='respDivL'><div class='vertical-center'>(E)</div></div><div class='respDivR'><div class='vertical-center'>(I)</div></div></div>","E","$78<br>for<br>yourself","$80<br>for<br>5","0","78","80","5","SELF"
"html-keyboard-response","13","140190","0.0-6.0-3.2","63ed15bed4665c62d9e6dbb2","bdp_sd","Fri Mar 24 2023 20:55:29 GMT-0400 (Eastern Daylight Time)","197801","","null","","","","","offerFB","","<div class='trialBorder'><div class='vertical-center'><img style='vertical-align:center; align:center' src=img/fixation3.jpg></div><div class='cl'><div class='vertical-center'><font style='color:orange'>$78<br>for<br>yourself</font></div></div><div class='cr'><div class='vertical-center'>$80<br>for<br>Alea K</div></div><div class='respDivL'><div class='vertical-center'><font style='color:orange'>(E)</font></div></div><div class='respDivR'><div class='vertical-center'>(I)</div></div></div>","null","$78<br>for<br>yourself","$80<br>for<br>5","0","78","80","5",""
"html-keyboard-response","14","140691","0.0-6.0-1.3","63ed15bed4665c62d9e6dbb2","bdp_sd","Fri Mar 24 2023 20:55:29 GMT-0400 (Eastern Daylight Time)","197801","","null","","","","","FIX","","<div class='trialBorder'><div class='vertical-center'><img style='vertical-align:center; align:center' src=img/fixation3.jpg></div></div>","null","","","","","","",""
"html-keyboard-response","15","141950","0.0-6.0-2.3","63ed15bed4665c62d9e6dbb2","bdp_sd","Fri Mar 24 2023 20:55:29 GMT-0400 (Eastern Daylight Time)","197801","","1259","","","","","offer","","<div class='trialBorder'><div class='vertical-center'><img style='vertical-align:center; align:center' src=img/fixation3.jpg></div><div class='cl'><div class='vertical-center'>$60<br>for<br>Alea K</div></div><div class='cr'><div class='vertical-center'>$54<br>for<br>yourself</div></div><div class='respDivL'><div class='vertical-center'>(E)</div></div><div class='respDivR'><div class='vertical-center'>(I)</div></div></div>","I","$54<br>for<br>yourself","$60<br>for<br>5","1","54","60","5","SELF"
"html-keyboard-response","16","142201","0.0-6.0-3.3","63ed15bed4665c62d9e6dbb2","bdp_sd","Fri Mar 24 2023 20:55:29 GMT-0400 (Eastern Daylight Time)","197801","","null","","","","","offerFB","","<div class='trialBorder'><div class='vertical-center'><img style='vertical-align:center; align:center' src=img/fixation3.jpg></div><div class='cl'><div class='vertical-center'>$60<br>for<br>Alea K</div></div><div class='cr'><div class='vertical-center'><font style='color:orange'>$54<br>for<br>yourself</font></div></div><div class='respDivL'><div class='vertical-center'>(E)</div></div><div class='respDivR'><div class='vertical-center'><font style='color:orange'>(I)</font></div></div></div>","null","$54<br>for<br>yourself","$60<br>for<br>5","1","54","60","5",""
"html-keyboard-response","17","142702","0.0-6.0-1.4","63ed15bed4665c62d9e6dbb2","bdp_sd","Fri Mar 24 2023 20:55:29 GMT-0400 (Eastern Daylight Time)","197801","","null","","","","","FIX","","<div class='trialBorder'><div class='vertical-center'><img style='vertical-align:center; align:center' src=img/fixation3.jpg></div></div>","null","","","","","","",""
"html-keyboard-response","18","144441","0.0-6.0-2.4","63ed15bed4665c62d9e6dbb2","bdp_sd","Fri Mar 24 2023 20:55:29 GMT-0400 (Eastern Daylight Time)","197801","","1737","","","","","offer","","<div class='trialBorder'><div class='vertical-center'><img style='vertical-align:center; align:center' src=img/fixation3.jpg></div><div class='cl'><div class='vertical-center'>$60<br>for<br>Naomi Kb </div></div><div class='cr'><div class='vertical-center'>$25<br>for<br>yourself</div></div><div class='respDivL'><div class='vertical-center'>(E)</div></div><div class='respDivR'><div class='vertical-center'>(I)</div></div></div>","E","$25<br>for<br>yourself","$60<br>for<br>3","1","25","60","3","OTHER"
"html-keyboard-response","19","144692","0.0-6.0-3.4","63ed15bed4665c62d9e6dbb2","bdp_sd","Fri Mar 24 2023 20:55:29 GMT-0400 (Eastern Daylight Time)","197801","","null","","","","","offerFB","","<div class='trialBorder'><div class='vertical-center'><img style='vertical-align:center; align:center' src=img/fixation3.jpg></div><div class='cl'><div class='vertical-center'><font style='color:orange'>$60<br>for<br>Naomi Kb </font></div></div><div class='cr'><div class='vertical-center'>$25<br>for<br>yourself</div></div><div class='respDivL'><div class='vertical-center'><font style='color:orange'>(E)</font></div></div><div class='respDivR'><div class='vertical-center'>(I)</div></div></div>","null","$25<br>for<br>yourself","$60<br>for<br>3","1","25","60","3",""
"html-keyboard-response","20","145194","0.0-6.0-1.5","63ed15bed4665c62d9e6dbb2","bdp_sd","Fri Mar 24 2023 20:55:29 GMT-0400 (Eastern Daylight Time)","197801","","null","","","","","FIX","","<div class='trialBorder'><div class='vertical-center'><img style='vertical-align:center; align:center' src=img/fixation3.jpg></div></div>","null","","","","","","",""
"html-keyboard-response","21","146367","0.0-6.0-2.5","63ed15bed4665c62d9e6dbb2","bdp_sd","Fri Mar 24 2023 20:55:29 GMT-0400 (Eastern Daylight Time)","197801","","1173","","","","","offer","","<div class='trialBorder'><div class='vertical-center'><img style='vertical-align:center; align:center' src=img/fixation3.jpg></div><div class='cl'><div class='vertical-center'>$22<br>for<br>yourself</div></div><div class='cr'><div class='vertical-center'>$25<br>for<br>Alea K</div></div><div class='respDivL'><div class='vertical-center'>(E)</div></div><div class='respDivR'><div class='vertical-center'>(I)</div></div></div>","E","$22<br>for<br>yourself","$25<br>for<br>5","0","22","25","5","SELF"
"html-keyboard-response","22","146619","0.0-6.0-3.5","63ed15bed4665c62d9e6dbb2","bdp_sd","Fri Mar 24 2023 20:55:29 GMT-0400 (Eastern Daylight Time)","197801","","null","","","","","offerFB","","<div class='trialBorder'><div class='vertical-center'><img style='vertical-align:center; align:center' src=img/fixation3.jpg></div><div class='cl'><div class='vertical-center'><font style='color:orange'>$22<br>for<br>yourself</font></div></div><div class='cr'><div class='vertical-center'>$25<br>for<br>Alea K</div></div><div class='respDivL'><div class='vertical-center'><font style='color:orange'>(E)</font></div></div><div class='respDivR'><div class='vertical-center'>(I)</div></div></div>","null","$22<br>for<br>yourself","$25<br>for<br>5","0","22","25","5",""
"html-keyboard-response","23","147120","0.0-6.0-1.6","63ed15bed4665c62d9e6dbb2","bdp_sd","Fri Mar 24 2023 20:55:29 GMT-0400 (Eastern Daylight Time)","197801","","null","","","","","FIX","","<div class='trialBorder'><div class='vertical-center'><img style='vertical-align:center; align:center' src=img/fixation3.jpg></div></div>","null","","","","","","",""
"html-keyboard-response","24","149453","0.0-6.0-2.6","63ed15bed4665c62d9e6dbb2","bdp_sd","Fri Mar 24 2023 20:55:29 GMT-0400 (Eastern Daylight Time)","197801","","2332","","","","","offer","","<div class='trialBorder'><div class='vertical-center'><img style='vertical-align:center; align:center' src=img/fixation3.jpg></div><div class='cl'><div class='vertical-center'>$20<br>for<br>yourself</div></div><div class='cr'><div class='vertical-center'>$55<br>for<br>Heather B</div></div><div class='respDivL'><div class='vertical-center'>(E)</div></div><div class='respDivR'><div class='vertical-center'>(I)</div></div></div>","I","$20<br>for<br>yourself","$55<br>for<br>1","0","20","55","1","OTHER"
"html-keyboard-response","25","149704","0.0-6.0-3.6","63ed15bed4665c62d9e6dbb2","bdp_sd","Fri Mar 24 2023 20:55:29 GMT-0400 (Eastern Daylight Time)","197801","","null","","","","","offerFB","","<div class='trialBorder'><div class='vertical-center'><img style='vertical-align:center; align:center' src=img/fixation3.jpg></div><div class='cl'><div class='vertical-center'>$20<br>for<br>yourself</div></div><div class='cr'><div class='vertical-center'><font style='color:orange'>$55<br>for<br>Heather B</font></div></div><div class='respDivL'><div class='vertical-center'>(E)</div></div><div class='respDivR'><div class='vertical-center'><font style='color:orange'>(I)</font></div></div></div>","null","$20<br>for<br>yourself","$55<br>for<br>1","0","20","55","1",""
"html-keyboard-response","26","150206","0.0-6.0-1.7","63ed15bed4665c62d9e6dbb2","bdp_sd","Fri Mar 24 2023 20:55:29 GMT-0400 (Eastern Daylight Time)","197801","","null","","","","","FIX","","<div class='trialBorder'><div class='vertical-center'><img style='vertical-align:center; align:center' src=img/fixation3.jpg></div></div>","null","","","","","","",""
"html-keyboard-response","27","151719","0.0-6.0-2.7","63ed15bed4665c62d9e6dbb2","bdp_sd","Fri Mar 24 2023 20:55:29 GMT-0400 (Eastern Daylight Time)","197801","","1512","","","","","offer","","<div class='trialBorder'><div class='vertical-center'><img style='vertical-align:center; align:center' src=img/fixation3.jpg></div><div class='cl'><div class='vertical-center'>$75<br>for<br>Laheeb K</div></div><div class='cr'><div class='vertical-center'>$55<br>for<br>yourself</div></div><div class='respDivL'><div class='vertical-center'>(E)</div></div><div class='respDivR'><div class='vertical-center'>(I)</div></div></div>","I","$55<br>for<br>yourself","$75<br>for<br>4","1","55","75","4","SELF"
"html-keyboard-response","28","151971","0.0-6.0-3.7","63ed15bed4665c62d9e6dbb2","bdp_sd","Fri Mar 24 2023 20:55:29 GMT-0400 (Eastern Daylight Time)","197801","","null","","","","","offerFB","","<div class='trialBorder'><div class='vertical-center'><img style='vertical-align:center; align:center' src=img/fixation3.jpg></div><div class='cl'><div class='vertical-center'>$75<br>for<br>Laheeb K</div></div><div class='cr'><div class='vertical-center'><font style='color:orange'>$55<br>for<br>yourself</font></div></div><div class='respDivL'><div class='vertical-center'>(E)</div></div><div class='respDivR'><div class='vertical-center'><font style='color:orange'>(I)</font></div></div></div>","null","$55<br>for<br>yourself","$75<br>for<br>4","1","55","75","4",""
"html-keyboard-response","29","152472","0.0-6.0-1.8","63ed15bed4665c62d9e6dbb2","bdp_sd","Fri Mar 24 2023 20:55:29 GMT-0400 (Eastern Daylight Time)","197801","","null","","","","","FIX","","<div class='trialBorder'><div class='vertical-center'><img style='vertical-align:center; align:center' src=img/fixation3.jpg></div></div>","null","","","","","","",""
"html-keyboard-response","30","159957","0.0-6.0-2.8","63ed15bed4665c62d9e6dbb2","bdp_sd","Fri Mar 24 2023 20:55:29 GMT-0400 (Eastern Daylight Time)","197801","","7485","","","","","offer","","<div class='trialBorder'><div class='vertical-center'><img style='vertical-align:center; align:center' src=img/fixation3.jpg></div><div class='cl'><div class='vertical-center'>$40<br>for<br>yourself</div></div><div class='cr'><div class='vertical-center'>$55<br>for<br>Laheeb K</div></div><div class='respDivL'><div class='vertical-center'>(E)</div></div><div class='respDivR'><div class='vertical-center'>(I)</div></div></div>","E","$40<br>for<br>yourself","$55<br>for<br>4","0","40","55","4","SELF"
"html-keyboard-response","31","160209","0.0-6.0-3.8","63ed15bed4665c62d9e6dbb2","bdp_sd","Fri Mar 24 2023 20:55:29 GMT-0400 (Eastern Daylight Time)","197801","","null","","","","","offerFB","","<div class='trialBorder'><div class='vertical-center'><img style='vertical-align:center; align:center' src=img/fixation3.jpg></div><div class='cl'><div class='vertical-center'><font style='color:orange'>$40<br>for<br>yourself</font></div></div><div class='cr'><div class='vertical-center'>$55<br>for<br>Laheeb K</div></div><div class='respDivL'><div class='vertical-center'><font style='color:orange'>(E)</font></div></div><div class='respDivR'><div class='vertical-center'>(I)</div></div></div>","null","$40<br>for<br>yourself","$55<br>for<br>4","0","40","55","4",""
"html-keyboard-response","32","160710","0.0-6.0-1.9","63ed15bed4665c62d9e6dbb2","bdp_sd","Fri Mar 24 2023 20:55:29 GMT-0400 (Eastern Daylight Time)","197801","","null","","","","","FIX","","<div class='trialBorder'><div class='vertical-center'><img style='vertical-align:center; align:center' src=img/fixation3.jpg></div></div>","null","","","","","","",""
"html-keyboard-response","33","161715","0.0-6.0-2.9","63ed15bed4665c62d9e6dbb2","bdp_sd","Fri Mar 24 2023 20:55:29 GMT-0400 (Eastern Daylight Time)","197801","","1004","","","","","offer","","<div class='trialBorder'><div class='vertical-center'><img style='vertical-align:center; align:center' src=img/fixation3.jpg></div><div class='cl'><div class='vertical-center'>$75<br>for<br>Alea K</div></div><div class='cr'><div class='vertical-center'>$67<br>for<br>yourself</div></div><div class='respDivL'><div class='vertical-center'>(E)</div></div><div class='respDivR'><div class='vertical-center'>(I)</div></div></div>","I","$67<br>for<br>yourself","$75<br>for<br>5","1","67","75","5","SELF"
"html-keyboard-response","34","161968","0.0-6.0-3.9","63ed15bed4665c62d9e6dbb2","bdp_sd","Fri Mar 24 2023 20:55:29 GMT-0400 (Eastern Daylight Time)","197801","","null","","","","","offerFB","","<div class='trialBorder'><div class='vertical-center'><img style='vertical-align:center; align:center' src=img/fixation3.jpg></div><div class='cl'><div class='vertical-center'>$75<br>for<br>Alea K</div></div><div class='cr'><div class='vertical-center'><font style='color:orange'>$67<br>for<br>yourself</font></div></div><div class='respDivL'><div class='vertical-center'>(E)</div></div><div class='respDivR'><div class='vertical-center'><font style='color:orange'>(I)</font></div></div></div>","null","$67<br>for<br>yourself","$75<br>for<br>5","1","67","75","5",""
"html-keyboard-response","35","162470","0.0-6.0-1.10","63ed15bed4665c62d9e6dbb2","bdp_sd","Fri Mar 24 2023 20:55:29 GMT-0400 (Eastern Daylight Time)","197801","","null","","","","","FIX","","<div class='trialBorder'><div class='vertical-center'><img style='vertical-align:center; align:center' src=img/fixation3.jpg></div></div>","null","","","","","","",""
"html-keyboard-response","36","163852","0.0-6.0-2.10","63ed15bed4665c62d9e6dbb2","bdp_sd","Fri Mar 24 2023 20:55:29 GMT-0400 (Eastern Daylight Time)","197801","","1382","","","","","offer","","<div class='trialBorder'><div class='vertical-center'><img style='vertical-align:center; align:center' src=img/fixation3.jpg></div><div class='cl'><div class='vertical-center'>$15<br>for<br>yourself</div></div><div class='cr'><div class='vertical-center'>$35<br>for<br>Pumpkin K</div></div><div class='respDivL'><div class='vertical-center'>(E)</div></div><div class='respDivR'><div class='vertical-center'>(I)</div></div></div>","I","$15<br>for<br>yourself","$35<br>for<br>2","0","15","35","2","OTHER"
"html-keyboard-response","37","164104","0.0-6.0-3.10","63ed15bed4665c62d9e6dbb2","bdp_sd","Fri Mar 24 2023 20:55:29 GMT-0400 (Eastern Daylight Time)","197801","","null","","","","","offerFB","","<div class='trialBorder'><div class='vertical-center'><img style='vertical-align:center; align:center' src=img/fixation3.jpg></div><div class='cl'><div class='vertical-center'>$15<br>for<br>yourself</div></div><div class='cr'><div class='vertical-center'><font style='color:orange'>$35<br>for<br>Pumpkin K</font></div></div><div class='respDivL'><div class='vertical-center'>(E)</div></div><div class='respDivR'><div class='vertical-center'><font style='color:orange'>(I)</font></div></div></div>","null","$15<br>for<br>yourself","$35<br>for<br>2","0","15","35","2",""
"html-keyboard-response","38","164605","0.0-6.0-1.11","63ed15bed4665c62d9e6dbb2","bdp_sd","Fri Mar 24 2023 20:55:29 GMT-0400 (Eastern Daylight Time)","197801","","null","","","","","FIX","","<div class='trialBorder'><div class='vertical-center'><img style='vertical-align:center; align:center' src=img/fixation3.jpg></div></div>","null","","","","","","",""
"html-keyboard-response","39","165975","0.0-6.0-2.11","63ed15bed4665c62d9e6dbb2","bdp_sd","Fri Mar 24 2023 20:55:29 GMT-0400 (Eastern Daylight Time)","197801","","1369","","","","","offer","","<div class='trialBorder'><div class='vertical-center'><img style='vertical-align:center; align:center' src=img/fixation3.jpg></div><div class='cl'><div class='vertical-center'>$33<br>for<br>yourself</div></div><div class='cr'><div class='vertical-center'>$80<br>for<br>Pumpkin K</div></div><div class='respDivL'><div class='vertical-center'>(E)</div></div><div class='respDivR'><div class='vertical-center'>(I)</div></div></div>","I","$33<br>for<br>yourself","$80<br>for<br>2","0","33","80","2","OTHER"
"html-keyboard-response","40","166226","0.0-6.0-3.11","63ed15bed4665c62d9e6dbb2","bdp_sd","Fri Mar 24 2023 20:55:29 GMT-0400 (Eastern Daylight Time)","197801","","null","","","","","offerFB","","<div class='trialBorder'><div class='vertical-center'><img style='vertical-align:center; align:center' src=img/fixation3.jpg></div><div class='cl'><div class='vertical-center'>$33<br>for<br>yourself</div></div><div class='cr'><div class='vertical-center'><font style='color:orange'>$80<br>for<br>Pumpkin K</font></div></div><div class='respDivL'><div class='vertical-center'>(E)</div></div><div class='respDivR'><div class='vertical-center'><font style='color:orange'>(I)</font></div></div></div>","null","$33<br>for<br>yourself","$80<br>for<br>2","0","33","80","2",""
"html-keyboard-response","41","166728","0.0-6.0-1.12","63ed15bed4665c62d9e6dbb2","bdp_sd","Fri Mar 24 2023 20:55:29 GMT-0400 (Eastern Daylight Time)","197801","","null","","","","","FIX","","<div class='trialBorder'><div class='vertical-center'><img style='vertical-align:center; align:center' src=img/fixation3.jpg></div></div>","null","","","","","","",""
"html-keyboard-response","42","168304","0.0-6.0-2.12","63ed15bed4665c62d9e6dbb2","bdp_sd","Fri Mar 24 2023 20:55:29 GMT-0400 (Eastern Daylight Time)","197801","","1576","","","","","offer","","<div class='trialBorder'><div class='vertical-center'><img style='vertical-align:center; align:center' src=img/fixation3.jpg></div><div class='cl'><div class='vertical-center'>$35<br>for<br>Alea K</div></div><div class='cr'><div class='vertical-center'>$34<br>for<br>yourself</div></div><div class='respDivL'><div class='vertical-center'>(E)</div></div><div class='respDivR'><div class='vertical-center'>(I)</div></div></div>","I","$34<br>for<br>yourself","$35<br>for<br>5","1","34","35","5","SELF"
"html-keyboard-response","43","168555","0.0-6.0-3.12","63ed15bed4665c62d9e6dbb2","bdp_sd","Fri Mar 24 2023 20:55:29 GMT-0400 (Eastern Daylight Time)","197801","","null","","","","","offerFB","","<div class='trialBorder'><div class='vertical-center'><img style='vertical-align:center; align:center' src=img/fixation3.jpg></div><div class='cl'><div class='vertical-center'>$35<br>for<br>Alea K</div></div><div class='cr'><div class='vertical-center'><font style='color:orange'>$34<br>for<br>yourself</font></div></div><div class='respDivL'><div class='vertical-center'>(E)</div></div><div class='respDivR'><div class='vertical-center'><font style='color:orange'>(I)</font></div></div></div>","null","$34<br>for<br>yourself","$35<br>for<br>5","1","34","35","5",""
"html-keyboard-response","44","169056","0.0-6.0-1.13","63ed15bed4665c62d9e6dbb2","bdp_sd","Fri Mar 24 2023 20:55:29 GMT-0400 (Eastern Daylight Time)","197801","","null","","","","","FIX","","<div class='trialBorder'><div class='vertical-center'><img style='vertical-align:center; align:center' src=img/fixation3.jpg></div></div>","null","","","","","","",""
"html-keyboard-response","45","170416","0.0-6.0-2.13","63ed15bed4665c62d9e6dbb2","bdp_sd","Fri Mar 24 2023 20:55:29 GMT-0400 (Eastern Daylight Time)","197801","","1360","","","","","offer","","<div class='trialBorder'><div class='vertical-center'><img style='vertical-align:center; align:center' src=img/fixation3.jpg></div><div class='cl'><div class='vertical-center'>$27<br>for<br>yourself</div></div><div class='cr'><div class='vertical-center'>$50<br>for<br>Naomi Kb </div></div><div class='respDivL'><div class='vertical-center'>(E)</div></div><div class='respDivR'><div class='vertical-center'>(I)</div></div></div>","I","$27<br>for<br>yourself","$50<br>for<br>3","0","27","50","3","OTHER"
"html-keyboard-response","46","170667","0.0-6.0-3.13","63ed15bed4665c62d9e6dbb2","bdp_sd","Fri Mar 24 2023 20:55:29 GMT-0400 (Eastern Daylight Time)","197801","","null","","","","","offerFB","","<div class='trialBorder'><div class='vertical-center'><img style='vertical-align:center; align:center' src=img/fixation3.jpg></div><div class='cl'><div class='vertical-center'>$27<br>for<br>yourself</div></div><div class='cr'><div class='vertical-center'><font style='color:orange'>$50<br>for<br>Naomi Kb </font></div></div><div class='respDivL'><div class='vertical-center'>(E)</div></div><div class='respDivR'><div class='vertical-center'><font style='color:orange'>(I)</font></div></div></div>","null","$27<br>for<br>yourself","$50<br>for<br>3","0","27","50","3",""
"html-keyboard-response","47","171169","0.0-6.0-1.14","63ed15bed4665c62d9e6dbb2","bdp_sd","Fri Mar 24 2023 20:55:29 GMT-0400 (Eastern Daylight Time)","197801","","null","","","","","FIX","","<div class='trialBorder'><div class='vertical-center'><img style='vertical-align:center; align:center' src=img/fixation3.jpg></div></div>","null","","","","","","",""
"html-keyboard-response","48","172086","0.0-6.0-2.14","63ed15bed4665c62d9e6dbb2","bdp_sd","Fri Mar 24 2023 20:55:29 GMT-0400 (Eastern Daylight Time)","197801","","917","","","","","offer","","<div class='trialBorder'><div class='vertical-center'><img style='vertical-align:center; align:center' src=img/fixation3.jpg></div><div class='cl'><div class='vertical-center'>$28<br>for<br>yourself</div></div><div class='cr'><div class='vertical-center'>$30<br>for<br>Alea K</div></div><div class='respDivL'><div class='vertical-center'>(E)</div></div><div class='respDivR'><div class='vertical-center'>(I)</div></div></div>","E","$28<br>for<br>yourself","$30<br>for<br>5","0","28","30","5","SELF"
"html-keyboard-response","49","172337","0.0-6.0-3.14","63ed15bed4665c62d9e6dbb2","bdp_sd","Fri Mar 24 2023 20:55:29 GMT-0400 (Eastern Daylight Time)","197801","","null","","","","","offerFB","","<div class='trialBorder'><div class='vertical-center'><img style='vertical-align:center; align:center' src=img/fixation3.jpg></div><div class='cl'><div class='vertical-center'><font style='color:orange'>$28<br>for<br>yourself</font></div></div><div class='cr'><div class='vertical-center'>$30<br>for<br>Alea K</div></div><div class='respDivL'><div class='vertical-center'><font style='color:orange'>(E)</font></div></div><div class='respDivR'><div class='vertical-center'>(I)</div></div></div>","null","$28<br>for<br>yourself","$30<br>for<br>5","0","28","30","5",""
"html-keyboard-response","50","172839","0.0-6.0-1.15","63ed15bed4665c62d9e6dbb2","bdp_sd","Fri Mar 24 2023 20:55:29 GMT-0400 (Eastern Daylight Time)","197801","","null","","","","","FIX","","<div class='trialBorder'><div class='vertical-center'><img style='vertical-align:center; align:center' src=img/fixation3.jpg></div></div>","null","","","","","","",""
"html-keyboard-response","51","173626","0.0-6.0-2.15","63ed15bed4665c62d9e6dbb2","bdp_sd","Fri Mar 24 2023 20:55:29 GMT-0400 (Eastern Daylight Time)","197801","","787","","","","","offer","","<div class='trialBorder'><div class='vertical-center'><img style='vertical-align:center; align:center' src=img/fixation3.jpg></div><div class='cl'><div class='vertical-center'>$30<br>for<br>Laheeb K</div></div><div class='cr'><div class='vertical-center'>$25<br>for<br>yourself</div></div><div class='respDivL'><div class='vertical-center'>(E)</div></div><div class='respDivR'><div class='vertical-center'>(I)</div></div></div>","I","$25<br>for<br>yourself","$30<br>for<br>4","1","25","30","4","SELF"
"html-keyboard-response","52","173886","0.0-6.0-3.15","63ed15bed4665c62d9e6dbb2","bdp_sd","Fri Mar 24 2023 20:55:29 GMT-0400 (Eastern Daylight Time)","197801","","null","","","","","offerFB","","<div class='trialBorder'><div class='vertical-center'><img style='vertical-align:center; align:center' src=img/fixation3.jpg></div><div class='cl'><div class='vertical-center'>$30<br>for<br>Laheeb K</div></div><div class='cr'><div class='vertical-center'><font style='color:orange'>$25<br>for<br>yourself</font></div></div><div class='respDivL'><div class='vertical-center'>(E)</div></div><div class='respDivR'><div class='vertical-center'><font style='color:orange'>(I)</font></div></div></div>","null","$25<br>for<br>yourself","$30<br>for<br>4","1","25","30","4",""
"html-keyboard-response","53","174388","0.0-6.0-1.16","63ed15bed4665c62d9e6dbb2","bdp_sd","Fri Mar 24 2023 20:55:29 GMT-0400 (Eastern Daylight Time)","197801","","null","","","","","FIX","","<div class='trialBorder'><div class='vertical-center'><img style='vertical-align:center; align:center' src=img/fixation3.jpg></div></div>","null","","","","","","",""
"html-keyboard-response","54","175722","0.0-6.0-2.16","63ed15bed4665c62d9e6dbb2","bdp_sd","Fri Mar 24 2023 20:55:29 GMT-0400 (Eastern Daylight Time)","197801","","1332","","","","","offer","","<div class='trialBorder'><div class='vertical-center'><img style='vertical-align:center; align:center' src=img/fixation3.jpg></div><div class='cl'><div class='vertical-center'>$35<br>for<br>Naomi Kb </div></div><div class='cr'><div class='vertical-center'>$24<br>for<br>yourself</div></div><div class='respDivL'><div class='vertical-center'>(E)</div></div><div class='respDivR'><div class='vertical-center'>(I)</div></div></div>","E","$24<br>for<br>yourself","$35<br>for<br>3","1","24","35","3","OTHER"
"html-keyboard-response","55","175973","0.0-6.0-3.16","63ed15bed4665c62d9e6dbb2","bdp_sd","Fri Mar 24 2023 20:55:29 GMT-0400 (Eastern Daylight Time)","197801","","null","","","","","offerFB","","<div class='trialBorder'><div class='vertical-center'><img style='vertical-align:center; align:center' src=img/fixation3.jpg></div><div class='cl'><div class='vertical-center'><font style='color:orange'>$35<br>for<br>Naomi Kb </font></div></div><div class='cr'><div class='vertical-center'>$24<br>for<br>yourself</div></div><div class='respDivL'><div class='vertical-center'><font style='color:orange'>(E)</font></div></div><div class='respDivR'><div class='vertical-center'>(I)</div></div></div>","null","$24<br>for<br>yourself","$35<br>for<br>3","1","24","35","3",""
"html-keyboard-response","56","176474","0.0-6.0-1.17","63ed15bed4665c62d9e6dbb2","bdp_sd","Fri Mar 24 2023 20:55:29 GMT-0400 (Eastern Daylight Time)","197801","","null","","","","","FIX","","<div class='trialBorder'><div class='vertical-center'><img style='vertical-align:center; align:center' src=img/fixation3.jpg></div></div>","null","","","","","","",""
"html-keyboard-response","57","177264","0.0-6.0-2.17","63ed15bed4665c62d9e6dbb2","bdp_sd","Fri Mar 24 2023 20:55:29 GMT-0400 (Eastern Daylight Time)","197801","","790","","","","","offer","","<div class='trialBorder'><div class='vertical-center'><img style='vertical-align:center; align:center' src=img/fixation3.jpg></div><div class='cl'><div class='vertical-center'>$34<br>for<br>yourself</div></div><div class='cr'><div class='vertical-center'>$50<br>for<br>Laheeb K</div></div><div class='respDivL'><div class='vertical-center'>(E)</div></div><div class='respDivR'><div class='vertical-center'>(I)</div></div></div>","E","$34<br>for<br>yourself","$50<br>for<br>4","0","34","50","4","SELF"
"html-keyboard-response","58","177516","0.0-6.0-3.17","63ed15bed4665c62d9e6dbb2","bdp_sd","Fri Mar 24 2023 20:55:29 GMT-0400 (Eastern Daylight Time)","197801","","null","","","","","offerFB","","<div class='trialBorder'><div class='vertical-center'><img style='vertical-align:center; align:center' src=img/fixation3.jpg></div><div class='cl'><div class='vertical-center'><font style='color:orange'>$34<br>for<br>yourself</font></div></div><div class='cr'><div class='vertical-center'>$50<br>for<br>Laheeb K</div></div><div class='respDivL'><div class='vertical-center'><font style='color:orange'>(E)</font></div></div><div class='respDivR'><div class='vertical-center'>(I)</div></div></div>","null","$34<br>for<br>yourself","$50<br>for<br>4","0","34","50","4",""
"html-keyboard-response","59","178018","0.0-6.0-1.18","63ed15bed4665c62d9e6dbb2","bdp_sd","Fri Mar 24 2023 20:55:29 GMT-0400 (Eastern Daylight Time)","197801","","null","","","","","FIX","","<div class='trialBorder'><div class='vertical-center'><img style='vertical-align:center; align:center' src=img/fixation3.jpg></div></div>","null","","","","","","",""
"html-keyboard-response","60","178716","0.0-6.0-2.18","63ed15bed4665c62d9e6dbb2","bdp_sd","Fri Mar 24 2023 20:55:29 GMT-0400 (Eastern Daylight Time)","197801","","698","","","","","offer","","<div class='trialBorder'><div class='vertical-center'><img style='vertical-align:center; align:center' src=img/fixation3.jpg></div><div class='cl'><div class='vertical-center'>$55<br>for<br>Alea K</div></div><div class='cr'><div class='vertical-center'>$54<br>for<br>yourself</div></div><div class='respDivL'><div class='vertical-center'>(E)</div></div><div class='respDivR'><div class='vertical-center'>(I)</div></div></div>","I","$54<br>for<br>yourself","$55<br>for<br>5","1","54","55","5","SELF"
"html-keyboard-response","61","178968","0.0-6.0-3.18","63ed15bed4665c62d9e6dbb2","bdp_sd","Fri Mar 24 2023 20:55:29 GMT-0400 (Eastern Daylight Time)","197801","","null","","","","","offerFB","","<div class='trialBorder'><div class='vertical-center'><img style='vertical-align:center; align:center' src=img/fixation3.jpg></div><div class='cl'><div class='vertical-center'>$55<br>for<br>Alea K</div></div><div class='cr'><div class='vertical-center'><font style='color:orange'>$54<br>for<br>yourself</font></div></div><div class='respDivL'><div class='vertical-center'>(E)</div></div><div class='respDivR'><div class='vertical-center'><font style='color:orange'>(I)</font></div></div></div>","null","$54<br>for<br>yourself","$55<br>for<br>5","1","54","55","5",""
"html-keyboard-response","62","179469","0.0-6.0-1.19","63ed15bed4665c62d9e6dbb2","bdp_sd","Fri Mar 24 2023 20:55:29 GMT-0400 (Eastern Daylight Time)","197801","","null","","","","","FIX","","<div class='trialBorder'><div class='vertical-center'><img style='vertical-align:center; align:center' src=img/fixation3.jpg></div></div>","null","","","","","","",""
"html-keyboard-response","63","181254","0.0-6.0-2.19","63ed15bed4665c62d9e6dbb2","bdp_sd","Fri Mar 24 2023 20:55:29 GMT-0400 (Eastern Daylight Time)","197801","","1785","","","","","offer","","<div class='trialBorder'><div class='vertical-center'><img style='vertical-align:center; align:center' src=img/fixation3.jpg></div><div class='cl'><div class='vertical-center'>$41<br>for<br>yourself</div></div><div class='cr'><div class='vertical-center'>$75<br>for<br>Naomi Kb </div></div><div class='respDivL'><div class='vertical-center'>(E)</div></div><div class='respDivR'><div class='vertical-center'>(I)</div></div></div>","I","$41<br>for<br>yourself","$75<br>for<br>3","0","41","75","3","OTHER"
"html-keyboard-response","64","181505","0.0-6.0-3.19","63ed15bed4665c62d9e6dbb2","bdp_sd","Fri Mar 24 2023 20:55:29 GMT-0400 (Eastern Daylight Time)","197801","","null","","","","","offerFB","","<div class='trialBorder'><div class='vertical-center'><img style='vertical-align:center; align:center' src=img/fixation3.jpg></div><div class='cl'><div class='vertical-center'>$41<br>for<br>yourself</div></div><div class='cr'><div class='vertical-center'><font style='color:orange'>$75<br>for<br>Naomi Kb </font></div></div><div class='respDivL'><div class='vertical-center'>(E)</div></div><div class='respDivR'><div class='vertical-center'><font style='color:orange'>(I)</font></div></div></div>","null","$41<br>for<br>yourself","$75<br>for<br>3","0","41","75","3",""
"html-keyboard-response","65","182007","0.0-6.0-1.20","63ed15bed4665c62d9e6dbb2","bdp_sd","Fri Mar 24 2023 20:55:29 GMT-0400 (Eastern Daylight Time)","197801","","null","","","","","FIX","","<div class='trialBorder'><div class='vertical-center'><img style='vertical-align:center; align:center' src=img/fixation3.jpg></div></div>","null","","","","","","",""
"html-keyboard-response","66","185026","0.0-6.0-2.20","63ed15bed4665c62d9e6dbb2","bdp_sd","Fri Mar 24 2023 20:55:29 GMT-0400 (Eastern Daylight Time)","197801","","3017","","","","","offer","","<div class='trialBorder'><div class='vertical-center'><img style='vertical-align:center; align:center' src=img/fixation3.jpg></div><div class='cl'><div class='vertical-center'>$85<br>for<br>Laheeb K</div></div><div class='cr'><div class='vertical-center'>$69<br>for<br>yourself</div></div><div class='respDivL'><div class='vertical-center'>(E)</div></div><div class='respDivR'><div class='vertical-center'>(I)</div></div></div>","I","$69<br>for<br>yourself","$85<br>for<br>4","1","69","85","4","SELF"
"html-keyboard-response","67","185277","0.0-6.0-3.20","63ed15bed4665c62d9e6dbb2","bdp_sd","Fri Mar 24 2023 20:55:29 GMT-0400 (Eastern Daylight Time)","197801","","null","","","","","offerFB","","<div class='trialBorder'><div class='vertical-center'><img style='vertical-align:center; align:center' src=img/fixation3.jpg></div><div class='cl'><div class='vertical-center'>$85<br>for<br>Laheeb K</div></div><div class='cr'><div class='vertical-center'><font style='color:orange'>$69<br>for<br>yourself</font></div></div><div class='respDivL'><div class='vertical-center'>(E)</div></div><div class='respDivR'><div class='vertical-center'><font style='color:orange'>(I)</font></div></div></div>","null","$69<br>for<br>yourself","$85<br>for<br>4","1","69","85","4",""
"html-keyboard-response","68","185779","0.0-6.0-1.21","63ed15bed4665c62d9e6dbb2","bdp_sd","Fri Mar 24 2023 20:55:29 GMT-0400 (Eastern Daylight Time)","197801","","null","","","","","FIX","","<div class='trialBorder'><div class='vertical-center'><img style='vertical-align:center; align:center' src=img/fixation3.jpg></div></div>","null","","","","","","",""
"html-keyboard-response","69","187459","0.0-6.0-2.21","63ed15bed4665c62d9e6dbb2","bdp_sd","Fri Mar 24 2023 20:55:29 GMT-0400 (Eastern Daylight Time)","197801","","1680","","","","","offer","","<div class='trialBorder'><div class='vertical-center'><img style='vertical-align:center; align:center' src=img/fixation3.jpg></div><div class='cl'><div class='vertical-center'>$25<br>for<br>Naomi Kb </div></div><div class='cr'><div class='vertical-center'>$14<br>for<br>yourself</div></div><div class='respDivL'><div class='vertical-center'>(E)</div></div><div class='respDivR'><div class='vertical-center'>(I)</div></div></div>","E","$14<br>for<br>yourself","$25<br>for<br>3","1","14","25","3","OTHER"
"html-keyboard-response","70","187710","0.0-6.0-3.21","63ed15bed4665c62d9e6dbb2","bdp_sd","Fri Mar 24 2023 20:55:29 GMT-0400 (Eastern Daylight Time)","197801","","null","","","","","offerFB","","<div class='trialBorder'><div class='vertical-center'><img style='vertical-align:center; align:center' src=img/fixation3.jpg></div><div class='cl'><div class='vertical-center'><font style='color:orange'>$25<br>for<br>Naomi Kb </font></div></div><div class='cr'><div class='vertical-center'>$14<br>for<br>yourself</div></div><div class='respDivL'><div class='vertical-center'><font style='color:orange'>(E)</font></div></div><div class='respDivR'><div class='vertical-center'>(I)</div></div></div>","null","$14<br>for<br>yourself","$25<br>for<br>3","1","14","25","3",""
"html-keyboard-response","71","188211","0.0-6.0-1.22","63ed15bed4665c62d9e6dbb2","bdp_sd","Fri Mar 24 2023 20:55:29 GMT-0400 (Eastern Daylight Time)","197801","","null","","","","","FIX","","<div class='trialBorder'><div class='vertical-center'><img style='vertical-align:center; align:center' src=img/fixation3.jpg></div></div>","null","","","","","","",""
"html-keyboard-response","72","189151","0.0-6.0-2.22","63ed15bed4665c62d9e6dbb2","bdp_sd","Fri Mar 24 2023 20:55:29 GMT-0400 (Eastern Daylight Time)","197801","","939","","","","","offer","","<div class='trialBorder'><div class='vertical-center'><img style='vertical-align:center; align:center' src=img/fixation3.jpg></div><div class='cl'><div class='vertical-center'>$49<br>for<br>yourself</div></div><div class='cr'><div class='vertical-center'>$60<br>for<br>Laheeb K</div></div><div class='respDivL'><div class='vertical-center'>(E)</div></div><div class='respDivR'><div class='vertical-center'>(I)</div></div></div>","E","$49<br>for<br>yourself","$60<br>for<br>4","0","49","60","4","SELF"
"html-keyboard-response","73","189402","0.0-6.0-3.22","63ed15bed4665c62d9e6dbb2","bdp_sd","Fri Mar 24 2023 20:55:29 GMT-0400 (Eastern Daylight Time)","197801","","null","","","","","offerFB","","<div class='trialBorder'><div class='vertical-center'><img style='vertical-align:center; align:center' src=img/fixation3.jpg></div><div class='cl'><div class='vertical-center'><font style='color:orange'>$49<br>for<br>yourself</font></div></div><div class='cr'><div class='vertical-center'>$60<br>for<br>Laheeb K</div></div><div class='respDivL'><div class='vertical-center'><font style='color:orange'>(E)</font></div></div><div class='respDivR'><div class='vertical-center'>(I)</div></div></div>","null","$49<br>for<br>yourself","$60<br>for<br>4","0","49","60","4",""
"html-keyboard-response","74","189904","0.0-6.0-1.23","63ed15bed4665c62d9e6dbb2","bdp_sd","Fri Mar 24 2023 20:55:29 GMT-0400 (Eastern Daylight Time)","197801","","null","","","","","FIX","","<div class='trialBorder'><div class='vertical-center'><img style='vertical-align:center; align:center' src=img/fixation3.jpg></div></div>","null","","","","","","",""
"html-keyboard-response","75","190638","0.0-6.0-2.23","63ed15bed4665c62d9e6dbb2","bdp_sd","Fri Mar 24 2023 20:55:29 GMT-0400 (Eastern Daylight Time)","197801","","733","","","","","offer","","<div class='trialBorder'><div class='vertical-center'><img style='vertical-align:center; align:center' src=img/fixation3.jpg></div><div class='cl'><div class='vertical-center'>$85<br>for<br>Alea K</div></div><div class='cr'><div class='vertical-center'>$80<br>for<br>yourself</div></div><div class='respDivL'><div class='vertical-center'>(E)</div></div><div class='respDivR'><div class='vertical-center'>(I)</div></div></div>","I","$80<br>for<br>yourself","$85<br>for<br>5","1","80","85","5","SELF"
"html-keyboard-response","76","190889","0.0-6.0-3.23","63ed15bed4665c62d9e6dbb2","bdp_sd","Fri Mar 24 2023 20:55:29 GMT-0400 (Eastern Daylight Time)","197801","","null","","","","","offerFB","","<div class='trialBorder'><div class='vertical-center'><img style='vertical-align:center; align:center' src=img/fixation3.jpg></div><div class='cl'><div class='vertical-center'>$85<br>for<br>Alea K</div></div><div class='cr'><div class='vertical-center'><font style='color:orange'>$80<br>for<br>yourself</font></div></div><div class='respDivL'><div class='vertical-center'>(E)</div></div><div class='respDivR'><div class='vertical-center'><font style='color:orange'>(I)</font></div></div></div>","null","$80<br>for<br>yourself","$85<br>for<br>5","1","80","85","5",""
"html-keyboard-response","77","191391","0.0-6.0-1.24","63ed15bed4665c62d9e6dbb2","bdp_sd","Fri Mar 24 2023 20:55:29 GMT-0400 (Eastern Daylight Time)","197801","","null","","","","","FIX","","<div class='trialBorder'><div class='vertical-center'><img style='vertical-align:center; align:center' src=img/fixation3.jpg></div></div>","null","","","","","","",""
"html-keyboard-response","78","192172","0.0-6.0-2.24","63ed15bed4665c62d9e6dbb2","bdp_sd","Fri Mar 24 2023 20:55:29 GMT-0400 (Eastern Daylight Time)","197801","","781","","","","","offer","","<div class='trialBorder'><div class='vertical-center'><img style='vertical-align:center; align:center' src=img/fixation3.jpg></div><div class='cl'><div class='vertical-center'>$19<br>for<br>yourself</div></div><div class='cr'><div class='vertical-center'>$25<br>for<br>Laheeb K</div></div><div class='respDivL'><div class='vertical-center'>(E)</div></div><div class='respDivR'><div class='vertical-center'>(I)</div></div></div>","E","$19<br>for<br>yourself","$25<br>for<br>4","0","19","25","4","SELF"
"html-keyboard-response","79","192424","0.0-6.0-3.24","63ed15bed4665c62d9e6dbb2","bdp_sd","Fri Mar 24 2023 20:55:29 GMT-0400 (Eastern Daylight Time)","197801","","null","","","","","offerFB","","<div class='trialBorder'><div class='vertical-center'><img style='vertical-align:center; align:center' src=img/fixation3.jpg></div><div class='cl'><div class='vertical-center'><font style='color:orange'>$19<br>for<br>yourself</font></div></div><div class='cr'><div class='vertical-center'>$25<br>for<br>Laheeb K</div></div><div class='respDivL'><div class='vertical-center'><font style='color:orange'>(E)</font></div></div><div class='respDivR'><div class='vertical-center'>(I)</div></div></div>","null","$19<br>for<br>yourself","$25<br>for<br>4","0","19","25","4",""
"html-keyboard-response","80","192925","0.0-6.0-1.25","63ed15bed4665c62d9e6dbb2","bdp_sd","Fri Mar 24 2023 20:55:29 GMT-0400 (Eastern Daylight Time)","197801","","null","","","","","FIX","","<div class='trialBorder'><div class='vertical-center'><img style='vertical-align:center; align:center' src=img/fixation3.jpg></div></div>","null","","","","","","",""
"html-keyboard-response","81","194365","0.0-6.0-2.25","63ed15bed4665c62d9e6dbb2","bdp_sd","Fri Mar 24 2023 20:55:29 GMT-0400 (Eastern Daylight Time)","197801","","1439","","","","","offer","","<div class='trialBorder'><div class='vertical-center'><img style='vertical-align:center; align:center' src=img/fixation3.jpg></div><div class='cl'><div class='vertical-center'>$80<br>for<br>Naomi Kb </div></div><div class='cr'><div class='vertical-center'>$54<br>for<br>yourself</div></div><div class='respDivL'><div class='vertical-center'>(E)</div></div><div class='respDivR'><div class='vertical-center'>(I)</div></div></div>","E","$54<br>for<br>yourself","$80<br>for<br>3","1","54","80","3","OTHER"
"html-keyboard-response","82","194617","0.0-6.0-3.25","63ed15bed4665c62d9e6dbb2","bdp_sd","Fri Mar 24 2023 20:55:29 GMT-0400 (Eastern Daylight Time)","197801","","null","","","","","offerFB","","<div class='trialBorder'><div class='vertical-center'><img style='vertical-align:center; align:center' src=img/fixation3.jpg></div><div class='cl'><div class='vertical-center'><font style='color:orange'>$80<br>for<br>Naomi Kb </font></div></div><div class='cr'><div class='vertical-center'>$54<br>for<br>yourself</div></div><div class='respDivL'><div class='vertical-center'><font style='color:orange'>(E)</font></div></div><div class='respDivR'><div class='vertical-center'>(I)</div></div></div>","null","$54<br>for<br>yourself","$80<br>for<br>3","1","54","80","3",""
"html-keyboard-response","83","195118","0.0-6.0-1.26","63ed15bed4665c62d9e6dbb2","bdp_sd","Fri Mar 24 2023 20:55:29 GMT-0400 (Eastern Daylight Time)","197801","","null","","","","","FIX","","<div class='trialBorder'><div class='vertical-center'><img style='vertical-align:center; align:center' src=img/fixation3.jpg></div></div>","null","","","","","","",""
"html-keyboard-response","84","196546","0.0-6.0-2.26","63ed15bed4665c62d9e6dbb2","bdp_sd","Fri Mar 24 2023 20:55:29 GMT-0400 (Eastern Daylight Time)","197801","","1427","","","","","offer","","<div class='trialBorder'><div class='vertical-center'><img style='vertical-align:center; align:center' src=img/fixation3.jpg></div><div class='cl'><div class='vertical-center'>$11<br>for<br>yourself</div></div><div class='cr'><div class='vertical-center'>$30<br>for<br>Pumpkin K</div></div><div class='respDivL'><div class='vertical-center'>(E)</div></div><div class='respDivR'><div class='vertical-center'>(I)</div></div></div>","I","$11<br>for<br>yourself","$30<br>for<br>2","0","11","30","2","OTHER"
"html-keyboard-response","85","196798","0.0-6.0-3.26","63ed15bed4665c62d9e6dbb2","bdp_sd","Fri Mar 24 2023 20:55:29 GMT-0400 (Eastern Daylight Time)","197801","","null","","","","","offerFB","","<div class='trialBorder'><div class='vertical-center'><img style='vertical-align:center; align:center' src=img/fixation3.jpg></div><div class='cl'><div class='vertical-center'>$11<br>for<br>yourself</div></div><div class='cr'><div class='vertical-center'><font style='color:orange'>$30<br>for<br>Pumpkin K</font></div></div><div class='respDivL'><div class='vertical-center'>(E)</div></div><div class='respDivR'><div class='vertical-center'><font style='color:orange'>(I)</font></div></div></div>","null","$11<br>for<br>yourself","$30<br>for<br>2","0","11","30","2",""
"","","","","63ed15bed4665c62d9e6dbb2","bdp_sd","Fri Mar 24 2023 20:55:29 GMT-0400 (Eastern Daylight Time)","197801","","","","fullscreenexit","86","196813","fullscreenexit","","","","","","","","","",""
"fullscreen","86","197800","0.0-7.0","63ed15bed4665c62d9e6dbb2","bdp_sd","Fri Mar 24 2023 20:55:29 GMT-0400 (Eastern Daylight Time)","197801","","","","","","","","true","","","","","","","","",""
"html-keyboard-response","87","198301","0.0-8.0","","","","","","null","","","","","","","","null","","","","","","",""
