"trial_type","trial_index","time_elapsed","internal_node_id","subject_id","task","startTime","totalTime","view_history","rt","responses","event","trial","time","trialtype","success","stimulus","key_press","selfOffer","otherOffer","otherLeft","selfAmt","otherAmt","otherDist","chosen"
"pavlovia","0","4","0.0-0.0","5efc1d4ee23e2a011ded073e","bdp_sd","Sun Apr 09 2023 15:41:34 GMT-0700 (Pacific Daylight Time)","125251","","","","","","","","","","","","","","","","",""
"instructions","1","2509","0.0-1.0","5efc1d4ee23e2a011ded073e","bdp_sd","Sun Apr 09 2023 15:41:34 GMT-0700 (Pacific Daylight Time)","125251","[{""page_index"":0,""viewing_time"":2505}]","2505","","","","","","","","","","","","","","",""
"survey-text","2","54360","0.0-2.0","5efc1d4ee23e2a011ded073e","bdp_sd","Sun Apr 09 2023 15:41:34 GMT-0700 (Pacific Daylight Time)","125251","","51849","{""Q0"":""YEN"",""Q1"":""THAI"",""Q2"":""KHANH"",""Q3"":""NGAN"",""Q4"":""JON""}","","","","","","","","","","","","","",""
"","","","","5efc1d4ee23e2a011ded073e","bdp_sd","Sun Apr 09 2023 15:41:34 GMT-0700 (Pacific Daylight Time)","125251","","","","fullscreenenter","3","55697","fullscreenenter","","","","","","","","","",""
"fullscreen","3","56665","0.0-3.0","5efc1d4ee23e2a011ded073e","bdp_sd","Sun Apr 09 2023 15:41:34 GMT-0700 (Pacific Daylight Time)","125251","","","","","","","","true","","","","","","","","",""
"instructions","4","73390","0.0-5.0","5efc1d4ee23e2a011ded073e","bdp_sd","Sun Apr 09 2023 15:41:34 GMT-0700 (Pacific Daylight Time)","125251","[{""page_index"":0,""viewing_time"":7562},{""page_index"":1,""viewing_time"":6313},{""page_index"":2,""viewing_time"":2849}]","16724","","","","","","","","","","","","","","",""
"html-keyboard-response","5","73893","0.0-6.0-1.0","5efc1d4ee23e2a011ded073e","bdp_sd","Sun Apr 09 2023 15:41:34 GMT-0700 (Pacific Daylight Time)","125251","","null","","","","","FIX","","<div class='trialBorder'><div class='vertical-center'><img style='vertical-align:center; align:center' src=img/fixation3.jpg></div></div>","null","","","","","","",""
"html-keyboard-response","6","75163","0.0-6.0-2.0","5efc1d4ee23e2a011ded073e","bdp_sd","Sun Apr 09 2023 15:41:34 GMT-0700 (Pacific Daylight Time)","125251","","1268","","","","","offer","","<div class='trialBorder'><div class='vertical-center'><img style='vertical-align:center; align:center' src=img/fixation3.jpg></div><div class='cl'><div class='vertical-center'>$27<br>for<br>yourself</div></div><div class='cr'><div class='vertical-center'>$50<br>for<br>KHANH</div></div><div class='respDivL'><div class='vertical-center'>(E)</div></div><div class='respDivR'><div class='vertical-center'>(I)</div></div></div>","E","$27<br>for<br>yourself","$50<br>for<br>3","0","27","50","3","SELF"
"html-keyboard-response","7","75416","0.0-6.0-3.0","5efc1d4ee23e2a011ded073e","bdp_sd","Sun Apr 09 2023 15:41:34 GMT-0700 (Pacific Daylight Time)","125251","","null","","","","","offerFB","","<div class='trialBorder'><div class='vertical-center'><img style='vertical-align:center; align:center' src=img/fixation3.jpg></div><div class='cl'><div class='vertical-center'><font style='color:orange'>$27<br>for<br>yourself</font></div></div><div class='cr'><div class='vertical-center'>$50<br>for<br>KHANH</div></div><div class='respDivL'><div class='vertical-center'><font style='color:orange'>(E)</font></div></div><div class='respDivR'><div class='vertical-center'>(I)</div></div></div>","null","$27<br>for<br>yourself","$50<br>for<br>3","0","27","50","3",""
"html-keyboard-response","8","75918","0.0-6.0-1.1","5efc1d4ee23e2a011ded073e","bdp_sd","Sun Apr 09 2023 15:41:34 GMT-0700 (Pacific Daylight Time)","125251","","null","","","","","FIX","","<div class='trialBorder'><div class='vertical-center'><img style='vertical-align:center; align:center' src=img/fixation3.jpg></div></div>","null","","","","","","",""
"html-keyboard-response","9","78086","0.0-6.0-2.1","5efc1d4ee23e2a011ded073e","bdp_sd","Sun Apr 09 2023 15:41:34 GMT-0700 (Pacific Daylight Time)","125251","","2167","","","","","offer","","<div class='trialBorder'><div class='vertical-center'><img style='vertical-align:center; align:center' src=img/fixation3.jpg></div><div class='cl'><div class='vertical-center'>$35<br>for<br>KHANH</div></div><div class='cr'><div class='vertical-center'>$24<br>for<br>yourself</div></div><div class='respDivL'><div class='vertical-center'>(E)</div></div><div class='respDivR'><div class='vertical-center'>(I)</div></div></div>","I","$24<br>for<br>yourself","$35<br>for<br>3","1","24","35","3","SELF"
"html-keyboard-response","10","78338","0.0-6.0-3.1","5efc1d4ee23e2a011ded073e","bdp_sd","Sun Apr 09 2023 15:41:34 GMT-0700 (Pacific Daylight Time)","125251","","null","","","","","offerFB","","<div class='trialBorder'><div class='vertical-center'><img style='vertical-align:center; align:center' src=img/fixation3.jpg></div><div class='cl'><div class='vertical-center'>$35<br>for<br>KHANH</div></div><div class='cr'><div class='vertical-center'><font style='color:orange'>$24<br>for<br>yourself</font></div></div><div class='respDivL'><div class='vertical-center'>(E)</div></div><div class='respDivR'><div class='vertical-center'><font style='color:orange'>(I)</font></div></div></div>","null","$24<br>for<br>yourself","$35<br>for<br>3","1","24","35","3",""
"html-keyboard-response","11","78840","0.0-6.0-1.2","5efc1d4ee23e2a011ded073e","bdp_sd","Sun Apr 09 2023 15:41:34 GMT-0700 (Pacific Daylight Time)","125251","","null","","","","","FIX","","<div class='trialBorder'><div class='vertical-center'><img style='vertical-align:center; align:center' src=img/fixation3.jpg></div></div>","null","","","","","","",""
"html-keyboard-response","12","79380","0.0-6.0-2.2","5efc1d4ee23e2a011ded073e","bdp_sd","Sun Apr 09 2023 15:41:34 GMT-0700 (Pacific Daylight Time)","125251","","539","","","","","offer","","<div class='trialBorder'><div class='vertical-center'><img style='vertical-align:center; align:center' src=img/fixation3.jpg></div><div class='cl'><div class='vertical-center'>$60<br>for<br>KHANH</div></div><div class='cr'><div class='vertical-center'>$25<br>for<br>yourself</div></div><div class='respDivL'><div class='vertical-center'>(E)</div></div><div class='respDivR'><div class='vertical-center'>(I)</div></div></div>","I","$25<br>for<br>yourself","$60<br>for<br>3","1","25","60","3","SELF"
"html-keyboard-response","13","79633","0.0-6.0-3.2","5efc1d4ee23e2a011ded073e","bdp_sd","Sun Apr 09 2023 15:41:34 GMT-0700 (Pacific Daylight Time)","125251","","null","","","","","offerFB","","<div class='trialBorder'><div class='vertical-center'><img style='vertical-align:center; align:center' src=img/fixation3.jpg></div><div class='cl'><div class='vertical-center'>$60<br>for<br>KHANH</div></div><div class='cr'><div class='vertical-center'><font style='color:orange'>$25<br>for<br>yourself</font></div></div><div class='respDivL'><div class='vertical-center'>(E)</div></div><div class='respDivR'><div class='vertical-center'><font style='color:orange'>(I)</font></div></div></div>","null","$25<br>for<br>yourself","$60<br>for<br>3","1","25","60","3",""
"html-keyboard-response","14","80136","0.0-6.0-1.3","5efc1d4ee23e2a011ded073e","bdp_sd","Sun Apr 09 2023 15:41:34 GMT-0700 (Pacific Daylight Time)","125251","","null","","","","","FIX","","<div class='trialBorder'><div class='vertical-center'><img style='vertical-align:center; align:center' src=img/fixation3.jpg></div></div>","null","","","","","","",""
"html-keyboard-response","15","81802","0.0-6.0-2.3","5efc1d4ee23e2a011ded073e","bdp_sd","Sun Apr 09 2023 15:41:34 GMT-0700 (Pacific Daylight Time)","125251","","1665","","","","","offer","","<div class='trialBorder'><div class='vertical-center'><img style='vertical-align:center; align:center' src=img/fixation3.jpg></div><div class='cl'><div class='vertical-center'>$67<br>for<br>yourself</div></div><div class='cr'><div class='vertical-center'>$75<br>for<br>JON</div></div><div class='respDivL'><div class='vertical-center'>(E)</div></div><div class='respDivR'><div class='vertical-center'>(I)</div></div></div>","E","$67<br>for<br>yourself","$75<br>for<br>5","0","67","75","5","SELF"
"html-keyboard-response","16","82054","0.0-6.0-3.3","5efc1d4ee23e2a011ded073e","bdp_sd","Sun Apr 09 2023 15:41:34 GMT-0700 (Pacific Daylight Time)","125251","","null","","","","","offerFB","","<div class='trialBorder'><div class='vertical-center'><img style='vertical-align:center; align:center' src=img/fixation3.jpg></div><div class='cl'><div class='vertical-center'><font style='color:orange'>$67<br>for<br>yourself</font></div></div><div class='cr'><div class='vertical-center'>$75<br>for<br>JON</div></div><div class='respDivL'><div class='vertical-center'><font style='color:orange'>(E)</font></div></div><div class='respDivR'><div class='vertical-center'>(I)</div></div></div>","null","$67<br>for<br>yourself","$75<br>for<br>5","0","67","75","5",""
"html-keyboard-response","17","82556","0.0-6.0-1.4","5efc1d4ee23e2a011ded073e","bdp_sd","Sun Apr 09 2023 15:41:34 GMT-0700 (Pacific Daylight Time)","125251","","null","","","","","FIX","","<div class='trialBorder'><div class='vertical-center'><img style='vertical-align:center; align:center' src=img/fixation3.jpg></div></div>","null","","","","","","",""
"html-keyboard-response","18","83206","0.0-6.0-2.4","5efc1d4ee23e2a011ded073e","bdp_sd","Sun Apr 09 2023 15:41:34 GMT-0700 (Pacific Daylight Time)","125251","","649","","","","","offer","","<div class='trialBorder'><div class='vertical-center'><img style='vertical-align:center; align:center' src=img/fixation3.jpg></div><div class='cl'><div class='vertical-center'>$25<br>for<br>NGAN</div></div><div class='cr'><div class='vertical-center'>$19<br>for<br>yourself</div></div><div class='respDivL'><div class='vertical-center'>(E)</div></div><div class='respDivR'><div class='vertical-center'>(I)</div></div></div>","I","$19<br>for<br>yourself","$25<br>for<br>4","1","19","25","4","SELF"
"html-keyboard-response","19","83459","0.0-6.0-3.4","5efc1d4ee23e2a011ded073e","bdp_sd","Sun Apr 09 2023 15:41:34 GMT-0700 (Pacific Daylight Time)","125251","","null","","","","","offerFB","","<div class='trialBorder'><div class='vertical-center'><img style='vertical-align:center; align:center' src=img/fixation3.jpg></div><div class='cl'><div class='vertical-center'>$25<br>for<br>NGAN</div></div><div class='cr'><div class='vertical-center'><font style='color:orange'>$19<br>for<br>yourself</font></div></div><div class='respDivL'><div class='vertical-center'>(E)</div></div><div class='respDivR'><div class='vertical-center'><font style='color:orange'>(I)</font></div></div></div>","null","$19<br>for<br>yourself","$25<br>for<br>4","1","19","25","4",""
"html-keyboard-response","20","83961","0.0-6.0-1.5","5efc1d4ee23e2a011ded073e","bdp_sd","Sun Apr 09 2023 15:41:34 GMT-0700 (Pacific Daylight Time)","125251","","null","","","","","FIX","","<div class='trialBorder'><div class='vertical-center'><img style='vertical-align:center; align:center' src=img/fixation3.jpg></div></div>","null","","","","","","",""
"html-keyboard-response","21","84793","0.0-6.0-2.5","5efc1d4ee23e2a011ded073e","bdp_sd","Sun Apr 09 2023 15:41:34 GMT-0700 (Pacific Daylight Time)","125251","","831","","","","","offer","","<div class='trialBorder'><div class='vertical-center'><img style='vertical-align:center; align:center' src=img/fixation3.jpg></div><div class='cl'><div class='vertical-center'>$28<br>for<br>yourself</div></div><div class='cr'><div class='vertical-center'>$30<br>for<br>JON</div></div><div class='respDivL'><div class='vertical-center'>(E)</div></div><div class='respDivR'><div class='vertical-center'>(I)</div></div></div>","E","$28<br>for<br>yourself","$30<br>for<br>5","0","28","30","5","SELF"
"html-keyboard-response","22","85045","0.0-6.0-3.5","5efc1d4ee23e2a011ded073e","bdp_sd","Sun Apr 09 2023 15:41:34 GMT-0700 (Pacific Daylight Time)","125251","","null","","","","","offerFB","","<div class='trialBorder'><div class='vertical-center'><img style='vertical-align:center; align:center' src=img/fixation3.jpg></div><div class='cl'><div class='vertical-center'><font style='color:orange'>$28<br>for<br>yourself</font></div></div><div class='cr'><div class='vertical-center'>$30<br>for<br>JON</div></div><div class='respDivL'><div class='vertical-center'><font style='color:orange'>(E)</font></div></div><div class='respDivR'><div class='vertical-center'>(I)</div></div></div>","null","$28<br>for<br>yourself","$30<br>for<br>5","0","28","30","5",""
"html-keyboard-response","23","85547","0.0-6.0-1.6","5efc1d4ee23e2a011ded073e","bdp_sd","Sun Apr 09 2023 15:41:34 GMT-0700 (Pacific Daylight Time)","125251","","null","","","","","FIX","","<div class='trialBorder'><div class='vertical-center'><img style='vertical-align:center; align:center' src=img/fixation3.jpg></div></div>","null","","","","","","",""
"html-keyboard-response","24","86164","0.0-6.0-2.6","5efc1d4ee23e2a011ded073e","bdp_sd","Sun Apr 09 2023 15:41:34 GMT-0700 (Pacific Daylight Time)","125251","","617","","","","","offer","","<div class='trialBorder'><div class='vertical-center'><img style='vertical-align:center; align:center' src=img/fixation3.jpg></div><div class='cl'><div class='vertical-center'>$25<br>for<br>JON</div></div><div class='cr'><div class='vertical-center'>$22<br>for<br>yourself</div></div><div class='respDivL'><div class='vertical-center'>(E)</div></div><div class='respDivR'><div class='vertical-center'>(I)</div></div></div>","I","$22<br>for<br>yourself","$25<br>for<br>5","1","22","25","5","SELF"
"html-keyboard-response","25","86416","0.0-6.0-3.6","5efc1d4ee23e2a011ded073e","bdp_sd","Sun Apr 09 2023 15:41:34 GMT-0700 (Pacific Daylight Time)","125251","","null","","","","","offerFB","","<div class='trialBorder'><div class='vertical-center'><img style='vertical-align:center; align:center' src=img/fixation3.jpg></div><div class='cl'><div class='vertical-center'>$25<br>for<br>JON</div></div><div class='cr'><div class='vertical-center'><font style='color:orange'>$22<br>for<br>yourself</font></div></div><div class='respDivL'><div class='vertical-center'>(E)</div></div><div class='respDivR'><div class='vertical-center'><font style='color:orange'>(I)</font></div></div></div>","null","$22<br>for<br>yourself","$25<br>for<br>5","1","22","25","5",""
"html-keyboard-response","26","86918","0.0-6.0-1.7","5efc1d4ee23e2a011ded073e","bdp_sd","Sun Apr 09 2023 15:41:34 GMT-0700 (Pacific Daylight Time)","125251","","null","","","","","FIX","","<div class='trialBorder'><div class='vertical-center'><img style='vertical-align:center; align:center' src=img/fixation3.jpg></div></div>","null","","","","","","",""
"html-keyboard-response","27","87436","0.0-6.0-2.7","5efc1d4ee23e2a011ded073e","bdp_sd","Sun Apr 09 2023 15:41:34 GMT-0700 (Pacific Daylight Time)","125251","","517","","","","","offer","","<div class='trialBorder'><div class='vertical-center'><img style='vertical-align:center; align:center' src=img/fixation3.jpg></div><div class='cl'><div class='vertical-center'>$78<br>for<br>yourself</div></div><div class='cr'><div class='vertical-center'>$80<br>for<br>JON</div></div><div class='respDivL'><div class='vertical-center'>(E)</div></div><div class='respDivR'><div class='vertical-center'>(I)</div></div></div>","E","$78<br>for<br>yourself","$80<br>for<br>5","0","78","80","5","SELF"
"html-keyboard-response","28","87689","0.0-6.0-3.7","5efc1d4ee23e2a011ded073e","bdp_sd","Sun Apr 09 2023 15:41:34 GMT-0700 (Pacific Daylight Time)","125251","","null","","","","","offerFB","","<div class='trialBorder'><div class='vertical-center'><img style='vertical-align:center; align:center' src=img/fixation3.jpg></div><div class='cl'><div class='vertical-center'><font style='color:orange'>$78<br>for<br>yourself</font></div></div><div class='cr'><div class='vertical-center'>$80<br>for<br>JON</div></div><div class='respDivL'><div class='vertical-center'><font style='color:orange'>(E)</font></div></div><div class='respDivR'><div class='vertical-center'>(I)</div></div></div>","null","$78<br>for<br>yourself","$80<br>for<br>5","0","78","80","5",""
"html-keyboard-response","29","88191","0.0-6.0-1.8","5efc1d4ee23e2a011ded073e","bdp_sd","Sun Apr 09 2023 15:41:34 GMT-0700 (Pacific Daylight Time)","125251","","null","","","","","FIX","","<div class='trialBorder'><div class='vertical-center'><img style='vertical-align:center; align:center' src=img/fixation3.jpg></div></div>","null","","","","","","",""
"html-keyboard-response","30","88965","0.0-6.0-2.8","5efc1d4ee23e2a011ded073e","bdp_sd","Sun Apr 09 2023 15:41:34 GMT-0700 (Pacific Daylight Time)","125251","","774","","","","","offer","","<div class='trialBorder'><div class='vertical-center'><img style='vertical-align:center; align:center' src=img/fixation3.jpg></div><div class='cl'><div class='vertical-center'>$35<br>for<br>JON</div></div><div class='cr'><div class='vertical-center'>$34<br>for<br>yourself</div></div><div class='respDivL'><div class='vertical-center'>(E)</div></div><div class='respDivR'><div class='vertical-center'>(I)</div></div></div>","I","$34<br>for<br>yourself","$35<br>for<br>5","1","34","35","5","SELF"
"html-keyboard-response","31","89217","0.0-6.0-3.8","5efc1d4ee23e2a011ded073e","bdp_sd","Sun Apr 09 2023 15:41:34 GMT-0700 (Pacific Daylight Time)","125251","","null","","","","","offerFB","","<div class='trialBorder'><div class='vertical-center'><img style='vertical-align:center; align:center' src=img/fixation3.jpg></div><div class='cl'><div class='vertical-center'>$35<br>for<br>JON</div></div><div class='cr'><div class='vertical-center'><font style='color:orange'>$34<br>for<br>yourself</font></div></div><div class='respDivL'><div class='vertical-center'>(E)</div></div><div class='respDivR'><div class='vertical-center'><font style='color:orange'>(I)</font></div></div></div>","null","$34<br>for<br>yourself","$35<br>for<br>5","1","34","35","5",""
"html-keyboard-response","32","89719","0.0-6.0-1.9","5efc1d4ee23e2a011ded073e","bdp_sd","Sun Apr 09 2023 15:41:34 GMT-0700 (Pacific Daylight Time)","125251","","null","","","","","FIX","","<div class='trialBorder'><div class='vertical-center'><img style='vertical-align:center; align:center' src=img/fixation3.jpg></div></div>","null","","","","","","",""
"html-keyboard-response","33","90251","0.0-6.0-2.9","5efc1d4ee23e2a011ded073e","bdp_sd","Sun Apr 09 2023 15:41:34 GMT-0700 (Pacific Daylight Time)","125251","","531","","","","","offer","","<div class='trialBorder'><div class='vertical-center'><img style='vertical-align:center; align:center' src=img/fixation3.jpg></div><div class='cl'><div class='vertical-center'>$25<br>for<br>KHANH</div></div><div class='cr'><div class='vertical-center'>$14<br>for<br>yourself</div></div><div class='respDivL'><div class='vertical-center'>(E)</div></div><div class='respDivR'><div class='vertical-center'>(I)</div></div></div>","E","$14<br>for<br>yourself","$25<br>for<br>3","1","14","25","3","OTHER"
"html-keyboard-response","34","90504","0.0-6.0-3.9","5efc1d4ee23e2a011ded073e","bdp_sd","Sun Apr 09 2023 15:41:34 GMT-0700 (Pacific Daylight Time)","125251","","null","","","","","offerFB","","<div class='trialBorder'><div class='vertical-center'><img style='vertical-align:center; align:center' src=img/fixation3.jpg></div><div class='cl'><div class='vertical-center'><font style='color:orange'>$25<br>for<br>KHANH</font></div></div><div class='cr'><div class='vertical-center'>$14<br>for<br>yourself</div></div><div class='respDivL'><div class='vertical-center'><font style='color:orange'>(E)</font></div></div><div class='respDivR'><div class='vertical-center'>(I)</div></div></div>","null","$14<br>for<br>yourself","$25<br>for<br>3","1","14","25","3",""
"html-keyboard-response","35","91007","0.0-6.0-1.10","5efc1d4ee23e2a011ded073e","bdp_sd","Sun Apr 09 2023 15:41:34 GMT-0700 (Pacific Daylight Time)","125251","","null","","","","","FIX","","<div class='trialBorder'><div class='vertical-center'><img style='vertical-align:center; align:center' src=img/fixation3.jpg></div></div>","null","","","","","","",""
"html-keyboard-response","36","92194","0.0-6.0-2.10","5efc1d4ee23e2a011ded073e","bdp_sd","Sun Apr 09 2023 15:41:34 GMT-0700 (Pacific Daylight Time)","125251","","1187","","","","","offer","","<div class='trialBorder'><div class='vertical-center'><img style='vertical-align:center; align:center' src=img/fixation3.jpg></div><div class='cl'><div class='vertical-center'>$85<br>for<br>NGAN</div></div><div class='cr'><div class='vertical-center'>$69<br>for<br>yourself</div></div><div class='respDivL'><div class='vertical-center'>(E)</div></div><div class='respDivR'><div class='vertical-center'>(I)</div></div></div>","I","$69<br>for<br>yourself","$85<br>for<br>4","1","69","85","4","SELF"
"html-keyboard-response","37","92445","0.0-6.0-3.10","5efc1d4ee23e2a011ded073e","bdp_sd","Sun Apr 09 2023 15:41:34 GMT-0700 (Pacific Daylight Time)","125251","","null","","","","","offerFB","","<div class='trialBorder'><div class='vertical-center'><img style='vertical-align:center; align:center' src=img/fixation3.jpg></div><div class='cl'><div class='vertical-center'>$85<br>for<br>NGAN</div></div><div class='cr'><div class='vertical-center'><font style='color:orange'>$69<br>for<br>yourself</font></div></div><div class='respDivL'><div class='vertical-center'>(E)</div></div><div class='respDivR'><div class='vertical-center'><font style='color:orange'>(I)</font></div></div></div>","null","$69<br>for<br>yourself","$85<br>for<br>4","1","69","85","4",""
"html-keyboard-response","38","92947","0.0-6.0-1.11","5efc1d4ee23e2a011ded073e","bdp_sd","Sun Apr 09 2023 15:41:34 GMT-0700 (Pacific Daylight Time)","125251","","null","","","","","FIX","","<div class='trialBorder'><div class='vertical-center'><img style='vertical-align:center; align:center' src=img/fixation3.jpg></div></div>","null","","","","","","",""
"html-keyboard-response","39","93595","0.0-6.0-2.11","5efc1d4ee23e2a011ded073e","bdp_sd","Sun Apr 09 2023 15:41:34 GMT-0700 (Pacific Daylight Time)","125251","","648","","","","","offer","","<div class='trialBorder'><div class='vertical-center'><img style='vertical-align:center; align:center' src=img/fixation3.jpg></div><div class='cl'><div class='vertical-center'>$54<br>for<br>yourself</div></div><div class='cr'><div class='vertical-center'>$80<br>for<br>KHANH</div></div><div class='respDivL'><div class='vertical-center'>(E)</div></div><div class='respDivR'><div class='vertical-center'>(I)</div></div></div>","E","$54<br>for<br>yourself","$80<br>for<br>3","0","54","80","3","SELF"
"html-keyboard-response","40","93847","0.0-6.0-3.11","5efc1d4ee23e2a011ded073e","bdp_sd","Sun Apr 09 2023 15:41:34 GMT-0700 (Pacific Daylight Time)","125251","","null","","","","","offerFB","","<div class='trialBorder'><div class='vertical-center'><img style='vertical-align:center; align:center' src=img/fixation3.jpg></div><div class='cl'><div class='vertical-center'><font style='color:orange'>$54<br>for<br>yourself</font></div></div><div class='cr'><div class='vertical-center'>$80<br>for<br>KHANH</div></div><div class='respDivL'><div class='vertical-center'><font style='color:orange'>(E)</font></div></div><div class='respDivR'><div class='vertical-center'>(I)</div></div></div>","null","$54<br>for<br>yourself","$80<br>for<br>3","0","54","80","3",""
"html-keyboard-response","41","94349","0.0-6.0-1.12","5efc1d4ee23e2a011ded073e","bdp_sd","Sun Apr 09 2023 15:41:34 GMT-0700 (Pacific Daylight Time)","125251","","null","","","","","FIX","","<div class='trialBorder'><div class='vertical-center'><img style='vertical-align:center; align:center' src=img/fixation3.jpg></div></div>","null","","","","","","",""
"html-keyboard-response","42","94870","0.0-6.0-2.12","5efc1d4ee23e2a011ded073e","bdp_sd","Sun Apr 09 2023 15:41:34 GMT-0700 (Pacific Daylight Time)","125251","","519","","","","","offer","","<div class='trialBorder'><div class='vertical-center'><img style='vertical-align:center; align:center' src=img/fixation3.jpg></div><div class='cl'><div class='vertical-center'>$60<br>for<br>NGAN</div></div><div class='cr'><div class='vertical-center'>$49<br>for<br>yourself</div></div><div class='respDivL'><div class='vertical-center'>(E)</div></div><div class='respDivR'><div class='vertical-center'>(I)</div></div></div>","I","$49<br>for<br>yourself","$60<br>for<br>4","1","49","60","4","SELF"
"html-keyboard-response","43","95122","0.0-6.0-3.12","5efc1d4ee23e2a011ded073e","bdp_sd","Sun Apr 09 2023 15:41:34 GMT-0700 (Pacific Daylight Time)","125251","","null","","","","","offerFB","","<div class='trialBorder'><div class='vertical-center'><img style='vertical-align:center; align:center' src=img/fixation3.jpg></div><div class='cl'><div class='vertical-center'>$60<br>for<br>NGAN</div></div><div class='cr'><div class='vertical-center'><font style='color:orange'>$49<br>for<br>yourself</font></div></div><div class='respDivL'><div class='vertical-center'>(E)</div></div><div class='respDivR'><div class='vertical-center'><font style='color:orange'>(I)</font></div></div></div>","null","$49<br>for<br>yourself","$60<br>for<br>4","1","49","60","4",""
"html-keyboard-response","44","95624","0.0-6.0-1.13","5efc1d4ee23e2a011ded073e","bdp_sd","Sun Apr 09 2023 15:41:34 GMT-0700 (Pacific Daylight Time)","125251","","null","","","","","FIX","","<div class='trialBorder'><div class='vertical-center'><img style='vertical-align:center; align:center' src=img/fixation3.jpg></div></div>","null","","","","","","",""
"html-keyboard-response","45","96390","0.0-6.0-2.13","5efc1d4ee23e2a011ded073e","bdp_sd","Sun Apr 09 2023 15:41:34 GMT-0700 (Pacific Daylight Time)","125251","","766","","","","","offer","","<div class='trialBorder'><div class='vertical-center'><img style='vertical-align:center; align:center' src=img/fixation3.jpg></div><div class='cl'><div class='vertical-center'>$55<br>for<br>JON</div></div><div class='cr'><div class='vertical-center'>$54<br>for<br>yourself</div></div><div class='respDivL'><div class='vertical-center'>(E)</div></div><div class='respDivR'><div class='vertical-center'>(I)</div></div></div>","I","$54<br>for<br>yourself","$55<br>for<br>5","1","54","55","5","SELF"
"html-keyboard-response","46","96643","0.0-6.0-3.13","5efc1d4ee23e2a011ded073e","bdp_sd","Sun Apr 09 2023 15:41:34 GMT-0700 (Pacific Daylight Time)","125251","","null","","","","","offerFB","","<div class='trialBorder'><div class='vertical-center'><img style='vertical-align:center; align:center' src=img/fixation3.jpg></div><div class='cl'><div class='vertical-center'>$55<br>for<br>JON</div></div><div class='cr'><div class='vertical-center'><font style='color:orange'>$54<br>for<br>yourself</font></div></div><div class='respDivL'><div class='vertical-center'>(E)</div></div><div class='respDivR'><div class='vertical-center'><font style='color:orange'>(I)</font></div></div></div>","null","$54<br>for<br>yourself","$55<br>for<br>5","1","54","55","5",""
"html-keyboard-response","47","97144","0.0-6.0-1.14","5efc1d4ee23e2a011ded073e","bdp_sd","Sun Apr 09 2023 15:41:34 GMT-0700 (Pacific Daylight Time)","125251","","null","","","","","FIX","","<div class='trialBorder'><div class='vertical-center'><img style='vertical-align:center; align:center' src=img/fixation3.jpg></div></div>","null","","","","","","",""
"html-keyboard-response","48","97978","0.0-6.0-2.14","5efc1d4ee23e2a011ded073e","bdp_sd","Sun Apr 09 2023 15:41:34 GMT-0700 (Pacific Daylight Time)","125251","","832","","","","","offer","","<div class='trialBorder'><div class='vertical-center'><img style='vertical-align:center; align:center' src=img/fixation3.jpg></div><div class='cl'><div class='vertical-center'>$60<br>for<br>JON</div></div><div class='cr'><div class='vertical-center'>$54<br>for<br>yourself</div></div><div class='respDivL'><div class='vertical-center'>(E)</div></div><div class='respDivR'><div class='vertical-center'>(I)</div></div></div>","I","$54<br>for<br>yourself","$60<br>for<br>5","1","54","60","5","SELF"
"html-keyboard-response","49","98229","0.0-6.0-3.14","5efc1d4ee23e2a011ded073e","bdp_sd","Sun Apr 09 2023 15:41:34 GMT-0700 (Pacific Daylight Time)","125251","","null","","","","","offerFB","","<div class='trialBorder'><div class='vertical-center'><img style='vertical-align:center; align:center' src=img/fixation3.jpg></div><div class='cl'><div class='vertical-center'>$60<br>for<br>JON</div></div><div class='cr'><div class='vertical-center'><font style='color:orange'>$54<br>for<br>yourself</font></div></div><div class='respDivL'><div class='vertical-center'>(E)</div></div><div class='respDivR'><div class='vertical-center'><font style='color:orange'>(I)</font></div></div></div>","null","$54<br>for<br>yourself","$60<br>for<br>5","1","54","60","5",""
"html-keyboard-response","50","98731","0.0-6.0-1.15","5efc1d4ee23e2a011ded073e","bdp_sd","Sun Apr 09 2023 15:41:34 GMT-0700 (Pacific Daylight Time)","125251","","null","","","","","FIX","","<div class='trialBorder'><div class='vertical-center'><img style='vertical-align:center; align:center' src=img/fixation3.jpg></div></div>","null","","","","","","",""
"html-keyboard-response","51","100053","0.0-6.0-2.15","5efc1d4ee23e2a011ded073e","bdp_sd","Sun Apr 09 2023 15:41:34 GMT-0700 (Pacific Daylight Time)","125251","","1320","","","","","offer","","<div class='trialBorder'><div class='vertical-center'><img style='vertical-align:center; align:center' src=img/fixation3.jpg></div><div class='cl'><div class='vertical-center'>$85<br>for<br>YEN</div></div><div class='cr'><div class='vertical-center'>$31<br>for<br>yourself</div></div><div class='respDivL'><div class='vertical-center'>(E)</div></div><div class='respDivR'><div class='vertical-center'>(I)</div></div></div>","I","$31<br>for<br>yourself","$85<br>for<br>1","1","31","85","1","SELF"
"html-keyboard-response","52","100305","0.0-6.0-3.15","5efc1d4ee23e2a011ded073e","bdp_sd","Sun Apr 09 2023 15:41:34 GMT-0700 (Pacific Daylight Time)","125251","","null","","","","","offerFB","","<div class='trialBorder'><div class='vertical-center'><img style='vertical-align:center; align:center' src=img/fixation3.jpg></div><div class='cl'><div class='vertical-center'>$85<br>for<br>YEN</div></div><div class='cr'><div class='vertical-center'><font style='color:orange'>$31<br>for<br>yourself</font></div></div><div class='respDivL'><div class='vertical-center'>(E)</div></div><div class='respDivR'><div class='vertical-center'><font style='color:orange'>(I)</font></div></div></div>","null","$31<br>for<br>yourself","$85<br>for<br>1","1","31","85","1",""
"html-keyboard-response","53","100806","0.0-6.0-1.16","5efc1d4ee23e2a011ded073e","bdp_sd","Sun Apr 09 2023 15:41:34 GMT-0700 (Pacific Daylight Time)","125251","","null","","","","","FIX","","<div class='trialBorder'><div class='vertical-center'><img style='vertical-align:center; align:center' src=img/fixation3.jpg></div></div>","null","","","","","","",""
"html-keyboard-response","54","102466","0.0-6.0-2.16","5efc1d4ee23e2a011ded073e","bdp_sd","Sun Apr 09 2023 15:41:34 GMT-0700 (Pacific Daylight Time)","125251","","1659","","","","","offer","","<div class='trialBorder'><div class='vertical-center'><img style='vertical-align:center; align:center' src=img/fixation3.jpg></div><div class='cl'><div class='vertical-center'>$20<br>for<br>yourself</div></div><div class='cr'><div class='vertical-center'>$55<br>for<br>YEN</div></div><div class='respDivL'><div class='vertical-center'>(E)</div></div><div class='respDivR'><div class='vertical-center'>(I)</div></div></div>","E","$20<br>for<br>yourself","$55<br>for<br>1","0","20","55","1","SELF"
"html-keyboard-response","55","102718","0.0-6.0-3.16","5efc1d4ee23e2a011ded073e","bdp_sd","Sun Apr 09 2023 15:41:34 GMT-0700 (Pacific Daylight Time)","125251","","null","","","","","offerFB","","<div class='trialBorder'><div class='vertical-center'><img style='vertical-align:center; align:center' src=img/fixation3.jpg></div><div class='cl'><div class='vertical-center'><font style='color:orange'>$20<br>for<br>yourself</font></div></div><div class='cr'><div class='vertical-center'>$55<br>for<br>YEN</div></div><div class='respDivL'><div class='vertical-center'><font style='color:orange'>(E)</font></div></div><div class='respDivR'><div class='vertical-center'>(I)</div></div></div>","null","$20<br>for<br>yourself","$55<br>for<br>1","0","20","55","1",""
"html-keyboard-response","56","103219","0.0-6.0-1.17","5efc1d4ee23e2a011ded073e","bdp_sd","Sun Apr 09 2023 15:41:34 GMT-0700 (Pacific Daylight Time)","125251","","null","","","","","FIX","","<div class='trialBorder'><div class='vertical-center'><img style='vertical-align:center; align:center' src=img/fixation3.jpg></div></div>","null","","","","","","",""
"html-keyboard-response","57","104930","0.0-6.0-2.17","5efc1d4ee23e2a011ded073e","bdp_sd","Sun Apr 09 2023 15:41:34 GMT-0700 (Pacific Daylight Time)","125251","","1710","","","","","offer","","<div class='trialBorder'><div class='vertical-center'><img style='vertical-align:center; align:center' src=img/fixation3.jpg></div><div class='cl'><div class='vertical-center'>$41<br>for<br>yourself</div></div><div class='cr'><div class='vertical-center'>$75<br>for<br>KHANH</div></div><div class='respDivL'><div class='vertical-center'>(E)</div></div><div class='respDivR'><div class='vertical-center'>(I)</div></div></div>","E","$41<br>for<br>yourself","$75<br>for<br>3","0","41","75","3","SELF"
"html-keyboard-response","58","105183","0.0-6.0-3.17","5efc1d4ee23e2a011ded073e","bdp_sd","Sun Apr 09 2023 15:41:34 GMT-0700 (Pacific Daylight Time)","125251","","null","","","","","offerFB","","<div class='trialBorder'><div class='vertical-center'><img style='vertical-align:center; align:center' src=img/fixation3.jpg></div><div class='cl'><div class='vertical-center'><font style='color:orange'>$41<br>for<br>yourself</font></div></div><div class='cr'><div class='vertical-center'>$75<br>for<br>KHANH</div></div><div class='respDivL'><div class='vertical-center'><font style='color:orange'>(E)</font></div></div><div class='respDivR'><div class='vertical-center'>(I)</div></div></div>","null","$41<br>for<br>yourself","$75<br>for<br>3","0","41","75","3",""
"html-keyboard-response","59","105685","0.0-6.0-1.18","5efc1d4ee23e2a011ded073e","bdp_sd","Sun Apr 09 2023 15:41:34 GMT-0700 (Pacific Daylight Time)","125251","","null","","","","","FIX","","<div class='trialBorder'><div class='vertical-center'><img style='vertical-align:center; align:center' src=img/fixation3.jpg></div></div>","null","","","","","","",""
"html-keyboard-response","60","107404","0.0-6.0-2.18","5efc1d4ee23e2a011ded073e","bdp_sd","Sun Apr 09 2023 15:41:34 GMT-0700 (Pacific Daylight Time)","125251","","1719","","","","","offer","","<div class='trialBorder'><div class='vertical-center'><img style='vertical-align:center; align:center' src=img/fixation3.jpg></div><div class='cl'><div class='vertical-center'>$35<br>for<br>THAI</div></div><div class='cr'><div class='vertical-center'>$15<br>for<br>yourself</div></div><div class='respDivL'><div class='vertical-center'>(E)</div></div><div class='respDivR'><div class='vertical-center'>(I)</div></div></div>","E","$15<br>for<br>yourself","$35<br>for<br>2","1","15","35","2","OTHER"
"html-keyboard-response","61","107656","0.0-6.0-3.18","5efc1d4ee23e2a011ded073e","bdp_sd","Sun Apr 09 2023 15:41:34 GMT-0700 (Pacific Daylight Time)","125251","","null","","","","","offerFB","","<div class='trialBorder'><div class='vertical-center'><img style='vertical-align:center; align:center' src=img/fixation3.jpg></div><div class='cl'><div class='vertical-center'><font style='color:orange'>$35<br>for<br>THAI</font></div></div><div class='cr'><div class='vertical-center'>$15<br>for<br>yourself</div></div><div class='respDivL'><div class='vertical-center'><font style='color:orange'>(E)</font></div></div><div class='respDivR'><div class='vertical-center'>(I)</div></div></div>","null","$15<br>for<br>yourself","$35<br>for<br>2","1","15","35","2",""
"html-keyboard-response","62","108158","0.0-6.0-1.19","5efc1d4ee23e2a011ded073e","bdp_sd","Sun Apr 09 2023 15:41:34 GMT-0700 (Pacific Daylight Time)","125251","","null","","","","","FIX","","<div class='trialBorder'><div class='vertical-center'><img style='vertical-align:center; align:center' src=img/fixation3.jpg></div></div>","null","","","","","","",""
"html-keyboard-response","63","108988","0.0-6.0-2.19","5efc1d4ee23e2a011ded073e","bdp_sd","Sun Apr 09 2023 15:41:34 GMT-0700 (Pacific Daylight Time)","125251","","828","","","","","offer","","<div class='trialBorder'><div class='vertical-center'><img style='vertical-align:center; align:center' src=img/fixation3.jpg></div><div class='cl'><div class='vertical-center'>$25<br>for<br>yourself</div></div><div class='cr'><div class='vertical-center'>$30<br>for<br>NGAN</div></div><div class='respDivL'><div class='vertical-center'>(E)</div></div><div class='respDivR'><div class='vertical-center'>(I)</div></div></div>","E","$25<br>for<br>yourself","$30<br>for<br>4","0","25","30","4","SELF"
"html-keyboard-response","64","109240","0.0-6.0-3.19","5efc1d4ee23e2a011ded073e","bdp_sd","Sun Apr 09 2023 15:41:34 GMT-0700 (Pacific Daylight Time)","125251","","null","","","","","offerFB","","<div class='trialBorder'><div class='vertical-center'><img style='vertical-align:center; align:center' src=img/fixation3.jpg></div><div class='cl'><div class='vertical-center'><font style='color:orange'>$25<br>for<br>yourself</font></div></div><div class='cr'><div class='vertical-center'>$30<br>for<br>NGAN</div></div><div class='respDivL'><div class='vertical-center'><font style='color:orange'>(E)</font></div></div><div class='respDivR'><div class='vertical-center'>(I)</div></div></div>","null","$25<br>for<br>yourself","$30<br>for<br>4","0","25","30","4",""
"html-keyboard-response","65","109742","0.0-6.0-1.20","5efc1d4ee23e2a011ded073e","bdp_sd","Sun Apr 09 2023 15:41:34 GMT-0700 (Pacific Daylight Time)","125251","","null","","","","","FIX","","<div class='trialBorder'><div class='vertical-center'><img style='vertical-align:center; align:center' src=img/fixation3.jpg></div></div>","null","","","","","","",""
"html-keyboard-response","66","110900","0.0-6.0-2.20","5efc1d4ee23e2a011ded073e","bdp_sd","Sun Apr 09 2023 15:41:34 GMT-0700 (Pacific Daylight Time)","125251","","1158","","","","","offer","","<div class='trialBorder'><div class='vertical-center'><img style='vertical-align:center; align:center' src=img/fixation3.jpg></div><div class='cl'><div class='vertical-center'>$34<br>for<br>yourself</div></div><div class='cr'><div class='vertical-center'>$50<br>for<br>NGAN</div></div><div class='respDivL'><div class='vertical-center'>(E)</div></div><div class='respDivR'><div class='vertical-center'>(I)</div></div></div>","E","$34<br>for<br>yourself","$50<br>for<br>4","0","34","50","4","SELF"
"html-keyboard-response","67","111152","0.0-6.0-3.20","5efc1d4ee23e2a011ded073e","bdp_sd","Sun Apr 09 2023 15:41:34 GMT-0700 (Pacific Daylight Time)","125251","","null","","","","","offerFB","","<div class='trialBorder'><div class='vertical-center'><img style='vertical-align:center; align:center' src=img/fixation3.jpg></div><div class='cl'><div class='vertical-center'><font style='color:orange'>$34<br>for<br>yourself</font></div></div><div class='cr'><div class='vertical-center'>$50<br>for<br>NGAN</div></div><div class='respDivL'><div class='vertical-center'><font style='color:orange'>(E)</font></div></div><div class='respDivR'><div class='vertical-center'>(I)</div></div></div>","null","$34<br>for<br>yourself","$50<br>for<br>4","0","34","50","4",""
"html-keyboard-response","68","111654","0.0-6.0-1.21","5efc1d4ee23e2a011ded073e","bdp_sd","Sun Apr 09 2023 15:41:34 GMT-0700 (Pacific Daylight Time)","125251","","null","","","","","FIX","","<div class='trialBorder'><div class='vertical-center'><img style='vertical-align:center; align:center' src=img/fixation3.jpg></div></div>","null","","","","","","",""
"html-keyboard-response","69","112720","0.0-6.0-2.21","5efc1d4ee23e2a011ded073e","bdp_sd","Sun Apr 09 2023 15:41:34 GMT-0700 (Pacific Daylight Time)","125251","","1066","","","","","offer","","<div class='trialBorder'><div class='vertical-center'><img style='vertical-align:center; align:center' src=img/fixation3.jpg></div><div class='cl'><div class='vertical-center'>$47<br>for<br>yourself</div></div><div class='cr'><div class='vertical-center'>$50<br>for<br>JON</div></div><div class='respDivL'><div class='vertical-center'>(E)</div></div><div class='respDivR'><div class='vertical-center'>(I)</div></div></div>","E","$47<br>for<br>yourself","$50<br>for<br>5","0","47","50","5","SELF"
"html-keyboard-response","70","112972","0.0-6.0-3.21","5efc1d4ee23e2a011ded073e","bdp_sd","Sun Apr 09 2023 15:41:34 GMT-0700 (Pacific Daylight Time)","125251","","null","","","","","offerFB","","<div class='trialBorder'><div class='vertical-center'><img style='vertical-align:center; align:center' src=img/fixation3.jpg></div><div class='cl'><div class='vertical-center'><font style='color:orange'>$47<br>for<br>yourself</font></div></div><div class='cr'><div class='vertical-center'>$50<br>for<br>JON</div></div><div class='respDivL'><div class='vertical-center'><font style='color:orange'>(E)</font></div></div><div class='respDivR'><div class='vertical-center'>(I)</div></div></div>","null","$47<br>for<br>yourself","$50<br>for<br>5","0","47","50","5",""
"html-keyboard-response","71","113473","0.0-6.0-1.22","5efc1d4ee23e2a011ded073e","bdp_sd","Sun Apr 09 2023 15:41:34 GMT-0700 (Pacific Daylight Time)","125251","","null","","","","","FIX","","<div class='trialBorder'><div class='vertical-center'><img style='vertical-align:center; align:center' src=img/fixation3.jpg></div></div>","null","","","","","","",""
"html-keyboard-response","72","115752","0.0-6.0-2.22","5efc1d4ee23e2a011ded073e","bdp_sd","Sun Apr 09 2023 15:41:34 GMT-0700 (Pacific Daylight Time)","125251","","2278","","","","","offer","","<div class='trialBorder'><div class='vertical-center'><img style='vertical-align:center; align:center' src=img/fixation3.jpg></div><div class='cl'><div class='vertical-center'>$30<br>for<br>THAI</div></div><div class='cr'><div class='vertical-center'>$11<br>for<br>yourself</div></div><div class='respDivL'><div class='vertical-center'>(E)</div></div><div class='respDivR'><div class='vertical-center'>(I)</div></div></div>","E","$11<br>for<br>yourself","$30<br>for<br>2","1","11","30","2","OTHER"
"html-keyboard-response","73","116005","0.0-6.0-3.22","5efc1d4ee23e2a011ded073e","bdp_sd","Sun Apr 09 2023 15:41:34 GMT-0700 (Pacific Daylight Time)","125251","","null","","","","","offerFB","","<div class='trialBorder'><div class='vertical-center'><img style='vertical-align:center; align:center' src=img/fixation3.jpg></div><div class='cl'><div class='vertical-center'><font style='color:orange'>$30<br>for<br>THAI</font></div></div><div class='cr'><div class='vertical-center'>$11<br>for<br>yourself</div></div><div class='respDivL'><div class='vertical-center'><font style='color:orange'>(E)</font></div></div><div class='respDivR'><div class='vertical-center'>(I)</div></div></div>","null","$11<br>for<br>yourself","$30<br>for<br>2","1","11","30","2",""
"html-keyboard-response","74","116507","0.0-6.0-1.23","5efc1d4ee23e2a011ded073e","bdp_sd","Sun Apr 09 2023 15:41:34 GMT-0700 (Pacific Daylight Time)","125251","","null","","","","","FIX","","<div class='trialBorder'><div class='vertical-center'><img style='vertical-align:center; align:center' src=img/fixation3.jpg></div></div>","null","","","","","","",""
"html-keyboard-response","75","118103","0.0-6.0-2.23","5efc1d4ee23e2a011ded073e","bdp_sd","Sun Apr 09 2023 15:41:34 GMT-0700 (Pacific Daylight Time)","125251","","1595","","","","","offer","","<div class='trialBorder'><div class='vertical-center'><img style='vertical-align:center; align:center' src=img/fixation3.jpg></div><div class='cl'><div class='vertical-center'>$40<br>for<br>yourself</div></div><div class='cr'><div class='vertical-center'>$55<br>for<br>NGAN</div></div><div class='respDivL'><div class='vertical-center'>(E)</div></div><div class='respDivR'><div class='vertical-center'>(I)</div></div></div>","E","$40<br>for<br>yourself","$55<br>for<br>4","0","40","55","4","SELF"
"html-keyboard-response","76","118355","0.0-6.0-3.23","5efc1d4ee23e2a011ded073e","bdp_sd","Sun Apr 09 2023 15:41:34 GMT-0700 (Pacific Daylight Time)","125251","","null","","","","","offerFB","","<div class='trialBorder'><div class='vertical-center'><img style='vertical-align:center; align:center' src=img/fixation3.jpg></div><div class='cl'><div class='vertical-center'><font style='color:orange'>$40<br>for<br>yourself</font></div></div><div class='cr'><div class='vertical-center'>$55<br>for<br>NGAN</div></div><div class='respDivL'><div class='vertical-center'><font style='color:orange'>(E)</font></div></div><div class='respDivR'><div class='vertical-center'>(I)</div></div></div>","null","$40<br>for<br>yourself","$55<br>for<br>4","0","40","55","4",""
"html-keyboard-response","77","118856","0.0-6.0-1.24","5efc1d4ee23e2a011ded073e","bdp_sd","Sun Apr 09 2023 15:41:34 GMT-0700 (Pacific Daylight Time)","125251","","null","","","","","FIX","","<div class='trialBorder'><div class='vertical-center'><img style='vertical-align:center; align:center' src=img/fixation3.jpg></div></div>","null","","","","","","",""
"html-keyboard-response","78","120227","0.0-6.0-2.24","5efc1d4ee23e2a011ded073e","bdp_sd","Sun Apr 09 2023 15:41:34 GMT-0700 (Pacific Daylight Time)","125251","","1369","","","","","offer","","<div class='trialBorder'><div class='vertical-center'><img style='vertical-align:center; align:center' src=img/fixation3.jpg></div><div class='cl'><div class='vertical-center'>$55<br>for<br>yourself</div></div><div class='cr'><div class='vertical-center'>$75<br>for<br>NGAN</div></div><div class='respDivL'><div class='vertical-center'>(E)</div></div><div class='respDivR'><div class='vertical-center'>(I)</div></div></div>","E","$55<br>for<br>yourself","$75<br>for<br>4","0","55","75","4","SELF"
"html-keyboard-response","79","120478","0.0-6.0-3.24","5efc1d4ee23e2a011ded073e","bdp_sd","Sun Apr 09 2023 15:41:34 GMT-0700 (Pacific Daylight Time)","125251","","null","","","","","offerFB","","<div class='trialBorder'><div class='vertical-center'><img style='vertical-align:center; align:center' src=img/fixation3.jpg></div><div class='cl'><div class='vertical-center'><font style='color:orange'>$55<br>for<br>yourself</font></div></div><div class='cr'><div class='vertical-center'>$75<br>for<br>NGAN</div></div><div class='respDivL'><div class='vertical-center'><font style='color:orange'>(E)</font></div></div><div class='respDivR'><div class='vertical-center'>(I)</div></div></div>","null","$55<br>for<br>yourself","$75<br>for<br>4","0","55","75","4",""
"html-keyboard-response","80","120979","0.0-6.0-1.25","5efc1d4ee23e2a011ded073e","bdp_sd","Sun Apr 09 2023 15:41:34 GMT-0700 (Pacific Daylight Time)","125251","","null","","","","","FIX","","<div class='trialBorder'><div class='vertical-center'><img style='vertical-align:center; align:center' src=img/fixation3.jpg></div></div>","null","","","","","","",""
"html-keyboard-response","81","121556","0.0-6.0-2.25","5efc1d4ee23e2a011ded073e","bdp_sd","Sun Apr 09 2023 15:41:34 GMT-0700 (Pacific Daylight Time)","125251","","576","","","","","offer","","<div class='trialBorder'><div class='vertical-center'><img style='vertical-align:center; align:center' src=img/fixation3.jpg></div><div class='cl'><div class='vertical-center'>$80<br>for<br>yourself</div></div><div class='cr'><div class='vertical-center'>$85<br>for<br>JON</div></div><div class='respDivL'><div class='vertical-center'>(E)</div></div><div class='respDivR'><div class='vertical-center'>(I)</div></div></div>","E","$80<br>for<br>yourself","$85<br>for<br>5","0","80","85","5","SELF"
"html-keyboard-response","82","121808","0.0-6.0-3.25","5efc1d4ee23e2a011ded073e","bdp_sd","Sun Apr 09 2023 15:41:34 GMT-0700 (Pacific Daylight Time)","125251","","null","","","","","offerFB","","<div class='trialBorder'><div class='vertical-center'><img style='vertical-align:center; align:center' src=img/fixation3.jpg></div><div class='cl'><div class='vertical-center'><font style='color:orange'>$80<br>for<br>yourself</font></div></div><div class='cr'><div class='vertical-center'>$85<br>for<br>JON</div></div><div class='respDivL'><div class='vertical-center'><font style='color:orange'>(E)</font></div></div><div class='respDivR'><div class='vertical-center'>(I)</div></div></div>","null","$80<br>for<br>yourself","$85<br>for<br>5","0","80","85","5",""
"html-keyboard-response","83","122310","0.0-6.0-1.26","5efc1d4ee23e2a011ded073e","bdp_sd","Sun Apr 09 2023 15:41:34 GMT-0700 (Pacific Daylight Time)","125251","","null","","","","","FIX","","<div class='trialBorder'><div class='vertical-center'><img style='vertical-align:center; align:center' src=img/fixation3.jpg></div></div>","null","","","","","","",""
"html-keyboard-response","84","123996","0.0-6.0-2.26","5efc1d4ee23e2a011ded073e","bdp_sd","Sun Apr 09 2023 15:41:34 GMT-0700 (Pacific Daylight Time)","125251","","1685","","","","","offer","","<div class='trialBorder'><div class='vertical-center'><img style='vertical-align:center; align:center' src=img/fixation3.jpg></div><div class='cl'><div class='vertical-center'>$80<br>for<br>THAI</div></div><div class='cr'><div class='vertical-center'>$33<br>for<br>yourself</div></div><div class='respDivL'><div class='vertical-center'>(E)</div></div><div class='respDivR'><div class='vertical-center'>(I)</div></div></div>","I","$33<br>for<br>yourself","$80<br>for<br>2","1","33","80","2","SELF"
"html-keyboard-response","85","124249","0.0-6.0-3.26","5efc1d4ee23e2a011ded073e","bdp_sd","Sun Apr 09 2023 15:41:34 GMT-0700 (Pacific Daylight Time)","125251","","null","","","","","offerFB","","<div class='trialBorder'><div class='vertical-center'><img style='vertical-align:center; align:center' src=img/fixation3.jpg></div><div class='cl'><div class='vertical-center'>$80<br>for<br>THAI</div></div><div class='cr'><div class='vertical-center'><font style='color:orange'>$33<br>for<br>yourself</font></div></div><div class='respDivL'><div class='vertical-center'>(E)</div></div><div class='respDivR'><div class='vertical-center'><font style='color:orange'>(I)</font></div></div></div>","null","$33<br>for<br>yourself","$80<br>for<br>2","1","33","80","2",""
"","","","","5efc1d4ee23e2a011ded073e","bdp_sd","Sun Apr 09 2023 15:41:34 GMT-0700 (Pacific Daylight Time)","125251","","","","fullscreenexit","86","124281","fullscreenexit","","","","","","","","","",""
"fullscreen","86","125251","0.0-7.0","5efc1d4ee23e2a011ded073e","bdp_sd","Sun Apr 09 2023 15:41:34 GMT-0700 (Pacific Daylight Time)","125251","","","","","","","","true","","","","","","","","",""
"html-keyboard-response","87","125753","0.0-8.0","","","","","","null","","","","","","","","null","","","","","","",""
