"trial_type","trial_index","time_elapsed","internal_node_id","subject_id","task","startTime","totalTime","view_history","rt","responses","event","trial","time","trialtype","success","stimulus","key_press","selfOffer","otherOffer","otherLeft","selfAmt","otherAmt","otherDist","chosen"
"pavlovia","0","2","0.0-0.0","5d42abf3c9acd700010c41df","bdp_sd","Tue Mar 28 2023 15:05:10 GMT-0500 (Central Daylight Time)","169827","","","","","","","","","","","","","","","","",""
"instructions","1","10165","0.0-1.0","5d42abf3c9acd700010c41df","bdp_sd","Tue Mar 28 2023 15:05:10 GMT-0500 (Central Daylight Time)","169827","[{""page_index"":0,""viewing_time"":10162}]","10163","","","","","","","","","","","","","","",""
"survey-text","2","107681","0.0-2.0","5d42abf3c9acd700010c41df","bdp_sd","Tue Mar 28 2023 15:05:10 GMT-0500 (Central Daylight Time)","169827","","97515","{""Q0"":""Pam C"",""Q1"":""BRANT S"",""Q2"":""ALYSSA P"",""Q3"":""JOE A"",""Q4"":""Johey c""}","","","","","","","","","","","","","",""
"","","","","5d42abf3c9acd700010c41df","bdp_sd","Tue Mar 28 2023 15:05:10 GMT-0500 (Central Daylight Time)","169827","","","","fullscreenenter","3","108980","fullscreenenter","","","","","","","","","",""
"fullscreen","3","109973","0.0-3.0","5d42abf3c9acd700010c41df","bdp_sd","Tue Mar 28 2023 15:05:10 GMT-0500 (Central Daylight Time)","169827","","","","","","","","true","","","","","","","","",""
"instructions","4","119266","0.0-5.0","5d42abf3c9acd700010c41df","bdp_sd","Tue Mar 28 2023 15:05:10 GMT-0500 (Central Daylight Time)","169827","[{""page_index"":0,""viewing_time"":4232},{""page_index"":1,""viewing_time"":3685},{""page_index"":2,""viewing_time"":1375}]","9292","","","","","","","","","","","","","","",""
"html-keyboard-response","5","119768","0.0-6.0-1.0","5d42abf3c9acd700010c41df","bdp_sd","Tue Mar 28 2023 15:05:10 GMT-0500 (Central Daylight Time)","169827","","null","","","","","FIX","","<div class='trialBorder'><div class='vertical-center'><img style='vertical-align:center; align:center' src=img/fixation3.jpg></div></div>","null","","","","","","",""
"html-keyboard-response","6","122842","0.0-6.0-2.0","5d42abf3c9acd700010c41df","bdp_sd","Tue Mar 28 2023 15:05:10 GMT-0500 (Central Daylight Time)","169827","","3070","","","","","offer","","<div class='trialBorder'><div class='vertical-center'><img style='vertical-align:center; align:center' src=img/fixation3.jpg></div><div class='cl'><div class='vertical-center'>$80<br>for<br>BRANT S</div></div><div class='cr'><div class='vertical-center'>$33<br>for<br>yourself</div></div><div class='respDivL'><div class='vertical-center'>(E)</div></div><div class='respDivR'><div class='vertical-center'>(I)</div></div></div>","E","$33<br>for<br>yourself","$80<br>for<br>2","1","33","80","2","OTHER"
"html-keyboard-response","7","123095","0.0-6.0-3.0","5d42abf3c9acd700010c41df","bdp_sd","Tue Mar 28 2023 15:05:10 GMT-0500 (Central Daylight Time)","169827","","null","","","","","offerFB","","<div class='trialBorder'><div class='vertical-center'><img style='vertical-align:center; align:center' src=img/fixation3.jpg></div><div class='cl'><div class='vertical-center'><font style='color:orange'>$80<br>for<br>BRANT S</font></div></div><div class='cr'><div class='vertical-center'>$33<br>for<br>yourself</div></div><div class='respDivL'><div class='vertical-center'><font style='color:orange'>(E)</font></div></div><div class='respDivR'><div class='vertical-center'>(I)</div></div></div>","null","$33<br>for<br>yourself","$80<br>for<br>2","1","33","80","2",""
"html-keyboard-response","8","123596","0.0-6.0-1.1","5d42abf3c9acd700010c41df","bdp_sd","Tue Mar 28 2023 15:05:10 GMT-0500 (Central Daylight Time)","169827","","null","","","","","FIX","","<div class='trialBorder'><div class='vertical-center'><img style='vertical-align:center; align:center' src=img/fixation3.jpg></div></div>","null","","","","","","",""
"html-keyboard-response","9","125751","0.0-6.0-2.1","5d42abf3c9acd700010c41df","bdp_sd","Tue Mar 28 2023 15:05:10 GMT-0500 (Central Daylight Time)","169827","","2155","","","","","offer","","<div class='trialBorder'><div class='vertical-center'><img style='vertical-align:center; align:center' src=img/fixation3.jpg></div><div class='cl'><div class='vertical-center'>$60<br>for<br>JOE A</div></div><div class='cr'><div class='vertical-center'>$49<br>for<br>yourself</div></div><div class='respDivL'><div class='vertical-center'>(E)</div></div><div class='respDivR'><div class='vertical-center'>(I)</div></div></div>","I","$49<br>for<br>yourself","$60<br>for<br>4","1","49","60","4","SELF"
"html-keyboard-response","10","126003","0.0-6.0-3.1","5d42abf3c9acd700010c41df","bdp_sd","Tue Mar 28 2023 15:05:10 GMT-0500 (Central Daylight Time)","169827","","null","","","","","offerFB","","<div class='trialBorder'><div class='vertical-center'><img style='vertical-align:center; align:center' src=img/fixation3.jpg></div><div class='cl'><div class='vertical-center'>$60<br>for<br>JOE A</div></div><div class='cr'><div class='vertical-center'><font style='color:orange'>$49<br>for<br>yourself</font></div></div><div class='respDivL'><div class='vertical-center'>(E)</div></div><div class='respDivR'><div class='vertical-center'><font style='color:orange'>(I)</font></div></div></div>","null","$49<br>for<br>yourself","$60<br>for<br>4","1","49","60","4",""
"html-keyboard-response","11","126504","0.0-6.0-1.2","5d42abf3c9acd700010c41df","bdp_sd","Tue Mar 28 2023 15:05:10 GMT-0500 (Central Daylight Time)","169827","","null","","","","","FIX","","<div class='trialBorder'><div class='vertical-center'><img style='vertical-align:center; align:center' src=img/fixation3.jpg></div></div>","null","","","","","","",""
"html-keyboard-response","12","128012","0.0-6.0-2.2","5d42abf3c9acd700010c41df","bdp_sd","Tue Mar 28 2023 15:05:10 GMT-0500 (Central Daylight Time)","169827","","1508","","","","","offer","","<div class='trialBorder'><div class='vertical-center'><img style='vertical-align:center; align:center' src=img/fixation3.jpg></div><div class='cl'><div class='vertical-center'>$25<br>for<br>JOE A</div></div><div class='cr'><div class='vertical-center'>$19<br>for<br>yourself</div></div><div class='respDivL'><div class='vertical-center'>(E)</div></div><div class='respDivR'><div class='vertical-center'>(I)</div></div></div>","I","$19<br>for<br>yourself","$25<br>for<br>4","1","19","25","4","SELF"
"html-keyboard-response","13","128263","0.0-6.0-3.2","5d42abf3c9acd700010c41df","bdp_sd","Tue Mar 28 2023 15:05:10 GMT-0500 (Central Daylight Time)","169827","","null","","","","","offerFB","","<div class='trialBorder'><div class='vertical-center'><img style='vertical-align:center; align:center' src=img/fixation3.jpg></div><div class='cl'><div class='vertical-center'>$25<br>for<br>JOE A</div></div><div class='cr'><div class='vertical-center'><font style='color:orange'>$19<br>for<br>yourself</font></div></div><div class='respDivL'><div class='vertical-center'>(E)</div></div><div class='respDivR'><div class='vertical-center'><font style='color:orange'>(I)</font></div></div></div>","null","$19<br>for<br>yourself","$25<br>for<br>4","1","19","25","4",""
"html-keyboard-response","14","128764","0.0-6.0-1.3","5d42abf3c9acd700010c41df","bdp_sd","Tue Mar 28 2023 15:05:10 GMT-0500 (Central Daylight Time)","169827","","null","","","","","FIX","","<div class='trialBorder'><div class='vertical-center'><img style='vertical-align:center; align:center' src=img/fixation3.jpg></div></div>","null","","","","","","",""
"html-keyboard-response","15","129975","0.0-6.0-2.3","5d42abf3c9acd700010c41df","bdp_sd","Tue Mar 28 2023 15:05:10 GMT-0500 (Central Daylight Time)","169827","","1210","","","","","offer","","<div class='trialBorder'><div class='vertical-center'><img style='vertical-align:center; align:center' src=img/fixation3.jpg></div><div class='cl'><div class='vertical-center'>$35<br>for<br>Johey c</div></div><div class='cr'><div class='vertical-center'>$34<br>for<br>yourself</div></div><div class='respDivL'><div class='vertical-center'>(E)</div></div><div class='respDivR'><div class='vertical-center'>(I)</div></div></div>","E","$34<br>for<br>yourself","$35<br>for<br>5","1","34","35","5","OTHER"
"html-keyboard-response","16","130228","0.0-6.0-3.3","5d42abf3c9acd700010c41df","bdp_sd","Tue Mar 28 2023 15:05:10 GMT-0500 (Central Daylight Time)","169827","","null","","","","","offerFB","","<div class='trialBorder'><div class='vertical-center'><img style='vertical-align:center; align:center' src=img/fixation3.jpg></div><div class='cl'><div class='vertical-center'><font style='color:orange'>$35<br>for<br>Johey c</font></div></div><div class='cr'><div class='vertical-center'>$34<br>for<br>yourself</div></div><div class='respDivL'><div class='vertical-center'><font style='color:orange'>(E)</font></div></div><div class='respDivR'><div class='vertical-center'>(I)</div></div></div>","null","$34<br>for<br>yourself","$35<br>for<br>5","1","34","35","5",""
"html-keyboard-response","17","130731","0.0-6.0-1.4","5d42abf3c9acd700010c41df","bdp_sd","Tue Mar 28 2023 15:05:10 GMT-0500 (Central Daylight Time)","169827","","null","","","","","FIX","","<div class='trialBorder'><div class='vertical-center'><img style='vertical-align:center; align:center' src=img/fixation3.jpg></div></div>","null","","","","","","",""
"html-keyboard-response","18","131884","0.0-6.0-2.4","5d42abf3c9acd700010c41df","bdp_sd","Tue Mar 28 2023 15:05:10 GMT-0500 (Central Daylight Time)","169827","","1151","","","","","offer","","<div class='trialBorder'><div class='vertical-center'><img style='vertical-align:center; align:center' src=img/fixation3.jpg></div><div class='cl'><div class='vertical-center'>$34<br>for<br>yourself</div></div><div class='cr'><div class='vertical-center'>$50<br>for<br>JOE A</div></div><div class='respDivL'><div class='vertical-center'>(E)</div></div><div class='respDivR'><div class='vertical-center'>(I)</div></div></div>","I","$34<br>for<br>yourself","$50<br>for<br>4","0","34","50","4","OTHER"
"html-keyboard-response","19","132135","0.0-6.0-3.4","5d42abf3c9acd700010c41df","bdp_sd","Tue Mar 28 2023 15:05:10 GMT-0500 (Central Daylight Time)","169827","","null","","","","","offerFB","","<div class='trialBorder'><div class='vertical-center'><img style='vertical-align:center; align:center' src=img/fixation3.jpg></div><div class='cl'><div class='vertical-center'>$34<br>for<br>yourself</div></div><div class='cr'><div class='vertical-center'><font style='color:orange'>$50<br>for<br>JOE A</font></div></div><div class='respDivL'><div class='vertical-center'>(E)</div></div><div class='respDivR'><div class='vertical-center'><font style='color:orange'>(I)</font></div></div></div>","null","$34<br>for<br>yourself","$50<br>for<br>4","0","34","50","4",""
"html-keyboard-response","20","132637","0.0-6.0-1.5","5d42abf3c9acd700010c41df","bdp_sd","Tue Mar 28 2023 15:05:10 GMT-0500 (Central Daylight Time)","169827","","null","","","","","FIX","","<div class='trialBorder'><div class='vertical-center'><img style='vertical-align:center; align:center' src=img/fixation3.jpg></div></div>","null","","","","","","",""
"html-keyboard-response","21","133526","0.0-6.0-2.5","5d42abf3c9acd700010c41df","bdp_sd","Tue Mar 28 2023 15:05:10 GMT-0500 (Central Daylight Time)","169827","","889","","","","","offer","","<div class='trialBorder'><div class='vertical-center'><img style='vertical-align:center; align:center' src=img/fixation3.jpg></div><div class='cl'><div class='vertical-center'>$20<br>for<br>yourself</div></div><div class='cr'><div class='vertical-center'>$55<br>for<br>Pam C</div></div><div class='respDivL'><div class='vertical-center'>(E)</div></div><div class='respDivR'><div class='vertical-center'>(I)</div></div></div>","I","$20<br>for<br>yourself","$55<br>for<br>1","0","20","55","1","OTHER"
"html-keyboard-response","22","133778","0.0-6.0-3.5","5d42abf3c9acd700010c41df","bdp_sd","Tue Mar 28 2023 15:05:10 GMT-0500 (Central Daylight Time)","169827","","null","","","","","offerFB","","<div class='trialBorder'><div class='vertical-center'><img style='vertical-align:center; align:center' src=img/fixation3.jpg></div><div class='cl'><div class='vertical-center'>$20<br>for<br>yourself</div></div><div class='cr'><div class='vertical-center'><font style='color:orange'>$55<br>for<br>Pam C</font></div></div><div class='respDivL'><div class='vertical-center'>(E)</div></div><div class='respDivR'><div class='vertical-center'><font style='color:orange'>(I)</font></div></div></div>","null","$20<br>for<br>yourself","$55<br>for<br>1","0","20","55","1",""
"html-keyboard-response","23","134280","0.0-6.0-1.6","5d42abf3c9acd700010c41df","bdp_sd","Tue Mar 28 2023 15:05:10 GMT-0500 (Central Daylight Time)","169827","","null","","","","","FIX","","<div class='trialBorder'><div class='vertical-center'><img style='vertical-align:center; align:center' src=img/fixation3.jpg></div></div>","null","","","","","","",""
"html-keyboard-response","24","135015","0.0-6.0-2.6","5d42abf3c9acd700010c41df","bdp_sd","Tue Mar 28 2023 15:05:10 GMT-0500 (Central Daylight Time)","169827","","735","","","","","offer","","<div class='trialBorder'><div class='vertical-center'><img style='vertical-align:center; align:center' src=img/fixation3.jpg></div><div class='cl'><div class='vertical-center'>$11<br>for<br>yourself</div></div><div class='cr'><div class='vertical-center'>$30<br>for<br>BRANT S</div></div><div class='respDivL'><div class='vertical-center'>(E)</div></div><div class='respDivR'><div class='vertical-center'>(I)</div></div></div>","I","$11<br>for<br>yourself","$30<br>for<br>2","0","11","30","2","OTHER"
"html-keyboard-response","25","135267","0.0-6.0-3.6","5d42abf3c9acd700010c41df","bdp_sd","Tue Mar 28 2023 15:05:10 GMT-0500 (Central Daylight Time)","169827","","null","","","","","offerFB","","<div class='trialBorder'><div class='vertical-center'><img style='vertical-align:center; align:center' src=img/fixation3.jpg></div><div class='cl'><div class='vertical-center'>$11<br>for<br>yourself</div></div><div class='cr'><div class='vertical-center'><font style='color:orange'>$30<br>for<br>BRANT S</font></div></div><div class='respDivL'><div class='vertical-center'>(E)</div></div><div class='respDivR'><div class='vertical-center'><font style='color:orange'>(I)</font></div></div></div>","null","$11<br>for<br>yourself","$30<br>for<br>2","0","11","30","2",""
"html-keyboard-response","26","135769","0.0-6.0-1.7","5d42abf3c9acd700010c41df","bdp_sd","Tue Mar 28 2023 15:05:10 GMT-0500 (Central Daylight Time)","169827","","null","","","","","FIX","","<div class='trialBorder'><div class='vertical-center'><img style='vertical-align:center; align:center' src=img/fixation3.jpg></div></div>","null","","","","","","",""
"html-keyboard-response","27","136686","0.0-6.0-2.7","5d42abf3c9acd700010c41df","bdp_sd","Tue Mar 28 2023 15:05:10 GMT-0500 (Central Daylight Time)","169827","","915","","","","","offer","","<div class='trialBorder'><div class='vertical-center'><img style='vertical-align:center; align:center' src=img/fixation3.jpg></div><div class='cl'><div class='vertical-center'>$67<br>for<br>yourself</div></div><div class='cr'><div class='vertical-center'>$75<br>for<br>Johey c</div></div><div class='respDivL'><div class='vertical-center'>(E)</div></div><div class='respDivR'><div class='vertical-center'>(I)</div></div></div>","I","$67<br>for<br>yourself","$75<br>for<br>5","0","67","75","5","OTHER"
"html-keyboard-response","28","136938","0.0-6.0-3.7","5d42abf3c9acd700010c41df","bdp_sd","Tue Mar 28 2023 15:05:10 GMT-0500 (Central Daylight Time)","169827","","null","","","","","offerFB","","<div class='trialBorder'><div class='vertical-center'><img style='vertical-align:center; align:center' src=img/fixation3.jpg></div><div class='cl'><div class='vertical-center'>$67<br>for<br>yourself</div></div><div class='cr'><div class='vertical-center'><font style='color:orange'>$75<br>for<br>Johey c</font></div></div><div class='respDivL'><div class='vertical-center'>(E)</div></div><div class='respDivR'><div class='vertical-center'><font style='color:orange'>(I)</font></div></div></div>","null","$67<br>for<br>yourself","$75<br>for<br>5","0","67","75","5",""
"html-keyboard-response","29","137439","0.0-6.0-1.8","5d42abf3c9acd700010c41df","bdp_sd","Tue Mar 28 2023 15:05:10 GMT-0500 (Central Daylight Time)","169827","","null","","","","","FIX","","<div class='trialBorder'><div class='vertical-center'><img style='vertical-align:center; align:center' src=img/fixation3.jpg></div></div>","null","","","","","","",""
"html-keyboard-response","30","137931","0.0-6.0-2.8","5d42abf3c9acd700010c41df","bdp_sd","Tue Mar 28 2023 15:05:10 GMT-0500 (Central Daylight Time)","169827","","490","","","","","offer","","<div class='trialBorder'><div class='vertical-center'><img style='vertical-align:center; align:center' src=img/fixation3.jpg></div><div class='cl'><div class='vertical-center'>$28<br>for<br>yourself</div></div><div class='cr'><div class='vertical-center'>$30<br>for<br>Johey c</div></div><div class='respDivL'><div class='vertical-center'>(E)</div></div><div class='respDivR'><div class='vertical-center'>(I)</div></div></div>","I","$28<br>for<br>yourself","$30<br>for<br>5","0","28","30","5","OTHER"
"html-keyboard-response","31","138183","0.0-6.0-3.8","5d42abf3c9acd700010c41df","bdp_sd","Tue Mar 28 2023 15:05:10 GMT-0500 (Central Daylight Time)","169827","","null","","","","","offerFB","","<div class='trialBorder'><div class='vertical-center'><img style='vertical-align:center; align:center' src=img/fixation3.jpg></div><div class='cl'><div class='vertical-center'>$28<br>for<br>yourself</div></div><div class='cr'><div class='vertical-center'><font style='color:orange'>$30<br>for<br>Johey c</font></div></div><div class='respDivL'><div class='vertical-center'>(E)</div></div><div class='respDivR'><div class='vertical-center'><font style='color:orange'>(I)</font></div></div></div>","null","$28<br>for<br>yourself","$30<br>for<br>5","0","28","30","5",""
"html-keyboard-response","32","138685","0.0-6.0-1.9","5d42abf3c9acd700010c41df","bdp_sd","Tue Mar 28 2023 15:05:10 GMT-0500 (Central Daylight Time)","169827","","null","","","","","FIX","","<div class='trialBorder'><div class='vertical-center'><img style='vertical-align:center; align:center' src=img/fixation3.jpg></div></div>","null","","","","","","",""
"html-keyboard-response","33","139582","0.0-6.0-2.9","5d42abf3c9acd700010c41df","bdp_sd","Tue Mar 28 2023 15:05:10 GMT-0500 (Central Daylight Time)","169827","","896","","","","","offer","","<div class='trialBorder'><div class='vertical-center'><img style='vertical-align:center; align:center' src=img/fixation3.jpg></div><div class='cl'><div class='vertical-center'>$55<br>for<br>yourself</div></div><div class='cr'><div class='vertical-center'>$75<br>for<br>JOE A</div></div><div class='respDivL'><div class='vertical-center'>(E)</div></div><div class='respDivR'><div class='vertical-center'>(I)</div></div></div>","E","$55<br>for<br>yourself","$75<br>for<br>4","0","55","75","4","SELF"
"html-keyboard-response","34","139833","0.0-6.0-3.9","5d42abf3c9acd700010c41df","bdp_sd","Tue Mar 28 2023 15:05:10 GMT-0500 (Central Daylight Time)","169827","","null","","","","","offerFB","","<div class='trialBorder'><div class='vertical-center'><img style='vertical-align:center; align:center' src=img/fixation3.jpg></div><div class='cl'><div class='vertical-center'><font style='color:orange'>$55<br>for<br>yourself</font></div></div><div class='cr'><div class='vertical-center'>$75<br>for<br>JOE A</div></div><div class='respDivL'><div class='vertical-center'><font style='color:orange'>(E)</font></div></div><div class='respDivR'><div class='vertical-center'>(I)</div></div></div>","null","$55<br>for<br>yourself","$75<br>for<br>4","0","55","75","4",""
"html-keyboard-response","35","140334","0.0-6.0-1.10","5d42abf3c9acd700010c41df","bdp_sd","Tue Mar 28 2023 15:05:10 GMT-0500 (Central Daylight Time)","169827","","null","","","","","FIX","","<div class='trialBorder'><div class='vertical-center'><img style='vertical-align:center; align:center' src=img/fixation3.jpg></div></div>","null","","","","","","",""
"html-keyboard-response","36","141777","0.0-6.0-2.10","5d42abf3c9acd700010c41df","bdp_sd","Tue Mar 28 2023 15:05:10 GMT-0500 (Central Daylight Time)","169827","","1442","","","","","offer","","<div class='trialBorder'><div class='vertical-center'><img style='vertical-align:center; align:center' src=img/fixation3.jpg></div><div class='cl'><div class='vertical-center'>$60<br>for<br>Johey c</div></div><div class='cr'><div class='vertical-center'>$54<br>for<br>yourself</div></div><div class='respDivL'><div class='vertical-center'>(E)</div></div><div class='respDivR'><div class='vertical-center'>(I)</div></div></div>","E","$54<br>for<br>yourself","$60<br>for<br>5","1","54","60","5","OTHER"
"html-keyboard-response","37","142028","0.0-6.0-3.10","5d42abf3c9acd700010c41df","bdp_sd","Tue Mar 28 2023 15:05:10 GMT-0500 (Central Daylight Time)","169827","","null","","","","","offerFB","","<div class='trialBorder'><div class='vertical-center'><img style='vertical-align:center; align:center' src=img/fixation3.jpg></div><div class='cl'><div class='vertical-center'><font style='color:orange'>$60<br>for<br>Johey c</font></div></div><div class='cr'><div class='vertical-center'>$54<br>for<br>yourself</div></div><div class='respDivL'><div class='vertical-center'><font style='color:orange'>(E)</font></div></div><div class='respDivR'><div class='vertical-center'>(I)</div></div></div>","null","$54<br>for<br>yourself","$60<br>for<br>5","1","54","60","5",""
"html-keyboard-response","38","142530","0.0-6.0-1.11","5d42abf3c9acd700010c41df","bdp_sd","Tue Mar 28 2023 15:05:10 GMT-0500 (Central Daylight Time)","169827","","null","","","","","FIX","","<div class='trialBorder'><div class='vertical-center'><img style='vertical-align:center; align:center' src=img/fixation3.jpg></div></div>","null","","","","","","",""
"html-keyboard-response","39","143342","0.0-6.0-2.11","5d42abf3c9acd700010c41df","bdp_sd","Tue Mar 28 2023 15:05:10 GMT-0500 (Central Daylight Time)","169827","","810","","","","","offer","","<div class='trialBorder'><div class='vertical-center'><img style='vertical-align:center; align:center' src=img/fixation3.jpg></div><div class='cl'><div class='vertical-center'>$55<br>for<br>Johey c</div></div><div class='cr'><div class='vertical-center'>$54<br>for<br>yourself</div></div><div class='respDivL'><div class='vertical-center'>(E)</div></div><div class='respDivR'><div class='vertical-center'>(I)</div></div></div>","E","$54<br>for<br>yourself","$55<br>for<br>5","1","54","55","5","OTHER"
"html-keyboard-response","40","143594","0.0-6.0-3.11","5d42abf3c9acd700010c41df","bdp_sd","Tue Mar 28 2023 15:05:10 GMT-0500 (Central Daylight Time)","169827","","null","","","","","offerFB","","<div class='trialBorder'><div class='vertical-center'><img style='vertical-align:center; align:center' src=img/fixation3.jpg></div><div class='cl'><div class='vertical-center'><font style='color:orange'>$55<br>for<br>Johey c</font></div></div><div class='cr'><div class='vertical-center'>$54<br>for<br>yourself</div></div><div class='respDivL'><div class='vertical-center'><font style='color:orange'>(E)</font></div></div><div class='respDivR'><div class='vertical-center'>(I)</div></div></div>","null","$54<br>for<br>yourself","$55<br>for<br>5","1","54","55","5",""
"html-keyboard-response","41","144095","0.0-6.0-1.12","5d42abf3c9acd700010c41df","bdp_sd","Tue Mar 28 2023 15:05:10 GMT-0500 (Central Daylight Time)","169827","","null","","","","","FIX","","<div class='trialBorder'><div class='vertical-center'><img style='vertical-align:center; align:center' src=img/fixation3.jpg></div></div>","null","","","","","","",""
"html-keyboard-response","42","144942","0.0-6.0-2.12","5d42abf3c9acd700010c41df","bdp_sd","Tue Mar 28 2023 15:05:10 GMT-0500 (Central Daylight Time)","169827","","846","","","","","offer","","<div class='trialBorder'><div class='vertical-center'><img style='vertical-align:center; align:center' src=img/fixation3.jpg></div><div class='cl'><div class='vertical-center'>$31<br>for<br>yourself</div></div><div class='cr'><div class='vertical-center'>$85<br>for<br>Pam C</div></div><div class='respDivL'><div class='vertical-center'>(E)</div></div><div class='respDivR'><div class='vertical-center'>(I)</div></div></div>","I","$31<br>for<br>yourself","$85<br>for<br>1","0","31","85","1","OTHER"
"html-keyboard-response","43","145193","0.0-6.0-3.12","5d42abf3c9acd700010c41df","bdp_sd","Tue Mar 28 2023 15:05:10 GMT-0500 (Central Daylight Time)","169827","","null","","","","","offerFB","","<div class='trialBorder'><div class='vertical-center'><img style='vertical-align:center; align:center' src=img/fixation3.jpg></div><div class='cl'><div class='vertical-center'>$31<br>for<br>yourself</div></div><div class='cr'><div class='vertical-center'><font style='color:orange'>$85<br>for<br>Pam C</font></div></div><div class='respDivL'><div class='vertical-center'>(E)</div></div><div class='respDivR'><div class='vertical-center'><font style='color:orange'>(I)</font></div></div></div>","null","$31<br>for<br>yourself","$85<br>for<br>1","0","31","85","1",""
"html-keyboard-response","44","145695","0.0-6.0-1.13","5d42abf3c9acd700010c41df","bdp_sd","Tue Mar 28 2023 15:05:10 GMT-0500 (Central Daylight Time)","169827","","null","","","","","FIX","","<div class='trialBorder'><div class='vertical-center'><img style='vertical-align:center; align:center' src=img/fixation3.jpg></div></div>","null","","","","","","",""
"html-keyboard-response","45","147046","0.0-6.0-2.13","5d42abf3c9acd700010c41df","bdp_sd","Tue Mar 28 2023 15:05:10 GMT-0500 (Central Daylight Time)","169827","","1350","","","","","offer","","<div class='trialBorder'><div class='vertical-center'><img style='vertical-align:center; align:center' src=img/fixation3.jpg></div><div class='cl'><div class='vertical-center'>$85<br>for<br>Johey c</div></div><div class='cr'><div class='vertical-center'>$80<br>for<br>yourself</div></div><div class='respDivL'><div class='vertical-center'>(E)</div></div><div class='respDivR'><div class='vertical-center'>(I)</div></div></div>","E","$80<br>for<br>yourself","$85<br>for<br>5","1","80","85","5","OTHER"
"html-keyboard-response","46","147298","0.0-6.0-3.13","5d42abf3c9acd700010c41df","bdp_sd","Tue Mar 28 2023 15:05:10 GMT-0500 (Central Daylight Time)","169827","","null","","","","","offerFB","","<div class='trialBorder'><div class='vertical-center'><img style='vertical-align:center; align:center' src=img/fixation3.jpg></div><div class='cl'><div class='vertical-center'><font style='color:orange'>$85<br>for<br>Johey c</font></div></div><div class='cr'><div class='vertical-center'>$80<br>for<br>yourself</div></div><div class='respDivL'><div class='vertical-center'><font style='color:orange'>(E)</font></div></div><div class='respDivR'><div class='vertical-center'>(I)</div></div></div>","null","$80<br>for<br>yourself","$85<br>for<br>5","1","80","85","5",""
"html-keyboard-response","47","147800","0.0-6.0-1.14","5d42abf3c9acd700010c41df","bdp_sd","Tue Mar 28 2023 15:05:10 GMT-0500 (Central Daylight Time)","169827","","null","","","","","FIX","","<div class='trialBorder'><div class='vertical-center'><img style='vertical-align:center; align:center' src=img/fixation3.jpg></div></div>","null","","","","","","",""
"html-keyboard-response","48","148584","0.0-6.0-2.14","5d42abf3c9acd700010c41df","bdp_sd","Tue Mar 28 2023 15:05:10 GMT-0500 (Central Daylight Time)","169827","","783","","","","","offer","","<div class='trialBorder'><div class='vertical-center'><img style='vertical-align:center; align:center' src=img/fixation3.jpg></div><div class='cl'><div class='vertical-center'>$35<br>for<br>ALYSSA P</div></div><div class='cr'><div class='vertical-center'>$24<br>for<br>yourself</div></div><div class='respDivL'><div class='vertical-center'>(E)</div></div><div class='respDivR'><div class='vertical-center'>(I)</div></div></div>","E","$24<br>for<br>yourself","$35<br>for<br>3","1","24","35","3","OTHER"
"html-keyboard-response","49","148836","0.0-6.0-3.14","5d42abf3c9acd700010c41df","bdp_sd","Tue Mar 28 2023 15:05:10 GMT-0500 (Central Daylight Time)","169827","","null","","","","","offerFB","","<div class='trialBorder'><div class='vertical-center'><img style='vertical-align:center; align:center' src=img/fixation3.jpg></div><div class='cl'><div class='vertical-center'><font style='color:orange'>$35<br>for<br>ALYSSA P</font></div></div><div class='cr'><div class='vertical-center'>$24<br>for<br>yourself</div></div><div class='respDivL'><div class='vertical-center'><font style='color:orange'>(E)</font></div></div><div class='respDivR'><div class='vertical-center'>(I)</div></div></div>","null","$24<br>for<br>yourself","$35<br>for<br>3","1","24","35","3",""
"html-keyboard-response","50","149337","0.0-6.0-1.15","5d42abf3c9acd700010c41df","bdp_sd","Tue Mar 28 2023 15:05:10 GMT-0500 (Central Daylight Time)","169827","","null","","","","","FIX","","<div class='trialBorder'><div class='vertical-center'><img style='vertical-align:center; align:center' src=img/fixation3.jpg></div></div>","null","","","","","","",""
"html-keyboard-response","51","150747","0.0-6.0-2.15","5d42abf3c9acd700010c41df","bdp_sd","Tue Mar 28 2023 15:05:10 GMT-0500 (Central Daylight Time)","169827","","1409","","","","","offer","","<div class='trialBorder'><div class='vertical-center'><img style='vertical-align:center; align:center' src=img/fixation3.jpg></div><div class='cl'><div class='vertical-center'>$25<br>for<br>Johey c</div></div><div class='cr'><div class='vertical-center'>$22<br>for<br>yourself</div></div><div class='respDivL'><div class='vertical-center'>(E)</div></div><div class='respDivR'><div class='vertical-center'>(I)</div></div></div>","E","$22<br>for<br>yourself","$25<br>for<br>5","1","22","25","5","OTHER"
"html-keyboard-response","52","150999","0.0-6.0-3.15","5d42abf3c9acd700010c41df","bdp_sd","Tue Mar 28 2023 15:05:10 GMT-0500 (Central Daylight Time)","169827","","null","","","","","offerFB","","<div class='trialBorder'><div class='vertical-center'><img style='vertical-align:center; align:center' src=img/fixation3.jpg></div><div class='cl'><div class='vertical-center'><font style='color:orange'>$25<br>for<br>Johey c</font></div></div><div class='cr'><div class='vertical-center'>$22<br>for<br>yourself</div></div><div class='respDivL'><div class='vertical-center'><font style='color:orange'>(E)</font></div></div><div class='respDivR'><div class='vertical-center'>(I)</div></div></div>","null","$22<br>for<br>yourself","$25<br>for<br>5","1","22","25","5",""
"html-keyboard-response","53","151502","0.0-6.0-1.16","5d42abf3c9acd700010c41df","bdp_sd","Tue Mar 28 2023 15:05:10 GMT-0500 (Central Daylight Time)","169827","","null","","","","","FIX","","<div class='trialBorder'><div class='vertical-center'><img style='vertical-align:center; align:center' src=img/fixation3.jpg></div></div>","null","","","","","","",""
"html-keyboard-response","54","152313","0.0-6.0-2.16","5d42abf3c9acd700010c41df","bdp_sd","Tue Mar 28 2023 15:05:10 GMT-0500 (Central Daylight Time)","169827","","810","","","","","offer","","<div class='trialBorder'><div class='vertical-center'><img style='vertical-align:center; align:center' src=img/fixation3.jpg></div><div class='cl'><div class='vertical-center'>$75<br>for<br>ALYSSA P</div></div><div class='cr'><div class='vertical-center'>$41<br>for<br>yourself</div></div><div class='respDivL'><div class='vertical-center'>(E)</div></div><div class='respDivR'><div class='vertical-center'>(I)</div></div></div>","E","$41<br>for<br>yourself","$75<br>for<br>3","1","41","75","3","OTHER"
"html-keyboard-response","55","152566","0.0-6.0-3.16","5d42abf3c9acd700010c41df","bdp_sd","Tue Mar 28 2023 15:05:10 GMT-0500 (Central Daylight Time)","169827","","null","","","","","offerFB","","<div class='trialBorder'><div class='vertical-center'><img style='vertical-align:center; align:center' src=img/fixation3.jpg></div><div class='cl'><div class='vertical-center'><font style='color:orange'>$75<br>for<br>ALYSSA P</font></div></div><div class='cr'><div class='vertical-center'>$41<br>for<br>yourself</div></div><div class='respDivL'><div class='vertical-center'><font style='color:orange'>(E)</font></div></div><div class='respDivR'><div class='vertical-center'>(I)</div></div></div>","null","$41<br>for<br>yourself","$75<br>for<br>3","1","41","75","3",""
"html-keyboard-response","56","153068","0.0-6.0-1.17","5d42abf3c9acd700010c41df","bdp_sd","Tue Mar 28 2023 15:05:10 GMT-0500 (Central Daylight Time)","169827","","null","","","","","FIX","","<div class='trialBorder'><div class='vertical-center'><img style='vertical-align:center; align:center' src=img/fixation3.jpg></div></div>","null","","","","","","",""
"html-keyboard-response","57","153650","0.0-6.0-2.17","5d42abf3c9acd700010c41df","bdp_sd","Tue Mar 28 2023 15:05:10 GMT-0500 (Central Daylight Time)","169827","","581","","","","","offer","","<div class='trialBorder'><div class='vertical-center'><img style='vertical-align:center; align:center' src=img/fixation3.jpg></div><div class='cl'><div class='vertical-center'>$35<br>for<br>BRANT S</div></div><div class='cr'><div class='vertical-center'>$15<br>for<br>yourself</div></div><div class='respDivL'><div class='vertical-center'>(E)</div></div><div class='respDivR'><div class='vertical-center'>(I)</div></div></div>","E","$15<br>for<br>yourself","$35<br>for<br>2","1","15","35","2","OTHER"
"html-keyboard-response","58","153902","0.0-6.0-3.17","5d42abf3c9acd700010c41df","bdp_sd","Tue Mar 28 2023 15:05:10 GMT-0500 (Central Daylight Time)","169827","","null","","","","","offerFB","","<div class='trialBorder'><div class='vertical-center'><img style='vertical-align:center; align:center' src=img/fixation3.jpg></div><div class='cl'><div class='vertical-center'><font style='color:orange'>$35<br>for<br>BRANT S</font></div></div><div class='cr'><div class='vertical-center'>$15<br>for<br>yourself</div></div><div class='respDivL'><div class='vertical-center'><font style='color:orange'>(E)</font></div></div><div class='respDivR'><div class='vertical-center'>(I)</div></div></div>","null","$15<br>for<br>yourself","$35<br>for<br>2","1","15","35","2",""
"html-keyboard-response","59","154404","0.0-6.0-1.18","5d42abf3c9acd700010c41df","bdp_sd","Tue Mar 28 2023 15:05:10 GMT-0500 (Central Daylight Time)","169827","","null","","","","","FIX","","<div class='trialBorder'><div class='vertical-center'><img style='vertical-align:center; align:center' src=img/fixation3.jpg></div></div>","null","","","","","","",""
"html-keyboard-response","60","155294","0.0-6.0-2.18","5d42abf3c9acd700010c41df","bdp_sd","Tue Mar 28 2023 15:05:10 GMT-0500 (Central Daylight Time)","169827","","887","","","","","offer","","<div class='trialBorder'><div class='vertical-center'><img style='vertical-align:center; align:center' src=img/fixation3.jpg></div><div class='cl'><div class='vertical-center'>$47<br>for<br>yourself</div></div><div class='cr'><div class='vertical-center'>$50<br>for<br>Johey c</div></div><div class='respDivL'><div class='vertical-center'>(E)</div></div><div class='respDivR'><div class='vertical-center'>(I)</div></div></div>","I","$47<br>for<br>yourself","$50<br>for<br>5","0","47","50","5","OTHER"
"html-keyboard-response","61","155544","0.0-6.0-3.18","5d42abf3c9acd700010c41df","bdp_sd","Tue Mar 28 2023 15:05:10 GMT-0500 (Central Daylight Time)","169827","","null","","","","","offerFB","","<div class='trialBorder'><div class='vertical-center'><img style='vertical-align:center; align:center' src=img/fixation3.jpg></div><div class='cl'><div class='vertical-center'>$47<br>for<br>yourself</div></div><div class='cr'><div class='vertical-center'><font style='color:orange'>$50<br>for<br>Johey c</font></div></div><div class='respDivL'><div class='vertical-center'>(E)</div></div><div class='respDivR'><div class='vertical-center'><font style='color:orange'>(I)</font></div></div></div>","null","$47<br>for<br>yourself","$50<br>for<br>5","0","47","50","5",""
"html-keyboard-response","62","156046","0.0-6.0-1.19","5d42abf3c9acd700010c41df","bdp_sd","Tue Mar 28 2023 15:05:10 GMT-0500 (Central Daylight Time)","169827","","null","","","","","FIX","","<div class='trialBorder'><div class='vertical-center'><img style='vertical-align:center; align:center' src=img/fixation3.jpg></div></div>","null","","","","","","",""
"html-keyboard-response","63","156822","0.0-6.0-2.19","5d42abf3c9acd700010c41df","bdp_sd","Tue Mar 28 2023 15:05:10 GMT-0500 (Central Daylight Time)","169827","","775","","","","","offer","","<div class='trialBorder'><div class='vertical-center'><img style='vertical-align:center; align:center' src=img/fixation3.jpg></div><div class='cl'><div class='vertical-center'>$25<br>for<br>yourself</div></div><div class='cr'><div class='vertical-center'>$60<br>for<br>ALYSSA P</div></div><div class='respDivL'><div class='vertical-center'>(E)</div></div><div class='respDivR'><div class='vertical-center'>(I)</div></div></div>","E","$25<br>for<br>yourself","$60<br>for<br>3","0","25","60","3","SELF"
"html-keyboard-response","64","157074","0.0-6.0-3.19","5d42abf3c9acd700010c41df","bdp_sd","Tue Mar 28 2023 15:05:10 GMT-0500 (Central Daylight Time)","169827","","null","","","","","offerFB","","<div class='trialBorder'><div class='vertical-center'><img style='vertical-align:center; align:center' src=img/fixation3.jpg></div><div class='cl'><div class='vertical-center'><font style='color:orange'>$25<br>for<br>yourself</font></div></div><div class='cr'><div class='vertical-center'>$60<br>for<br>ALYSSA P</div></div><div class='respDivL'><div class='vertical-center'><font style='color:orange'>(E)</font></div></div><div class='respDivR'><div class='vertical-center'>(I)</div></div></div>","null","$25<br>for<br>yourself","$60<br>for<br>3","0","25","60","3",""
"html-keyboard-response","65","157576","0.0-6.0-1.20","5d42abf3c9acd700010c41df","bdp_sd","Tue Mar 28 2023 15:05:10 GMT-0500 (Central Daylight Time)","169827","","null","","","","","FIX","","<div class='trialBorder'><div class='vertical-center'><img style='vertical-align:center; align:center' src=img/fixation3.jpg></div></div>","null","","","","","","",""
"html-keyboard-response","66","158069","0.0-6.0-2.20","5d42abf3c9acd700010c41df","bdp_sd","Tue Mar 28 2023 15:05:10 GMT-0500 (Central Daylight Time)","169827","","492","","","","","offer","","<div class='trialBorder'><div class='vertical-center'><img style='vertical-align:center; align:center' src=img/fixation3.jpg></div><div class='cl'><div class='vertical-center'>$54<br>for<br>yourself</div></div><div class='cr'><div class='vertical-center'>$80<br>for<br>ALYSSA P</div></div><div class='respDivL'><div class='vertical-center'>(E)</div></div><div class='respDivR'><div class='vertical-center'>(I)</div></div></div>","I","$54<br>for<br>yourself","$80<br>for<br>3","0","54","80","3","OTHER"
"html-keyboard-response","67","158320","0.0-6.0-3.20","5d42abf3c9acd700010c41df","bdp_sd","Tue Mar 28 2023 15:05:10 GMT-0500 (Central Daylight Time)","169827","","null","","","","","offerFB","","<div class='trialBorder'><div class='vertical-center'><img style='vertical-align:center; align:center' src=img/fixation3.jpg></div><div class='cl'><div class='vertical-center'>$54<br>for<br>yourself</div></div><div class='cr'><div class='vertical-center'><font style='color:orange'>$80<br>for<br>ALYSSA P</font></div></div><div class='respDivL'><div class='vertical-center'>(E)</div></div><div class='respDivR'><div class='vertical-center'><font style='color:orange'>(I)</font></div></div></div>","null","$54<br>for<br>yourself","$80<br>for<br>3","0","54","80","3",""
"html-keyboard-response","68","158822","0.0-6.0-1.21","5d42abf3c9acd700010c41df","bdp_sd","Tue Mar 28 2023 15:05:10 GMT-0500 (Central Daylight Time)","169827","","null","","","","","FIX","","<div class='trialBorder'><div class='vertical-center'><img style='vertical-align:center; align:center' src=img/fixation3.jpg></div></div>","null","","","","","","",""
"html-keyboard-response","69","159505","0.0-6.0-2.21","5d42abf3c9acd700010c41df","bdp_sd","Tue Mar 28 2023 15:05:10 GMT-0500 (Central Daylight Time)","169827","","681","","","","","offer","","<div class='trialBorder'><div class='vertical-center'><img style='vertical-align:center; align:center' src=img/fixation3.jpg></div><div class='cl'><div class='vertical-center'>$27<br>for<br>yourself</div></div><div class='cr'><div class='vertical-center'>$50<br>for<br>ALYSSA P</div></div><div class='respDivL'><div class='vertical-center'>(E)</div></div><div class='respDivR'><div class='vertical-center'>(I)</div></div></div>","I","$27<br>for<br>yourself","$50<br>for<br>3","0","27","50","3","OTHER"
"html-keyboard-response","70","159757","0.0-6.0-3.21","5d42abf3c9acd700010c41df","bdp_sd","Tue Mar 28 2023 15:05:10 GMT-0500 (Central Daylight Time)","169827","","null","","","","","offerFB","","<div class='trialBorder'><div class='vertical-center'><img style='vertical-align:center; align:center' src=img/fixation3.jpg></div><div class='cl'><div class='vertical-center'>$27<br>for<br>yourself</div></div><div class='cr'><div class='vertical-center'><font style='color:orange'>$50<br>for<br>ALYSSA P</font></div></div><div class='respDivL'><div class='vertical-center'>(E)</div></div><div class='respDivR'><div class='vertical-center'><font style='color:orange'>(I)</font></div></div></div>","null","$27<br>for<br>yourself","$50<br>for<br>3","0","27","50","3",""
"html-keyboard-response","71","160258","0.0-6.0-1.22","5d42abf3c9acd700010c41df","bdp_sd","Tue Mar 28 2023 15:05:10 GMT-0500 (Central Daylight Time)","169827","","null","","","","","FIX","","<div class='trialBorder'><div class='vertical-center'><img style='vertical-align:center; align:center' src=img/fixation3.jpg></div></div>","null","","","","","","",""
"html-keyboard-response","72","161438","0.0-6.0-2.22","5d42abf3c9acd700010c41df","bdp_sd","Tue Mar 28 2023 15:05:10 GMT-0500 (Central Daylight Time)","169827","","1178","","","","","offer","","<div class='trialBorder'><div class='vertical-center'><img style='vertical-align:center; align:center' src=img/fixation3.jpg></div><div class='cl'><div class='vertical-center'>$69<br>for<br>yourself</div></div><div class='cr'><div class='vertical-center'>$85<br>for<br>JOE A</div></div><div class='respDivL'><div class='vertical-center'>(E)</div></div><div class='respDivR'><div class='vertical-center'>(I)</div></div></div>","I","$69<br>for<br>yourself","$85<br>for<br>4","0","69","85","4","OTHER"
"html-keyboard-response","73","161690","0.0-6.0-3.22","5d42abf3c9acd700010c41df","bdp_sd","Tue Mar 28 2023 15:05:10 GMT-0500 (Central Daylight Time)","169827","","null","","","","","offerFB","","<div class='trialBorder'><div class='vertical-center'><img style='vertical-align:center; align:center' src=img/fixation3.jpg></div><div class='cl'><div class='vertical-center'>$69<br>for<br>yourself</div></div><div class='cr'><div class='vertical-center'><font style='color:orange'>$85<br>for<br>JOE A</font></div></div><div class='respDivL'><div class='vertical-center'>(E)</div></div><div class='respDivR'><div class='vertical-center'><font style='color:orange'>(I)</font></div></div></div>","null","$69<br>for<br>yourself","$85<br>for<br>4","0","69","85","4",""
"html-keyboard-response","74","162193","0.0-6.0-1.23","5d42abf3c9acd700010c41df","bdp_sd","Tue Mar 28 2023 15:05:10 GMT-0500 (Central Daylight Time)","169827","","null","","","","","FIX","","<div class='trialBorder'><div class='vertical-center'><img style='vertical-align:center; align:center' src=img/fixation3.jpg></div></div>","null","","","","","","",""
"html-keyboard-response","75","162896","0.0-6.0-2.23","5d42abf3c9acd700010c41df","bdp_sd","Tue Mar 28 2023 15:05:10 GMT-0500 (Central Daylight Time)","169827","","703","","","","","offer","","<div class='trialBorder'><div class='vertical-center'><img style='vertical-align:center; align:center' src=img/fixation3.jpg></div><div class='cl'><div class='vertical-center'>$55<br>for<br>JOE A</div></div><div class='cr'><div class='vertical-center'>$40<br>for<br>yourself</div></div><div class='respDivL'><div class='vertical-center'>(E)</div></div><div class='respDivR'><div class='vertical-center'>(I)</div></div></div>","I","$40<br>for<br>yourself","$55<br>for<br>4","1","40","55","4","SELF"
"html-keyboard-response","76","163148","0.0-6.0-3.23","5d42abf3c9acd700010c41df","bdp_sd","Tue Mar 28 2023 15:05:10 GMT-0500 (Central Daylight Time)","169827","","null","","","","","offerFB","","<div class='trialBorder'><div class='vertical-center'><img style='vertical-align:center; align:center' src=img/fixation3.jpg></div><div class='cl'><div class='vertical-center'>$55<br>for<br>JOE A</div></div><div class='cr'><div class='vertical-center'><font style='color:orange'>$40<br>for<br>yourself</font></div></div><div class='respDivL'><div class='vertical-center'>(E)</div></div><div class='respDivR'><div class='vertical-center'><font style='color:orange'>(I)</font></div></div></div>","null","$40<br>for<br>yourself","$55<br>for<br>4","1","40","55","4",""
"html-keyboard-response","77","163649","0.0-6.0-1.24","5d42abf3c9acd700010c41df","bdp_sd","Tue Mar 28 2023 15:05:10 GMT-0500 (Central Daylight Time)","169827","","null","","","","","FIX","","<div class='trialBorder'><div class='vertical-center'><img style='vertical-align:center; align:center' src=img/fixation3.jpg></div></div>","null","","","","","","",""
"html-keyboard-response","78","164660","0.0-6.0-2.24","5d42abf3c9acd700010c41df","bdp_sd","Tue Mar 28 2023 15:05:10 GMT-0500 (Central Daylight Time)","169827","","1009","","","","","offer","","<div class='trialBorder'><div class='vertical-center'><img style='vertical-align:center; align:center' src=img/fixation3.jpg></div><div class='cl'><div class='vertical-center'>$80<br>for<br>Johey c</div></div><div class='cr'><div class='vertical-center'>$78<br>for<br>yourself</div></div><div class='respDivL'><div class='vertical-center'>(E)</div></div><div class='respDivR'><div class='vertical-center'>(I)</div></div></div>","E","$78<br>for<br>yourself","$80<br>for<br>5","1","78","80","5","OTHER"
"html-keyboard-response","79","164912","0.0-6.0-3.24","5d42abf3c9acd700010c41df","bdp_sd","Tue Mar 28 2023 15:05:10 GMT-0500 (Central Daylight Time)","169827","","null","","","","","offerFB","","<div class='trialBorder'><div class='vertical-center'><img style='vertical-align:center; align:center' src=img/fixation3.jpg></div><div class='cl'><div class='vertical-center'><font style='color:orange'>$80<br>for<br>Johey c</font></div></div><div class='cr'><div class='vertical-center'>$78<br>for<br>yourself</div></div><div class='respDivL'><div class='vertical-center'><font style='color:orange'>(E)</font></div></div><div class='respDivR'><div class='vertical-center'>(I)</div></div></div>","null","$78<br>for<br>yourself","$80<br>for<br>5","1","78","80","5",""
"html-keyboard-response","80","165414","0.0-6.0-1.25","5d42abf3c9acd700010c41df","bdp_sd","Tue Mar 28 2023 15:05:10 GMT-0500 (Central Daylight Time)","169827","","null","","","","","FIX","","<div class='trialBorder'><div class='vertical-center'><img style='vertical-align:center; align:center' src=img/fixation3.jpg></div></div>","null","","","","","","",""
"html-keyboard-response","81","165986","0.0-6.0-2.25","5d42abf3c9acd700010c41df","bdp_sd","Tue Mar 28 2023 15:05:10 GMT-0500 (Central Daylight Time)","169827","","571","","","","","offer","","<div class='trialBorder'><div class='vertical-center'><img style='vertical-align:center; align:center' src=img/fixation3.jpg></div><div class='cl'><div class='vertical-center'>$25<br>for<br>ALYSSA P</div></div><div class='cr'><div class='vertical-center'>$14<br>for<br>yourself</div></div><div class='respDivL'><div class='vertical-center'>(E)</div></div><div class='respDivR'><div class='vertical-center'>(I)</div></div></div>","E","$14<br>for<br>yourself","$25<br>for<br>3","1","14","25","3","OTHER"
"html-keyboard-response","82","166237","0.0-6.0-3.25","5d42abf3c9acd700010c41df","bdp_sd","Tue Mar 28 2023 15:05:10 GMT-0500 (Central Daylight Time)","169827","","null","","","","","offerFB","","<div class='trialBorder'><div class='vertical-center'><img style='vertical-align:center; align:center' src=img/fixation3.jpg></div><div class='cl'><div class='vertical-center'><font style='color:orange'>$25<br>for<br>ALYSSA P</font></div></div><div class='cr'><div class='vertical-center'>$14<br>for<br>yourself</div></div><div class='respDivL'><div class='vertical-center'><font style='color:orange'>(E)</font></div></div><div class='respDivR'><div class='vertical-center'>(I)</div></div></div>","null","$14<br>for<br>yourself","$25<br>for<br>3","1","14","25","3",""
"html-keyboard-response","83","166739","0.0-6.0-1.26","5d42abf3c9acd700010c41df","bdp_sd","Tue Mar 28 2023 15:05:10 GMT-0500 (Central Daylight Time)","169827","","null","","","","","FIX","","<div class='trialBorder'><div class='vertical-center'><img style='vertical-align:center; align:center' src=img/fixation3.jpg></div></div>","null","","","","","","",""
"html-keyboard-response","84","168573","0.0-6.0-2.26","5d42abf3c9acd700010c41df","bdp_sd","Tue Mar 28 2023 15:05:10 GMT-0500 (Central Daylight Time)","169827","","1833","","","","","offer","","<div class='trialBorder'><div class='vertical-center'><img style='vertical-align:center; align:center' src=img/fixation3.jpg></div><div class='cl'><div class='vertical-center'>$25<br>for<br>yourself</div></div><div class='cr'><div class='vertical-center'>$30<br>for<br>JOE A</div></div><div class='respDivL'><div class='vertical-center'>(E)</div></div><div class='respDivR'><div class='vertical-center'>(I)</div></div></div>","E","$25<br>for<br>yourself","$30<br>for<br>4","0","25","30","4","SELF"
"html-keyboard-response","85","168825","0.0-6.0-3.26","5d42abf3c9acd700010c41df","bdp_sd","Tue Mar 28 2023 15:05:10 GMT-0500 (Central Daylight Time)","169827","","null","","","","","offerFB","","<div class='trialBorder'><div class='vertical-center'><img style='vertical-align:center; align:center' src=img/fixation3.jpg></div><div class='cl'><div class='vertical-center'><font style='color:orange'>$25<br>for<br>yourself</font></div></div><div class='cr'><div class='vertical-center'>$30<br>for<br>JOE A</div></div><div class='respDivL'><div class='vertical-center'><font style='color:orange'>(E)</font></div></div><div class='respDivR'><div class='vertical-center'>(I)</div></div></div>","null","$25<br>for<br>yourself","$30<br>for<br>4","0","25","30","4",""
"","","","","5d42abf3c9acd700010c41df","bdp_sd","Tue Mar 28 2023 15:05:10 GMT-0500 (Central Daylight Time)","169827","","","","fullscreenexit","86","168850","fullscreenexit","","","","","","","","","",""
"fullscreen","86","169826","0.0-7.0","5d42abf3c9acd700010c41df","bdp_sd","Tue Mar 28 2023 15:05:10 GMT-0500 (Central Daylight Time)","169827","","","","","","","","true","","","","","","","","",""
"html-keyboard-response","87","170328","0.0-8.0","","","","","","null","","","","","","","","null","","","","","","",""
