"trial_type","trial_index","time_elapsed","internal_node_id","subject_id","task","startTime","totalTime","view_history","rt","responses","event","trial","time","trialtype","success","stimulus","key_press","selfOffer","otherOffer","otherLeft","selfAmt","otherAmt","otherDist","chosen"
"pavlovia","0","4","0.0-0.0","60fd933d5461857048f9e74c","bdp_sd","Sun Mar 26 2023 14:41:31 GMT-0700 (Pacific Daylight Time)","192982","","","","","","","","","","","","","","","","",""
"instructions","1","2183","0.0-1.0","60fd933d5461857048f9e74c","bdp_sd","Sun Mar 26 2023 14:41:31 GMT-0700 (Pacific Daylight Time)","192982","[{""page_index"":0,""viewing_time"":2178}]","2178","","","","","","","","","","","","","","",""
"survey-text","2","76447","0.0-2.0","60fd933d5461857048f9e74c","bdp_sd","Sun Mar 26 2023 14:41:31 GMT-0700 (Pacific Daylight Time)","192982","","74261","{""Q0"":""Matthew S"",""Q1"":""Terri N"",""Q2"":""Becky D"",""Q3"":""Emily D"",""Q4"":""Haley B""}","","","","","","","","","","","","","",""
"","","","","60fd933d5461857048f9e74c","bdp_sd","Sun Mar 26 2023 14:41:31 GMT-0700 (Pacific Daylight Time)","192982","","","","fullscreenenter","3","78527","fullscreenenter","","","","","","","","","",""
"fullscreen","3","79474","0.0-3.0","60fd933d5461857048f9e74c","bdp_sd","Sun Mar 26 2023 14:41:31 GMT-0700 (Pacific Daylight Time)","192982","","","","","","","","true","","","","","","","","",""
"instructions","4","98257","0.0-5.0","60fd933d5461857048f9e74c","bdp_sd","Sun Mar 26 2023 14:41:31 GMT-0700 (Pacific Daylight Time)","192982","[{""page_index"":0,""viewing_time"":7828},{""page_index"":1,""viewing_time"":7319},{""page_index"":2,""viewing_time"":3633}]","18780","","","","","","","","","","","","","","",""
"html-keyboard-response","5","98761","0.0-6.0-1.0","60fd933d5461857048f9e74c","bdp_sd","Sun Mar 26 2023 14:41:31 GMT-0700 (Pacific Daylight Time)","192982","","null","","","","","FIX","","<div class='trialBorder'><div class='vertical-center'><img style='vertical-align:center; align:center' src=img/fixation3.jpg></div></div>","null","","","","","","",""
"html-keyboard-response","6","104080","0.0-6.0-2.0","60fd933d5461857048f9e74c","bdp_sd","Sun Mar 26 2023 14:41:31 GMT-0700 (Pacific Daylight Time)","192982","","5315","","","","","offer","","<div class='trialBorder'><div class='vertical-center'><img style='vertical-align:center; align:center' src=img/fixation3.jpg></div><div class='cl'><div class='vertical-center'>$40<br>for<br>yourself</div></div><div class='cr'><div class='vertical-center'>$55<br>for<br>Emily D</div></div><div class='respDivL'><div class='vertical-center'>(E)</div></div><div class='respDivR'><div class='vertical-center'>(I)</div></div></div>","I","$40<br>for<br>yourself","$55<br>for<br>4","0","40","55","4","OTHER"
"html-keyboard-response","7","104335","0.0-6.0-3.0","60fd933d5461857048f9e74c","bdp_sd","Sun Mar 26 2023 14:41:31 GMT-0700 (Pacific Daylight Time)","192982","","null","","","","","offerFB","","<div class='trialBorder'><div class='vertical-center'><img style='vertical-align:center; align:center' src=img/fixation3.jpg></div><div class='cl'><div class='vertical-center'>$40<br>for<br>yourself</div></div><div class='cr'><div class='vertical-center'><font style='color:orange'>$55<br>for<br>Emily D</font></div></div><div class='respDivL'><div class='vertical-center'>(E)</div></div><div class='respDivR'><div class='vertical-center'><font style='color:orange'>(I)</font></div></div></div>","null","$40<br>for<br>yourself","$55<br>for<br>4","0","40","55","4",""
"html-keyboard-response","8","104838","0.0-6.0-1.1","60fd933d5461857048f9e74c","bdp_sd","Sun Mar 26 2023 14:41:31 GMT-0700 (Pacific Daylight Time)","192982","","null","","","","","FIX","","<div class='trialBorder'><div class='vertical-center'><img style='vertical-align:center; align:center' src=img/fixation3.jpg></div></div>","null","","","","","","",""
"html-keyboard-response","9","109272","0.0-6.0-2.1","60fd933d5461857048f9e74c","bdp_sd","Sun Mar 26 2023 14:41:31 GMT-0700 (Pacific Daylight Time)","192982","","4432","","","","","offer","","<div class='trialBorder'><div class='vertical-center'><img style='vertical-align:center; align:center' src=img/fixation3.jpg></div><div class='cl'><div class='vertical-center'>$80<br>for<br>yourself</div></div><div class='cr'><div class='vertical-center'>$85<br>for<br>Haley B</div></div><div class='respDivL'><div class='vertical-center'>(E)</div></div><div class='respDivR'><div class='vertical-center'>(I)</div></div></div>","E","$80<br>for<br>yourself","$85<br>for<br>5","0","80","85","5","SELF"
"html-keyboard-response","10","109525","0.0-6.0-3.1","60fd933d5461857048f9e74c","bdp_sd","Sun Mar 26 2023 14:41:31 GMT-0700 (Pacific Daylight Time)","192982","","null","","","","","offerFB","","<div class='trialBorder'><div class='vertical-center'><img style='vertical-align:center; align:center' src=img/fixation3.jpg></div><div class='cl'><div class='vertical-center'><font style='color:orange'>$80<br>for<br>yourself</font></div></div><div class='cr'><div class='vertical-center'>$85<br>for<br>Haley B</div></div><div class='respDivL'><div class='vertical-center'><font style='color:orange'>(E)</font></div></div><div class='respDivR'><div class='vertical-center'>(I)</div></div></div>","null","$80<br>for<br>yourself","$85<br>for<br>5","0","80","85","5",""
"html-keyboard-response","11","110027","0.0-6.0-1.2","60fd933d5461857048f9e74c","bdp_sd","Sun Mar 26 2023 14:41:31 GMT-0700 (Pacific Daylight Time)","192982","","null","","","","","FIX","","<div class='trialBorder'><div class='vertical-center'><img style='vertical-align:center; align:center' src=img/fixation3.jpg></div></div>","null","","","","","","",""
"html-keyboard-response","12","111815","0.0-6.0-2.2","60fd933d5461857048f9e74c","bdp_sd","Sun Mar 26 2023 14:41:31 GMT-0700 (Pacific Daylight Time)","192982","","1786","","","","","offer","","<div class='trialBorder'><div class='vertical-center'><img style='vertical-align:center; align:center' src=img/fixation3.jpg></div><div class='cl'><div class='vertical-center'>$35<br>for<br>Terri N</div></div><div class='cr'><div class='vertical-center'>$15<br>for<br>yourself</div></div><div class='respDivL'><div class='vertical-center'>(E)</div></div><div class='respDivR'><div class='vertical-center'>(I)</div></div></div>","E","$15<br>for<br>yourself","$35<br>for<br>2","1","15","35","2","OTHER"
"html-keyboard-response","13","112067","0.0-6.0-3.2","60fd933d5461857048f9e74c","bdp_sd","Sun Mar 26 2023 14:41:31 GMT-0700 (Pacific Daylight Time)","192982","","null","","","","","offerFB","","<div class='trialBorder'><div class='vertical-center'><img style='vertical-align:center; align:center' src=img/fixation3.jpg></div><div class='cl'><div class='vertical-center'><font style='color:orange'>$35<br>for<br>Terri N</font></div></div><div class='cr'><div class='vertical-center'>$15<br>for<br>yourself</div></div><div class='respDivL'><div class='vertical-center'><font style='color:orange'>(E)</font></div></div><div class='respDivR'><div class='vertical-center'>(I)</div></div></div>","null","$15<br>for<br>yourself","$35<br>for<br>2","1","15","35","2",""
"html-keyboard-response","14","112569","0.0-6.0-1.3","60fd933d5461857048f9e74c","bdp_sd","Sun Mar 26 2023 14:41:31 GMT-0700 (Pacific Daylight Time)","192982","","null","","","","","FIX","","<div class='trialBorder'><div class='vertical-center'><img style='vertical-align:center; align:center' src=img/fixation3.jpg></div></div>","null","","","","","","",""
"html-keyboard-response","15","113819","0.0-6.0-2.3","60fd933d5461857048f9e74c","bdp_sd","Sun Mar 26 2023 14:41:31 GMT-0700 (Pacific Daylight Time)","192982","","1247","","","","","offer","","<div class='trialBorder'><div class='vertical-center'><img style='vertical-align:center; align:center' src=img/fixation3.jpg></div><div class='cl'><div class='vertical-center'>$35<br>for<br>Becky D</div></div><div class='cr'><div class='vertical-center'>$24<br>for<br>yourself</div></div><div class='respDivL'><div class='vertical-center'>(E)</div></div><div class='respDivR'><div class='vertical-center'>(I)</div></div></div>","E","$24<br>for<br>yourself","$35<br>for<br>3","1","24","35","3","OTHER"
"html-keyboard-response","16","114071","0.0-6.0-3.3","60fd933d5461857048f9e74c","bdp_sd","Sun Mar 26 2023 14:41:31 GMT-0700 (Pacific Daylight Time)","192982","","null","","","","","offerFB","","<div class='trialBorder'><div class='vertical-center'><img style='vertical-align:center; align:center' src=img/fixation3.jpg></div><div class='cl'><div class='vertical-center'><font style='color:orange'>$35<br>for<br>Becky D</font></div></div><div class='cr'><div class='vertical-center'>$24<br>for<br>yourself</div></div><div class='respDivL'><div class='vertical-center'><font style='color:orange'>(E)</font></div></div><div class='respDivR'><div class='vertical-center'>(I)</div></div></div>","null","$24<br>for<br>yourself","$35<br>for<br>3","1","24","35","3",""
"html-keyboard-response","17","114574","0.0-6.0-1.4","60fd933d5461857048f9e74c","bdp_sd","Sun Mar 26 2023 14:41:31 GMT-0700 (Pacific Daylight Time)","192982","","null","","","","","FIX","","<div class='trialBorder'><div class='vertical-center'><img style='vertical-align:center; align:center' src=img/fixation3.jpg></div></div>","null","","","","","","",""
"html-keyboard-response","18","116219","0.0-6.0-2.4","60fd933d5461857048f9e74c","bdp_sd","Sun Mar 26 2023 14:41:31 GMT-0700 (Pacific Daylight Time)","192982","","1643","","","","","offer","","<div class='trialBorder'><div class='vertical-center'><img style='vertical-align:center; align:center' src=img/fixation3.jpg></div><div class='cl'><div class='vertical-center'>$11<br>for<br>yourself</div></div><div class='cr'><div class='vertical-center'>$30<br>for<br>Terri N</div></div><div class='respDivL'><div class='vertical-center'>(E)</div></div><div class='respDivR'><div class='vertical-center'>(I)</div></div></div>","I","$11<br>for<br>yourself","$30<br>for<br>2","0","11","30","2","OTHER"
"html-keyboard-response","19","116472","0.0-6.0-3.4","60fd933d5461857048f9e74c","bdp_sd","Sun Mar 26 2023 14:41:31 GMT-0700 (Pacific Daylight Time)","192982","","null","","","","","offerFB","","<div class='trialBorder'><div class='vertical-center'><img style='vertical-align:center; align:center' src=img/fixation3.jpg></div><div class='cl'><div class='vertical-center'>$11<br>for<br>yourself</div></div><div class='cr'><div class='vertical-center'><font style='color:orange'>$30<br>for<br>Terri N</font></div></div><div class='respDivL'><div class='vertical-center'>(E)</div></div><div class='respDivR'><div class='vertical-center'><font style='color:orange'>(I)</font></div></div></div>","null","$11<br>for<br>yourself","$30<br>for<br>2","0","11","30","2",""
"html-keyboard-response","20","116974","0.0-6.0-1.5","60fd933d5461857048f9e74c","bdp_sd","Sun Mar 26 2023 14:41:31 GMT-0700 (Pacific Daylight Time)","192982","","null","","","","","FIX","","<div class='trialBorder'><div class='vertical-center'><img style='vertical-align:center; align:center' src=img/fixation3.jpg></div></div>","null","","","","","","",""
"html-keyboard-response","21","118544","0.0-6.0-2.5","60fd933d5461857048f9e74c","bdp_sd","Sun Mar 26 2023 14:41:31 GMT-0700 (Pacific Daylight Time)","192982","","1567","","","","","offer","","<div class='trialBorder'><div class='vertical-center'><img style='vertical-align:center; align:center' src=img/fixation3.jpg></div><div class='cl'><div class='vertical-center'>$50<br>for<br>Becky D</div></div><div class='cr'><div class='vertical-center'>$27<br>for<br>yourself</div></div><div class='respDivL'><div class='vertical-center'>(E)</div></div><div class='respDivR'><div class='vertical-center'>(I)</div></div></div>","E","$27<br>for<br>yourself","$50<br>for<br>3","1","27","50","3","OTHER"
"html-keyboard-response","22","118797","0.0-6.0-3.5","60fd933d5461857048f9e74c","bdp_sd","Sun Mar 26 2023 14:41:31 GMT-0700 (Pacific Daylight Time)","192982","","null","","","","","offerFB","","<div class='trialBorder'><div class='vertical-center'><img style='vertical-align:center; align:center' src=img/fixation3.jpg></div><div class='cl'><div class='vertical-center'><font style='color:orange'>$50<br>for<br>Becky D</font></div></div><div class='cr'><div class='vertical-center'>$27<br>for<br>yourself</div></div><div class='respDivL'><div class='vertical-center'><font style='color:orange'>(E)</font></div></div><div class='respDivR'><div class='vertical-center'>(I)</div></div></div>","null","$27<br>for<br>yourself","$50<br>for<br>3","1","27","50","3",""
"html-keyboard-response","23","119299","0.0-6.0-1.6","60fd933d5461857048f9e74c","bdp_sd","Sun Mar 26 2023 14:41:31 GMT-0700 (Pacific Daylight Time)","192982","","null","","","","","FIX","","<div class='trialBorder'><div class='vertical-center'><img style='vertical-align:center; align:center' src=img/fixation3.jpg></div></div>","null","","","","","","",""
"html-keyboard-response","24","122584","0.0-6.0-2.6","60fd933d5461857048f9e74c","bdp_sd","Sun Mar 26 2023 14:41:31 GMT-0700 (Pacific Daylight Time)","192982","","3283","","","","","offer","","<div class='trialBorder'><div class='vertical-center'><img style='vertical-align:center; align:center' src=img/fixation3.jpg></div><div class='cl'><div class='vertical-center'>$80<br>for<br>Haley B</div></div><div class='cr'><div class='vertical-center'>$78<br>for<br>yourself</div></div><div class='respDivL'><div class='vertical-center'>(E)</div></div><div class='respDivR'><div class='vertical-center'>(I)</div></div></div>","I","$78<br>for<br>yourself","$80<br>for<br>5","1","78","80","5","SELF"
"html-keyboard-response","25","122838","0.0-6.0-3.6","60fd933d5461857048f9e74c","bdp_sd","Sun Mar 26 2023 14:41:31 GMT-0700 (Pacific Daylight Time)","192982","","null","","","","","offerFB","","<div class='trialBorder'><div class='vertical-center'><img style='vertical-align:center; align:center' src=img/fixation3.jpg></div><div class='cl'><div class='vertical-center'>$80<br>for<br>Haley B</div></div><div class='cr'><div class='vertical-center'><font style='color:orange'>$78<br>for<br>yourself</font></div></div><div class='respDivL'><div class='vertical-center'>(E)</div></div><div class='respDivR'><div class='vertical-center'><font style='color:orange'>(I)</font></div></div></div>","null","$78<br>for<br>yourself","$80<br>for<br>5","1","78","80","5",""
"html-keyboard-response","26","123340","0.0-6.0-1.7","60fd933d5461857048f9e74c","bdp_sd","Sun Mar 26 2023 14:41:31 GMT-0700 (Pacific Daylight Time)","192982","","null","","","","","FIX","","<div class='trialBorder'><div class='vertical-center'><img style='vertical-align:center; align:center' src=img/fixation3.jpg></div></div>","null","","","","","","",""
"html-keyboard-response","27","125671","0.0-6.0-2.7","60fd933d5461857048f9e74c","bdp_sd","Sun Mar 26 2023 14:41:31 GMT-0700 (Pacific Daylight Time)","192982","","2329","","","","","offer","","<div class='trialBorder'><div class='vertical-center'><img style='vertical-align:center; align:center' src=img/fixation3.jpg></div><div class='cl'><div class='vertical-center'>$25<br>for<br>yourself</div></div><div class='cr'><div class='vertical-center'>$60<br>for<br>Becky D</div></div><div class='respDivL'><div class='vertical-center'>(E)</div></div><div class='respDivR'><div class='vertical-center'>(I)</div></div></div>","I","$25<br>for<br>yourself","$60<br>for<br>3","0","25","60","3","OTHER"
"html-keyboard-response","28","125924","0.0-6.0-3.7","60fd933d5461857048f9e74c","bdp_sd","Sun Mar 26 2023 14:41:31 GMT-0700 (Pacific Daylight Time)","192982","","null","","","","","offerFB","","<div class='trialBorder'><div class='vertical-center'><img style='vertical-align:center; align:center' src=img/fixation3.jpg></div><div class='cl'><div class='vertical-center'>$25<br>for<br>yourself</div></div><div class='cr'><div class='vertical-center'><font style='color:orange'>$60<br>for<br>Becky D</font></div></div><div class='respDivL'><div class='vertical-center'>(E)</div></div><div class='respDivR'><div class='vertical-center'><font style='color:orange'>(I)</font></div></div></div>","null","$25<br>for<br>yourself","$60<br>for<br>3","0","25","60","3",""
"html-keyboard-response","29","126426","0.0-6.0-1.8","60fd933d5461857048f9e74c","bdp_sd","Sun Mar 26 2023 14:41:31 GMT-0700 (Pacific Daylight Time)","192982","","null","","","","","FIX","","<div class='trialBorder'><div class='vertical-center'><img style='vertical-align:center; align:center' src=img/fixation3.jpg></div></div>","null","","","","","","",""
"html-keyboard-response","30","131192","0.0-6.0-2.8","60fd933d5461857048f9e74c","bdp_sd","Sun Mar 26 2023 14:41:31 GMT-0700 (Pacific Daylight Time)","192982","","4763","","","","","offer","","<div class='trialBorder'><div class='vertical-center'><img style='vertical-align:center; align:center' src=img/fixation3.jpg></div><div class='cl'><div class='vertical-center'>$80<br>for<br>Becky D</div></div><div class='cr'><div class='vertical-center'>$54<br>for<br>yourself</div></div><div class='respDivL'><div class='vertical-center'>(E)</div></div><div class='respDivR'><div class='vertical-center'>(I)</div></div></div>","E","$54<br>for<br>yourself","$80<br>for<br>3","1","54","80","3","OTHER"
"html-keyboard-response","31","131445","0.0-6.0-3.8","60fd933d5461857048f9e74c","bdp_sd","Sun Mar 26 2023 14:41:31 GMT-0700 (Pacific Daylight Time)","192982","","null","","","","","offerFB","","<div class='trialBorder'><div class='vertical-center'><img style='vertical-align:center; align:center' src=img/fixation3.jpg></div><div class='cl'><div class='vertical-center'><font style='color:orange'>$80<br>for<br>Becky D</font></div></div><div class='cr'><div class='vertical-center'>$54<br>for<br>yourself</div></div><div class='respDivL'><div class='vertical-center'><font style='color:orange'>(E)</font></div></div><div class='respDivR'><div class='vertical-center'>(I)</div></div></div>","null","$54<br>for<br>yourself","$80<br>for<br>3","1","54","80","3",""
"html-keyboard-response","32","131947","0.0-6.0-1.9","60fd933d5461857048f9e74c","bdp_sd","Sun Mar 26 2023 14:41:31 GMT-0700 (Pacific Daylight Time)","192982","","null","","","","","FIX","","<div class='trialBorder'><div class='vertical-center'><img style='vertical-align:center; align:center' src=img/fixation3.jpg></div></div>","null","","","","","","",""
"html-keyboard-response","33","135118","0.0-6.0-2.9","60fd933d5461857048f9e74c","bdp_sd","Sun Mar 26 2023 14:41:31 GMT-0700 (Pacific Daylight Time)","192982","","3169","","","","","offer","","<div class='trialBorder'><div class='vertical-center'><img style='vertical-align:center; align:center' src=img/fixation3.jpg></div><div class='cl'><div class='vertical-center'>$22<br>for<br>yourself</div></div><div class='cr'><div class='vertical-center'>$25<br>for<br>Haley B</div></div><div class='respDivL'><div class='vertical-center'>(E)</div></div><div class='respDivR'><div class='vertical-center'>(I)</div></div></div>","E","$22<br>for<br>yourself","$25<br>for<br>5","0","22","25","5","SELF"
"html-keyboard-response","34","135372","0.0-6.0-3.9","60fd933d5461857048f9e74c","bdp_sd","Sun Mar 26 2023 14:41:31 GMT-0700 (Pacific Daylight Time)","192982","","null","","","","","offerFB","","<div class='trialBorder'><div class='vertical-center'><img style='vertical-align:center; align:center' src=img/fixation3.jpg></div><div class='cl'><div class='vertical-center'><font style='color:orange'>$22<br>for<br>yourself</font></div></div><div class='cr'><div class='vertical-center'>$25<br>for<br>Haley B</div></div><div class='respDivL'><div class='vertical-center'><font style='color:orange'>(E)</font></div></div><div class='respDivR'><div class='vertical-center'>(I)</div></div></div>","null","$22<br>for<br>yourself","$25<br>for<br>5","0","22","25","5",""
"html-keyboard-response","35","135874","0.0-6.0-1.10","60fd933d5461857048f9e74c","bdp_sd","Sun Mar 26 2023 14:41:31 GMT-0700 (Pacific Daylight Time)","192982","","null","","","","","FIX","","<div class='trialBorder'><div class='vertical-center'><img style='vertical-align:center; align:center' src=img/fixation3.jpg></div></div>","null","","","","","","",""
"html-keyboard-response","36","139794","0.0-6.0-2.10","60fd933d5461857048f9e74c","bdp_sd","Sun Mar 26 2023 14:41:31 GMT-0700 (Pacific Daylight Time)","192982","","3917","","","","","offer","","<div class='trialBorder'><div class='vertical-center'><img style='vertical-align:center; align:center' src=img/fixation3.jpg></div><div class='cl'><div class='vertical-center'>$25<br>for<br>Emily D</div></div><div class='cr'><div class='vertical-center'>$19<br>for<br>yourself</div></div><div class='respDivL'><div class='vertical-center'>(E)</div></div><div class='respDivR'><div class='vertical-center'>(I)</div></div></div>","I","$19<br>for<br>yourself","$25<br>for<br>4","1","19","25","4","SELF"
"html-keyboard-response","37","140048","0.0-6.0-3.10","60fd933d5461857048f9e74c","bdp_sd","Sun Mar 26 2023 14:41:31 GMT-0700 (Pacific Daylight Time)","192982","","null","","","","","offerFB","","<div class='trialBorder'><div class='vertical-center'><img style='vertical-align:center; align:center' src=img/fixation3.jpg></div><div class='cl'><div class='vertical-center'>$25<br>for<br>Emily D</div></div><div class='cr'><div class='vertical-center'><font style='color:orange'>$19<br>for<br>yourself</font></div></div><div class='respDivL'><div class='vertical-center'>(E)</div></div><div class='respDivR'><div class='vertical-center'><font style='color:orange'>(I)</font></div></div></div>","null","$19<br>for<br>yourself","$25<br>for<br>4","1","19","25","4",""
"html-keyboard-response","38","140550","0.0-6.0-1.11","60fd933d5461857048f9e74c","bdp_sd","Sun Mar 26 2023 14:41:31 GMT-0700 (Pacific Daylight Time)","192982","","null","","","","","FIX","","<div class='trialBorder'><div class='vertical-center'><img style='vertical-align:center; align:center' src=img/fixation3.jpg></div></div>","null","","","","","","",""
"html-keyboard-response","39","142104","0.0-6.0-2.11","60fd933d5461857048f9e74c","bdp_sd","Sun Mar 26 2023 14:41:31 GMT-0700 (Pacific Daylight Time)","192982","","1551","","","","","offer","","<div class='trialBorder'><div class='vertical-center'><img style='vertical-align:center; align:center' src=img/fixation3.jpg></div><div class='cl'><div class='vertical-center'>$85<br>for<br>Matthew S</div></div><div class='cr'><div class='vertical-center'>$31<br>for<br>yourself</div></div><div class='respDivL'><div class='vertical-center'>(E)</div></div><div class='respDivR'><div class='vertical-center'>(I)</div></div></div>","E","$31<br>for<br>yourself","$85<br>for<br>1","1","31","85","1","OTHER"
"html-keyboard-response","40","142357","0.0-6.0-3.11","60fd933d5461857048f9e74c","bdp_sd","Sun Mar 26 2023 14:41:31 GMT-0700 (Pacific Daylight Time)","192982","","null","","","","","offerFB","","<div class='trialBorder'><div class='vertical-center'><img style='vertical-align:center; align:center' src=img/fixation3.jpg></div><div class='cl'><div class='vertical-center'><font style='color:orange'>$85<br>for<br>Matthew S</font></div></div><div class='cr'><div class='vertical-center'>$31<br>for<br>yourself</div></div><div class='respDivL'><div class='vertical-center'><font style='color:orange'>(E)</font></div></div><div class='respDivR'><div class='vertical-center'>(I)</div></div></div>","null","$31<br>for<br>yourself","$85<br>for<br>1","1","31","85","1",""
"html-keyboard-response","41","142859","0.0-6.0-1.12","60fd933d5461857048f9e74c","bdp_sd","Sun Mar 26 2023 14:41:31 GMT-0700 (Pacific Daylight Time)","192982","","null","","","","","FIX","","<div class='trialBorder'><div class='vertical-center'><img style='vertical-align:center; align:center' src=img/fixation3.jpg></div></div>","null","","","","","","",""
"html-keyboard-response","42","145278","0.0-6.0-2.12","60fd933d5461857048f9e74c","bdp_sd","Sun Mar 26 2023 14:41:31 GMT-0700 (Pacific Daylight Time)","192982","","2416","","","","","offer","","<div class='trialBorder'><div class='vertical-center'><img style='vertical-align:center; align:center' src=img/fixation3.jpg></div><div class='cl'><div class='vertical-center'>$25<br>for<br>yourself</div></div><div class='cr'><div class='vertical-center'>$30<br>for<br>Emily D</div></div><div class='respDivL'><div class='vertical-center'>(E)</div></div><div class='respDivR'><div class='vertical-center'>(I)</div></div></div>","E","$25<br>for<br>yourself","$30<br>for<br>4","0","25","30","4","SELF"
"html-keyboard-response","43","145531","0.0-6.0-3.12","60fd933d5461857048f9e74c","bdp_sd","Sun Mar 26 2023 14:41:31 GMT-0700 (Pacific Daylight Time)","192982","","null","","","","","offerFB","","<div class='trialBorder'><div class='vertical-center'><img style='vertical-align:center; align:center' src=img/fixation3.jpg></div><div class='cl'><div class='vertical-center'><font style='color:orange'>$25<br>for<br>yourself</font></div></div><div class='cr'><div class='vertical-center'>$30<br>for<br>Emily D</div></div><div class='respDivL'><div class='vertical-center'><font style='color:orange'>(E)</font></div></div><div class='respDivR'><div class='vertical-center'>(I)</div></div></div>","null","$25<br>for<br>yourself","$30<br>for<br>4","0","25","30","4",""
"html-keyboard-response","44","146034","0.0-6.0-1.13","60fd933d5461857048f9e74c","bdp_sd","Sun Mar 26 2023 14:41:31 GMT-0700 (Pacific Daylight Time)","192982","","null","","","","","FIX","","<div class='trialBorder'><div class='vertical-center'><img style='vertical-align:center; align:center' src=img/fixation3.jpg></div></div>","null","","","","","","",""
"html-keyboard-response","45","148605","0.0-6.0-2.13","60fd933d5461857048f9e74c","bdp_sd","Sun Mar 26 2023 14:41:31 GMT-0700 (Pacific Daylight Time)","192982","","2570","","","","","offer","","<div class='trialBorder'><div class='vertical-center'><img style='vertical-align:center; align:center' src=img/fixation3.jpg></div><div class='cl'><div class='vertical-center'>$28<br>for<br>yourself</div></div><div class='cr'><div class='vertical-center'>$30<br>for<br>Haley B</div></div><div class='respDivL'><div class='vertical-center'>(E)</div></div><div class='respDivR'><div class='vertical-center'>(I)</div></div></div>","E","$28<br>for<br>yourself","$30<br>for<br>5","0","28","30","5","SELF"
"html-keyboard-response","46","148858","0.0-6.0-3.13","60fd933d5461857048f9e74c","bdp_sd","Sun Mar 26 2023 14:41:31 GMT-0700 (Pacific Daylight Time)","192982","","null","","","","","offerFB","","<div class='trialBorder'><div class='vertical-center'><img style='vertical-align:center; align:center' src=img/fixation3.jpg></div><div class='cl'><div class='vertical-center'><font style='color:orange'>$28<br>for<br>yourself</font></div></div><div class='cr'><div class='vertical-center'>$30<br>for<br>Haley B</div></div><div class='respDivL'><div class='vertical-center'><font style='color:orange'>(E)</font></div></div><div class='respDivR'><div class='vertical-center'>(I)</div></div></div>","null","$28<br>for<br>yourself","$30<br>for<br>5","0","28","30","5",""
"html-keyboard-response","47","149360","0.0-6.0-1.14","60fd933d5461857048f9e74c","bdp_sd","Sun Mar 26 2023 14:41:31 GMT-0700 (Pacific Daylight Time)","192982","","null","","","","","FIX","","<div class='trialBorder'><div class='vertical-center'><img style='vertical-align:center; align:center' src=img/fixation3.jpg></div></div>","null","","","","","","",""
"html-keyboard-response","48","152557","0.0-6.0-2.14","60fd933d5461857048f9e74c","bdp_sd","Sun Mar 26 2023 14:41:31 GMT-0700 (Pacific Daylight Time)","192982","","3196","","","","","offer","","<div class='trialBorder'><div class='vertical-center'><img style='vertical-align:center; align:center' src=img/fixation3.jpg></div><div class='cl'><div class='vertical-center'>$55<br>for<br>Haley B</div></div><div class='cr'><div class='vertical-center'>$54<br>for<br>yourself</div></div><div class='respDivL'><div class='vertical-center'>(E)</div></div><div class='respDivR'><div class='vertical-center'>(I)</div></div></div>","I","$54<br>for<br>yourself","$55<br>for<br>5","1","54","55","5","SELF"
"html-keyboard-response","49","152811","0.0-6.0-3.14","60fd933d5461857048f9e74c","bdp_sd","Sun Mar 26 2023 14:41:31 GMT-0700 (Pacific Daylight Time)","192982","","null","","","","","offerFB","","<div class='trialBorder'><div class='vertical-center'><img style='vertical-align:center; align:center' src=img/fixation3.jpg></div><div class='cl'><div class='vertical-center'>$55<br>for<br>Haley B</div></div><div class='cr'><div class='vertical-center'><font style='color:orange'>$54<br>for<br>yourself</font></div></div><div class='respDivL'><div class='vertical-center'>(E)</div></div><div class='respDivR'><div class='vertical-center'><font style='color:orange'>(I)</font></div></div></div>","null","$54<br>for<br>yourself","$55<br>for<br>5","1","54","55","5",""
"html-keyboard-response","50","153313","0.0-6.0-1.15","60fd933d5461857048f9e74c","bdp_sd","Sun Mar 26 2023 14:41:31 GMT-0700 (Pacific Daylight Time)","192982","","null","","","","","FIX","","<div class='trialBorder'><div class='vertical-center'><img style='vertical-align:center; align:center' src=img/fixation3.jpg></div></div>","null","","","","","","",""
"html-keyboard-response","51","155587","0.0-6.0-2.15","60fd933d5461857048f9e74c","bdp_sd","Sun Mar 26 2023 14:41:31 GMT-0700 (Pacific Daylight Time)","192982","","2272","","","","","offer","","<div class='trialBorder'><div class='vertical-center'><img style='vertical-align:center; align:center' src=img/fixation3.jpg></div><div class='cl'><div class='vertical-center'>$14<br>for<br>yourself</div></div><div class='cr'><div class='vertical-center'>$25<br>for<br>Becky D</div></div><div class='respDivL'><div class='vertical-center'>(E)</div></div><div class='respDivR'><div class='vertical-center'>(I)</div></div></div>","I","$14<br>for<br>yourself","$25<br>for<br>3","0","14","25","3","OTHER"
"html-keyboard-response","52","155840","0.0-6.0-3.15","60fd933d5461857048f9e74c","bdp_sd","Sun Mar 26 2023 14:41:31 GMT-0700 (Pacific Daylight Time)","192982","","null","","","","","offerFB","","<div class='trialBorder'><div class='vertical-center'><img style='vertical-align:center; align:center' src=img/fixation3.jpg></div><div class='cl'><div class='vertical-center'>$14<br>for<br>yourself</div></div><div class='cr'><div class='vertical-center'><font style='color:orange'>$25<br>for<br>Becky D</font></div></div><div class='respDivL'><div class='vertical-center'>(E)</div></div><div class='respDivR'><div class='vertical-center'><font style='color:orange'>(I)</font></div></div></div>","null","$14<br>for<br>yourself","$25<br>for<br>3","0","14","25","3",""
"html-keyboard-response","53","156343","0.0-6.0-1.16","60fd933d5461857048f9e74c","bdp_sd","Sun Mar 26 2023 14:41:31 GMT-0700 (Pacific Daylight Time)","192982","","null","","","","","FIX","","<div class='trialBorder'><div class='vertical-center'><img style='vertical-align:center; align:center' src=img/fixation3.jpg></div></div>","null","","","","","","",""
"html-keyboard-response","54","157657","0.0-6.0-2.16","60fd933d5461857048f9e74c","bdp_sd","Sun Mar 26 2023 14:41:31 GMT-0700 (Pacific Daylight Time)","192982","","1313","","","","","offer","","<div class='trialBorder'><div class='vertical-center'><img style='vertical-align:center; align:center' src=img/fixation3.jpg></div><div class='cl'><div class='vertical-center'>$80<br>for<br>Terri N</div></div><div class='cr'><div class='vertical-center'>$33<br>for<br>yourself</div></div><div class='respDivL'><div class='vertical-center'>(E)</div></div><div class='respDivR'><div class='vertical-center'>(I)</div></div></div>","E","$33<br>for<br>yourself","$80<br>for<br>2","1","33","80","2","OTHER"
"html-keyboard-response","55","157910","0.0-6.0-3.16","60fd933d5461857048f9e74c","bdp_sd","Sun Mar 26 2023 14:41:31 GMT-0700 (Pacific Daylight Time)","192982","","null","","","","","offerFB","","<div class='trialBorder'><div class='vertical-center'><img style='vertical-align:center; align:center' src=img/fixation3.jpg></div><div class='cl'><div class='vertical-center'><font style='color:orange'>$80<br>for<br>Terri N</font></div></div><div class='cr'><div class='vertical-center'>$33<br>for<br>yourself</div></div><div class='respDivL'><div class='vertical-center'><font style='color:orange'>(E)</font></div></div><div class='respDivR'><div class='vertical-center'>(I)</div></div></div>","null","$33<br>for<br>yourself","$80<br>for<br>2","1","33","80","2",""
"html-keyboard-response","56","158413","0.0-6.0-1.17","60fd933d5461857048f9e74c","bdp_sd","Sun Mar 26 2023 14:41:31 GMT-0700 (Pacific Daylight Time)","192982","","null","","","","","FIX","","<div class='trialBorder'><div class='vertical-center'><img style='vertical-align:center; align:center' src=img/fixation3.jpg></div></div>","null","","","","","","",""
"html-keyboard-response","57","159853","0.0-6.0-2.17","60fd933d5461857048f9e74c","bdp_sd","Sun Mar 26 2023 14:41:31 GMT-0700 (Pacific Daylight Time)","192982","","1439","","","","","offer","","<div class='trialBorder'><div class='vertical-center'><img style='vertical-align:center; align:center' src=img/fixation3.jpg></div><div class='cl'><div class='vertical-center'>$20<br>for<br>yourself</div></div><div class='cr'><div class='vertical-center'>$55<br>for<br>Matthew S</div></div><div class='respDivL'><div class='vertical-center'>(E)</div></div><div class='respDivR'><div class='vertical-center'>(I)</div></div></div>","I","$20<br>for<br>yourself","$55<br>for<br>1","0","20","55","1","OTHER"
"html-keyboard-response","58","160106","0.0-6.0-3.17","60fd933d5461857048f9e74c","bdp_sd","Sun Mar 26 2023 14:41:31 GMT-0700 (Pacific Daylight Time)","192982","","null","","","","","offerFB","","<div class='trialBorder'><div class='vertical-center'><img style='vertical-align:center; align:center' src=img/fixation3.jpg></div><div class='cl'><div class='vertical-center'>$20<br>for<br>yourself</div></div><div class='cr'><div class='vertical-center'><font style='color:orange'>$55<br>for<br>Matthew S</font></div></div><div class='respDivL'><div class='vertical-center'>(E)</div></div><div class='respDivR'><div class='vertical-center'><font style='color:orange'>(I)</font></div></div></div>","null","$20<br>for<br>yourself","$55<br>for<br>1","0","20","55","1",""
"html-keyboard-response","59","160608","0.0-6.0-1.18","60fd933d5461857048f9e74c","bdp_sd","Sun Mar 26 2023 14:41:31 GMT-0700 (Pacific Daylight Time)","192982","","null","","","","","FIX","","<div class='trialBorder'><div class='vertical-center'><img style='vertical-align:center; align:center' src=img/fixation3.jpg></div></div>","null","","","","","","",""
"html-keyboard-response","60","164345","0.0-6.0-2.18","60fd933d5461857048f9e74c","bdp_sd","Sun Mar 26 2023 14:41:31 GMT-0700 (Pacific Daylight Time)","192982","","3735","","","","","offer","","<div class='trialBorder'><div class='vertical-center'><img style='vertical-align:center; align:center' src=img/fixation3.jpg></div><div class='cl'><div class='vertical-center'>$75<br>for<br>Emily D</div></div><div class='cr'><div class='vertical-center'>$55<br>for<br>yourself</div></div><div class='respDivL'><div class='vertical-center'>(E)</div></div><div class='respDivR'><div class='vertical-center'>(I)</div></div></div>","E","$55<br>for<br>yourself","$75<br>for<br>4","1","55","75","4","OTHER"
"html-keyboard-response","61","164599","0.0-6.0-3.18","60fd933d5461857048f9e74c","bdp_sd","Sun Mar 26 2023 14:41:31 GMT-0700 (Pacific Daylight Time)","192982","","null","","","","","offerFB","","<div class='trialBorder'><div class='vertical-center'><img style='vertical-align:center; align:center' src=img/fixation3.jpg></div><div class='cl'><div class='vertical-center'><font style='color:orange'>$75<br>for<br>Emily D</font></div></div><div class='cr'><div class='vertical-center'>$55<br>for<br>yourself</div></div><div class='respDivL'><div class='vertical-center'><font style='color:orange'>(E)</font></div></div><div class='respDivR'><div class='vertical-center'>(I)</div></div></div>","null","$55<br>for<br>yourself","$75<br>for<br>4","1","55","75","4",""
"html-keyboard-response","62","165103","0.0-6.0-1.19","60fd933d5461857048f9e74c","bdp_sd","Sun Mar 26 2023 14:41:31 GMT-0700 (Pacific Daylight Time)","192982","","null","","","","","FIX","","<div class='trialBorder'><div class='vertical-center'><img style='vertical-align:center; align:center' src=img/fixation3.jpg></div></div>","null","","","","","","",""
"html-keyboard-response","63","169750","0.0-6.0-2.19","60fd933d5461857048f9e74c","bdp_sd","Sun Mar 26 2023 14:41:31 GMT-0700 (Pacific Daylight Time)","192982","","4645","","","","","offer","","<div class='trialBorder'><div class='vertical-center'><img style='vertical-align:center; align:center' src=img/fixation3.jpg></div><div class='cl'><div class='vertical-center'>$69<br>for<br>yourself</div></div><div class='cr'><div class='vertical-center'>$85<br>for<br>Emily D</div></div><div class='respDivL'><div class='vertical-center'>(E)</div></div><div class='respDivR'><div class='vertical-center'>(I)</div></div></div>","E","$69<br>for<br>yourself","$85<br>for<br>4","0","69","85","4","SELF"
"html-keyboard-response","64","170004","0.0-6.0-3.19","60fd933d5461857048f9e74c","bdp_sd","Sun Mar 26 2023 14:41:31 GMT-0700 (Pacific Daylight Time)","192982","","null","","","","","offerFB","","<div class='trialBorder'><div class='vertical-center'><img style='vertical-align:center; align:center' src=img/fixation3.jpg></div><div class='cl'><div class='vertical-center'><font style='color:orange'>$69<br>for<br>yourself</font></div></div><div class='cr'><div class='vertical-center'>$85<br>for<br>Emily D</div></div><div class='respDivL'><div class='vertical-center'><font style='color:orange'>(E)</font></div></div><div class='respDivR'><div class='vertical-center'>(I)</div></div></div>","null","$69<br>for<br>yourself","$85<br>for<br>4","0","69","85","4",""
"html-keyboard-response","65","170505","0.0-6.0-1.20","60fd933d5461857048f9e74c","bdp_sd","Sun Mar 26 2023 14:41:31 GMT-0700 (Pacific Daylight Time)","192982","","null","","","","","FIX","","<div class='trialBorder'><div class='vertical-center'><img style='vertical-align:center; align:center' src=img/fixation3.jpg></div></div>","null","","","","","","",""
"html-keyboard-response","66","173765","0.0-6.0-2.20","60fd933d5461857048f9e74c","bdp_sd","Sun Mar 26 2023 14:41:31 GMT-0700 (Pacific Daylight Time)","192982","","3258","","","","","offer","","<div class='trialBorder'><div class='vertical-center'><img style='vertical-align:center; align:center' src=img/fixation3.jpg></div><div class='cl'><div class='vertical-center'>$67<br>for<br>yourself</div></div><div class='cr'><div class='vertical-center'>$75<br>for<br>Haley B</div></div><div class='respDivL'><div class='vertical-center'>(E)</div></div><div class='respDivR'><div class='vertical-center'>(I)</div></div></div>","E","$67<br>for<br>yourself","$75<br>for<br>5","0","67","75","5","SELF"
"html-keyboard-response","67","174018","0.0-6.0-3.20","60fd933d5461857048f9e74c","bdp_sd","Sun Mar 26 2023 14:41:31 GMT-0700 (Pacific Daylight Time)","192982","","null","","","","","offerFB","","<div class='trialBorder'><div class='vertical-center'><img style='vertical-align:center; align:center' src=img/fixation3.jpg></div><div class='cl'><div class='vertical-center'><font style='color:orange'>$67<br>for<br>yourself</font></div></div><div class='cr'><div class='vertical-center'>$75<br>for<br>Haley B</div></div><div class='respDivL'><div class='vertical-center'><font style='color:orange'>(E)</font></div></div><div class='respDivR'><div class='vertical-center'>(I)</div></div></div>","null","$67<br>for<br>yourself","$75<br>for<br>5","0","67","75","5",""
"html-keyboard-response","68","174520","0.0-6.0-1.21","60fd933d5461857048f9e74c","bdp_sd","Sun Mar 26 2023 14:41:31 GMT-0700 (Pacific Daylight Time)","192982","","null","","","","","FIX","","<div class='trialBorder'><div class='vertical-center'><img style='vertical-align:center; align:center' src=img/fixation3.jpg></div></div>","null","","","","","","",""
"html-keyboard-response","69","176145","0.0-6.0-2.21","60fd933d5461857048f9e74c","bdp_sd","Sun Mar 26 2023 14:41:31 GMT-0700 (Pacific Daylight Time)","192982","","1624","","","","","offer","","<div class='trialBorder'><div class='vertical-center'><img style='vertical-align:center; align:center' src=img/fixation3.jpg></div><div class='cl'><div class='vertical-center'>$54<br>for<br>yourself</div></div><div class='cr'><div class='vertical-center'>$60<br>for<br>Haley B</div></div><div class='respDivL'><div class='vertical-center'>(E)</div></div><div class='respDivR'><div class='vertical-center'>(I)</div></div></div>","E","$54<br>for<br>yourself","$60<br>for<br>5","0","54","60","5","SELF"
"html-keyboard-response","70","176398","0.0-6.0-3.21","60fd933d5461857048f9e74c","bdp_sd","Sun Mar 26 2023 14:41:31 GMT-0700 (Pacific Daylight Time)","192982","","null","","","","","offerFB","","<div class='trialBorder'><div class='vertical-center'><img style='vertical-align:center; align:center' src=img/fixation3.jpg></div><div class='cl'><div class='vertical-center'><font style='color:orange'>$54<br>for<br>yourself</font></div></div><div class='cr'><div class='vertical-center'>$60<br>for<br>Haley B</div></div><div class='respDivL'><div class='vertical-center'><font style='color:orange'>(E)</font></div></div><div class='respDivR'><div class='vertical-center'>(I)</div></div></div>","null","$54<br>for<br>yourself","$60<br>for<br>5","0","54","60","5",""
"html-keyboard-response","71","176900","0.0-6.0-1.22","60fd933d5461857048f9e74c","bdp_sd","Sun Mar 26 2023 14:41:31 GMT-0700 (Pacific Daylight Time)","192982","","null","","","","","FIX","","<div class='trialBorder'><div class='vertical-center'><img style='vertical-align:center; align:center' src=img/fixation3.jpg></div></div>","null","","","","","","",""
"html-keyboard-response","72","179185","0.0-6.0-2.22","60fd933d5461857048f9e74c","bdp_sd","Sun Mar 26 2023 14:41:31 GMT-0700 (Pacific Daylight Time)","192982","","2284","","","","","offer","","<div class='trialBorder'><div class='vertical-center'><img style='vertical-align:center; align:center' src=img/fixation3.jpg></div><div class='cl'><div class='vertical-center'>$60<br>for<br>Emily D</div></div><div class='cr'><div class='vertical-center'>$49<br>for<br>yourself</div></div><div class='respDivL'><div class='vertical-center'>(E)</div></div><div class='respDivR'><div class='vertical-center'>(I)</div></div></div>","E","$49<br>for<br>yourself","$60<br>for<br>4","1","49","60","4","OTHER"
"html-keyboard-response","73","179439","0.0-6.0-3.22","60fd933d5461857048f9e74c","bdp_sd","Sun Mar 26 2023 14:41:31 GMT-0700 (Pacific Daylight Time)","192982","","null","","","","","offerFB","","<div class='trialBorder'><div class='vertical-center'><img style='vertical-align:center; align:center' src=img/fixation3.jpg></div><div class='cl'><div class='vertical-center'><font style='color:orange'>$60<br>for<br>Emily D</font></div></div><div class='cr'><div class='vertical-center'>$49<br>for<br>yourself</div></div><div class='respDivL'><div class='vertical-center'><font style='color:orange'>(E)</font></div></div><div class='respDivR'><div class='vertical-center'>(I)</div></div></div>","null","$49<br>for<br>yourself","$60<br>for<br>4","1","49","60","4",""
"html-keyboard-response","74","179942","0.0-6.0-1.23","60fd933d5461857048f9e74c","bdp_sd","Sun Mar 26 2023 14:41:31 GMT-0700 (Pacific Daylight Time)","192982","","null","","","","","FIX","","<div class='trialBorder'><div class='vertical-center'><img style='vertical-align:center; align:center' src=img/fixation3.jpg></div></div>","null","","","","","","",""
"html-keyboard-response","75","182834","0.0-6.0-2.23","60fd933d5461857048f9e74c","bdp_sd","Sun Mar 26 2023 14:41:31 GMT-0700 (Pacific Daylight Time)","192982","","2891","","","","","offer","","<div class='trialBorder'><div class='vertical-center'><img style='vertical-align:center; align:center' src=img/fixation3.jpg></div><div class='cl'><div class='vertical-center'>$34<br>for<br>yourself</div></div><div class='cr'><div class='vertical-center'>$35<br>for<br>Haley B</div></div><div class='respDivL'><div class='vertical-center'>(E)</div></div><div class='respDivR'><div class='vertical-center'>(I)</div></div></div>","E","$34<br>for<br>yourself","$35<br>for<br>5","0","34","35","5","SELF"
"html-keyboard-response","76","183088","0.0-6.0-3.23","60fd933d5461857048f9e74c","bdp_sd","Sun Mar 26 2023 14:41:31 GMT-0700 (Pacific Daylight Time)","192982","","null","","","","","offerFB","","<div class='trialBorder'><div class='vertical-center'><img style='vertical-align:center; align:center' src=img/fixation3.jpg></div><div class='cl'><div class='vertical-center'><font style='color:orange'>$34<br>for<br>yourself</font></div></div><div class='cr'><div class='vertical-center'>$35<br>for<br>Haley B</div></div><div class='respDivL'><div class='vertical-center'><font style='color:orange'>(E)</font></div></div><div class='respDivR'><div class='vertical-center'>(I)</div></div></div>","null","$34<br>for<br>yourself","$35<br>for<br>5","0","34","35","5",""
"html-keyboard-response","77","183591","0.0-6.0-1.24","60fd933d5461857048f9e74c","bdp_sd","Sun Mar 26 2023 14:41:31 GMT-0700 (Pacific Daylight Time)","192982","","null","","","","","FIX","","<div class='trialBorder'><div class='vertical-center'><img style='vertical-align:center; align:center' src=img/fixation3.jpg></div></div>","null","","","","","","",""
"html-keyboard-response","78","184818","0.0-6.0-2.24","60fd933d5461857048f9e74c","bdp_sd","Sun Mar 26 2023 14:41:31 GMT-0700 (Pacific Daylight Time)","192982","","1226","","","","","offer","","<div class='trialBorder'><div class='vertical-center'><img style='vertical-align:center; align:center' src=img/fixation3.jpg></div><div class='cl'><div class='vertical-center'>$75<br>for<br>Becky D</div></div><div class='cr'><div class='vertical-center'>$41<br>for<br>yourself</div></div><div class='respDivL'><div class='vertical-center'>(E)</div></div><div class='respDivR'><div class='vertical-center'>(I)</div></div></div>","E","$41<br>for<br>yourself","$75<br>for<br>3","1","41","75","3","OTHER"
"html-keyboard-response","79","185072","0.0-6.0-3.24","60fd933d5461857048f9e74c","bdp_sd","Sun Mar 26 2023 14:41:31 GMT-0700 (Pacific Daylight Time)","192982","","null","","","","","offerFB","","<div class='trialBorder'><div class='vertical-center'><img style='vertical-align:center; align:center' src=img/fixation3.jpg></div><div class='cl'><div class='vertical-center'><font style='color:orange'>$75<br>for<br>Becky D</font></div></div><div class='cr'><div class='vertical-center'>$41<br>for<br>yourself</div></div><div class='respDivL'><div class='vertical-center'><font style='color:orange'>(E)</font></div></div><div class='respDivR'><div class='vertical-center'>(I)</div></div></div>","null","$41<br>for<br>yourself","$75<br>for<br>3","1","41","75","3",""
"html-keyboard-response","80","185574","0.0-6.0-1.25","60fd933d5461857048f9e74c","bdp_sd","Sun Mar 26 2023 14:41:31 GMT-0700 (Pacific Daylight Time)","192982","","null","","","","","FIX","","<div class='trialBorder'><div class='vertical-center'><img style='vertical-align:center; align:center' src=img/fixation3.jpg></div></div>","null","","","","","","",""
"html-keyboard-response","81","189070","0.0-6.0-2.25","60fd933d5461857048f9e74c","bdp_sd","Sun Mar 26 2023 14:41:31 GMT-0700 (Pacific Daylight Time)","192982","","3494","","","","","offer","","<div class='trialBorder'><div class='vertical-center'><img style='vertical-align:center; align:center' src=img/fixation3.jpg></div><div class='cl'><div class='vertical-center'>$47<br>for<br>yourself</div></div><div class='cr'><div class='vertical-center'>$50<br>for<br>Haley B</div></div><div class='respDivL'><div class='vertical-center'>(E)</div></div><div class='respDivR'><div class='vertical-center'>(I)</div></div></div>","E","$47<br>for<br>yourself","$50<br>for<br>5","0","47","50","5","SELF"
"html-keyboard-response","82","189324","0.0-6.0-3.25","60fd933d5461857048f9e74c","bdp_sd","Sun Mar 26 2023 14:41:31 GMT-0700 (Pacific Daylight Time)","192982","","null","","","","","offerFB","","<div class='trialBorder'><div class='vertical-center'><img style='vertical-align:center; align:center' src=img/fixation3.jpg></div><div class='cl'><div class='vertical-center'><font style='color:orange'>$47<br>for<br>yourself</font></div></div><div class='cr'><div class='vertical-center'>$50<br>for<br>Haley B</div></div><div class='respDivL'><div class='vertical-center'><font style='color:orange'>(E)</font></div></div><div class='respDivR'><div class='vertical-center'>(I)</div></div></div>","null","$47<br>for<br>yourself","$50<br>for<br>5","0","47","50","5",""
"html-keyboard-response","83","189826","0.0-6.0-1.26","60fd933d5461857048f9e74c","bdp_sd","Sun Mar 26 2023 14:41:31 GMT-0700 (Pacific Daylight Time)","192982","","null","","","","","FIX","","<div class='trialBorder'><div class='vertical-center'><img style='vertical-align:center; align:center' src=img/fixation3.jpg></div></div>","null","","","","","","",""
"html-keyboard-response","84","191727","0.0-6.0-2.26","60fd933d5461857048f9e74c","bdp_sd","Sun Mar 26 2023 14:41:31 GMT-0700 (Pacific Daylight Time)","192982","","1899","","","","","offer","","<div class='trialBorder'><div class='vertical-center'><img style='vertical-align:center; align:center' src=img/fixation3.jpg></div><div class='cl'><div class='vertical-center'>$50<br>for<br>Emily D</div></div><div class='cr'><div class='vertical-center'>$34<br>for<br>yourself</div></div><div class='respDivL'><div class='vertical-center'>(E)</div></div><div class='respDivR'><div class='vertical-center'>(I)</div></div></div>","E","$34<br>for<br>yourself","$50<br>for<br>4","1","34","50","4","OTHER"
"html-keyboard-response","85","191979","0.0-6.0-3.26","60fd933d5461857048f9e74c","bdp_sd","Sun Mar 26 2023 14:41:31 GMT-0700 (Pacific Daylight Time)","192982","","null","","","","","offerFB","","<div class='trialBorder'><div class='vertical-center'><img style='vertical-align:center; align:center' src=img/fixation3.jpg></div><div class='cl'><div class='vertical-center'><font style='color:orange'>$50<br>for<br>Emily D</font></div></div><div class='cr'><div class='vertical-center'>$34<br>for<br>yourself</div></div><div class='respDivL'><div class='vertical-center'><font style='color:orange'>(E)</font></div></div><div class='respDivR'><div class='vertical-center'>(I)</div></div></div>","null","$34<br>for<br>yourself","$50<br>for<br>4","1","34","50","4",""
"","","","","60fd933d5461857048f9e74c","bdp_sd","Sun Mar 26 2023 14:41:31 GMT-0700 (Pacific Daylight Time)","192982","","","","fullscreenexit","86","192037","fullscreenexit","","","","","","","","","",""
"fullscreen","86","192981","0.0-7.0","60fd933d5461857048f9e74c","bdp_sd","Sun Mar 26 2023 14:41:31 GMT-0700 (Pacific Daylight Time)","192982","","","","","","","","true","","","","","","","","",""
"html-keyboard-response","87","193484","0.0-8.0","","","","","","null","","","","","","","","null","","","","","","",""
