"trial_type","trial_index","time_elapsed","internal_node_id","subject_id","task","startTime","totalTime","view_history","rt","responses","event","trial","time","trialtype","success","stimulus","key_press","selfOffer","otherOffer","otherLeft","selfAmt","otherAmt","otherDist","chosen"
"pavlovia","0","1","0.0-0.0","63dab0380b8791f9560fd329","bdp_sd","Tue Mar 28 2023 11:36:31 GMT-0500 (Central Daylight Time)","123260","","","","","","","","","","","","","","","","",""
"instructions","1","1841","0.0-1.0","63dab0380b8791f9560fd329","bdp_sd","Tue Mar 28 2023 11:36:31 GMT-0500 (Central Daylight Time)","123260","[{""page_index"":0,""viewing_time"":1839}]","1839","","","","","","","","","","","","","","",""
"survey-text","2","45246","0.0-2.0","63dab0380b8791f9560fd329","bdp_sd","Tue Mar 28 2023 11:36:31 GMT-0500 (Central Daylight Time)","123260","","43403","{""Q0"":""Siera"",""Q1"":""Tyler"",""Q2"":""James"",""Q3"":""Branson"",""Q4"":""Rogers""}","","","","","","","","","","","","","",""
"","","","","63dab0380b8791f9560fd329","bdp_sd","Tue Mar 28 2023 11:36:31 GMT-0500 (Central Daylight Time)","123260","","","","fullscreenenter","3","47055","fullscreenenter","","","","","","","","","",""
"fullscreen","3","48048","0.0-3.0","63dab0380b8791f9560fd329","bdp_sd","Tue Mar 28 2023 11:36:31 GMT-0500 (Central Daylight Time)","123260","","","","","","","","true","","","","","","","","",""
"instructions","4","57764","0.0-5.0","63dab0380b8791f9560fd329","bdp_sd","Tue Mar 28 2023 11:36:31 GMT-0500 (Central Daylight Time)","123260","[{""page_index"":0,""viewing_time"":3077},{""page_index"":1,""viewing_time"":5079},{""page_index"":2,""viewing_time"":1559}]","9715","","","","","","","","","","","","","","",""
"html-keyboard-response","5","58266","0.0-6.0-1.0","63dab0380b8791f9560fd329","bdp_sd","Tue Mar 28 2023 11:36:31 GMT-0500 (Central Daylight Time)","123260","","null","","","","","FIX","","<div class='trialBorder'><div class='vertical-center'><img style='vertical-align:center; align:center' src=img/fixation3.jpg></div></div>","null","","","","","","",""
"html-keyboard-response","6","60656","0.0-6.0-2.0","63dab0380b8791f9560fd329","bdp_sd","Tue Mar 28 2023 11:36:31 GMT-0500 (Central Daylight Time)","123260","","2390","","","","","offer","","<div class='trialBorder'><div class='vertical-center'><img style='vertical-align:center; align:center' src=img/fixation3.jpg></div><div class='cl'><div class='vertical-center'>$49<br>for<br>yourself</div></div><div class='cr'><div class='vertical-center'>$60<br>for<br>Branson</div></div><div class='respDivL'><div class='vertical-center'>(E)</div></div><div class='respDivR'><div class='vertical-center'>(I)</div></div></div>","E","$49<br>for<br>yourself","$60<br>for<br>4","0","49","60","4","SELF"
"html-keyboard-response","7","60907","0.0-6.0-3.0","63dab0380b8791f9560fd329","bdp_sd","Tue Mar 28 2023 11:36:31 GMT-0500 (Central Daylight Time)","123260","","null","","","","","offerFB","","<div class='trialBorder'><div class='vertical-center'><img style='vertical-align:center; align:center' src=img/fixation3.jpg></div><div class='cl'><div class='vertical-center'><font style='color:orange'>$49<br>for<br>yourself</font></div></div><div class='cr'><div class='vertical-center'>$60<br>for<br>Branson</div></div><div class='respDivL'><div class='vertical-center'><font style='color:orange'>(E)</font></div></div><div class='respDivR'><div class='vertical-center'>(I)</div></div></div>","null","$49<br>for<br>yourself","$60<br>for<br>4","0","49","60","4",""
"html-keyboard-response","8","61408","0.0-6.0-1.1","63dab0380b8791f9560fd329","bdp_sd","Tue Mar 28 2023 11:36:31 GMT-0500 (Central Daylight Time)","123260","","null","","","","","FIX","","<div class='trialBorder'><div class='vertical-center'><img style='vertical-align:center; align:center' src=img/fixation3.jpg></div></div>","null","","","","","","",""
"html-keyboard-response","9","63419","0.0-6.0-2.1","63dab0380b8791f9560fd329","bdp_sd","Tue Mar 28 2023 11:36:31 GMT-0500 (Central Daylight Time)","123260","","2010","","","","","offer","","<div class='trialBorder'><div class='vertical-center'><img style='vertical-align:center; align:center' src=img/fixation3.jpg></div><div class='cl'><div class='vertical-center'>$60<br>for<br>James</div></div><div class='cr'><div class='vertical-center'>$25<br>for<br>yourself</div></div><div class='respDivL'><div class='vertical-center'>(E)</div></div><div class='respDivR'><div class='vertical-center'>(I)</div></div></div>","E","$25<br>for<br>yourself","$60<br>for<br>3","1","25","60","3","OTHER"
"html-keyboard-response","10","63670","0.0-6.0-3.1","63dab0380b8791f9560fd329","bdp_sd","Tue Mar 28 2023 11:36:31 GMT-0500 (Central Daylight Time)","123260","","null","","","","","offerFB","","<div class='trialBorder'><div class='vertical-center'><img style='vertical-align:center; align:center' src=img/fixation3.jpg></div><div class='cl'><div class='vertical-center'><font style='color:orange'>$60<br>for<br>James</font></div></div><div class='cr'><div class='vertical-center'>$25<br>for<br>yourself</div></div><div class='respDivL'><div class='vertical-center'><font style='color:orange'>(E)</font></div></div><div class='respDivR'><div class='vertical-center'>(I)</div></div></div>","null","$25<br>for<br>yourself","$60<br>for<br>3","1","25","60","3",""
"html-keyboard-response","11","64171","0.0-6.0-1.2","63dab0380b8791f9560fd329","bdp_sd","Tue Mar 28 2023 11:36:31 GMT-0500 (Central Daylight Time)","123260","","null","","","","","FIX","","<div class='trialBorder'><div class='vertical-center'><img style='vertical-align:center; align:center' src=img/fixation3.jpg></div></div>","null","","","","","","",""
"html-keyboard-response","12","65822","0.0-6.0-2.2","63dab0380b8791f9560fd329","bdp_sd","Tue Mar 28 2023 11:36:31 GMT-0500 (Central Daylight Time)","123260","","1649","","","","","offer","","<div class='trialBorder'><div class='vertical-center'><img style='vertical-align:center; align:center' src=img/fixation3.jpg></div><div class='cl'><div class='vertical-center'>$69<br>for<br>yourself</div></div><div class='cr'><div class='vertical-center'>$85<br>for<br>Branson</div></div><div class='respDivL'><div class='vertical-center'>(E)</div></div><div class='respDivR'><div class='vertical-center'>(I)</div></div></div>","E","$69<br>for<br>yourself","$85<br>for<br>4","0","69","85","4","SELF"
"html-keyboard-response","13","66073","0.0-6.0-3.2","63dab0380b8791f9560fd329","bdp_sd","Tue Mar 28 2023 11:36:31 GMT-0500 (Central Daylight Time)","123260","","null","","","","","offerFB","","<div class='trialBorder'><div class='vertical-center'><img style='vertical-align:center; align:center' src=img/fixation3.jpg></div><div class='cl'><div class='vertical-center'><font style='color:orange'>$69<br>for<br>yourself</font></div></div><div class='cr'><div class='vertical-center'>$85<br>for<br>Branson</div></div><div class='respDivL'><div class='vertical-center'><font style='color:orange'>(E)</font></div></div><div class='respDivR'><div class='vertical-center'>(I)</div></div></div>","null","$69<br>for<br>yourself","$85<br>for<br>4","0","69","85","4",""
"html-keyboard-response","14","66574","0.0-6.0-1.3","63dab0380b8791f9560fd329","bdp_sd","Tue Mar 28 2023 11:36:31 GMT-0500 (Central Daylight Time)","123260","","null","","","","","FIX","","<div class='trialBorder'><div class='vertical-center'><img style='vertical-align:center; align:center' src=img/fixation3.jpg></div></div>","null","","","","","","",""
"html-keyboard-response","15","68421","0.0-6.0-2.3","63dab0380b8791f9560fd329","bdp_sd","Tue Mar 28 2023 11:36:31 GMT-0500 (Central Daylight Time)","123260","","1846","","","","","offer","","<div class='trialBorder'><div class='vertical-center'><img style='vertical-align:center; align:center' src=img/fixation3.jpg></div><div class='cl'><div class='vertical-center'>$54<br>for<br>yourself</div></div><div class='cr'><div class='vertical-center'>$55<br>for<br>Rogers</div></div><div class='respDivL'><div class='vertical-center'>(E)</div></div><div class='respDivR'><div class='vertical-center'>(I)</div></div></div>","E","$54<br>for<br>yourself","$55<br>for<br>5","0","54","55","5","SELF"
"html-keyboard-response","16","68673","0.0-6.0-3.3","63dab0380b8791f9560fd329","bdp_sd","Tue Mar 28 2023 11:36:31 GMT-0500 (Central Daylight Time)","123260","","null","","","","","offerFB","","<div class='trialBorder'><div class='vertical-center'><img style='vertical-align:center; align:center' src=img/fixation3.jpg></div><div class='cl'><div class='vertical-center'><font style='color:orange'>$54<br>for<br>yourself</font></div></div><div class='cr'><div class='vertical-center'>$55<br>for<br>Rogers</div></div><div class='respDivL'><div class='vertical-center'><font style='color:orange'>(E)</font></div></div><div class='respDivR'><div class='vertical-center'>(I)</div></div></div>","null","$54<br>for<br>yourself","$55<br>for<br>5","0","54","55","5",""
"html-keyboard-response","17","69174","0.0-6.0-1.4","63dab0380b8791f9560fd329","bdp_sd","Tue Mar 28 2023 11:36:31 GMT-0500 (Central Daylight Time)","123260","","null","","","","","FIX","","<div class='trialBorder'><div class='vertical-center'><img style='vertical-align:center; align:center' src=img/fixation3.jpg></div></div>","null","","","","","","",""
"html-keyboard-response","18","70815","0.0-6.0-2.4","63dab0380b8791f9560fd329","bdp_sd","Tue Mar 28 2023 11:36:31 GMT-0500 (Central Daylight Time)","123260","","1640","","","","","offer","","<div class='trialBorder'><div class='vertical-center'><img style='vertical-align:center; align:center' src=img/fixation3.jpg></div><div class='cl'><div class='vertical-center'>$80<br>for<br>yourself</div></div><div class='cr'><div class='vertical-center'>$85<br>for<br>Rogers</div></div><div class='respDivL'><div class='vertical-center'>(E)</div></div><div class='respDivR'><div class='vertical-center'>(I)</div></div></div>","E","$80<br>for<br>yourself","$85<br>for<br>5","0","80","85","5","SELF"
"html-keyboard-response","19","71067","0.0-6.0-3.4","63dab0380b8791f9560fd329","bdp_sd","Tue Mar 28 2023 11:36:31 GMT-0500 (Central Daylight Time)","123260","","null","","","","","offerFB","","<div class='trialBorder'><div class='vertical-center'><img style='vertical-align:center; align:center' src=img/fixation3.jpg></div><div class='cl'><div class='vertical-center'><font style='color:orange'>$80<br>for<br>yourself</font></div></div><div class='cr'><div class='vertical-center'>$85<br>for<br>Rogers</div></div><div class='respDivL'><div class='vertical-center'><font style='color:orange'>(E)</font></div></div><div class='respDivR'><div class='vertical-center'>(I)</div></div></div>","null","$80<br>for<br>yourself","$85<br>for<br>5","0","80","85","5",""
"html-keyboard-response","20","71568","0.0-6.0-1.5","63dab0380b8791f9560fd329","bdp_sd","Tue Mar 28 2023 11:36:31 GMT-0500 (Central Daylight Time)","123260","","null","","","","","FIX","","<div class='trialBorder'><div class='vertical-center'><img style='vertical-align:center; align:center' src=img/fixation3.jpg></div></div>","null","","","","","","",""
"html-keyboard-response","21","73121","0.0-6.0-2.5","63dab0380b8791f9560fd329","bdp_sd","Tue Mar 28 2023 11:36:31 GMT-0500 (Central Daylight Time)","123260","","1553","","","","","offer","","<div class='trialBorder'><div class='vertical-center'><img style='vertical-align:center; align:center' src=img/fixation3.jpg></div><div class='cl'><div class='vertical-center'>$75<br>for<br>Branson</div></div><div class='cr'><div class='vertical-center'>$55<br>for<br>yourself</div></div><div class='respDivL'><div class='vertical-center'>(E)</div></div><div class='respDivR'><div class='vertical-center'>(I)</div></div></div>","I","$55<br>for<br>yourself","$75<br>for<br>4","1","55","75","4","SELF"
"html-keyboard-response","22","73372","0.0-6.0-3.5","63dab0380b8791f9560fd329","bdp_sd","Tue Mar 28 2023 11:36:31 GMT-0500 (Central Daylight Time)","123260","","null","","","","","offerFB","","<div class='trialBorder'><div class='vertical-center'><img style='vertical-align:center; align:center' src=img/fixation3.jpg></div><div class='cl'><div class='vertical-center'>$75<br>for<br>Branson</div></div><div class='cr'><div class='vertical-center'><font style='color:orange'>$55<br>for<br>yourself</font></div></div><div class='respDivL'><div class='vertical-center'>(E)</div></div><div class='respDivR'><div class='vertical-center'><font style='color:orange'>(I)</font></div></div></div>","null","$55<br>for<br>yourself","$75<br>for<br>4","1","55","75","4",""
"html-keyboard-response","23","73873","0.0-6.0-1.6","63dab0380b8791f9560fd329","bdp_sd","Tue Mar 28 2023 11:36:31 GMT-0500 (Central Daylight Time)","123260","","null","","","","","FIX","","<div class='trialBorder'><div class='vertical-center'><img style='vertical-align:center; align:center' src=img/fixation3.jpg></div></div>","null","","","","","","",""
"html-keyboard-response","24","75527","0.0-6.0-2.6","63dab0380b8791f9560fd329","bdp_sd","Tue Mar 28 2023 11:36:31 GMT-0500 (Central Daylight Time)","123260","","1653","","","","","offer","","<div class='trialBorder'><div class='vertical-center'><img style='vertical-align:center; align:center' src=img/fixation3.jpg></div><div class='cl'><div class='vertical-center'>$31<br>for<br>yourself</div></div><div class='cr'><div class='vertical-center'>$85<br>for<br>Siera</div></div><div class='respDivL'><div class='vertical-center'>(E)</div></div><div class='respDivR'><div class='vertical-center'>(I)</div></div></div>","I","$31<br>for<br>yourself","$85<br>for<br>1","0","31","85","1","OTHER"
"html-keyboard-response","25","75778","0.0-6.0-3.6","63dab0380b8791f9560fd329","bdp_sd","Tue Mar 28 2023 11:36:31 GMT-0500 (Central Daylight Time)","123260","","null","","","","","offerFB","","<div class='trialBorder'><div class='vertical-center'><img style='vertical-align:center; align:center' src=img/fixation3.jpg></div><div class='cl'><div class='vertical-center'>$31<br>for<br>yourself</div></div><div class='cr'><div class='vertical-center'><font style='color:orange'>$85<br>for<br>Siera</font></div></div><div class='respDivL'><div class='vertical-center'>(E)</div></div><div class='respDivR'><div class='vertical-center'><font style='color:orange'>(I)</font></div></div></div>","null","$31<br>for<br>yourself","$85<br>for<br>1","0","31","85","1",""
"html-keyboard-response","26","76279","0.0-6.0-1.7","63dab0380b8791f9560fd329","bdp_sd","Tue Mar 28 2023 11:36:31 GMT-0500 (Central Daylight Time)","123260","","null","","","","","FIX","","<div class='trialBorder'><div class='vertical-center'><img style='vertical-align:center; align:center' src=img/fixation3.jpg></div></div>","null","","","","","","",""
"html-keyboard-response","27","77739","0.0-6.0-2.7","63dab0380b8791f9560fd329","bdp_sd","Tue Mar 28 2023 11:36:31 GMT-0500 (Central Daylight Time)","123260","","1460","","","","","offer","","<div class='trialBorder'><div class='vertical-center'><img style='vertical-align:center; align:center' src=img/fixation3.jpg></div><div class='cl'><div class='vertical-center'>$25<br>for<br>Rogers</div></div><div class='cr'><div class='vertical-center'>$22<br>for<br>yourself</div></div><div class='respDivL'><div class='vertical-center'>(E)</div></div><div class='respDivR'><div class='vertical-center'>(I)</div></div></div>","I","$22<br>for<br>yourself","$25<br>for<br>5","1","22","25","5","SELF"
"html-keyboard-response","28","77991","0.0-6.0-3.7","63dab0380b8791f9560fd329","bdp_sd","Tue Mar 28 2023 11:36:31 GMT-0500 (Central Daylight Time)","123260","","null","","","","","offerFB","","<div class='trialBorder'><div class='vertical-center'><img style='vertical-align:center; align:center' src=img/fixation3.jpg></div><div class='cl'><div class='vertical-center'>$25<br>for<br>Rogers</div></div><div class='cr'><div class='vertical-center'><font style='color:orange'>$22<br>for<br>yourself</font></div></div><div class='respDivL'><div class='vertical-center'>(E)</div></div><div class='respDivR'><div class='vertical-center'><font style='color:orange'>(I)</font></div></div></div>","null","$22<br>for<br>yourself","$25<br>for<br>5","1","22","25","5",""
"html-keyboard-response","29","78493","0.0-6.0-1.8","63dab0380b8791f9560fd329","bdp_sd","Tue Mar 28 2023 11:36:31 GMT-0500 (Central Daylight Time)","123260","","null","","","","","FIX","","<div class='trialBorder'><div class='vertical-center'><img style='vertical-align:center; align:center' src=img/fixation3.jpg></div></div>","null","","","","","","",""
"html-keyboard-response","30","80833","0.0-6.0-2.8","63dab0380b8791f9560fd329","bdp_sd","Tue Mar 28 2023 11:36:31 GMT-0500 (Central Daylight Time)","123260","","2340","","","","","offer","","<div class='trialBorder'><div class='vertical-center'><img style='vertical-align:center; align:center' src=img/fixation3.jpg></div><div class='cl'><div class='vertical-center'>$15<br>for<br>yourself</div></div><div class='cr'><div class='vertical-center'>$35<br>for<br>Tyler</div></div><div class='respDivL'><div class='vertical-center'>(E)</div></div><div class='respDivR'><div class='vertical-center'>(I)</div></div></div>","I","$15<br>for<br>yourself","$35<br>for<br>2","0","15","35","2","OTHER"
"html-keyboard-response","31","81084","0.0-6.0-3.8","63dab0380b8791f9560fd329","bdp_sd","Tue Mar 28 2023 11:36:31 GMT-0500 (Central Daylight Time)","123260","","null","","","","","offerFB","","<div class='trialBorder'><div class='vertical-center'><img style='vertical-align:center; align:center' src=img/fixation3.jpg></div><div class='cl'><div class='vertical-center'>$15<br>for<br>yourself</div></div><div class='cr'><div class='vertical-center'><font style='color:orange'>$35<br>for<br>Tyler</font></div></div><div class='respDivL'><div class='vertical-center'>(E)</div></div><div class='respDivR'><div class='vertical-center'><font style='color:orange'>(I)</font></div></div></div>","null","$15<br>for<br>yourself","$35<br>for<br>2","0","15","35","2",""
"html-keyboard-response","32","81585","0.0-6.0-1.9","63dab0380b8791f9560fd329","bdp_sd","Tue Mar 28 2023 11:36:31 GMT-0500 (Central Daylight Time)","123260","","null","","","","","FIX","","<div class='trialBorder'><div class='vertical-center'><img style='vertical-align:center; align:center' src=img/fixation3.jpg></div></div>","null","","","","","","",""
"html-keyboard-response","33","83135","0.0-6.0-2.9","63dab0380b8791f9560fd329","bdp_sd","Tue Mar 28 2023 11:36:31 GMT-0500 (Central Daylight Time)","123260","","1550","","","","","offer","","<div class='trialBorder'><div class='vertical-center'><img style='vertical-align:center; align:center' src=img/fixation3.jpg></div><div class='cl'><div class='vertical-center'>$33<br>for<br>yourself</div></div><div class='cr'><div class='vertical-center'>$80<br>for<br>Tyler</div></div><div class='respDivL'><div class='vertical-center'>(E)</div></div><div class='respDivR'><div class='vertical-center'>(I)</div></div></div>","I","$33<br>for<br>yourself","$80<br>for<br>2","0","33","80","2","OTHER"
"html-keyboard-response","34","83386","0.0-6.0-3.9","63dab0380b8791f9560fd329","bdp_sd","Tue Mar 28 2023 11:36:31 GMT-0500 (Central Daylight Time)","123260","","null","","","","","offerFB","","<div class='trialBorder'><div class='vertical-center'><img style='vertical-align:center; align:center' src=img/fixation3.jpg></div><div class='cl'><div class='vertical-center'>$33<br>for<br>yourself</div></div><div class='cr'><div class='vertical-center'><font style='color:orange'>$80<br>for<br>Tyler</font></div></div><div class='respDivL'><div class='vertical-center'>(E)</div></div><div class='respDivR'><div class='vertical-center'><font style='color:orange'>(I)</font></div></div></div>","null","$33<br>for<br>yourself","$80<br>for<br>2","0","33","80","2",""
"html-keyboard-response","35","83887","0.0-6.0-1.10","63dab0380b8791f9560fd329","bdp_sd","Tue Mar 28 2023 11:36:31 GMT-0500 (Central Daylight Time)","123260","","null","","","","","FIX","","<div class='trialBorder'><div class='vertical-center'><img style='vertical-align:center; align:center' src=img/fixation3.jpg></div></div>","null","","","","","","",""
"html-keyboard-response","36","85163","0.0-6.0-2.10","63dab0380b8791f9560fd329","bdp_sd","Tue Mar 28 2023 11:36:31 GMT-0500 (Central Daylight Time)","123260","","1275","","","","","offer","","<div class='trialBorder'><div class='vertical-center'><img style='vertical-align:center; align:center' src=img/fixation3.jpg></div><div class='cl'><div class='vertical-center'>$50<br>for<br>Rogers</div></div><div class='cr'><div class='vertical-center'>$47<br>for<br>yourself</div></div><div class='respDivL'><div class='vertical-center'>(E)</div></div><div class='respDivR'><div class='vertical-center'>(I)</div></div></div>","I","$47<br>for<br>yourself","$50<br>for<br>5","1","47","50","5","SELF"
"html-keyboard-response","37","85415","0.0-6.0-3.10","63dab0380b8791f9560fd329","bdp_sd","Tue Mar 28 2023 11:36:31 GMT-0500 (Central Daylight Time)","123260","","null","","","","","offerFB","","<div class='trialBorder'><div class='vertical-center'><img style='vertical-align:center; align:center' src=img/fixation3.jpg></div><div class='cl'><div class='vertical-center'>$50<br>for<br>Rogers</div></div><div class='cr'><div class='vertical-center'><font style='color:orange'>$47<br>for<br>yourself</font></div></div><div class='respDivL'><div class='vertical-center'>(E)</div></div><div class='respDivR'><div class='vertical-center'><font style='color:orange'>(I)</font></div></div></div>","null","$47<br>for<br>yourself","$50<br>for<br>5","1","47","50","5",""
"html-keyboard-response","38","85916","0.0-6.0-1.11","63dab0380b8791f9560fd329","bdp_sd","Tue Mar 28 2023 11:36:31 GMT-0500 (Central Daylight Time)","123260","","null","","","","","FIX","","<div class='trialBorder'><div class='vertical-center'><img style='vertical-align:center; align:center' src=img/fixation3.jpg></div></div>","null","","","","","","",""
"html-keyboard-response","39","87665","0.0-6.0-2.11","63dab0380b8791f9560fd329","bdp_sd","Tue Mar 28 2023 11:36:31 GMT-0500 (Central Daylight Time)","123260","","1748","","","","","offer","","<div class='trialBorder'><div class='vertical-center'><img style='vertical-align:center; align:center' src=img/fixation3.jpg></div><div class='cl'><div class='vertical-center'>$40<br>for<br>yourself</div></div><div class='cr'><div class='vertical-center'>$55<br>for<br>Branson</div></div><div class='respDivL'><div class='vertical-center'>(E)</div></div><div class='respDivR'><div class='vertical-center'>(I)</div></div></div>","E","$40<br>for<br>yourself","$55<br>for<br>4","0","40","55","4","SELF"
"html-keyboard-response","40","87915","0.0-6.0-3.11","63dab0380b8791f9560fd329","bdp_sd","Tue Mar 28 2023 11:36:31 GMT-0500 (Central Daylight Time)","123260","","null","","","","","offerFB","","<div class='trialBorder'><div class='vertical-center'><img style='vertical-align:center; align:center' src=img/fixation3.jpg></div><div class='cl'><div class='vertical-center'><font style='color:orange'>$40<br>for<br>yourself</font></div></div><div class='cr'><div class='vertical-center'>$55<br>for<br>Branson</div></div><div class='respDivL'><div class='vertical-center'><font style='color:orange'>(E)</font></div></div><div class='respDivR'><div class='vertical-center'>(I)</div></div></div>","null","$40<br>for<br>yourself","$55<br>for<br>4","0","40","55","4",""
"html-keyboard-response","41","88417","0.0-6.0-1.12","63dab0380b8791f9560fd329","bdp_sd","Tue Mar 28 2023 11:36:31 GMT-0500 (Central Daylight Time)","123260","","null","","","","","FIX","","<div class='trialBorder'><div class='vertical-center'><img style='vertical-align:center; align:center' src=img/fixation3.jpg></div></div>","null","","","","","","",""
"html-keyboard-response","42","89735","0.0-6.0-2.12","63dab0380b8791f9560fd329","bdp_sd","Tue Mar 28 2023 11:36:31 GMT-0500 (Central Daylight Time)","123260","","1317","","","","","offer","","<div class='trialBorder'><div class='vertical-center'><img style='vertical-align:center; align:center' src=img/fixation3.jpg></div><div class='cl'><div class='vertical-center'>$55<br>for<br>Siera</div></div><div class='cr'><div class='vertical-center'>$20<br>for<br>yourself</div></div><div class='respDivL'><div class='vertical-center'>(E)</div></div><div class='respDivR'><div class='vertical-center'>(I)</div></div></div>","E","$20<br>for<br>yourself","$55<br>for<br>1","1","20","55","1","OTHER"
"html-keyboard-response","43","89986","0.0-6.0-3.12","63dab0380b8791f9560fd329","bdp_sd","Tue Mar 28 2023 11:36:31 GMT-0500 (Central Daylight Time)","123260","","null","","","","","offerFB","","<div class='trialBorder'><div class='vertical-center'><img style='vertical-align:center; align:center' src=img/fixation3.jpg></div><div class='cl'><div class='vertical-center'><font style='color:orange'>$55<br>for<br>Siera</font></div></div><div class='cr'><div class='vertical-center'>$20<br>for<br>yourself</div></div><div class='respDivL'><div class='vertical-center'><font style='color:orange'>(E)</font></div></div><div class='respDivR'><div class='vertical-center'>(I)</div></div></div>","null","$20<br>for<br>yourself","$55<br>for<br>1","1","20","55","1",""
"html-keyboard-response","44","90487","0.0-6.0-1.13","63dab0380b8791f9560fd329","bdp_sd","Tue Mar 28 2023 11:36:31 GMT-0500 (Central Daylight Time)","123260","","null","","","","","FIX","","<div class='trialBorder'><div class='vertical-center'><img style='vertical-align:center; align:center' src=img/fixation3.jpg></div></div>","null","","","","","","",""
"html-keyboard-response","45","92102","0.0-6.0-2.13","63dab0380b8791f9560fd329","bdp_sd","Tue Mar 28 2023 11:36:31 GMT-0500 (Central Daylight Time)","123260","","1614","","","","","offer","","<div class='trialBorder'><div class='vertical-center'><img style='vertical-align:center; align:center' src=img/fixation3.jpg></div><div class='cl'><div class='vertical-center'>$19<br>for<br>yourself</div></div><div class='cr'><div class='vertical-center'>$25<br>for<br>Branson</div></div><div class='respDivL'><div class='vertical-center'>(E)</div></div><div class='respDivR'><div class='vertical-center'>(I)</div></div></div>","I","$19<br>for<br>yourself","$25<br>for<br>4","0","19","25","4","OTHER"
"html-keyboard-response","46","92352","0.0-6.0-3.13","63dab0380b8791f9560fd329","bdp_sd","Tue Mar 28 2023 11:36:31 GMT-0500 (Central Daylight Time)","123260","","null","","","","","offerFB","","<div class='trialBorder'><div class='vertical-center'><img style='vertical-align:center; align:center' src=img/fixation3.jpg></div><div class='cl'><div class='vertical-center'>$19<br>for<br>yourself</div></div><div class='cr'><div class='vertical-center'><font style='color:orange'>$25<br>for<br>Branson</font></div></div><div class='respDivL'><div class='vertical-center'>(E)</div></div><div class='respDivR'><div class='vertical-center'><font style='color:orange'>(I)</font></div></div></div>","null","$19<br>for<br>yourself","$25<br>for<br>4","0","19","25","4",""
"html-keyboard-response","47","92854","0.0-6.0-1.14","63dab0380b8791f9560fd329","bdp_sd","Tue Mar 28 2023 11:36:31 GMT-0500 (Central Daylight Time)","123260","","null","","","","","FIX","","<div class='trialBorder'><div class='vertical-center'><img style='vertical-align:center; align:center' src=img/fixation3.jpg></div></div>","null","","","","","","",""
"html-keyboard-response","48","94591","0.0-6.0-2.14","63dab0380b8791f9560fd329","bdp_sd","Tue Mar 28 2023 11:36:31 GMT-0500 (Central Daylight Time)","123260","","1737","","","","","offer","","<div class='trialBorder'><div class='vertical-center'><img style='vertical-align:center; align:center' src=img/fixation3.jpg></div><div class='cl'><div class='vertical-center'>$25<br>for<br>yourself</div></div><div class='cr'><div class='vertical-center'>$30<br>for<br>Branson</div></div><div class='respDivL'><div class='vertical-center'>(E)</div></div><div class='respDivR'><div class='vertical-center'>(I)</div></div></div>","E","$25<br>for<br>yourself","$30<br>for<br>4","0","25","30","4","SELF"
"html-keyboard-response","49","94843","0.0-6.0-3.14","63dab0380b8791f9560fd329","bdp_sd","Tue Mar 28 2023 11:36:31 GMT-0500 (Central Daylight Time)","123260","","null","","","","","offerFB","","<div class='trialBorder'><div class='vertical-center'><img style='vertical-align:center; align:center' src=img/fixation3.jpg></div><div class='cl'><div class='vertical-center'><font style='color:orange'>$25<br>for<br>yourself</font></div></div><div class='cr'><div class='vertical-center'>$30<br>for<br>Branson</div></div><div class='respDivL'><div class='vertical-center'><font style='color:orange'>(E)</font></div></div><div class='respDivR'><div class='vertical-center'>(I)</div></div></div>","null","$25<br>for<br>yourself","$30<br>for<br>4","0","25","30","4",""
"html-keyboard-response","50","95344","0.0-6.0-1.15","63dab0380b8791f9560fd329","bdp_sd","Tue Mar 28 2023 11:36:31 GMT-0500 (Central Daylight Time)","123260","","null","","","","","FIX","","<div class='trialBorder'><div class='vertical-center'><img style='vertical-align:center; align:center' src=img/fixation3.jpg></div></div>","null","","","","","","",""
"html-keyboard-response","51","96739","0.0-6.0-2.15","63dab0380b8791f9560fd329","bdp_sd","Tue Mar 28 2023 11:36:31 GMT-0500 (Central Daylight Time)","123260","","1395","","","","","offer","","<div class='trialBorder'><div class='vertical-center'><img style='vertical-align:center; align:center' src=img/fixation3.jpg></div><div class='cl'><div class='vertical-center'>$30<br>for<br>Tyler</div></div><div class='cr'><div class='vertical-center'>$11<br>for<br>yourself</div></div><div class='respDivL'><div class='vertical-center'>(E)</div></div><div class='respDivR'><div class='vertical-center'>(I)</div></div></div>","E","$11<br>for<br>yourself","$30<br>for<br>2","1","11","30","2","OTHER"
"html-keyboard-response","52","96990","0.0-6.0-3.15","63dab0380b8791f9560fd329","bdp_sd","Tue Mar 28 2023 11:36:31 GMT-0500 (Central Daylight Time)","123260","","null","","","","","offerFB","","<div class='trialBorder'><div class='vertical-center'><img style='vertical-align:center; align:center' src=img/fixation3.jpg></div><div class='cl'><div class='vertical-center'><font style='color:orange'>$30<br>for<br>Tyler</font></div></div><div class='cr'><div class='vertical-center'>$11<br>for<br>yourself</div></div><div class='respDivL'><div class='vertical-center'><font style='color:orange'>(E)</font></div></div><div class='respDivR'><div class='vertical-center'>(I)</div></div></div>","null","$11<br>for<br>yourself","$30<br>for<br>2","1","11","30","2",""
"html-keyboard-response","53","97492","0.0-6.0-1.16","63dab0380b8791f9560fd329","bdp_sd","Tue Mar 28 2023 11:36:31 GMT-0500 (Central Daylight Time)","123260","","null","","","","","FIX","","<div class='trialBorder'><div class='vertical-center'><img style='vertical-align:center; align:center' src=img/fixation3.jpg></div></div>","null","","","","","","",""
"html-keyboard-response","54","99229","0.0-6.0-2.16","63dab0380b8791f9560fd329","bdp_sd","Tue Mar 28 2023 11:36:31 GMT-0500 (Central Daylight Time)","123260","","1737","","","","","offer","","<div class='trialBorder'><div class='vertical-center'><img style='vertical-align:center; align:center' src=img/fixation3.jpg></div><div class='cl'><div class='vertical-center'>$80<br>for<br>James</div></div><div class='cr'><div class='vertical-center'>$54<br>for<br>yourself</div></div><div class='respDivL'><div class='vertical-center'>(E)</div></div><div class='respDivR'><div class='vertical-center'>(I)</div></div></div>","E","$54<br>for<br>yourself","$80<br>for<br>3","1","54","80","3","OTHER"
"html-keyboard-response","55","99481","0.0-6.0-3.16","63dab0380b8791f9560fd329","bdp_sd","Tue Mar 28 2023 11:36:31 GMT-0500 (Central Daylight Time)","123260","","null","","","","","offerFB","","<div class='trialBorder'><div class='vertical-center'><img style='vertical-align:center; align:center' src=img/fixation3.jpg></div><div class='cl'><div class='vertical-center'><font style='color:orange'>$80<br>for<br>James</font></div></div><div class='cr'><div class='vertical-center'>$54<br>for<br>yourself</div></div><div class='respDivL'><div class='vertical-center'><font style='color:orange'>(E)</font></div></div><div class='respDivR'><div class='vertical-center'>(I)</div></div></div>","null","$54<br>for<br>yourself","$80<br>for<br>3","1","54","80","3",""
"html-keyboard-response","56","99983","0.0-6.0-1.17","63dab0380b8791f9560fd329","bdp_sd","Tue Mar 28 2023 11:36:31 GMT-0500 (Central Daylight Time)","123260","","null","","","","","FIX","","<div class='trialBorder'><div class='vertical-center'><img style='vertical-align:center; align:center' src=img/fixation3.jpg></div></div>","null","","","","","","",""
"html-keyboard-response","57","101682","0.0-6.0-2.17","63dab0380b8791f9560fd329","bdp_sd","Tue Mar 28 2023 11:36:31 GMT-0500 (Central Daylight Time)","123260","","1699","","","","","offer","","<div class='trialBorder'><div class='vertical-center'><img style='vertical-align:center; align:center' src=img/fixation3.jpg></div><div class='cl'><div class='vertical-center'>$75<br>for<br>Rogers</div></div><div class='cr'><div class='vertical-center'>$67<br>for<br>yourself</div></div><div class='respDivL'><div class='vertical-center'>(E)</div></div><div class='respDivR'><div class='vertical-center'>(I)</div></div></div>","I","$67<br>for<br>yourself","$75<br>for<br>5","1","67","75","5","SELF"
"html-keyboard-response","58","101934","0.0-6.0-3.17","63dab0380b8791f9560fd329","bdp_sd","Tue Mar 28 2023 11:36:31 GMT-0500 (Central Daylight Time)","123260","","null","","","","","offerFB","","<div class='trialBorder'><div class='vertical-center'><img style='vertical-align:center; align:center' src=img/fixation3.jpg></div><div class='cl'><div class='vertical-center'>$75<br>for<br>Rogers</div></div><div class='cr'><div class='vertical-center'><font style='color:orange'>$67<br>for<br>yourself</font></div></div><div class='respDivL'><div class='vertical-center'>(E)</div></div><div class='respDivR'><div class='vertical-center'><font style='color:orange'>(I)</font></div></div></div>","null","$67<br>for<br>yourself","$75<br>for<br>5","1","67","75","5",""
"html-keyboard-response","59","102435","0.0-6.0-1.18","63dab0380b8791f9560fd329","bdp_sd","Tue Mar 28 2023 11:36:31 GMT-0500 (Central Daylight Time)","123260","","null","","","","","FIX","","<div class='trialBorder'><div class='vertical-center'><img style='vertical-align:center; align:center' src=img/fixation3.jpg></div></div>","null","","","","","","",""
"html-keyboard-response","60","103633","0.0-6.0-2.18","63dab0380b8791f9560fd329","bdp_sd","Tue Mar 28 2023 11:36:31 GMT-0500 (Central Daylight Time)","123260","","1197","","","","","offer","","<div class='trialBorder'><div class='vertical-center'><img style='vertical-align:center; align:center' src=img/fixation3.jpg></div><div class='cl'><div class='vertical-center'>$60<br>for<br>Rogers</div></div><div class='cr'><div class='vertical-center'>$54<br>for<br>yourself</div></div><div class='respDivL'><div class='vertical-center'>(E)</div></div><div class='respDivR'><div class='vertical-center'>(I)</div></div></div>","I","$54<br>for<br>yourself","$60<br>for<br>5","1","54","60","5","SELF"
"html-keyboard-response","61","103884","0.0-6.0-3.18","63dab0380b8791f9560fd329","bdp_sd","Tue Mar 28 2023 11:36:31 GMT-0500 (Central Daylight Time)","123260","","null","","","","","offerFB","","<div class='trialBorder'><div class='vertical-center'><img style='vertical-align:center; align:center' src=img/fixation3.jpg></div><div class='cl'><div class='vertical-center'>$60<br>for<br>Rogers</div></div><div class='cr'><div class='vertical-center'><font style='color:orange'>$54<br>for<br>yourself</font></div></div><div class='respDivL'><div class='vertical-center'>(E)</div></div><div class='respDivR'><div class='vertical-center'><font style='color:orange'>(I)</font></div></div></div>","null","$54<br>for<br>yourself","$60<br>for<br>5","1","54","60","5",""
"html-keyboard-response","62","104386","0.0-6.0-1.19","63dab0380b8791f9560fd329","bdp_sd","Tue Mar 28 2023 11:36:31 GMT-0500 (Central Daylight Time)","123260","","null","","","","","FIX","","<div class='trialBorder'><div class='vertical-center'><img style='vertical-align:center; align:center' src=img/fixation3.jpg></div></div>","null","","","","","","",""
"html-keyboard-response","63","108203","0.0-6.0-2.19","63dab0380b8791f9560fd329","bdp_sd","Tue Mar 28 2023 11:36:31 GMT-0500 (Central Daylight Time)","123260","","3817","","","","","offer","","<div class='trialBorder'><div class='vertical-center'><img style='vertical-align:center; align:center' src=img/fixation3.jpg></div><div class='cl'><div class='vertical-center'>$14<br>for<br>yourself</div></div><div class='cr'><div class='vertical-center'>$25<br>for<br>James</div></div><div class='respDivL'><div class='vertical-center'>(E)</div></div><div class='respDivR'><div class='vertical-center'>(I)</div></div></div>","E","$14<br>for<br>yourself","$25<br>for<br>3","0","14","25","3","SELF"
"html-keyboard-response","64","108454","0.0-6.0-3.19","63dab0380b8791f9560fd329","bdp_sd","Tue Mar 28 2023 11:36:31 GMT-0500 (Central Daylight Time)","123260","","null","","","","","offerFB","","<div class='trialBorder'><div class='vertical-center'><img style='vertical-align:center; align:center' src=img/fixation3.jpg></div><div class='cl'><div class='vertical-center'><font style='color:orange'>$14<br>for<br>yourself</font></div></div><div class='cr'><div class='vertical-center'>$25<br>for<br>James</div></div><div class='respDivL'><div class='vertical-center'><font style='color:orange'>(E)</font></div></div><div class='respDivR'><div class='vertical-center'>(I)</div></div></div>","null","$14<br>for<br>yourself","$25<br>for<br>3","0","14","25","3",""
"html-keyboard-response","65","108955","0.0-6.0-1.20","63dab0380b8791f9560fd329","bdp_sd","Tue Mar 28 2023 11:36:31 GMT-0500 (Central Daylight Time)","123260","","null","","","","","FIX","","<div class='trialBorder'><div class='vertical-center'><img style='vertical-align:center; align:center' src=img/fixation3.jpg></div></div>","null","","","","","","",""
"html-keyboard-response","66","110363","0.0-6.0-2.20","63dab0380b8791f9560fd329","bdp_sd","Tue Mar 28 2023 11:36:31 GMT-0500 (Central Daylight Time)","123260","","1408","","","","","offer","","<div class='trialBorder'><div class='vertical-center'><img style='vertical-align:center; align:center' src=img/fixation3.jpg></div><div class='cl'><div class='vertical-center'>$41<br>for<br>yourself</div></div><div class='cr'><div class='vertical-center'>$75<br>for<br>James</div></div><div class='respDivL'><div class='vertical-center'>(E)</div></div><div class='respDivR'><div class='vertical-center'>(I)</div></div></div>","I","$41<br>for<br>yourself","$75<br>for<br>3","0","41","75","3","OTHER"
"html-keyboard-response","67","110614","0.0-6.0-3.20","63dab0380b8791f9560fd329","bdp_sd","Tue Mar 28 2023 11:36:31 GMT-0500 (Central Daylight Time)","123260","","null","","","","","offerFB","","<div class='trialBorder'><div class='vertical-center'><img style='vertical-align:center; align:center' src=img/fixation3.jpg></div><div class='cl'><div class='vertical-center'>$41<br>for<br>yourself</div></div><div class='cr'><div class='vertical-center'><font style='color:orange'>$75<br>for<br>James</font></div></div><div class='respDivL'><div class='vertical-center'>(E)</div></div><div class='respDivR'><div class='vertical-center'><font style='color:orange'>(I)</font></div></div></div>","null","$41<br>for<br>yourself","$75<br>for<br>3","0","41","75","3",""
"html-keyboard-response","68","111115","0.0-6.0-1.21","63dab0380b8791f9560fd329","bdp_sd","Tue Mar 28 2023 11:36:31 GMT-0500 (Central Daylight Time)","123260","","null","","","","","FIX","","<div class='trialBorder'><div class='vertical-center'><img style='vertical-align:center; align:center' src=img/fixation3.jpg></div></div>","null","","","","","","",""
"html-keyboard-response","69","112422","0.0-6.0-2.21","63dab0380b8791f9560fd329","bdp_sd","Tue Mar 28 2023 11:36:31 GMT-0500 (Central Daylight Time)","123260","","1306","","","","","offer","","<div class='trialBorder'><div class='vertical-center'><img style='vertical-align:center; align:center' src=img/fixation3.jpg></div><div class='cl'><div class='vertical-center'>$34<br>for<br>yourself</div></div><div class='cr'><div class='vertical-center'>$50<br>for<br>Branson</div></div><div class='respDivL'><div class='vertical-center'>(E)</div></div><div class='respDivR'><div class='vertical-center'>(I)</div></div></div>","E","$34<br>for<br>yourself","$50<br>for<br>4","0","34","50","4","SELF"
"html-keyboard-response","70","112673","0.0-6.0-3.21","63dab0380b8791f9560fd329","bdp_sd","Tue Mar 28 2023 11:36:31 GMT-0500 (Central Daylight Time)","123260","","null","","","","","offerFB","","<div class='trialBorder'><div class='vertical-center'><img style='vertical-align:center; align:center' src=img/fixation3.jpg></div><div class='cl'><div class='vertical-center'><font style='color:orange'>$34<br>for<br>yourself</font></div></div><div class='cr'><div class='vertical-center'>$50<br>for<br>Branson</div></div><div class='respDivL'><div class='vertical-center'><font style='color:orange'>(E)</font></div></div><div class='respDivR'><div class='vertical-center'>(I)</div></div></div>","null","$34<br>for<br>yourself","$50<br>for<br>4","0","34","50","4",""
"html-keyboard-response","71","113175","0.0-6.0-1.22","63dab0380b8791f9560fd329","bdp_sd","Tue Mar 28 2023 11:36:31 GMT-0500 (Central Daylight Time)","123260","","null","","","","","FIX","","<div class='trialBorder'><div class='vertical-center'><img style='vertical-align:center; align:center' src=img/fixation3.jpg></div></div>","null","","","","","","",""
"html-keyboard-response","72","113762","0.0-6.0-2.22","63dab0380b8791f9560fd329","bdp_sd","Tue Mar 28 2023 11:36:31 GMT-0500 (Central Daylight Time)","123260","","587","","","","","offer","","<div class='trialBorder'><div class='vertical-center'><img style='vertical-align:center; align:center' src=img/fixation3.jpg></div><div class='cl'><div class='vertical-center'>$35<br>for<br>James</div></div><div class='cr'><div class='vertical-center'>$24<br>for<br>yourself</div></div><div class='respDivL'><div class='vertical-center'>(E)</div></div><div class='respDivR'><div class='vertical-center'>(I)</div></div></div>","E","$24<br>for<br>yourself","$35<br>for<br>3","1","24","35","3","OTHER"
"html-keyboard-response","73","114013","0.0-6.0-3.22","63dab0380b8791f9560fd329","bdp_sd","Tue Mar 28 2023 11:36:31 GMT-0500 (Central Daylight Time)","123260","","null","","","","","offerFB","","<div class='trialBorder'><div class='vertical-center'><img style='vertical-align:center; align:center' src=img/fixation3.jpg></div><div class='cl'><div class='vertical-center'><font style='color:orange'>$35<br>for<br>James</font></div></div><div class='cr'><div class='vertical-center'>$24<br>for<br>yourself</div></div><div class='respDivL'><div class='vertical-center'><font style='color:orange'>(E)</font></div></div><div class='respDivR'><div class='vertical-center'>(I)</div></div></div>","null","$24<br>for<br>yourself","$35<br>for<br>3","1","24","35","3",""
"html-keyboard-response","74","114515","0.0-6.0-1.23","63dab0380b8791f9560fd329","bdp_sd","Tue Mar 28 2023 11:36:31 GMT-0500 (Central Daylight Time)","123260","","null","","","","","FIX","","<div class='trialBorder'><div class='vertical-center'><img style='vertical-align:center; align:center' src=img/fixation3.jpg></div></div>","null","","","","","","",""
"html-keyboard-response","75","115605","0.0-6.0-2.23","63dab0380b8791f9560fd329","bdp_sd","Tue Mar 28 2023 11:36:31 GMT-0500 (Central Daylight Time)","123260","","1090","","","","","offer","","<div class='trialBorder'><div class='vertical-center'><img style='vertical-align:center; align:center' src=img/fixation3.jpg></div><div class='cl'><div class='vertical-center'>$50<br>for<br>James</div></div><div class='cr'><div class='vertical-center'>$27<br>for<br>yourself</div></div><div class='respDivL'><div class='vertical-center'>(E)</div></div><div class='respDivR'><div class='vertical-center'>(I)</div></div></div>","E","$27<br>for<br>yourself","$50<br>for<br>3","1","27","50","3","OTHER"
"html-keyboard-response","76","115855","0.0-6.0-3.23","63dab0380b8791f9560fd329","bdp_sd","Tue Mar 28 2023 11:36:31 GMT-0500 (Central Daylight Time)","123260","","null","","","","","offerFB","","<div class='trialBorder'><div class='vertical-center'><img style='vertical-align:center; align:center' src=img/fixation3.jpg></div><div class='cl'><div class='vertical-center'><font style='color:orange'>$50<br>for<br>James</font></div></div><div class='cr'><div class='vertical-center'>$27<br>for<br>yourself</div></div><div class='respDivL'><div class='vertical-center'><font style='color:orange'>(E)</font></div></div><div class='respDivR'><div class='vertical-center'>(I)</div></div></div>","null","$27<br>for<br>yourself","$50<br>for<br>3","1","27","50","3",""
"html-keyboard-response","77","116356","0.0-6.0-1.24","63dab0380b8791f9560fd329","bdp_sd","Tue Mar 28 2023 11:36:31 GMT-0500 (Central Daylight Time)","123260","","null","","","","","FIX","","<div class='trialBorder'><div class='vertical-center'><img style='vertical-align:center; align:center' src=img/fixation3.jpg></div></div>","null","","","","","","",""
"html-keyboard-response","78","117996","0.0-6.0-2.24","63dab0380b8791f9560fd329","bdp_sd","Tue Mar 28 2023 11:36:31 GMT-0500 (Central Daylight Time)","123260","","1638","","","","","offer","","<div class='trialBorder'><div class='vertical-center'><img style='vertical-align:center; align:center' src=img/fixation3.jpg></div><div class='cl'><div class='vertical-center'>$30<br>for<br>Rogers</div></div><div class='cr'><div class='vertical-center'>$28<br>for<br>yourself</div></div><div class='respDivL'><div class='vertical-center'>(E)</div></div><div class='respDivR'><div class='vertical-center'>(I)</div></div></div>","I","$28<br>for<br>yourself","$30<br>for<br>5","1","28","30","5","SELF"
"html-keyboard-response","79","118247","0.0-6.0-3.24","63dab0380b8791f9560fd329","bdp_sd","Tue Mar 28 2023 11:36:31 GMT-0500 (Central Daylight Time)","123260","","null","","","","","offerFB","","<div class='trialBorder'><div class='vertical-center'><img style='vertical-align:center; align:center' src=img/fixation3.jpg></div><div class='cl'><div class='vertical-center'>$30<br>for<br>Rogers</div></div><div class='cr'><div class='vertical-center'><font style='color:orange'>$28<br>for<br>yourself</font></div></div><div class='respDivL'><div class='vertical-center'>(E)</div></div><div class='respDivR'><div class='vertical-center'><font style='color:orange'>(I)</font></div></div></div>","null","$28<br>for<br>yourself","$30<br>for<br>5","1","28","30","5",""
"html-keyboard-response","80","118749","0.0-6.0-1.25","63dab0380b8791f9560fd329","bdp_sd","Tue Mar 28 2023 11:36:31 GMT-0500 (Central Daylight Time)","123260","","null","","","","","FIX","","<div class='trialBorder'><div class='vertical-center'><img style='vertical-align:center; align:center' src=img/fixation3.jpg></div></div>","null","","","","","","",""
"html-keyboard-response","81","119968","0.0-6.0-2.25","63dab0380b8791f9560fd329","bdp_sd","Tue Mar 28 2023 11:36:31 GMT-0500 (Central Daylight Time)","123260","","1218","","","","","offer","","<div class='trialBorder'><div class='vertical-center'><img style='vertical-align:center; align:center' src=img/fixation3.jpg></div><div class='cl'><div class='vertical-center'>$80<br>for<br>Rogers</div></div><div class='cr'><div class='vertical-center'>$78<br>for<br>yourself</div></div><div class='respDivL'><div class='vertical-center'>(E)</div></div><div class='respDivR'><div class='vertical-center'>(I)</div></div></div>","I","$78<br>for<br>yourself","$80<br>for<br>5","1","78","80","5","SELF"
"html-keyboard-response","82","120219","0.0-6.0-3.25","63dab0380b8791f9560fd329","bdp_sd","Tue Mar 28 2023 11:36:31 GMT-0500 (Central Daylight Time)","123260","","null","","","","","offerFB","","<div class='trialBorder'><div class='vertical-center'><img style='vertical-align:center; align:center' src=img/fixation3.jpg></div><div class='cl'><div class='vertical-center'>$80<br>for<br>Rogers</div></div><div class='cr'><div class='vertical-center'><font style='color:orange'>$78<br>for<br>yourself</font></div></div><div class='respDivL'><div class='vertical-center'>(E)</div></div><div class='respDivR'><div class='vertical-center'><font style='color:orange'>(I)</font></div></div></div>","null","$78<br>for<br>yourself","$80<br>for<br>5","1","78","80","5",""
"html-keyboard-response","83","120720","0.0-6.0-1.26","63dab0380b8791f9560fd329","bdp_sd","Tue Mar 28 2023 11:36:31 GMT-0500 (Central Daylight Time)","123260","","null","","","","","FIX","","<div class='trialBorder'><div class='vertical-center'><img style='vertical-align:center; align:center' src=img/fixation3.jpg></div></div>","null","","","","","","",""
"html-keyboard-response","84","122006","0.0-6.0-2.26","63dab0380b8791f9560fd329","bdp_sd","Tue Mar 28 2023 11:36:31 GMT-0500 (Central Daylight Time)","123260","","1285","","","","","offer","","<div class='trialBorder'><div class='vertical-center'><img style='vertical-align:center; align:center' src=img/fixation3.jpg></div><div class='cl'><div class='vertical-center'>$34<br>for<br>yourself</div></div><div class='cr'><div class='vertical-center'>$35<br>for<br>Rogers</div></div><div class='respDivL'><div class='vertical-center'>(E)</div></div><div class='respDivR'><div class='vertical-center'>(I)</div></div></div>","E","$34<br>for<br>yourself","$35<br>for<br>5","0","34","35","5","SELF"
"html-keyboard-response","85","122259","0.0-6.0-3.26","63dab0380b8791f9560fd329","bdp_sd","Tue Mar 28 2023 11:36:31 GMT-0500 (Central Daylight Time)","123260","","null","","","","","offerFB","","<div class='trialBorder'><div class='vertical-center'><img style='vertical-align:center; align:center' src=img/fixation3.jpg></div><div class='cl'><div class='vertical-center'><font style='color:orange'>$34<br>for<br>yourself</font></div></div><div class='cr'><div class='vertical-center'>$35<br>for<br>Rogers</div></div><div class='respDivL'><div class='vertical-center'><font style='color:orange'>(E)</font></div></div><div class='respDivR'><div class='vertical-center'>(I)</div></div></div>","null","$34<br>for<br>yourself","$35<br>for<br>5","0","34","35","5",""
"","","","","63dab0380b8791f9560fd329","bdp_sd","Tue Mar 28 2023 11:36:31 GMT-0500 (Central Daylight Time)","123260","","","","fullscreenexit","86","122266","fullscreenexit","","","","","","","","","",""
"fullscreen","86","123260","0.0-7.0","63dab0380b8791f9560fd329","bdp_sd","Tue Mar 28 2023 11:36:31 GMT-0500 (Central Daylight Time)","123260","","","","","","","","true","","","","","","","","",""
"html-keyboard-response","87","123761","0.0-8.0","","","","","","null","","","","","","","","null","","","","","","",""
