"trial_type","trial_index","time_elapsed","internal_node_id","subject_id","task","startTime","totalTime","view_history","rt","responses","event","trial","time","trialtype","success","stimulus","key_press","selfOffer","otherOffer","otherLeft","selfAmt","otherAmt","otherDist","chosen"
"pavlovia","0","2","0.0-0.0","61509f0576598bbf74387211","bdp_sd","Mon Mar 27 2023 15:15:15 GMT-0500 (Central Daylight Time)","261610","","","","","","","","","","","","","","","","",""
"instructions","1","1625","0.0-1.0","61509f0576598bbf74387211","bdp_sd","Mon Mar 27 2023 15:15:15 GMT-0500 (Central Daylight Time)","261610","[{""page_index"":0,""viewing_time"":1622}]","1622","","","","","","","","","","","","","","",""
"survey-text","2","121358","0.0-2.0","61509f0576598bbf74387211","bdp_sd","Mon Mar 27 2023 15:15:15 GMT-0500 (Central Daylight Time)","261610","","119733","{""Q0"":""Boris"",""Q1"":""CHunkers"",""Q2"":""Jebbers"",""Q3"":""Tonky"",""Q4"":""Chicken""}","","","","","","","","","","","","","",""
"","","","","61509f0576598bbf74387211","bdp_sd","Mon Mar 27 2023 15:15:15 GMT-0500 (Central Daylight Time)","261610","","","","fullscreenenter","3","148765","fullscreenenter","","","","","","","","","",""
"fullscreen","3","149759","0.0-3.0","61509f0576598bbf74387211","bdp_sd","Mon Mar 27 2023 15:15:15 GMT-0500 (Central Daylight Time)","261610","","","","","","","","true","","","","","","","","",""
"instructions","4","175652","0.0-5.0","61509f0576598bbf74387211","bdp_sd","Mon Mar 27 2023 15:15:15 GMT-0500 (Central Daylight Time)","261610","[{""page_index"":0,""viewing_time"":13421},{""page_index"":1,""viewing_time"":1923},{""page_index"":2,""viewing_time"":5762},{""page_index"":1,""viewing_time"":4319},{""page_index"":2,""viewing_time"":466}]","25892","","","","","","","","","","","","","","",""
"html-keyboard-response","5","176153","0.0-6.0-1.0","61509f0576598bbf74387211","bdp_sd","Mon Mar 27 2023 15:15:15 GMT-0500 (Central Daylight Time)","261610","","null","","","","","FIX","","<div class='trialBorder'><div class='vertical-center'><img style='vertical-align:center; align:center' src=img/fixation3.jpg></div></div>","null","","","","","","",""
"html-keyboard-response","6","186649","0.0-6.0-2.0","61509f0576598bbf74387211","bdp_sd","Mon Mar 27 2023 15:15:15 GMT-0500 (Central Daylight Time)","261610","","10494","","","","","offer","","<div class='trialBorder'><div class='vertical-center'><img style='vertical-align:center; align:center' src=img/fixation3.jpg></div><div class='cl'><div class='vertical-center'>$28<br>for<br>yourself</div></div><div class='cr'><div class='vertical-center'>$30<br>for<br>Chicken</div></div><div class='respDivL'><div class='vertical-center'>(E)</div></div><div class='respDivR'><div class='vertical-center'>(I)</div></div></div>","E","$28<br>for<br>yourself","$30<br>for<br>5","0","28","30","5","SELF"
"html-keyboard-response","7","186901","0.0-6.0-3.0","61509f0576598bbf74387211","bdp_sd","Mon Mar 27 2023 15:15:15 GMT-0500 (Central Daylight Time)","261610","","null","","","","","offerFB","","<div class='trialBorder'><div class='vertical-center'><img style='vertical-align:center; align:center' src=img/fixation3.jpg></div><div class='cl'><div class='vertical-center'><font style='color:orange'>$28<br>for<br>yourself</font></div></div><div class='cr'><div class='vertical-center'>$30<br>for<br>Chicken</div></div><div class='respDivL'><div class='vertical-center'><font style='color:orange'>(E)</font></div></div><div class='respDivR'><div class='vertical-center'>(I)</div></div></div>","null","$28<br>for<br>yourself","$30<br>for<br>5","0","28","30","5",""
"html-keyboard-response","8","187403","0.0-6.0-1.1","61509f0576598bbf74387211","bdp_sd","Mon Mar 27 2023 15:15:15 GMT-0500 (Central Daylight Time)","261610","","null","","","","","FIX","","<div class='trialBorder'><div class='vertical-center'><img style='vertical-align:center; align:center' src=img/fixation3.jpg></div></div>","null","","","","","","",""
"html-keyboard-response","9","192662","0.0-6.0-2.1","61509f0576598bbf74387211","bdp_sd","Mon Mar 27 2023 15:15:15 GMT-0500 (Central Daylight Time)","261610","","5258","","","","","offer","","<div class='trialBorder'><div class='vertical-center'><img style='vertical-align:center; align:center' src=img/fixation3.jpg></div><div class='cl'><div class='vertical-center'>$80<br>for<br>yourself</div></div><div class='cr'><div class='vertical-center'>$85<br>for<br>Chicken</div></div><div class='respDivL'><div class='vertical-center'>(E)</div></div><div class='respDivR'><div class='vertical-center'>(I)</div></div></div>","E","$80<br>for<br>yourself","$85<br>for<br>5","0","80","85","5","SELF"
"html-keyboard-response","10","192914","0.0-6.0-3.1","61509f0576598bbf74387211","bdp_sd","Mon Mar 27 2023 15:15:15 GMT-0500 (Central Daylight Time)","261610","","null","","","","","offerFB","","<div class='trialBorder'><div class='vertical-center'><img style='vertical-align:center; align:center' src=img/fixation3.jpg></div><div class='cl'><div class='vertical-center'><font style='color:orange'>$80<br>for<br>yourself</font></div></div><div class='cr'><div class='vertical-center'>$85<br>for<br>Chicken</div></div><div class='respDivL'><div class='vertical-center'><font style='color:orange'>(E)</font></div></div><div class='respDivR'><div class='vertical-center'>(I)</div></div></div>","null","$80<br>for<br>yourself","$85<br>for<br>5","0","80","85","5",""
"html-keyboard-response","11","193416","0.0-6.0-1.2","61509f0576598bbf74387211","bdp_sd","Mon Mar 27 2023 15:15:15 GMT-0500 (Central Daylight Time)","261610","","null","","","","","FIX","","<div class='trialBorder'><div class='vertical-center'><img style='vertical-align:center; align:center' src=img/fixation3.jpg></div></div>","null","","","","","","",""
"html-keyboard-response","12","197683","0.0-6.0-2.2","61509f0576598bbf74387211","bdp_sd","Mon Mar 27 2023 15:15:15 GMT-0500 (Central Daylight Time)","261610","","4267","","","","","offer","","<div class='trialBorder'><div class='vertical-center'><img style='vertical-align:center; align:center' src=img/fixation3.jpg></div><div class='cl'><div class='vertical-center'>$78<br>for<br>yourself</div></div><div class='cr'><div class='vertical-center'>$80<br>for<br>Chicken</div></div><div class='respDivL'><div class='vertical-center'>(E)</div></div><div class='respDivR'><div class='vertical-center'>(I)</div></div></div>","E","$78<br>for<br>yourself","$80<br>for<br>5","0","78","80","5","SELF"
"html-keyboard-response","13","197935","0.0-6.0-3.2","61509f0576598bbf74387211","bdp_sd","Mon Mar 27 2023 15:15:15 GMT-0500 (Central Daylight Time)","261610","","null","","","","","offerFB","","<div class='trialBorder'><div class='vertical-center'><img style='vertical-align:center; align:center' src=img/fixation3.jpg></div><div class='cl'><div class='vertical-center'><font style='color:orange'>$78<br>for<br>yourself</font></div></div><div class='cr'><div class='vertical-center'>$80<br>for<br>Chicken</div></div><div class='respDivL'><div class='vertical-center'><font style='color:orange'>(E)</font></div></div><div class='respDivR'><div class='vertical-center'>(I)</div></div></div>","null","$78<br>for<br>yourself","$80<br>for<br>5","0","78","80","5",""
"html-keyboard-response","14","198437","0.0-6.0-1.3","61509f0576598bbf74387211","bdp_sd","Mon Mar 27 2023 15:15:15 GMT-0500 (Central Daylight Time)","261610","","null","","","","","FIX","","<div class='trialBorder'><div class='vertical-center'><img style='vertical-align:center; align:center' src=img/fixation3.jpg></div></div>","null","","","","","","",""
"html-keyboard-response","15","201196","0.0-6.0-2.3","61509f0576598bbf74387211","bdp_sd","Mon Mar 27 2023 15:15:15 GMT-0500 (Central Daylight Time)","261610","","2759","","","","","offer","","<div class='trialBorder'><div class='vertical-center'><img style='vertical-align:center; align:center' src=img/fixation3.jpg></div><div class='cl'><div class='vertical-center'>$50<br>for<br>Chicken</div></div><div class='cr'><div class='vertical-center'>$47<br>for<br>yourself</div></div><div class='respDivL'><div class='vertical-center'>(E)</div></div><div class='respDivR'><div class='vertical-center'>(I)</div></div></div>","I","$47<br>for<br>yourself","$50<br>for<br>5","1","47","50","5","SELF"
"html-keyboard-response","16","201451","0.0-6.0-3.3","61509f0576598bbf74387211","bdp_sd","Mon Mar 27 2023 15:15:15 GMT-0500 (Central Daylight Time)","261610","","null","","","","","offerFB","","<div class='trialBorder'><div class='vertical-center'><img style='vertical-align:center; align:center' src=img/fixation3.jpg></div><div class='cl'><div class='vertical-center'>$50<br>for<br>Chicken</div></div><div class='cr'><div class='vertical-center'><font style='color:orange'>$47<br>for<br>yourself</font></div></div><div class='respDivL'><div class='vertical-center'>(E)</div></div><div class='respDivR'><div class='vertical-center'><font style='color:orange'>(I)</font></div></div></div>","null","$47<br>for<br>yourself","$50<br>for<br>5","1","47","50","5",""
"html-keyboard-response","17","201953","0.0-6.0-1.4","61509f0576598bbf74387211","bdp_sd","Mon Mar 27 2023 15:15:15 GMT-0500 (Central Daylight Time)","261610","","null","","","","","FIX","","<div class='trialBorder'><div class='vertical-center'><img style='vertical-align:center; align:center' src=img/fixation3.jpg></div></div>","null","","","","","","",""
"html-keyboard-response","18","205704","0.0-6.0-2.4","61509f0576598bbf74387211","bdp_sd","Mon Mar 27 2023 15:15:15 GMT-0500 (Central Daylight Time)","261610","","3750","","","","","offer","","<div class='trialBorder'><div class='vertical-center'><img style='vertical-align:center; align:center' src=img/fixation3.jpg></div><div class='cl'><div class='vertical-center'>$25<br>for<br>Tonky</div></div><div class='cr'><div class='vertical-center'>$19<br>for<br>yourself</div></div><div class='respDivL'><div class='vertical-center'>(E)</div></div><div class='respDivR'><div class='vertical-center'>(I)</div></div></div>","I","$19<br>for<br>yourself","$25<br>for<br>4","1","19","25","4","SELF"
"html-keyboard-response","19","205956","0.0-6.0-3.4","61509f0576598bbf74387211","bdp_sd","Mon Mar 27 2023 15:15:15 GMT-0500 (Central Daylight Time)","261610","","null","","","","","offerFB","","<div class='trialBorder'><div class='vertical-center'><img style='vertical-align:center; align:center' src=img/fixation3.jpg></div><div class='cl'><div class='vertical-center'>$25<br>for<br>Tonky</div></div><div class='cr'><div class='vertical-center'><font style='color:orange'>$19<br>for<br>yourself</font></div></div><div class='respDivL'><div class='vertical-center'>(E)</div></div><div class='respDivR'><div class='vertical-center'><font style='color:orange'>(I)</font></div></div></div>","null","$19<br>for<br>yourself","$25<br>for<br>4","1","19","25","4",""
"html-keyboard-response","20","206457","0.0-6.0-1.5","61509f0576598bbf74387211","bdp_sd","Mon Mar 27 2023 15:15:15 GMT-0500 (Central Daylight Time)","261610","","null","","","","","FIX","","<div class='trialBorder'><div class='vertical-center'><img style='vertical-align:center; align:center' src=img/fixation3.jpg></div></div>","null","","","","","","",""
"html-keyboard-response","21","213559","0.0-6.0-2.5","61509f0576598bbf74387211","bdp_sd","Mon Mar 27 2023 15:15:15 GMT-0500 (Central Daylight Time)","261610","","7099","","","","","offer","","<div class='trialBorder'><div class='vertical-center'><img style='vertical-align:center; align:center' src=img/fixation3.jpg></div><div class='cl'><div class='vertical-center'>$60<br>for<br>Jebbers</div></div><div class='cr'><div class='vertical-center'>$25<br>for<br>yourself</div></div><div class='respDivL'><div class='vertical-center'>(E)</div></div><div class='respDivR'><div class='vertical-center'>(I)</div></div></div>","E","$25<br>for<br>yourself","$60<br>for<br>3","1","25","60","3","OTHER"
"html-keyboard-response","22","213811","0.0-6.0-3.5","61509f0576598bbf74387211","bdp_sd","Mon Mar 27 2023 15:15:15 GMT-0500 (Central Daylight Time)","261610","","null","","","","","offerFB","","<div class='trialBorder'><div class='vertical-center'><img style='vertical-align:center; align:center' src=img/fixation3.jpg></div><div class='cl'><div class='vertical-center'><font style='color:orange'>$60<br>for<br>Jebbers</font></div></div><div class='cr'><div class='vertical-center'>$25<br>for<br>yourself</div></div><div class='respDivL'><div class='vertical-center'><font style='color:orange'>(E)</font></div></div><div class='respDivR'><div class='vertical-center'>(I)</div></div></div>","null","$25<br>for<br>yourself","$60<br>for<br>3","1","25","60","3",""
"html-keyboard-response","23","214325","0.0-6.0-1.6","61509f0576598bbf74387211","bdp_sd","Mon Mar 27 2023 15:15:15 GMT-0500 (Central Daylight Time)","261610","","null","","","","","FIX","","<div class='trialBorder'><div class='vertical-center'><img style='vertical-align:center; align:center' src=img/fixation3.jpg></div></div>","null","","","","","","",""
"html-keyboard-response","24","216858","0.0-6.0-2.6","61509f0576598bbf74387211","bdp_sd","Mon Mar 27 2023 15:15:15 GMT-0500 (Central Daylight Time)","261610","","2532","","","","","offer","","<div class='trialBorder'><div class='vertical-center'><img style='vertical-align:center; align:center' src=img/fixation3.jpg></div><div class='cl'><div class='vertical-center'>$30<br>for<br>CHunkers</div></div><div class='cr'><div class='vertical-center'>$11<br>for<br>yourself</div></div><div class='respDivL'><div class='vertical-center'>(E)</div></div><div class='respDivR'><div class='vertical-center'>(I)</div></div></div>","E","$11<br>for<br>yourself","$30<br>for<br>2","1","11","30","2","OTHER"
"html-keyboard-response","25","217110","0.0-6.0-3.6","61509f0576598bbf74387211","bdp_sd","Mon Mar 27 2023 15:15:15 GMT-0500 (Central Daylight Time)","261610","","null","","","","","offerFB","","<div class='trialBorder'><div class='vertical-center'><img style='vertical-align:center; align:center' src=img/fixation3.jpg></div><div class='cl'><div class='vertical-center'><font style='color:orange'>$30<br>for<br>CHunkers</font></div></div><div class='cr'><div class='vertical-center'>$11<br>for<br>yourself</div></div><div class='respDivL'><div class='vertical-center'><font style='color:orange'>(E)</font></div></div><div class='respDivR'><div class='vertical-center'>(I)</div></div></div>","null","$11<br>for<br>yourself","$30<br>for<br>2","1","11","30","2",""
"html-keyboard-response","26","217613","0.0-6.0-1.7","61509f0576598bbf74387211","bdp_sd","Mon Mar 27 2023 15:15:15 GMT-0500 (Central Daylight Time)","261610","","null","","","","","FIX","","<div class='trialBorder'><div class='vertical-center'><img style='vertical-align:center; align:center' src=img/fixation3.jpg></div></div>","null","","","","","","",""
"html-keyboard-response","27","221077","0.0-6.0-2.7","61509f0576598bbf74387211","bdp_sd","Mon Mar 27 2023 15:15:15 GMT-0500 (Central Daylight Time)","261610","","3463","","","","","offer","","<div class='trialBorder'><div class='vertical-center'><img style='vertical-align:center; align:center' src=img/fixation3.jpg></div><div class='cl'><div class='vertical-center'>$20<br>for<br>yourself</div></div><div class='cr'><div class='vertical-center'>$55<br>for<br>Boris</div></div><div class='respDivL'><div class='vertical-center'>(E)</div></div><div class='respDivR'><div class='vertical-center'>(I)</div></div></div>","I","$20<br>for<br>yourself","$55<br>for<br>1","0","20","55","1","OTHER"
"html-keyboard-response","28","221329","0.0-6.0-3.7","61509f0576598bbf74387211","bdp_sd","Mon Mar 27 2023 15:15:15 GMT-0500 (Central Daylight Time)","261610","","null","","","","","offerFB","","<div class='trialBorder'><div class='vertical-center'><img style='vertical-align:center; align:center' src=img/fixation3.jpg></div><div class='cl'><div class='vertical-center'>$20<br>for<br>yourself</div></div><div class='cr'><div class='vertical-center'><font style='color:orange'>$55<br>for<br>Boris</font></div></div><div class='respDivL'><div class='vertical-center'>(E)</div></div><div class='respDivR'><div class='vertical-center'><font style='color:orange'>(I)</font></div></div></div>","null","$20<br>for<br>yourself","$55<br>for<br>1","0","20","55","1",""
"html-keyboard-response","29","221831","0.0-6.0-1.8","61509f0576598bbf74387211","bdp_sd","Mon Mar 27 2023 15:15:15 GMT-0500 (Central Daylight Time)","261610","","null","","","","","FIX","","<div class='trialBorder'><div class='vertical-center'><img style='vertical-align:center; align:center' src=img/fixation3.jpg></div></div>","null","","","","","","",""
"html-keyboard-response","30","223074","0.0-6.0-2.8","61509f0576598bbf74387211","bdp_sd","Mon Mar 27 2023 15:15:15 GMT-0500 (Central Daylight Time)","261610","","1242","","","","","offer","","<div class='trialBorder'><div class='vertical-center'><img style='vertical-align:center; align:center' src=img/fixation3.jpg></div><div class='cl'><div class='vertical-center'>$85<br>for<br>Boris</div></div><div class='cr'><div class='vertical-center'>$31<br>for<br>yourself</div></div><div class='respDivL'><div class='vertical-center'>(E)</div></div><div class='respDivR'><div class='vertical-center'>(I)</div></div></div>","E","$31<br>for<br>yourself","$85<br>for<br>1","1","31","85","1","OTHER"
"html-keyboard-response","31","223326","0.0-6.0-3.8","61509f0576598bbf74387211","bdp_sd","Mon Mar 27 2023 15:15:15 GMT-0500 (Central Daylight Time)","261610","","null","","","","","offerFB","","<div class='trialBorder'><div class='vertical-center'><img style='vertical-align:center; align:center' src=img/fixation3.jpg></div><div class='cl'><div class='vertical-center'><font style='color:orange'>$85<br>for<br>Boris</font></div></div><div class='cr'><div class='vertical-center'>$31<br>for<br>yourself</div></div><div class='respDivL'><div class='vertical-center'><font style='color:orange'>(E)</font></div></div><div class='respDivR'><div class='vertical-center'>(I)</div></div></div>","null","$31<br>for<br>yourself","$85<br>for<br>1","1","31","85","1",""
"html-keyboard-response","32","223828","0.0-6.0-1.9","61509f0576598bbf74387211","bdp_sd","Mon Mar 27 2023 15:15:15 GMT-0500 (Central Daylight Time)","261610","","null","","","","","FIX","","<div class='trialBorder'><div class='vertical-center'><img style='vertical-align:center; align:center' src=img/fixation3.jpg></div></div>","null","","","","","","",""
"html-keyboard-response","33","224643","0.0-6.0-2.9","61509f0576598bbf74387211","bdp_sd","Mon Mar 27 2023 15:15:15 GMT-0500 (Central Daylight Time)","261610","","814","","","","","offer","","<div class='trialBorder'><div class='vertical-center'><img style='vertical-align:center; align:center' src=img/fixation3.jpg></div><div class='cl'><div class='vertical-center'>$33<br>for<br>yourself</div></div><div class='cr'><div class='vertical-center'>$80<br>for<br>CHunkers</div></div><div class='respDivL'><div class='vertical-center'>(E)</div></div><div class='respDivR'><div class='vertical-center'>(I)</div></div></div>","I","$33<br>for<br>yourself","$80<br>for<br>2","0","33","80","2","OTHER"
"html-keyboard-response","34","224895","0.0-6.0-3.9","61509f0576598bbf74387211","bdp_sd","Mon Mar 27 2023 15:15:15 GMT-0500 (Central Daylight Time)","261610","","null","","","","","offerFB","","<div class='trialBorder'><div class='vertical-center'><img style='vertical-align:center; align:center' src=img/fixation3.jpg></div><div class='cl'><div class='vertical-center'>$33<br>for<br>yourself</div></div><div class='cr'><div class='vertical-center'><font style='color:orange'>$80<br>for<br>CHunkers</font></div></div><div class='respDivL'><div class='vertical-center'>(E)</div></div><div class='respDivR'><div class='vertical-center'><font style='color:orange'>(I)</font></div></div></div>","null","$33<br>for<br>yourself","$80<br>for<br>2","0","33","80","2",""
"html-keyboard-response","35","225398","0.0-6.0-1.10","61509f0576598bbf74387211","bdp_sd","Mon Mar 27 2023 15:15:15 GMT-0500 (Central Daylight Time)","261610","","null","","","","","FIX","","<div class='trialBorder'><div class='vertical-center'><img style='vertical-align:center; align:center' src=img/fixation3.jpg></div></div>","null","","","","","","",""
"html-keyboard-response","36","226351","0.0-6.0-2.10","61509f0576598bbf74387211","bdp_sd","Mon Mar 27 2023 15:15:15 GMT-0500 (Central Daylight Time)","261610","","952","","","","","offer","","<div class='trialBorder'><div class='vertical-center'><img style='vertical-align:center; align:center' src=img/fixation3.jpg></div><div class='cl'><div class='vertical-center'>$49<br>for<br>yourself</div></div><div class='cr'><div class='vertical-center'>$60<br>for<br>Tonky</div></div><div class='respDivL'><div class='vertical-center'>(E)</div></div><div class='respDivR'><div class='vertical-center'>(I)</div></div></div>","I","$49<br>for<br>yourself","$60<br>for<br>4","0","49","60","4","OTHER"
"html-keyboard-response","37","226602","0.0-6.0-3.10","61509f0576598bbf74387211","bdp_sd","Mon Mar 27 2023 15:15:15 GMT-0500 (Central Daylight Time)","261610","","null","","","","","offerFB","","<div class='trialBorder'><div class='vertical-center'><img style='vertical-align:center; align:center' src=img/fixation3.jpg></div><div class='cl'><div class='vertical-center'>$49<br>for<br>yourself</div></div><div class='cr'><div class='vertical-center'><font style='color:orange'>$60<br>for<br>Tonky</font></div></div><div class='respDivL'><div class='vertical-center'>(E)</div></div><div class='respDivR'><div class='vertical-center'><font style='color:orange'>(I)</font></div></div></div>","null","$49<br>for<br>yourself","$60<br>for<br>4","0","49","60","4",""
"html-keyboard-response","38","227104","0.0-6.0-1.11","61509f0576598bbf74387211","bdp_sd","Mon Mar 27 2023 15:15:15 GMT-0500 (Central Daylight Time)","261610","","null","","","","","FIX","","<div class='trialBorder'><div class='vertical-center'><img style='vertical-align:center; align:center' src=img/fixation3.jpg></div></div>","null","","","","","","",""
"html-keyboard-response","39","227845","0.0-6.0-2.11","61509f0576598bbf74387211","bdp_sd","Mon Mar 27 2023 15:15:15 GMT-0500 (Central Daylight Time)","261610","","741","","","","","offer","","<div class='trialBorder'><div class='vertical-center'><img style='vertical-align:center; align:center' src=img/fixation3.jpg></div><div class='cl'><div class='vertical-center'>$41<br>for<br>yourself</div></div><div class='cr'><div class='vertical-center'>$75<br>for<br>Jebbers</div></div><div class='respDivL'><div class='vertical-center'>(E)</div></div><div class='respDivR'><div class='vertical-center'>(I)</div></div></div>","I","$41<br>for<br>yourself","$75<br>for<br>3","0","41","75","3","OTHER"
"html-keyboard-response","40","228097","0.0-6.0-3.11","61509f0576598bbf74387211","bdp_sd","Mon Mar 27 2023 15:15:15 GMT-0500 (Central Daylight Time)","261610","","null","","","","","offerFB","","<div class='trialBorder'><div class='vertical-center'><img style='vertical-align:center; align:center' src=img/fixation3.jpg></div><div class='cl'><div class='vertical-center'>$41<br>for<br>yourself</div></div><div class='cr'><div class='vertical-center'><font style='color:orange'>$75<br>for<br>Jebbers</font></div></div><div class='respDivL'><div class='vertical-center'>(E)</div></div><div class='respDivR'><div class='vertical-center'><font style='color:orange'>(I)</font></div></div></div>","null","$41<br>for<br>yourself","$75<br>for<br>3","0","41","75","3",""
"html-keyboard-response","41","228598","0.0-6.0-1.12","61509f0576598bbf74387211","bdp_sd","Mon Mar 27 2023 15:15:15 GMT-0500 (Central Daylight Time)","261610","","null","","","","","FIX","","<div class='trialBorder'><div class='vertical-center'><img style='vertical-align:center; align:center' src=img/fixation3.jpg></div></div>","null","","","","","","",""
"html-keyboard-response","42","229840","0.0-6.0-2.12","61509f0576598bbf74387211","bdp_sd","Mon Mar 27 2023 15:15:15 GMT-0500 (Central Daylight Time)","261610","","1241","","","","","offer","","<div class='trialBorder'><div class='vertical-center'><img style='vertical-align:center; align:center' src=img/fixation3.jpg></div><div class='cl'><div class='vertical-center'>$40<br>for<br>yourself</div></div><div class='cr'><div class='vertical-center'>$55<br>for<br>Tonky</div></div><div class='respDivL'><div class='vertical-center'>(E)</div></div><div class='respDivR'><div class='vertical-center'>(I)</div></div></div>","I","$40<br>for<br>yourself","$55<br>for<br>4","0","40","55","4","OTHER"
"html-keyboard-response","43","230100","0.0-6.0-3.12","61509f0576598bbf74387211","bdp_sd","Mon Mar 27 2023 15:15:15 GMT-0500 (Central Daylight Time)","261610","","null","","","","","offerFB","","<div class='trialBorder'><div class='vertical-center'><img style='vertical-align:center; align:center' src=img/fixation3.jpg></div><div class='cl'><div class='vertical-center'>$40<br>for<br>yourself</div></div><div class='cr'><div class='vertical-center'><font style='color:orange'>$55<br>for<br>Tonky</font></div></div><div class='respDivL'><div class='vertical-center'>(E)</div></div><div class='respDivR'><div class='vertical-center'><font style='color:orange'>(I)</font></div></div></div>","null","$40<br>for<br>yourself","$55<br>for<br>4","0","40","55","4",""
"html-keyboard-response","44","230602","0.0-6.0-1.13","61509f0576598bbf74387211","bdp_sd","Mon Mar 27 2023 15:15:15 GMT-0500 (Central Daylight Time)","261610","","null","","","","","FIX","","<div class='trialBorder'><div class='vertical-center'><img style='vertical-align:center; align:center' src=img/fixation3.jpg></div></div>","null","","","","","","",""
"html-keyboard-response","45","231712","0.0-6.0-2.13","61509f0576598bbf74387211","bdp_sd","Mon Mar 27 2023 15:15:15 GMT-0500 (Central Daylight Time)","261610","","1110","","","","","offer","","<div class='trialBorder'><div class='vertical-center'><img style='vertical-align:center; align:center' src=img/fixation3.jpg></div><div class='cl'><div class='vertical-center'>$54<br>for<br>yourself</div></div><div class='cr'><div class='vertical-center'>$60<br>for<br>Chicken</div></div><div class='respDivL'><div class='vertical-center'>(E)</div></div><div class='respDivR'><div class='vertical-center'>(I)</div></div></div>","I","$54<br>for<br>yourself","$60<br>for<br>5","0","54","60","5","OTHER"
"html-keyboard-response","46","231964","0.0-6.0-3.13","61509f0576598bbf74387211","bdp_sd","Mon Mar 27 2023 15:15:15 GMT-0500 (Central Daylight Time)","261610","","null","","","","","offerFB","","<div class='trialBorder'><div class='vertical-center'><img style='vertical-align:center; align:center' src=img/fixation3.jpg></div><div class='cl'><div class='vertical-center'>$54<br>for<br>yourself</div></div><div class='cr'><div class='vertical-center'><font style='color:orange'>$60<br>for<br>Chicken</font></div></div><div class='respDivL'><div class='vertical-center'>(E)</div></div><div class='respDivR'><div class='vertical-center'><font style='color:orange'>(I)</font></div></div></div>","null","$54<br>for<br>yourself","$60<br>for<br>5","0","54","60","5",""
"html-keyboard-response","47","232473","0.0-6.0-1.14","61509f0576598bbf74387211","bdp_sd","Mon Mar 27 2023 15:15:15 GMT-0500 (Central Daylight Time)","261610","","null","","","","","FIX","","<div class='trialBorder'><div class='vertical-center'><img style='vertical-align:center; align:center' src=img/fixation3.jpg></div></div>","null","","","","","","",""
"html-keyboard-response","48","235673","0.0-6.0-2.14","61509f0576598bbf74387211","bdp_sd","Mon Mar 27 2023 15:15:15 GMT-0500 (Central Daylight Time)","261610","","3197","","","","","offer","","<div class='trialBorder'><div class='vertical-center'><img style='vertical-align:center; align:center' src=img/fixation3.jpg></div><div class='cl'><div class='vertical-center'>$34<br>for<br>yourself</div></div><div class='cr'><div class='vertical-center'>$35<br>for<br>Chicken</div></div><div class='respDivL'><div class='vertical-center'>(E)</div></div><div class='respDivR'><div class='vertical-center'>(I)</div></div></div>","E","$34<br>for<br>yourself","$35<br>for<br>5","0","34","35","5","SELF"
"html-keyboard-response","49","235925","0.0-6.0-3.14","61509f0576598bbf74387211","bdp_sd","Mon Mar 27 2023 15:15:15 GMT-0500 (Central Daylight Time)","261610","","null","","","","","offerFB","","<div class='trialBorder'><div class='vertical-center'><img style='vertical-align:center; align:center' src=img/fixation3.jpg></div><div class='cl'><div class='vertical-center'><font style='color:orange'>$34<br>for<br>yourself</font></div></div><div class='cr'><div class='vertical-center'>$35<br>for<br>Chicken</div></div><div class='respDivL'><div class='vertical-center'><font style='color:orange'>(E)</font></div></div><div class='respDivR'><div class='vertical-center'>(I)</div></div></div>","null","$34<br>for<br>yourself","$35<br>for<br>5","0","34","35","5",""
"html-keyboard-response","50","236427","0.0-6.0-1.15","61509f0576598bbf74387211","bdp_sd","Mon Mar 27 2023 15:15:15 GMT-0500 (Central Daylight Time)","261610","","null","","","","","FIX","","<div class='trialBorder'><div class='vertical-center'><img style='vertical-align:center; align:center' src=img/fixation3.jpg></div></div>","null","","","","","","",""
"html-keyboard-response","51","237861","0.0-6.0-2.15","61509f0576598bbf74387211","bdp_sd","Mon Mar 27 2023 15:15:15 GMT-0500 (Central Daylight Time)","261610","","1433","","","","","offer","","<div class='trialBorder'><div class='vertical-center'><img style='vertical-align:center; align:center' src=img/fixation3.jpg></div><div class='cl'><div class='vertical-center'>$25<br>for<br>Chicken</div></div><div class='cr'><div class='vertical-center'>$22<br>for<br>yourself</div></div><div class='respDivL'><div class='vertical-center'>(E)</div></div><div class='respDivR'><div class='vertical-center'>(I)</div></div></div>","E","$22<br>for<br>yourself","$25<br>for<br>5","1","22","25","5","OTHER"
"html-keyboard-response","52","238112","0.0-6.0-3.15","61509f0576598bbf74387211","bdp_sd","Mon Mar 27 2023 15:15:15 GMT-0500 (Central Daylight Time)","261610","","null","","","","","offerFB","","<div class='trialBorder'><div class='vertical-center'><img style='vertical-align:center; align:center' src=img/fixation3.jpg></div><div class='cl'><div class='vertical-center'><font style='color:orange'>$25<br>for<br>Chicken</font></div></div><div class='cr'><div class='vertical-center'>$22<br>for<br>yourself</div></div><div class='respDivL'><div class='vertical-center'><font style='color:orange'>(E)</font></div></div><div class='respDivR'><div class='vertical-center'>(I)</div></div></div>","null","$22<br>for<br>yourself","$25<br>for<br>5","1","22","25","5",""
"html-keyboard-response","53","238614","0.0-6.0-1.16","61509f0576598bbf74387211","bdp_sd","Mon Mar 27 2023 15:15:15 GMT-0500 (Central Daylight Time)","261610","","null","","","","","FIX","","<div class='trialBorder'><div class='vertical-center'><img style='vertical-align:center; align:center' src=img/fixation3.jpg></div></div>","null","","","","","","",""
"html-keyboard-response","54","239865","0.0-6.0-2.16","61509f0576598bbf74387211","bdp_sd","Mon Mar 27 2023 15:15:15 GMT-0500 (Central Daylight Time)","261610","","1250","","","","","offer","","<div class='trialBorder'><div class='vertical-center'><img style='vertical-align:center; align:center' src=img/fixation3.jpg></div><div class='cl'><div class='vertical-center'>$50<br>for<br>Jebbers</div></div><div class='cr'><div class='vertical-center'>$27<br>for<br>yourself</div></div><div class='respDivL'><div class='vertical-center'>(E)</div></div><div class='respDivR'><div class='vertical-center'>(I)</div></div></div>","E","$27<br>for<br>yourself","$50<br>for<br>3","1","27","50","3","OTHER"
"html-keyboard-response","55","240116","0.0-6.0-3.16","61509f0576598bbf74387211","bdp_sd","Mon Mar 27 2023 15:15:15 GMT-0500 (Central Daylight Time)","261610","","null","","","","","offerFB","","<div class='trialBorder'><div class='vertical-center'><img style='vertical-align:center; align:center' src=img/fixation3.jpg></div><div class='cl'><div class='vertical-center'><font style='color:orange'>$50<br>for<br>Jebbers</font></div></div><div class='cr'><div class='vertical-center'>$27<br>for<br>yourself</div></div><div class='respDivL'><div class='vertical-center'><font style='color:orange'>(E)</font></div></div><div class='respDivR'><div class='vertical-center'>(I)</div></div></div>","null","$27<br>for<br>yourself","$50<br>for<br>3","1","27","50","3",""
"html-keyboard-response","56","240619","0.0-6.0-1.17","61509f0576598bbf74387211","bdp_sd","Mon Mar 27 2023 15:15:15 GMT-0500 (Central Daylight Time)","261610","","null","","","","","FIX","","<div class='trialBorder'><div class='vertical-center'><img style='vertical-align:center; align:center' src=img/fixation3.jpg></div></div>","null","","","","","","",""
"html-keyboard-response","57","241464","0.0-6.0-2.17","61509f0576598bbf74387211","bdp_sd","Mon Mar 27 2023 15:15:15 GMT-0500 (Central Daylight Time)","261610","","844","","","","","offer","","<div class='trialBorder'><div class='vertical-center'><img style='vertical-align:center; align:center' src=img/fixation3.jpg></div><div class='cl'><div class='vertical-center'>$80<br>for<br>Jebbers</div></div><div class='cr'><div class='vertical-center'>$54<br>for<br>yourself</div></div><div class='respDivL'><div class='vertical-center'>(E)</div></div><div class='respDivR'><div class='vertical-center'>(I)</div></div></div>","E","$54<br>for<br>yourself","$80<br>for<br>3","1","54","80","3","OTHER"
"html-keyboard-response","58","241716","0.0-6.0-3.17","61509f0576598bbf74387211","bdp_sd","Mon Mar 27 2023 15:15:15 GMT-0500 (Central Daylight Time)","261610","","null","","","","","offerFB","","<div class='trialBorder'><div class='vertical-center'><img style='vertical-align:center; align:center' src=img/fixation3.jpg></div><div class='cl'><div class='vertical-center'><font style='color:orange'>$80<br>for<br>Jebbers</font></div></div><div class='cr'><div class='vertical-center'>$54<br>for<br>yourself</div></div><div class='respDivL'><div class='vertical-center'><font style='color:orange'>(E)</font></div></div><div class='respDivR'><div class='vertical-center'>(I)</div></div></div>","null","$54<br>for<br>yourself","$80<br>for<br>3","1","54","80","3",""
"html-keyboard-response","59","242218","0.0-6.0-1.18","61509f0576598bbf74387211","bdp_sd","Mon Mar 27 2023 15:15:15 GMT-0500 (Central Daylight Time)","261610","","null","","","","","FIX","","<div class='trialBorder'><div class='vertical-center'><img style='vertical-align:center; align:center' src=img/fixation3.jpg></div></div>","null","","","","","","",""
"html-keyboard-response","60","243195","0.0-6.0-2.18","61509f0576598bbf74387211","bdp_sd","Mon Mar 27 2023 15:15:15 GMT-0500 (Central Daylight Time)","261610","","975","","","","","offer","","<div class='trialBorder'><div class='vertical-center'><img style='vertical-align:center; align:center' src=img/fixation3.jpg></div><div class='cl'><div class='vertical-center'>$67<br>for<br>yourself</div></div><div class='cr'><div class='vertical-center'>$75<br>for<br>Chicken</div></div><div class='respDivL'><div class='vertical-center'>(E)</div></div><div class='respDivR'><div class='vertical-center'>(I)</div></div></div>","I","$67<br>for<br>yourself","$75<br>for<br>5","0","67","75","5","OTHER"
"html-keyboard-response","61","243446","0.0-6.0-3.18","61509f0576598bbf74387211","bdp_sd","Mon Mar 27 2023 15:15:15 GMT-0500 (Central Daylight Time)","261610","","null","","","","","offerFB","","<div class='trialBorder'><div class='vertical-center'><img style='vertical-align:center; align:center' src=img/fixation3.jpg></div><div class='cl'><div class='vertical-center'>$67<br>for<br>yourself</div></div><div class='cr'><div class='vertical-center'><font style='color:orange'>$75<br>for<br>Chicken</font></div></div><div class='respDivL'><div class='vertical-center'>(E)</div></div><div class='respDivR'><div class='vertical-center'><font style='color:orange'>(I)</font></div></div></div>","null","$67<br>for<br>yourself","$75<br>for<br>5","0","67","75","5",""
"html-keyboard-response","62","243948","0.0-6.0-1.19","61509f0576598bbf74387211","bdp_sd","Mon Mar 27 2023 15:15:15 GMT-0500 (Central Daylight Time)","261610","","null","","","","","FIX","","<div class='trialBorder'><div class='vertical-center'><img style='vertical-align:center; align:center' src=img/fixation3.jpg></div></div>","null","","","","","","",""
"html-keyboard-response","63","244909","0.0-6.0-2.19","61509f0576598bbf74387211","bdp_sd","Mon Mar 27 2023 15:15:15 GMT-0500 (Central Daylight Time)","261610","","961","","","","","offer","","<div class='trialBorder'><div class='vertical-center'><img style='vertical-align:center; align:center' src=img/fixation3.jpg></div><div class='cl'><div class='vertical-center'>$14<br>for<br>yourself</div></div><div class='cr'><div class='vertical-center'>$25<br>for<br>Jebbers</div></div><div class='respDivL'><div class='vertical-center'>(E)</div></div><div class='respDivR'><div class='vertical-center'>(I)</div></div></div>","I","$14<br>for<br>yourself","$25<br>for<br>3","0","14","25","3","OTHER"
"html-keyboard-response","64","245161","0.0-6.0-3.19","61509f0576598bbf74387211","bdp_sd","Mon Mar 27 2023 15:15:15 GMT-0500 (Central Daylight Time)","261610","","null","","","","","offerFB","","<div class='trialBorder'><div class='vertical-center'><img style='vertical-align:center; align:center' src=img/fixation3.jpg></div><div class='cl'><div class='vertical-center'>$14<br>for<br>yourself</div></div><div class='cr'><div class='vertical-center'><font style='color:orange'>$25<br>for<br>Jebbers</font></div></div><div class='respDivL'><div class='vertical-center'>(E)</div></div><div class='respDivR'><div class='vertical-center'><font style='color:orange'>(I)</font></div></div></div>","null","$14<br>for<br>yourself","$25<br>for<br>3","0","14","25","3",""
"html-keyboard-response","65","245664","0.0-6.0-1.20","61509f0576598bbf74387211","bdp_sd","Mon Mar 27 2023 15:15:15 GMT-0500 (Central Daylight Time)","261610","","null","","","","","FIX","","<div class='trialBorder'><div class='vertical-center'><img style='vertical-align:center; align:center' src=img/fixation3.jpg></div></div>","null","","","","","","",""
"html-keyboard-response","66","247713","0.0-6.0-2.20","61509f0576598bbf74387211","bdp_sd","Mon Mar 27 2023 15:15:15 GMT-0500 (Central Daylight Time)","261610","","2048","","","","","offer","","<div class='trialBorder'><div class='vertical-center'><img style='vertical-align:center; align:center' src=img/fixation3.jpg></div><div class='cl'><div class='vertical-center'>$55<br>for<br>Chicken</div></div><div class='cr'><div class='vertical-center'>$54<br>for<br>yourself</div></div><div class='respDivL'><div class='vertical-center'>(E)</div></div><div class='respDivR'><div class='vertical-center'>(I)</div></div></div>","E","$54<br>for<br>yourself","$55<br>for<br>5","1","54","55","5","OTHER"
"html-keyboard-response","67","247965","0.0-6.0-3.20","61509f0576598bbf74387211","bdp_sd","Mon Mar 27 2023 15:15:15 GMT-0500 (Central Daylight Time)","261610","","null","","","","","offerFB","","<div class='trialBorder'><div class='vertical-center'><img style='vertical-align:center; align:center' src=img/fixation3.jpg></div><div class='cl'><div class='vertical-center'><font style='color:orange'>$55<br>for<br>Chicken</font></div></div><div class='cr'><div class='vertical-center'>$54<br>for<br>yourself</div></div><div class='respDivL'><div class='vertical-center'><font style='color:orange'>(E)</font></div></div><div class='respDivR'><div class='vertical-center'>(I)</div></div></div>","null","$54<br>for<br>yourself","$55<br>for<br>5","1","54","55","5",""
"html-keyboard-response","68","248467","0.0-6.0-1.21","61509f0576598bbf74387211","bdp_sd","Mon Mar 27 2023 15:15:15 GMT-0500 (Central Daylight Time)","261610","","null","","","","","FIX","","<div class='trialBorder'><div class='vertical-center'><img style='vertical-align:center; align:center' src=img/fixation3.jpg></div></div>","null","","","","","","",""
"html-keyboard-response","69","250033","0.0-6.0-2.21","61509f0576598bbf74387211","bdp_sd","Mon Mar 27 2023 15:15:15 GMT-0500 (Central Daylight Time)","261610","","1564","","","","","offer","","<div class='trialBorder'><div class='vertical-center'><img style='vertical-align:center; align:center' src=img/fixation3.jpg></div><div class='cl'><div class='vertical-center'>$50<br>for<br>Tonky</div></div><div class='cr'><div class='vertical-center'>$34<br>for<br>yourself</div></div><div class='respDivL'><div class='vertical-center'>(E)</div></div><div class='respDivR'><div class='vertical-center'>(I)</div></div></div>","E","$34<br>for<br>yourself","$50<br>for<br>4","1","34","50","4","OTHER"
"html-keyboard-response","70","250284","0.0-6.0-3.21","61509f0576598bbf74387211","bdp_sd","Mon Mar 27 2023 15:15:15 GMT-0500 (Central Daylight Time)","261610","","null","","","","","offerFB","","<div class='trialBorder'><div class='vertical-center'><img style='vertical-align:center; align:center' src=img/fixation3.jpg></div><div class='cl'><div class='vertical-center'><font style='color:orange'>$50<br>for<br>Tonky</font></div></div><div class='cr'><div class='vertical-center'>$34<br>for<br>yourself</div></div><div class='respDivL'><div class='vertical-center'><font style='color:orange'>(E)</font></div></div><div class='respDivR'><div class='vertical-center'>(I)</div></div></div>","null","$34<br>for<br>yourself","$50<br>for<br>4","1","34","50","4",""
"html-keyboard-response","71","250786","0.0-6.0-1.22","61509f0576598bbf74387211","bdp_sd","Mon Mar 27 2023 15:15:15 GMT-0500 (Central Daylight Time)","261610","","null","","","","","FIX","","<div class='trialBorder'><div class='vertical-center'><img style='vertical-align:center; align:center' src=img/fixation3.jpg></div></div>","null","","","","","","",""
"html-keyboard-response","72","252541","0.0-6.0-2.22","61509f0576598bbf74387211","bdp_sd","Mon Mar 27 2023 15:15:15 GMT-0500 (Central Daylight Time)","261610","","1753","","","","","offer","","<div class='trialBorder'><div class='vertical-center'><img style='vertical-align:center; align:center' src=img/fixation3.jpg></div><div class='cl'><div class='vertical-center'>$24<br>for<br>yourself</div></div><div class='cr'><div class='vertical-center'>$35<br>for<br>Jebbers</div></div><div class='respDivL'><div class='vertical-center'>(E)</div></div><div class='respDivR'><div class='vertical-center'>(I)</div></div></div>","E","$24<br>for<br>yourself","$35<br>for<br>3","0","24","35","3","SELF"
"html-keyboard-response","73","252792","0.0-6.0-3.22","61509f0576598bbf74387211","bdp_sd","Mon Mar 27 2023 15:15:15 GMT-0500 (Central Daylight Time)","261610","","null","","","","","offerFB","","<div class='trialBorder'><div class='vertical-center'><img style='vertical-align:center; align:center' src=img/fixation3.jpg></div><div class='cl'><div class='vertical-center'><font style='color:orange'>$24<br>for<br>yourself</font></div></div><div class='cr'><div class='vertical-center'>$35<br>for<br>Jebbers</div></div><div class='respDivL'><div class='vertical-center'><font style='color:orange'>(E)</font></div></div><div class='respDivR'><div class='vertical-center'>(I)</div></div></div>","null","$24<br>for<br>yourself","$35<br>for<br>3","0","24","35","3",""
"html-keyboard-response","74","253294","0.0-6.0-1.23","61509f0576598bbf74387211","bdp_sd","Mon Mar 27 2023 15:15:15 GMT-0500 (Central Daylight Time)","261610","","null","","","","","FIX","","<div class='trialBorder'><div class='vertical-center'><img style='vertical-align:center; align:center' src=img/fixation3.jpg></div></div>","null","","","","","","",""
"html-keyboard-response","75","254625","0.0-6.0-2.23","61509f0576598bbf74387211","bdp_sd","Mon Mar 27 2023 15:15:15 GMT-0500 (Central Daylight Time)","261610","","1329","","","","","offer","","<div class='trialBorder'><div class='vertical-center'><img style='vertical-align:center; align:center' src=img/fixation3.jpg></div><div class='cl'><div class='vertical-center'>$75<br>for<br>Tonky</div></div><div class='cr'><div class='vertical-center'>$55<br>for<br>yourself</div></div><div class='respDivL'><div class='vertical-center'>(E)</div></div><div class='respDivR'><div class='vertical-center'>(I)</div></div></div>","I","$55<br>for<br>yourself","$75<br>for<br>4","1","55","75","4","SELF"
"html-keyboard-response","76","254877","0.0-6.0-3.23","61509f0576598bbf74387211","bdp_sd","Mon Mar 27 2023 15:15:15 GMT-0500 (Central Daylight Time)","261610","","null","","","","","offerFB","","<div class='trialBorder'><div class='vertical-center'><img style='vertical-align:center; align:center' src=img/fixation3.jpg></div><div class='cl'><div class='vertical-center'>$75<br>for<br>Tonky</div></div><div class='cr'><div class='vertical-center'><font style='color:orange'>$55<br>for<br>yourself</font></div></div><div class='respDivL'><div class='vertical-center'>(E)</div></div><div class='respDivR'><div class='vertical-center'><font style='color:orange'>(I)</font></div></div></div>","null","$55<br>for<br>yourself","$75<br>for<br>4","1","55","75","4",""
"html-keyboard-response","77","255382","0.0-6.0-1.24","61509f0576598bbf74387211","bdp_sd","Mon Mar 27 2023 15:15:15 GMT-0500 (Central Daylight Time)","261610","","null","","","","","FIX","","<div class='trialBorder'><div class='vertical-center'><img style='vertical-align:center; align:center' src=img/fixation3.jpg></div></div>","null","","","","","","",""
"html-keyboard-response","78","256829","0.0-6.0-2.24","61509f0576598bbf74387211","bdp_sd","Mon Mar 27 2023 15:15:15 GMT-0500 (Central Daylight Time)","261610","","1446","","","","","offer","","<div class='trialBorder'><div class='vertical-center'><img style='vertical-align:center; align:center' src=img/fixation3.jpg></div><div class='cl'><div class='vertical-center'>$69<br>for<br>yourself</div></div><div class='cr'><div class='vertical-center'>$85<br>for<br>Tonky</div></div><div class='respDivL'><div class='vertical-center'>(E)</div></div><div class='respDivR'><div class='vertical-center'>(I)</div></div></div>","E","$69<br>for<br>yourself","$85<br>for<br>4","0","69","85","4","SELF"
"html-keyboard-response","79","257080","0.0-6.0-3.24","61509f0576598bbf74387211","bdp_sd","Mon Mar 27 2023 15:15:15 GMT-0500 (Central Daylight Time)","261610","","null","","","","","offerFB","","<div class='trialBorder'><div class='vertical-center'><img style='vertical-align:center; align:center' src=img/fixation3.jpg></div><div class='cl'><div class='vertical-center'><font style='color:orange'>$69<br>for<br>yourself</font></div></div><div class='cr'><div class='vertical-center'>$85<br>for<br>Tonky</div></div><div class='respDivL'><div class='vertical-center'><font style='color:orange'>(E)</font></div></div><div class='respDivR'><div class='vertical-center'>(I)</div></div></div>","null","$69<br>for<br>yourself","$85<br>for<br>4","0","69","85","4",""
"html-keyboard-response","80","257583","0.0-6.0-1.25","61509f0576598bbf74387211","bdp_sd","Mon Mar 27 2023 15:15:15 GMT-0500 (Central Daylight Time)","261610","","null","","","","","FIX","","<div class='trialBorder'><div class='vertical-center'><img style='vertical-align:center; align:center' src=img/fixation3.jpg></div></div>","null","","","","","","",""
"html-keyboard-response","81","258685","0.0-6.0-2.25","61509f0576598bbf74387211","bdp_sd","Mon Mar 27 2023 15:15:15 GMT-0500 (Central Daylight Time)","261610","","1100","","","","","offer","","<div class='trialBorder'><div class='vertical-center'><img style='vertical-align:center; align:center' src=img/fixation3.jpg></div><div class='cl'><div class='vertical-center'>$35<br>for<br>CHunkers</div></div><div class='cr'><div class='vertical-center'>$15<br>for<br>yourself</div></div><div class='respDivL'><div class='vertical-center'>(E)</div></div><div class='respDivR'><div class='vertical-center'>(I)</div></div></div>","I","$15<br>for<br>yourself","$35<br>for<br>2","1","15","35","2","SELF"
"html-keyboard-response","82","258937","0.0-6.0-3.25","61509f0576598bbf74387211","bdp_sd","Mon Mar 27 2023 15:15:15 GMT-0500 (Central Daylight Time)","261610","","null","","","","","offerFB","","<div class='trialBorder'><div class='vertical-center'><img style='vertical-align:center; align:center' src=img/fixation3.jpg></div><div class='cl'><div class='vertical-center'>$35<br>for<br>CHunkers</div></div><div class='cr'><div class='vertical-center'><font style='color:orange'>$15<br>for<br>yourself</font></div></div><div class='respDivL'><div class='vertical-center'>(E)</div></div><div class='respDivR'><div class='vertical-center'><font style='color:orange'>(I)</font></div></div></div>","null","$15<br>for<br>yourself","$35<br>for<br>2","1","15","35","2",""
"html-keyboard-response","83","259440","0.0-6.0-1.26","61509f0576598bbf74387211","bdp_sd","Mon Mar 27 2023 15:15:15 GMT-0500 (Central Daylight Time)","261610","","null","","","","","FIX","","<div class='trialBorder'><div class='vertical-center'><img style='vertical-align:center; align:center' src=img/fixation3.jpg></div></div>","null","","","","","","",""
"html-keyboard-response","84","260357","0.0-6.0-2.26","61509f0576598bbf74387211","bdp_sd","Mon Mar 27 2023 15:15:15 GMT-0500 (Central Daylight Time)","261610","","916","","","","","offer","","<div class='trialBorder'><div class='vertical-center'><img style='vertical-align:center; align:center' src=img/fixation3.jpg></div><div class='cl'><div class='vertical-center'>$30<br>for<br>Tonky</div></div><div class='cr'><div class='vertical-center'>$25<br>for<br>yourself</div></div><div class='respDivL'><div class='vertical-center'>(E)</div></div><div class='respDivR'><div class='vertical-center'>(I)</div></div></div>","I","$25<br>for<br>yourself","$30<br>for<br>4","1","25","30","4","SELF"
"html-keyboard-response","85","260609","0.0-6.0-3.26","61509f0576598bbf74387211","bdp_sd","Mon Mar 27 2023 15:15:15 GMT-0500 (Central Daylight Time)","261610","","null","","","","","offerFB","","<div class='trialBorder'><div class='vertical-center'><img style='vertical-align:center; align:center' src=img/fixation3.jpg></div><div class='cl'><div class='vertical-center'>$30<br>for<br>Tonky</div></div><div class='cr'><div class='vertical-center'><font style='color:orange'>$25<br>for<br>yourself</font></div></div><div class='respDivL'><div class='vertical-center'>(E)</div></div><div class='respDivR'><div class='vertical-center'><font style='color:orange'>(I)</font></div></div></div>","null","$25<br>for<br>yourself","$30<br>for<br>4","1","25","30","4",""
"","","","","61509f0576598bbf74387211","bdp_sd","Mon Mar 27 2023 15:15:15 GMT-0500 (Central Daylight Time)","261610","","","","fullscreenexit","86","260613","fullscreenexit","","","","","","","","","",""
"fullscreen","86","261609","0.0-7.0","61509f0576598bbf74387211","bdp_sd","Mon Mar 27 2023 15:15:15 GMT-0500 (Central Daylight Time)","261610","","","","","","","","true","","","","","","","","",""
"html-keyboard-response","87","262112","0.0-8.0","","","","","","null","","","","","","","","null","","","","","","",""
