"trial_type","trial_index","time_elapsed","internal_node_id","subject_id","task","startTime","totalTime","view_history","rt","responses","event","trial","time","trialtype","success","stimulus","key_press","selfOffer","otherOffer","otherLeft","selfAmt","otherAmt","otherDist","chosen"
"pavlovia","0","3","0.0-0.0","63b6ef9027eb90f292852ee4","bdp_sd","Sun Mar 26 2023 22:37:59 GMT-0400 (Eastern Daylight Time)","144327","","","","","","","","","","","","","","","","",""
"instructions","1","3062","0.0-1.0","63b6ef9027eb90f292852ee4","bdp_sd","Sun Mar 26 2023 22:37:59 GMT-0400 (Eastern Daylight Time)","144327","[{""page_index"":0,""viewing_time"":3059}]","3059","","","","","","","","","","","","","","",""
"survey-text","2","52029","0.0-2.0","63b6ef9027eb90f292852ee4","bdp_sd","Sun Mar 26 2023 22:37:59 GMT-0400 (Eastern Daylight Time)","144327","","48965","{""Q0"":""Kathy W"",""Q1"":""Mari K"",""Q2"":""Autumn S"",""Q3"":""Chase S"",""Q4"":""Marcus T""}","","","","","","","","","","","","","",""
"","","","","63b6ef9027eb90f292852ee4","bdp_sd","Sun Mar 26 2023 22:37:59 GMT-0400 (Eastern Daylight Time)","144327","","","","fullscreenenter","3","53407","fullscreenenter","","","","","","","","","",""
"fullscreen","3","54380","0.0-3.0","63b6ef9027eb90f292852ee4","bdp_sd","Sun Mar 26 2023 22:37:59 GMT-0400 (Eastern Daylight Time)","144327","","","","","","","","true","","","","","","","","",""
"instructions","4","69245","0.0-5.0","63b6ef9027eb90f292852ee4","bdp_sd","Sun Mar 26 2023 22:37:59 GMT-0400 (Eastern Daylight Time)","144327","[{""page_index"":0,""viewing_time"":5718},{""page_index"":1,""viewing_time"":6131},{""page_index"":2,""viewing_time"":3015}]","14864","","","","","","","","","","","","","","",""
"html-keyboard-response","5","69751","0.0-6.0-1.0","63b6ef9027eb90f292852ee4","bdp_sd","Sun Mar 26 2023 22:37:59 GMT-0400 (Eastern Daylight Time)","144327","","null","","","","","FIX","","<div class='trialBorder'><div class='vertical-center'><img style='vertical-align:center; align:center' src=img/fixation3.jpg></div></div>","null","","","","","","",""
"html-keyboard-response","6","73747","0.0-6.0-2.0","63b6ef9027eb90f292852ee4","bdp_sd","Sun Mar 26 2023 22:37:59 GMT-0400 (Eastern Daylight Time)","144327","","3992","","","","","offer","","<div class='trialBorder'><div class='vertical-center'><img style='vertical-align:center; align:center' src=img/fixation3.jpg></div><div class='cl'><div class='vertical-center'>$30<br>for<br>Marcus T</div></div><div class='cr'><div class='vertical-center'>$28<br>for<br>yourself</div></div><div class='respDivL'><div class='vertical-center'>(E)</div></div><div class='respDivR'><div class='vertical-center'>(I)</div></div></div>","I","$28<br>for<br>yourself","$30<br>for<br>5","1","28","30","5","SELF"
"html-keyboard-response","7","74000","0.0-6.0-3.0","63b6ef9027eb90f292852ee4","bdp_sd","Sun Mar 26 2023 22:37:59 GMT-0400 (Eastern Daylight Time)","144327","","null","","","","","offerFB","","<div class='trialBorder'><div class='vertical-center'><img style='vertical-align:center; align:center' src=img/fixation3.jpg></div><div class='cl'><div class='vertical-center'>$30<br>for<br>Marcus T</div></div><div class='cr'><div class='vertical-center'><font style='color:orange'>$28<br>for<br>yourself</font></div></div><div class='respDivL'><div class='vertical-center'>(E)</div></div><div class='respDivR'><div class='vertical-center'><font style='color:orange'>(I)</font></div></div></div>","null","$28<br>for<br>yourself","$30<br>for<br>5","1","28","30","5",""
"html-keyboard-response","8","74505","0.0-6.0-1.1","63b6ef9027eb90f292852ee4","bdp_sd","Sun Mar 26 2023 22:37:59 GMT-0400 (Eastern Daylight Time)","144327","","null","","","","","FIX","","<div class='trialBorder'><div class='vertical-center'><img style='vertical-align:center; align:center' src=img/fixation3.jpg></div></div>","null","","","","","","",""
"html-keyboard-response","9","77546","0.0-6.0-2.1","63b6ef9027eb90f292852ee4","bdp_sd","Sun Mar 26 2023 22:37:59 GMT-0400 (Eastern Daylight Time)","144327","","3038","","","","","offer","","<div class='trialBorder'><div class='vertical-center'><img style='vertical-align:center; align:center' src=img/fixation3.jpg></div><div class='cl'><div class='vertical-center'>$49<br>for<br>yourself</div></div><div class='cr'><div class='vertical-center'>$60<br>for<br>Chase S</div></div><div class='respDivL'><div class='vertical-center'>(E)</div></div><div class='respDivR'><div class='vertical-center'>(I)</div></div></div>","E","$49<br>for<br>yourself","$60<br>for<br>4","0","49","60","4","SELF"
"html-keyboard-response","10","77801","0.0-6.0-3.1","63b6ef9027eb90f292852ee4","bdp_sd","Sun Mar 26 2023 22:37:59 GMT-0400 (Eastern Daylight Time)","144327","","null","","","","","offerFB","","<div class='trialBorder'><div class='vertical-center'><img style='vertical-align:center; align:center' src=img/fixation3.jpg></div><div class='cl'><div class='vertical-center'><font style='color:orange'>$49<br>for<br>yourself</font></div></div><div class='cr'><div class='vertical-center'>$60<br>for<br>Chase S</div></div><div class='respDivL'><div class='vertical-center'><font style='color:orange'>(E)</font></div></div><div class='respDivR'><div class='vertical-center'>(I)</div></div></div>","null","$49<br>for<br>yourself","$60<br>for<br>4","0","49","60","4",""
"html-keyboard-response","11","78305","0.0-6.0-1.2","63b6ef9027eb90f292852ee4","bdp_sd","Sun Mar 26 2023 22:37:59 GMT-0400 (Eastern Daylight Time)","144327","","null","","","","","FIX","","<div class='trialBorder'><div class='vertical-center'><img style='vertical-align:center; align:center' src=img/fixation3.jpg></div></div>","null","","","","","","",""
"html-keyboard-response","12","80193","0.0-6.0-2.2","63b6ef9027eb90f292852ee4","bdp_sd","Sun Mar 26 2023 22:37:59 GMT-0400 (Eastern Daylight Time)","144327","","1885","","","","","offer","","<div class='trialBorder'><div class='vertical-center'><img style='vertical-align:center; align:center' src=img/fixation3.jpg></div><div class='cl'><div class='vertical-center'>$30<br>for<br>Mari K</div></div><div class='cr'><div class='vertical-center'>$11<br>for<br>yourself</div></div><div class='respDivL'><div class='vertical-center'>(E)</div></div><div class='respDivR'><div class='vertical-center'>(I)</div></div></div>","E","$11<br>for<br>yourself","$30<br>for<br>2","1","11","30","2","OTHER"
"html-keyboard-response","13","80447","0.0-6.0-3.2","63b6ef9027eb90f292852ee4","bdp_sd","Sun Mar 26 2023 22:37:59 GMT-0400 (Eastern Daylight Time)","144327","","null","","","","","offerFB","","<div class='trialBorder'><div class='vertical-center'><img style='vertical-align:center; align:center' src=img/fixation3.jpg></div><div class='cl'><div class='vertical-center'><font style='color:orange'>$30<br>for<br>Mari K</font></div></div><div class='cr'><div class='vertical-center'>$11<br>for<br>yourself</div></div><div class='respDivL'><div class='vertical-center'><font style='color:orange'>(E)</font></div></div><div class='respDivR'><div class='vertical-center'>(I)</div></div></div>","null","$11<br>for<br>yourself","$30<br>for<br>2","1","11","30","2",""
"html-keyboard-response","14","80950","0.0-6.0-1.3","63b6ef9027eb90f292852ee4","bdp_sd","Sun Mar 26 2023 22:37:59 GMT-0400 (Eastern Daylight Time)","144327","","null","","","","","FIX","","<div class='trialBorder'><div class='vertical-center'><img style='vertical-align:center; align:center' src=img/fixation3.jpg></div></div>","null","","","","","","",""
"html-keyboard-response","15","83123","0.0-6.0-2.3","63b6ef9027eb90f292852ee4","bdp_sd","Sun Mar 26 2023 22:37:59 GMT-0400 (Eastern Daylight Time)","144327","","2169","","","","","offer","","<div class='trialBorder'><div class='vertical-center'><img style='vertical-align:center; align:center' src=img/fixation3.jpg></div><div class='cl'><div class='vertical-center'>$78<br>for<br>yourself</div></div><div class='cr'><div class='vertical-center'>$80<br>for<br>Marcus T</div></div><div class='respDivL'><div class='vertical-center'>(E)</div></div><div class='respDivR'><div class='vertical-center'>(I)</div></div></div>","E","$78<br>for<br>yourself","$80<br>for<br>5","0","78","80","5","SELF"
"html-keyboard-response","16","83376","0.0-6.0-3.3","63b6ef9027eb90f292852ee4","bdp_sd","Sun Mar 26 2023 22:37:59 GMT-0400 (Eastern Daylight Time)","144327","","null","","","","","offerFB","","<div class='trialBorder'><div class='vertical-center'><img style='vertical-align:center; align:center' src=img/fixation3.jpg></div><div class='cl'><div class='vertical-center'><font style='color:orange'>$78<br>for<br>yourself</font></div></div><div class='cr'><div class='vertical-center'>$80<br>for<br>Marcus T</div></div><div class='respDivL'><div class='vertical-center'><font style='color:orange'>(E)</font></div></div><div class='respDivR'><div class='vertical-center'>(I)</div></div></div>","null","$78<br>for<br>yourself","$80<br>for<br>5","0","78","80","5",""
"html-keyboard-response","17","83879","0.0-6.0-1.4","63b6ef9027eb90f292852ee4","bdp_sd","Sun Mar 26 2023 22:37:59 GMT-0400 (Eastern Daylight Time)","144327","","null","","","","","FIX","","<div class='trialBorder'><div class='vertical-center'><img style='vertical-align:center; align:center' src=img/fixation3.jpg></div></div>","null","","","","","","",""
"html-keyboard-response","18","86035","0.0-6.0-2.4","63b6ef9027eb90f292852ee4","bdp_sd","Sun Mar 26 2023 22:37:59 GMT-0400 (Eastern Daylight Time)","144327","","2154","","","","","offer","","<div class='trialBorder'><div class='vertical-center'><img style='vertical-align:center; align:center' src=img/fixation3.jpg></div><div class='cl'><div class='vertical-center'>$27<br>for<br>yourself</div></div><div class='cr'><div class='vertical-center'>$50<br>for<br>Autumn S</div></div><div class='respDivL'><div class='vertical-center'>(E)</div></div><div class='respDivR'><div class='vertical-center'>(I)</div></div></div>","I","$27<br>for<br>yourself","$50<br>for<br>3","0","27","50","3","OTHER"
"html-keyboard-response","19","86287","0.0-6.0-3.4","63b6ef9027eb90f292852ee4","bdp_sd","Sun Mar 26 2023 22:37:59 GMT-0400 (Eastern Daylight Time)","144327","","null","","","","","offerFB","","<div class='trialBorder'><div class='vertical-center'><img style='vertical-align:center; align:center' src=img/fixation3.jpg></div><div class='cl'><div class='vertical-center'>$27<br>for<br>yourself</div></div><div class='cr'><div class='vertical-center'><font style='color:orange'>$50<br>for<br>Autumn S</font></div></div><div class='respDivL'><div class='vertical-center'>(E)</div></div><div class='respDivR'><div class='vertical-center'><font style='color:orange'>(I)</font></div></div></div>","null","$27<br>for<br>yourself","$50<br>for<br>3","0","27","50","3",""
"html-keyboard-response","20","86791","0.0-6.0-1.5","63b6ef9027eb90f292852ee4","bdp_sd","Sun Mar 26 2023 22:37:59 GMT-0400 (Eastern Daylight Time)","144327","","null","","","","","FIX","","<div class='trialBorder'><div class='vertical-center'><img style='vertical-align:center; align:center' src=img/fixation3.jpg></div></div>","null","","","","","","",""
"html-keyboard-response","21","88295","0.0-6.0-2.5","63b6ef9027eb90f292852ee4","bdp_sd","Sun Mar 26 2023 22:37:59 GMT-0400 (Eastern Daylight Time)","144327","","1501","","","","","offer","","<div class='trialBorder'><div class='vertical-center'><img style='vertical-align:center; align:center' src=img/fixation3.jpg></div><div class='cl'><div class='vertical-center'>$15<br>for<br>yourself</div></div><div class='cr'><div class='vertical-center'>$35<br>for<br>Mari K</div></div><div class='respDivL'><div class='vertical-center'>(E)</div></div><div class='respDivR'><div class='vertical-center'>(I)</div></div></div>","I","$15<br>for<br>yourself","$35<br>for<br>2","0","15","35","2","OTHER"
"html-keyboard-response","22","88548","0.0-6.0-3.5","63b6ef9027eb90f292852ee4","bdp_sd","Sun Mar 26 2023 22:37:59 GMT-0400 (Eastern Daylight Time)","144327","","null","","","","","offerFB","","<div class='trialBorder'><div class='vertical-center'><img style='vertical-align:center; align:center' src=img/fixation3.jpg></div><div class='cl'><div class='vertical-center'>$15<br>for<br>yourself</div></div><div class='cr'><div class='vertical-center'><font style='color:orange'>$35<br>for<br>Mari K</font></div></div><div class='respDivL'><div class='vertical-center'>(E)</div></div><div class='respDivR'><div class='vertical-center'><font style='color:orange'>(I)</font></div></div></div>","null","$15<br>for<br>yourself","$35<br>for<br>2","0","15","35","2",""
"html-keyboard-response","23","89051","0.0-6.0-1.6","63b6ef9027eb90f292852ee4","bdp_sd","Sun Mar 26 2023 22:37:59 GMT-0400 (Eastern Daylight Time)","144327","","null","","","","","FIX","","<div class='trialBorder'><div class='vertical-center'><img style='vertical-align:center; align:center' src=img/fixation3.jpg></div></div>","null","","","","","","",""
"html-keyboard-response","24","91255","0.0-6.0-2.6","63b6ef9027eb90f292852ee4","bdp_sd","Sun Mar 26 2023 22:37:59 GMT-0400 (Eastern Daylight Time)","144327","","2202","","","","","offer","","<div class='trialBorder'><div class='vertical-center'><img style='vertical-align:center; align:center' src=img/fixation3.jpg></div><div class='cl'><div class='vertical-center'>$31<br>for<br>yourself</div></div><div class='cr'><div class='vertical-center'>$85<br>for<br>Kathy W</div></div><div class='respDivL'><div class='vertical-center'>(E)</div></div><div class='respDivR'><div class='vertical-center'>(I)</div></div></div>","I","$31<br>for<br>yourself","$85<br>for<br>1","0","31","85","1","OTHER"
"html-keyboard-response","25","91507","0.0-6.0-3.6","63b6ef9027eb90f292852ee4","bdp_sd","Sun Mar 26 2023 22:37:59 GMT-0400 (Eastern Daylight Time)","144327","","null","","","","","offerFB","","<div class='trialBorder'><div class='vertical-center'><img style='vertical-align:center; align:center' src=img/fixation3.jpg></div><div class='cl'><div class='vertical-center'>$31<br>for<br>yourself</div></div><div class='cr'><div class='vertical-center'><font style='color:orange'>$85<br>for<br>Kathy W</font></div></div><div class='respDivL'><div class='vertical-center'>(E)</div></div><div class='respDivR'><div class='vertical-center'><font style='color:orange'>(I)</font></div></div></div>","null","$31<br>for<br>yourself","$85<br>for<br>1","0","31","85","1",""
"html-keyboard-response","26","92010","0.0-6.0-1.7","63b6ef9027eb90f292852ee4","bdp_sd","Sun Mar 26 2023 22:37:59 GMT-0400 (Eastern Daylight Time)","144327","","null","","","","","FIX","","<div class='trialBorder'><div class='vertical-center'><img style='vertical-align:center; align:center' src=img/fixation3.jpg></div></div>","null","","","","","","",""
"html-keyboard-response","27","94131","0.0-6.0-2.7","63b6ef9027eb90f292852ee4","bdp_sd","Sun Mar 26 2023 22:37:59 GMT-0400 (Eastern Daylight Time)","144327","","2118","","","","","offer","","<div class='trialBorder'><div class='vertical-center'><img style='vertical-align:center; align:center' src=img/fixation3.jpg></div><div class='cl'><div class='vertical-center'>$60<br>for<br>Marcus T</div></div><div class='cr'><div class='vertical-center'>$54<br>for<br>yourself</div></div><div class='respDivL'><div class='vertical-center'>(E)</div></div><div class='respDivR'><div class='vertical-center'>(I)</div></div></div>","I","$54<br>for<br>yourself","$60<br>for<br>5","1","54","60","5","SELF"
"html-keyboard-response","28","94385","0.0-6.0-3.7","63b6ef9027eb90f292852ee4","bdp_sd","Sun Mar 26 2023 22:37:59 GMT-0400 (Eastern Daylight Time)","144327","","null","","","","","offerFB","","<div class='trialBorder'><div class='vertical-center'><img style='vertical-align:center; align:center' src=img/fixation3.jpg></div><div class='cl'><div class='vertical-center'>$60<br>for<br>Marcus T</div></div><div class='cr'><div class='vertical-center'><font style='color:orange'>$54<br>for<br>yourself</font></div></div><div class='respDivL'><div class='vertical-center'>(E)</div></div><div class='respDivR'><div class='vertical-center'><font style='color:orange'>(I)</font></div></div></div>","null","$54<br>for<br>yourself","$60<br>for<br>5","1","54","60","5",""
"html-keyboard-response","29","94888","0.0-6.0-1.8","63b6ef9027eb90f292852ee4","bdp_sd","Sun Mar 26 2023 22:37:59 GMT-0400 (Eastern Daylight Time)","144327","","null","","","","","FIX","","<div class='trialBorder'><div class='vertical-center'><img style='vertical-align:center; align:center' src=img/fixation3.jpg></div></div>","null","","","","","","",""
"html-keyboard-response","30","97548","0.0-6.0-2.8","63b6ef9027eb90f292852ee4","bdp_sd","Sun Mar 26 2023 22:37:59 GMT-0400 (Eastern Daylight Time)","144327","","2658","","","","","offer","","<div class='trialBorder'><div class='vertical-center'><img style='vertical-align:center; align:center' src=img/fixation3.jpg></div><div class='cl'><div class='vertical-center'>$25<br>for<br>Autumn S</div></div><div class='cr'><div class='vertical-center'>$14<br>for<br>yourself</div></div><div class='respDivL'><div class='vertical-center'>(E)</div></div><div class='respDivR'><div class='vertical-center'>(I)</div></div></div>","E","$14<br>for<br>yourself","$25<br>for<br>3","1","14","25","3","OTHER"
"html-keyboard-response","31","97801","0.0-6.0-3.8","63b6ef9027eb90f292852ee4","bdp_sd","Sun Mar 26 2023 22:37:59 GMT-0400 (Eastern Daylight Time)","144327","","null","","","","","offerFB","","<div class='trialBorder'><div class='vertical-center'><img style='vertical-align:center; align:center' src=img/fixation3.jpg></div><div class='cl'><div class='vertical-center'><font style='color:orange'>$25<br>for<br>Autumn S</font></div></div><div class='cr'><div class='vertical-center'>$14<br>for<br>yourself</div></div><div class='respDivL'><div class='vertical-center'><font style='color:orange'>(E)</font></div></div><div class='respDivR'><div class='vertical-center'>(I)</div></div></div>","null","$14<br>for<br>yourself","$25<br>for<br>3","1","14","25","3",""
"html-keyboard-response","32","98304","0.0-6.0-1.9","63b6ef9027eb90f292852ee4","bdp_sd","Sun Mar 26 2023 22:37:59 GMT-0400 (Eastern Daylight Time)","144327","","null","","","","","FIX","","<div class='trialBorder'><div class='vertical-center'><img style='vertical-align:center; align:center' src=img/fixation3.jpg></div></div>","null","","","","","","",""
"html-keyboard-response","33","101366","0.0-6.0-2.9","63b6ef9027eb90f292852ee4","bdp_sd","Sun Mar 26 2023 22:37:59 GMT-0400 (Eastern Daylight Time)","144327","","3060","","","","","offer","","<div class='trialBorder'><div class='vertical-center'><img style='vertical-align:center; align:center' src=img/fixation3.jpg></div><div class='cl'><div class='vertical-center'>$24<br>for<br>yourself</div></div><div class='cr'><div class='vertical-center'>$35<br>for<br>Autumn S</div></div><div class='respDivL'><div class='vertical-center'>(E)</div></div><div class='respDivR'><div class='vertical-center'>(I)</div></div></div>","I","$24<br>for<br>yourself","$35<br>for<br>3","0","24","35","3","OTHER"
"html-keyboard-response","34","101619","0.0-6.0-3.9","63b6ef9027eb90f292852ee4","bdp_sd","Sun Mar 26 2023 22:37:59 GMT-0400 (Eastern Daylight Time)","144327","","null","","","","","offerFB","","<div class='trialBorder'><div class='vertical-center'><img style='vertical-align:center; align:center' src=img/fixation3.jpg></div><div class='cl'><div class='vertical-center'>$24<br>for<br>yourself</div></div><div class='cr'><div class='vertical-center'><font style='color:orange'>$35<br>for<br>Autumn S</font></div></div><div class='respDivL'><div class='vertical-center'>(E)</div></div><div class='respDivR'><div class='vertical-center'><font style='color:orange'>(I)</font></div></div></div>","null","$24<br>for<br>yourself","$35<br>for<br>3","0","24","35","3",""
"html-keyboard-response","35","102126","0.0-6.0-1.10","63b6ef9027eb90f292852ee4","bdp_sd","Sun Mar 26 2023 22:37:59 GMT-0400 (Eastern Daylight Time)","144327","","null","","","","","FIX","","<div class='trialBorder'><div class='vertical-center'><img style='vertical-align:center; align:center' src=img/fixation3.jpg></div></div>","null","","","","","","",""
"html-keyboard-response","36","104243","0.0-6.0-2.10","63b6ef9027eb90f292852ee4","bdp_sd","Sun Mar 26 2023 22:37:59 GMT-0400 (Eastern Daylight Time)","144327","","2114","","","","","offer","","<div class='trialBorder'><div class='vertical-center'><img style='vertical-align:center; align:center' src=img/fixation3.jpg></div><div class='cl'><div class='vertical-center'>$55<br>for<br>Kathy W</div></div><div class='cr'><div class='vertical-center'>$20<br>for<br>yourself</div></div><div class='respDivL'><div class='vertical-center'>(E)</div></div><div class='respDivR'><div class='vertical-center'>(I)</div></div></div>","E","$20<br>for<br>yourself","$55<br>for<br>1","1","20","55","1","OTHER"
"html-keyboard-response","37","104497","0.0-6.0-3.10","63b6ef9027eb90f292852ee4","bdp_sd","Sun Mar 26 2023 22:37:59 GMT-0400 (Eastern Daylight Time)","144327","","null","","","","","offerFB","","<div class='trialBorder'><div class='vertical-center'><img style='vertical-align:center; align:center' src=img/fixation3.jpg></div><div class='cl'><div class='vertical-center'><font style='color:orange'>$55<br>for<br>Kathy W</font></div></div><div class='cr'><div class='vertical-center'>$20<br>for<br>yourself</div></div><div class='respDivL'><div class='vertical-center'><font style='color:orange'>(E)</font></div></div><div class='respDivR'><div class='vertical-center'>(I)</div></div></div>","null","$20<br>for<br>yourself","$55<br>for<br>1","1","20","55","1",""
"html-keyboard-response","38","105001","0.0-6.0-1.11","63b6ef9027eb90f292852ee4","bdp_sd","Sun Mar 26 2023 22:37:59 GMT-0400 (Eastern Daylight Time)","144327","","null","","","","","FIX","","<div class='trialBorder'><div class='vertical-center'><img style='vertical-align:center; align:center' src=img/fixation3.jpg></div></div>","null","","","","","","",""
"html-keyboard-response","39","106728","0.0-6.0-2.11","63b6ef9027eb90f292852ee4","bdp_sd","Sun Mar 26 2023 22:37:59 GMT-0400 (Eastern Daylight Time)","144327","","1725","","","","","offer","","<div class='trialBorder'><div class='vertical-center'><img style='vertical-align:center; align:center' src=img/fixation3.jpg></div><div class='cl'><div class='vertical-center'>$25<br>for<br>Chase S</div></div><div class='cr'><div class='vertical-center'>$19<br>for<br>yourself</div></div><div class='respDivL'><div class='vertical-center'>(E)</div></div><div class='respDivR'><div class='vertical-center'>(I)</div></div></div>","I","$19<br>for<br>yourself","$25<br>for<br>4","1","19","25","4","SELF"
"html-keyboard-response","40","106981","0.0-6.0-3.11","63b6ef9027eb90f292852ee4","bdp_sd","Sun Mar 26 2023 22:37:59 GMT-0400 (Eastern Daylight Time)","144327","","null","","","","","offerFB","","<div class='trialBorder'><div class='vertical-center'><img style='vertical-align:center; align:center' src=img/fixation3.jpg></div><div class='cl'><div class='vertical-center'>$25<br>for<br>Chase S</div></div><div class='cr'><div class='vertical-center'><font style='color:orange'>$19<br>for<br>yourself</font></div></div><div class='respDivL'><div class='vertical-center'>(E)</div></div><div class='respDivR'><div class='vertical-center'><font style='color:orange'>(I)</font></div></div></div>","null","$19<br>for<br>yourself","$25<br>for<br>4","1","19","25","4",""
"html-keyboard-response","41","107484","0.0-6.0-1.12","63b6ef9027eb90f292852ee4","bdp_sd","Sun Mar 26 2023 22:37:59 GMT-0400 (Eastern Daylight Time)","144327","","null","","","","","FIX","","<div class='trialBorder'><div class='vertical-center'><img style='vertical-align:center; align:center' src=img/fixation3.jpg></div></div>","null","","","","","","",""
"html-keyboard-response","42","109239","0.0-6.0-2.12","63b6ef9027eb90f292852ee4","bdp_sd","Sun Mar 26 2023 22:37:59 GMT-0400 (Eastern Daylight Time)","144327","","1753","","","","","offer","","<div class='trialBorder'><div class='vertical-center'><img style='vertical-align:center; align:center' src=img/fixation3.jpg></div><div class='cl'><div class='vertical-center'>$35<br>for<br>Marcus T</div></div><div class='cr'><div class='vertical-center'>$34<br>for<br>yourself</div></div><div class='respDivL'><div class='vertical-center'>(E)</div></div><div class='respDivR'><div class='vertical-center'>(I)</div></div></div>","I","$34<br>for<br>yourself","$35<br>for<br>5","1","34","35","5","SELF"
"html-keyboard-response","43","109492","0.0-6.0-3.12","63b6ef9027eb90f292852ee4","bdp_sd","Sun Mar 26 2023 22:37:59 GMT-0400 (Eastern Daylight Time)","144327","","null","","","","","offerFB","","<div class='trialBorder'><div class='vertical-center'><img style='vertical-align:center; align:center' src=img/fixation3.jpg></div><div class='cl'><div class='vertical-center'>$35<br>for<br>Marcus T</div></div><div class='cr'><div class='vertical-center'><font style='color:orange'>$34<br>for<br>yourself</font></div></div><div class='respDivL'><div class='vertical-center'>(E)</div></div><div class='respDivR'><div class='vertical-center'><font style='color:orange'>(I)</font></div></div></div>","null","$34<br>for<br>yourself","$35<br>for<br>5","1","34","35","5",""
"html-keyboard-response","44","109995","0.0-6.0-1.13","63b6ef9027eb90f292852ee4","bdp_sd","Sun Mar 26 2023 22:37:59 GMT-0400 (Eastern Daylight Time)","144327","","null","","","","","FIX","","<div class='trialBorder'><div class='vertical-center'><img style='vertical-align:center; align:center' src=img/fixation3.jpg></div></div>","null","","","","","","",""
"html-keyboard-response","45","111672","0.0-6.0-2.13","63b6ef9027eb90f292852ee4","bdp_sd","Sun Mar 26 2023 22:37:59 GMT-0400 (Eastern Daylight Time)","144327","","1675","","","","","offer","","<div class='trialBorder'><div class='vertical-center'><img style='vertical-align:center; align:center' src=img/fixation3.jpg></div><div class='cl'><div class='vertical-center'>$30<br>for<br>Chase S</div></div><div class='cr'><div class='vertical-center'>$25<br>for<br>yourself</div></div><div class='respDivL'><div class='vertical-center'>(E)</div></div><div class='respDivR'><div class='vertical-center'>(I)</div></div></div>","I","$25<br>for<br>yourself","$30<br>for<br>4","1","25","30","4","SELF"
"html-keyboard-response","46","111924","0.0-6.0-3.13","63b6ef9027eb90f292852ee4","bdp_sd","Sun Mar 26 2023 22:37:59 GMT-0400 (Eastern Daylight Time)","144327","","null","","","","","offerFB","","<div class='trialBorder'><div class='vertical-center'><img style='vertical-align:center; align:center' src=img/fixation3.jpg></div><div class='cl'><div class='vertical-center'>$30<br>for<br>Chase S</div></div><div class='cr'><div class='vertical-center'><font style='color:orange'>$25<br>for<br>yourself</font></div></div><div class='respDivL'><div class='vertical-center'>(E)</div></div><div class='respDivR'><div class='vertical-center'><font style='color:orange'>(I)</font></div></div></div>","null","$25<br>for<br>yourself","$30<br>for<br>4","1","25","30","4",""
"html-keyboard-response","47","112427","0.0-6.0-1.14","63b6ef9027eb90f292852ee4","bdp_sd","Sun Mar 26 2023 22:37:59 GMT-0400 (Eastern Daylight Time)","144327","","null","","","","","FIX","","<div class='trialBorder'><div class='vertical-center'><img style='vertical-align:center; align:center' src=img/fixation3.jpg></div></div>","null","","","","","","",""
"html-keyboard-response","48","114601","0.0-6.0-2.14","63b6ef9027eb90f292852ee4","bdp_sd","Sun Mar 26 2023 22:37:59 GMT-0400 (Eastern Daylight Time)","144327","","2171","","","","","offer","","<div class='trialBorder'><div class='vertical-center'><img style='vertical-align:center; align:center' src=img/fixation3.jpg></div><div class='cl'><div class='vertical-center'>$85<br>for<br>Chase S</div></div><div class='cr'><div class='vertical-center'>$69<br>for<br>yourself</div></div><div class='respDivL'><div class='vertical-center'>(E)</div></div><div class='respDivR'><div class='vertical-center'>(I)</div></div></div>","I","$69<br>for<br>yourself","$85<br>for<br>4","1","69","85","4","SELF"
"html-keyboard-response","49","114853","0.0-6.0-3.14","63b6ef9027eb90f292852ee4","bdp_sd","Sun Mar 26 2023 22:37:59 GMT-0400 (Eastern Daylight Time)","144327","","null","","","","","offerFB","","<div class='trialBorder'><div class='vertical-center'><img style='vertical-align:center; align:center' src=img/fixation3.jpg></div><div class='cl'><div class='vertical-center'>$85<br>for<br>Chase S</div></div><div class='cr'><div class='vertical-center'><font style='color:orange'>$69<br>for<br>yourself</font></div></div><div class='respDivL'><div class='vertical-center'>(E)</div></div><div class='respDivR'><div class='vertical-center'><font style='color:orange'>(I)</font></div></div></div>","null","$69<br>for<br>yourself","$85<br>for<br>4","1","69","85","4",""
"html-keyboard-response","50","115358","0.0-6.0-1.15","63b6ef9027eb90f292852ee4","bdp_sd","Sun Mar 26 2023 22:37:59 GMT-0400 (Eastern Daylight Time)","144327","","null","","","","","FIX","","<div class='trialBorder'><div class='vertical-center'><img style='vertical-align:center; align:center' src=img/fixation3.jpg></div></div>","null","","","","","","",""
"html-keyboard-response","51","117560","0.0-6.0-2.15","63b6ef9027eb90f292852ee4","bdp_sd","Sun Mar 26 2023 22:37:59 GMT-0400 (Eastern Daylight Time)","144327","","2199","","","","","offer","","<div class='trialBorder'><div class='vertical-center'><img style='vertical-align:center; align:center' src=img/fixation3.jpg></div><div class='cl'><div class='vertical-center'>$34<br>for<br>yourself</div></div><div class='cr'><div class='vertical-center'>$50<br>for<br>Chase S</div></div><div class='respDivL'><div class='vertical-center'>(E)</div></div><div class='respDivR'><div class='vertical-center'>(I)</div></div></div>","E","$34<br>for<br>yourself","$50<br>for<br>4","0","34","50","4","SELF"
"html-keyboard-response","52","117813","0.0-6.0-3.15","63b6ef9027eb90f292852ee4","bdp_sd","Sun Mar 26 2023 22:37:59 GMT-0400 (Eastern Daylight Time)","144327","","null","","","","","offerFB","","<div class='trialBorder'><div class='vertical-center'><img style='vertical-align:center; align:center' src=img/fixation3.jpg></div><div class='cl'><div class='vertical-center'><font style='color:orange'>$34<br>for<br>yourself</font></div></div><div class='cr'><div class='vertical-center'>$50<br>for<br>Chase S</div></div><div class='respDivL'><div class='vertical-center'><font style='color:orange'>(E)</font></div></div><div class='respDivR'><div class='vertical-center'>(I)</div></div></div>","null","$34<br>for<br>yourself","$50<br>for<br>4","0","34","50","4",""
"html-keyboard-response","53","118317","0.0-6.0-1.16","63b6ef9027eb90f292852ee4","bdp_sd","Sun Mar 26 2023 22:37:59 GMT-0400 (Eastern Daylight Time)","144327","","null","","","","","FIX","","<div class='trialBorder'><div class='vertical-center'><img style='vertical-align:center; align:center' src=img/fixation3.jpg></div></div>","null","","","","","","",""
"html-keyboard-response","54","119888","0.0-6.0-2.16","63b6ef9027eb90f292852ee4","bdp_sd","Sun Mar 26 2023 22:37:59 GMT-0400 (Eastern Daylight Time)","144327","","1569","","","","","offer","","<div class='trialBorder'><div class='vertical-center'><img style='vertical-align:center; align:center' src=img/fixation3.jpg></div><div class='cl'><div class='vertical-center'>$22<br>for<br>yourself</div></div><div class='cr'><div class='vertical-center'>$25<br>for<br>Marcus T</div></div><div class='respDivL'><div class='vertical-center'>(E)</div></div><div class='respDivR'><div class='vertical-center'>(I)</div></div></div>","E","$22<br>for<br>yourself","$25<br>for<br>5","0","22","25","5","SELF"
"html-keyboard-response","55","120141","0.0-6.0-3.16","63b6ef9027eb90f292852ee4","bdp_sd","Sun Mar 26 2023 22:37:59 GMT-0400 (Eastern Daylight Time)","144327","","null","","","","","offerFB","","<div class='trialBorder'><div class='vertical-center'><img style='vertical-align:center; align:center' src=img/fixation3.jpg></div><div class='cl'><div class='vertical-center'><font style='color:orange'>$22<br>for<br>yourself</font></div></div><div class='cr'><div class='vertical-center'>$25<br>for<br>Marcus T</div></div><div class='respDivL'><div class='vertical-center'><font style='color:orange'>(E)</font></div></div><div class='respDivR'><div class='vertical-center'>(I)</div></div></div>","null","$22<br>for<br>yourself","$25<br>for<br>5","0","22","25","5",""
"html-keyboard-response","56","120643","0.0-6.0-1.17","63b6ef9027eb90f292852ee4","bdp_sd","Sun Mar 26 2023 22:37:59 GMT-0400 (Eastern Daylight Time)","144327","","null","","","","","FIX","","<div class='trialBorder'><div class='vertical-center'><img style='vertical-align:center; align:center' src=img/fixation3.jpg></div></div>","null","","","","","","",""
"html-keyboard-response","57","122115","0.0-6.0-2.17","63b6ef9027eb90f292852ee4","bdp_sd","Sun Mar 26 2023 22:37:59 GMT-0400 (Eastern Daylight Time)","144327","","1468","","","","","offer","","<div class='trialBorder'><div class='vertical-center'><img style='vertical-align:center; align:center' src=img/fixation3.jpg></div><div class='cl'><div class='vertical-center'>$25<br>for<br>yourself</div></div><div class='cr'><div class='vertical-center'>$60<br>for<br>Autumn S</div></div><div class='respDivL'><div class='vertical-center'>(E)</div></div><div class='respDivR'><div class='vertical-center'>(I)</div></div></div>","I","$25<br>for<br>yourself","$60<br>for<br>3","0","25","60","3","OTHER"
"html-keyboard-response","58","122367","0.0-6.0-3.17","63b6ef9027eb90f292852ee4","bdp_sd","Sun Mar 26 2023 22:37:59 GMT-0400 (Eastern Daylight Time)","144327","","null","","","","","offerFB","","<div class='trialBorder'><div class='vertical-center'><img style='vertical-align:center; align:center' src=img/fixation3.jpg></div><div class='cl'><div class='vertical-center'>$25<br>for<br>yourself</div></div><div class='cr'><div class='vertical-center'><font style='color:orange'>$60<br>for<br>Autumn S</font></div></div><div class='respDivL'><div class='vertical-center'>(E)</div></div><div class='respDivR'><div class='vertical-center'><font style='color:orange'>(I)</font></div></div></div>","null","$25<br>for<br>yourself","$60<br>for<br>3","0","25","60","3",""
"html-keyboard-response","59","122870","0.0-6.0-1.18","63b6ef9027eb90f292852ee4","bdp_sd","Sun Mar 26 2023 22:37:59 GMT-0400 (Eastern Daylight Time)","144327","","null","","","","","FIX","","<div class='trialBorder'><div class='vertical-center'><img style='vertical-align:center; align:center' src=img/fixation3.jpg></div></div>","null","","","","","","",""
"html-keyboard-response","60","123959","0.0-6.0-2.18","63b6ef9027eb90f292852ee4","bdp_sd","Sun Mar 26 2023 22:37:59 GMT-0400 (Eastern Daylight Time)","144327","","1087","","","","","offer","","<div class='trialBorder'><div class='vertical-center'><img style='vertical-align:center; align:center' src=img/fixation3.jpg></div><div class='cl'><div class='vertical-center'>$50<br>for<br>Marcus T</div></div><div class='cr'><div class='vertical-center'>$47<br>for<br>yourself</div></div><div class='respDivL'><div class='vertical-center'>(E)</div></div><div class='respDivR'><div class='vertical-center'>(I)</div></div></div>","I","$47<br>for<br>yourself","$50<br>for<br>5","1","47","50","5","SELF"
"html-keyboard-response","61","124213","0.0-6.0-3.18","63b6ef9027eb90f292852ee4","bdp_sd","Sun Mar 26 2023 22:37:59 GMT-0400 (Eastern Daylight Time)","144327","","null","","","","","offerFB","","<div class='trialBorder'><div class='vertical-center'><img style='vertical-align:center; align:center' src=img/fixation3.jpg></div><div class='cl'><div class='vertical-center'>$50<br>for<br>Marcus T</div></div><div class='cr'><div class='vertical-center'><font style='color:orange'>$47<br>for<br>yourself</font></div></div><div class='respDivL'><div class='vertical-center'>(E)</div></div><div class='respDivR'><div class='vertical-center'><font style='color:orange'>(I)</font></div></div></div>","null","$47<br>for<br>yourself","$50<br>for<br>5","1","47","50","5",""
"html-keyboard-response","62","124716","0.0-6.0-1.19","63b6ef9027eb90f292852ee4","bdp_sd","Sun Mar 26 2023 22:37:59 GMT-0400 (Eastern Daylight Time)","144327","","null","","","","","FIX","","<div class='trialBorder'><div class='vertical-center'><img style='vertical-align:center; align:center' src=img/fixation3.jpg></div></div>","null","","","","","","",""
"html-keyboard-response","63","125923","0.0-6.0-2.19","63b6ef9027eb90f292852ee4","bdp_sd","Sun Mar 26 2023 22:37:59 GMT-0400 (Eastern Daylight Time)","144327","","1204","","","","","offer","","<div class='trialBorder'><div class='vertical-center'><img style='vertical-align:center; align:center' src=img/fixation3.jpg></div><div class='cl'><div class='vertical-center'>$80<br>for<br>Mari K</div></div><div class='cr'><div class='vertical-center'>$33<br>for<br>yourself</div></div><div class='respDivL'><div class='vertical-center'>(E)</div></div><div class='respDivR'><div class='vertical-center'>(I)</div></div></div>","E","$33<br>for<br>yourself","$80<br>for<br>2","1","33","80","2","OTHER"
"html-keyboard-response","64","126176","0.0-6.0-3.19","63b6ef9027eb90f292852ee4","bdp_sd","Sun Mar 26 2023 22:37:59 GMT-0400 (Eastern Daylight Time)","144327","","null","","","","","offerFB","","<div class='trialBorder'><div class='vertical-center'><img style='vertical-align:center; align:center' src=img/fixation3.jpg></div><div class='cl'><div class='vertical-center'><font style='color:orange'>$80<br>for<br>Mari K</font></div></div><div class='cr'><div class='vertical-center'>$33<br>for<br>yourself</div></div><div class='respDivL'><div class='vertical-center'><font style='color:orange'>(E)</font></div></div><div class='respDivR'><div class='vertical-center'>(I)</div></div></div>","null","$33<br>for<br>yourself","$80<br>for<br>2","1","33","80","2",""
"html-keyboard-response","65","126679","0.0-6.0-1.20","63b6ef9027eb90f292852ee4","bdp_sd","Sun Mar 26 2023 22:37:59 GMT-0400 (Eastern Daylight Time)","144327","","null","","","","","FIX","","<div class='trialBorder'><div class='vertical-center'><img style='vertical-align:center; align:center' src=img/fixation3.jpg></div></div>","null","","","","","","",""
"html-keyboard-response","66","127925","0.0-6.0-2.20","63b6ef9027eb90f292852ee4","bdp_sd","Sun Mar 26 2023 22:37:59 GMT-0400 (Eastern Daylight Time)","144327","","1243","","","","","offer","","<div class='trialBorder'><div class='vertical-center'><img style='vertical-align:center; align:center' src=img/fixation3.jpg></div><div class='cl'><div class='vertical-center'>$80<br>for<br>yourself</div></div><div class='cr'><div class='vertical-center'>$85<br>for<br>Marcus T</div></div><div class='respDivL'><div class='vertical-center'>(E)</div></div><div class='respDivR'><div class='vertical-center'>(I)</div></div></div>","E","$80<br>for<br>yourself","$85<br>for<br>5","0","80","85","5","SELF"
"html-keyboard-response","67","128178","0.0-6.0-3.20","63b6ef9027eb90f292852ee4","bdp_sd","Sun Mar 26 2023 22:37:59 GMT-0400 (Eastern Daylight Time)","144327","","null","","","","","offerFB","","<div class='trialBorder'><div class='vertical-center'><img style='vertical-align:center; align:center' src=img/fixation3.jpg></div><div class='cl'><div class='vertical-center'><font style='color:orange'>$80<br>for<br>yourself</font></div></div><div class='cr'><div class='vertical-center'>$85<br>for<br>Marcus T</div></div><div class='respDivL'><div class='vertical-center'><font style='color:orange'>(E)</font></div></div><div class='respDivR'><div class='vertical-center'>(I)</div></div></div>","null","$80<br>for<br>yourself","$85<br>for<br>5","0","80","85","5",""
"html-keyboard-response","68","128684","0.0-6.0-1.21","63b6ef9027eb90f292852ee4","bdp_sd","Sun Mar 26 2023 22:37:59 GMT-0400 (Eastern Daylight Time)","144327","","null","","","","","FIX","","<div class='trialBorder'><div class='vertical-center'><img style='vertical-align:center; align:center' src=img/fixation3.jpg></div></div>","null","","","","","","",""
"html-keyboard-response","69","130428","0.0-6.0-2.21","63b6ef9027eb90f292852ee4","bdp_sd","Sun Mar 26 2023 22:37:59 GMT-0400 (Eastern Daylight Time)","144327","","1742","","","","","offer","","<div class='trialBorder'><div class='vertical-center'><img style='vertical-align:center; align:center' src=img/fixation3.jpg></div><div class='cl'><div class='vertical-center'>$55<br>for<br>yourself</div></div><div class='cr'><div class='vertical-center'>$75<br>for<br>Chase S</div></div><div class='respDivL'><div class='vertical-center'>(E)</div></div><div class='respDivR'><div class='vertical-center'>(I)</div></div></div>","E","$55<br>for<br>yourself","$75<br>for<br>4","0","55","75","4","SELF"
"html-keyboard-response","70","130681","0.0-6.0-3.21","63b6ef9027eb90f292852ee4","bdp_sd","Sun Mar 26 2023 22:37:59 GMT-0400 (Eastern Daylight Time)","144327","","null","","","","","offerFB","","<div class='trialBorder'><div class='vertical-center'><img style='vertical-align:center; align:center' src=img/fixation3.jpg></div><div class='cl'><div class='vertical-center'><font style='color:orange'>$55<br>for<br>yourself</font></div></div><div class='cr'><div class='vertical-center'>$75<br>for<br>Chase S</div></div><div class='respDivL'><div class='vertical-center'><font style='color:orange'>(E)</font></div></div><div class='respDivR'><div class='vertical-center'>(I)</div></div></div>","null","$55<br>for<br>yourself","$75<br>for<br>4","0","55","75","4",""
"html-keyboard-response","71","131185","0.0-6.0-1.22","63b6ef9027eb90f292852ee4","bdp_sd","Sun Mar 26 2023 22:37:59 GMT-0400 (Eastern Daylight Time)","144327","","null","","","","","FIX","","<div class='trialBorder'><div class='vertical-center'><img style='vertical-align:center; align:center' src=img/fixation3.jpg></div></div>","null","","","","","","",""
"html-keyboard-response","72","132710","0.0-6.0-2.22","63b6ef9027eb90f292852ee4","bdp_sd","Sun Mar 26 2023 22:37:59 GMT-0400 (Eastern Daylight Time)","144327","","1523","","","","","offer","","<div class='trialBorder'><div class='vertical-center'><img style='vertical-align:center; align:center' src=img/fixation3.jpg></div><div class='cl'><div class='vertical-center'>$41<br>for<br>yourself</div></div><div class='cr'><div class='vertical-center'>$75<br>for<br>Autumn S</div></div><div class='respDivL'><div class='vertical-center'>(E)</div></div><div class='respDivR'><div class='vertical-center'>(I)</div></div></div>","I","$41<br>for<br>yourself","$75<br>for<br>3","0","41","75","3","OTHER"
"html-keyboard-response","73","132963","0.0-6.0-3.22","63b6ef9027eb90f292852ee4","bdp_sd","Sun Mar 26 2023 22:37:59 GMT-0400 (Eastern Daylight Time)","144327","","null","","","","","offerFB","","<div class='trialBorder'><div class='vertical-center'><img style='vertical-align:center; align:center' src=img/fixation3.jpg></div><div class='cl'><div class='vertical-center'>$41<br>for<br>yourself</div></div><div class='cr'><div class='vertical-center'><font style='color:orange'>$75<br>for<br>Autumn S</font></div></div><div class='respDivL'><div class='vertical-center'>(E)</div></div><div class='respDivR'><div class='vertical-center'><font style='color:orange'>(I)</font></div></div></div>","null","$41<br>for<br>yourself","$75<br>for<br>3","0","41","75","3",""
"html-keyboard-response","74","133474","0.0-6.0-1.23","63b6ef9027eb90f292852ee4","bdp_sd","Sun Mar 26 2023 22:37:59 GMT-0400 (Eastern Daylight Time)","144327","","null","","","","","FIX","","<div class='trialBorder'><div class='vertical-center'><img style='vertical-align:center; align:center' src=img/fixation3.jpg></div></div>","null","","","","","","",""
"html-keyboard-response","75","135367","0.0-6.0-2.23","63b6ef9027eb90f292852ee4","bdp_sd","Sun Mar 26 2023 22:37:59 GMT-0400 (Eastern Daylight Time)","144327","","1892","","","","","offer","","<div class='trialBorder'><div class='vertical-center'><img style='vertical-align:center; align:center' src=img/fixation3.jpg></div><div class='cl'><div class='vertical-center'>$75<br>for<br>Marcus T</div></div><div class='cr'><div class='vertical-center'>$67<br>for<br>yourself</div></div><div class='respDivL'><div class='vertical-center'>(E)</div></div><div class='respDivR'><div class='vertical-center'>(I)</div></div></div>","I","$67<br>for<br>yourself","$75<br>for<br>5","1","67","75","5","SELF"
"html-keyboard-response","76","135619","0.0-6.0-3.23","63b6ef9027eb90f292852ee4","bdp_sd","Sun Mar 26 2023 22:37:59 GMT-0400 (Eastern Daylight Time)","144327","","null","","","","","offerFB","","<div class='trialBorder'><div class='vertical-center'><img style='vertical-align:center; align:center' src=img/fixation3.jpg></div><div class='cl'><div class='vertical-center'>$75<br>for<br>Marcus T</div></div><div class='cr'><div class='vertical-center'><font style='color:orange'>$67<br>for<br>yourself</font></div></div><div class='respDivL'><div class='vertical-center'>(E)</div></div><div class='respDivR'><div class='vertical-center'><font style='color:orange'>(I)</font></div></div></div>","null","$67<br>for<br>yourself","$75<br>for<br>5","1","67","75","5",""
"html-keyboard-response","77","136121","0.0-6.0-1.24","63b6ef9027eb90f292852ee4","bdp_sd","Sun Mar 26 2023 22:37:59 GMT-0400 (Eastern Daylight Time)","144327","","null","","","","","FIX","","<div class='trialBorder'><div class='vertical-center'><img style='vertical-align:center; align:center' src=img/fixation3.jpg></div></div>","null","","","","","","",""
"html-keyboard-response","78","138517","0.0-6.0-2.24","63b6ef9027eb90f292852ee4","bdp_sd","Sun Mar 26 2023 22:37:59 GMT-0400 (Eastern Daylight Time)","144327","","2394","","","","","offer","","<div class='trialBorder'><div class='vertical-center'><img style='vertical-align:center; align:center' src=img/fixation3.jpg></div><div class='cl'><div class='vertical-center'>$54<br>for<br>yourself</div></div><div class='cr'><div class='vertical-center'>$80<br>for<br>Autumn S</div></div><div class='respDivL'><div class='vertical-center'>(E)</div></div><div class='respDivR'><div class='vertical-center'>(I)</div></div></div>","I","$54<br>for<br>yourself","$80<br>for<br>3","0","54","80","3","OTHER"
"html-keyboard-response","79","138770","0.0-6.0-3.24","63b6ef9027eb90f292852ee4","bdp_sd","Sun Mar 26 2023 22:37:59 GMT-0400 (Eastern Daylight Time)","144327","","null","","","","","offerFB","","<div class='trialBorder'><div class='vertical-center'><img style='vertical-align:center; align:center' src=img/fixation3.jpg></div><div class='cl'><div class='vertical-center'>$54<br>for<br>yourself</div></div><div class='cr'><div class='vertical-center'><font style='color:orange'>$80<br>for<br>Autumn S</font></div></div><div class='respDivL'><div class='vertical-center'>(E)</div></div><div class='respDivR'><div class='vertical-center'><font style='color:orange'>(I)</font></div></div></div>","null","$54<br>for<br>yourself","$80<br>for<br>3","0","54","80","3",""
"html-keyboard-response","80","139274","0.0-6.0-1.25","63b6ef9027eb90f292852ee4","bdp_sd","Sun Mar 26 2023 22:37:59 GMT-0400 (Eastern Daylight Time)","144327","","null","","","","","FIX","","<div class='trialBorder'><div class='vertical-center'><img style='vertical-align:center; align:center' src=img/fixation3.jpg></div></div>","null","","","","","","",""
"html-keyboard-response","81","141194","0.0-6.0-2.25","63b6ef9027eb90f292852ee4","bdp_sd","Sun Mar 26 2023 22:37:59 GMT-0400 (Eastern Daylight Time)","144327","","1918","","","","","offer","","<div class='trialBorder'><div class='vertical-center'><img style='vertical-align:center; align:center' src=img/fixation3.jpg></div><div class='cl'><div class='vertical-center'>$55<br>for<br>Chase S</div></div><div class='cr'><div class='vertical-center'>$40<br>for<br>yourself</div></div><div class='respDivL'><div class='vertical-center'>(E)</div></div><div class='respDivR'><div class='vertical-center'>(I)</div></div></div>","I","$40<br>for<br>yourself","$55<br>for<br>4","1","40","55","4","SELF"
"html-keyboard-response","82","141448","0.0-6.0-3.25","63b6ef9027eb90f292852ee4","bdp_sd","Sun Mar 26 2023 22:37:59 GMT-0400 (Eastern Daylight Time)","144327","","null","","","","","offerFB","","<div class='trialBorder'><div class='vertical-center'><img style='vertical-align:center; align:center' src=img/fixation3.jpg></div><div class='cl'><div class='vertical-center'>$55<br>for<br>Chase S</div></div><div class='cr'><div class='vertical-center'><font style='color:orange'>$40<br>for<br>yourself</font></div></div><div class='respDivL'><div class='vertical-center'>(E)</div></div><div class='respDivR'><div class='vertical-center'><font style='color:orange'>(I)</font></div></div></div>","null","$40<br>for<br>yourself","$55<br>for<br>4","1","40","55","4",""
"html-keyboard-response","83","141950","0.0-6.0-1.26","63b6ef9027eb90f292852ee4","bdp_sd","Sun Mar 26 2023 22:37:59 GMT-0400 (Eastern Daylight Time)","144327","","null","","","","","FIX","","<div class='trialBorder'><div class='vertical-center'><img style='vertical-align:center; align:center' src=img/fixation3.jpg></div></div>","null","","","","","","",""
"html-keyboard-response","84","143073","0.0-6.0-2.26","63b6ef9027eb90f292852ee4","bdp_sd","Sun Mar 26 2023 22:37:59 GMT-0400 (Eastern Daylight Time)","144327","","1120","","","","","offer","","<div class='trialBorder'><div class='vertical-center'><img style='vertical-align:center; align:center' src=img/fixation3.jpg></div><div class='cl'><div class='vertical-center'>$54<br>for<br>yourself</div></div><div class='cr'><div class='vertical-center'>$55<br>for<br>Marcus T</div></div><div class='respDivL'><div class='vertical-center'>(E)</div></div><div class='respDivR'><div class='vertical-center'>(I)</div></div></div>","E","$54<br>for<br>yourself","$55<br>for<br>5","0","54","55","5","SELF"
"html-keyboard-response","85","143325","0.0-6.0-3.26","63b6ef9027eb90f292852ee4","bdp_sd","Sun Mar 26 2023 22:37:59 GMT-0400 (Eastern Daylight Time)","144327","","null","","","","","offerFB","","<div class='trialBorder'><div class='vertical-center'><img style='vertical-align:center; align:center' src=img/fixation3.jpg></div><div class='cl'><div class='vertical-center'><font style='color:orange'>$54<br>for<br>yourself</font></div></div><div class='cr'><div class='vertical-center'>$55<br>for<br>Marcus T</div></div><div class='respDivL'><div class='vertical-center'><font style='color:orange'>(E)</font></div></div><div class='respDivR'><div class='vertical-center'>(I)</div></div></div>","null","$54<br>for<br>yourself","$55<br>for<br>5","0","54","55","5",""
"","","","","63b6ef9027eb90f292852ee4","bdp_sd","Sun Mar 26 2023 22:37:59 GMT-0400 (Eastern Daylight Time)","144327","","","","fullscreenexit","86","143355","fullscreenexit","","","","","","","","","",""
"fullscreen","86","144327","0.0-7.0","63b6ef9027eb90f292852ee4","bdp_sd","Sun Mar 26 2023 22:37:59 GMT-0400 (Eastern Daylight Time)","144327","","","","","","","","true","","","","","","","","",""
"html-keyboard-response","87","144830","0.0-8.0","","","","","","null","","","","","","","","null","","","","","","",""
