"trial_type","trial_index","time_elapsed","internal_node_id","subject_id","task","startTime","totalTime","view_history","rt","responses","event","trial","time","trialtype","success","stimulus","key_press","selfOffer","otherOffer","otherLeft","selfAmt","otherAmt","otherDist","chosen"
"pavlovia","0","1","0.0-0.0","63bd8be8f8c532da7bb5431e","bdp_sd","Sun Mar 26 2023 03:50:41 GMT-0400 (Eastern Daylight Time)","303828","","","","","","","","","","","","","","","","",""
"instructions","1","11718","0.0-1.0","63bd8be8f8c532da7bb5431e","bdp_sd","Sun Mar 26 2023 03:50:41 GMT-0400 (Eastern Daylight Time)","303828","[{""page_index"":0,""viewing_time"":11716}]","11716","","","","","","","","","","","","","","",""
"survey-text","2","156536","0.0-2.0","63bd8be8f8c532da7bb5431e","bdp_sd","Sun Mar 26 2023 03:50:41 GMT-0400 (Eastern Daylight Time)","303828","","144815","{""Q0"":""Yuri F"",""Q1"":""Shawn S"",""Q2"":""Banach B"",""Q3"":""Jen S"",""Q4"":""Christina M""}","","","","","","","","","","","","","",""
"","","","","63bd8be8f8c532da7bb5431e","bdp_sd","Sun Mar 26 2023 03:50:41 GMT-0400 (Eastern Daylight Time)","303828","","","","fullscreenenter","3","160460","fullscreenenter","","","","","","","","","",""
"fullscreen","3","161453","0.0-3.0","63bd8be8f8c532da7bb5431e","bdp_sd","Sun Mar 26 2023 03:50:41 GMT-0400 (Eastern Daylight Time)","303828","","","","","","","","true","","","","","","","","",""
"instructions","4","217421","0.0-5.0","63bd8be8f8c532da7bb5431e","bdp_sd","Sun Mar 26 2023 03:50:41 GMT-0400 (Eastern Daylight Time)","303828","[{""page_index"":0,""viewing_time"":15719},{""page_index"":1,""viewing_time"":30177},{""page_index"":2,""viewing_time"":10071}]","55967","","","","","","","","","","","","","","",""
"html-keyboard-response","5","217923","0.0-6.0-1.0","63bd8be8f8c532da7bb5431e","bdp_sd","Sun Mar 26 2023 03:50:41 GMT-0400 (Eastern Daylight Time)","303828","","null","","","","","FIX","","<div class='trialBorder'><div class='vertical-center'><img style='vertical-align:center; align:center' src=img/fixation3.jpg></div></div>","null","","","","","","",""
"html-keyboard-response","6","221151","0.0-6.0-2.0","63bd8be8f8c532da7bb5431e","bdp_sd","Sun Mar 26 2023 03:50:41 GMT-0400 (Eastern Daylight Time)","303828","","3225","","","","","offer","","<div class='trialBorder'><div class='vertical-center'><img style='vertical-align:center; align:center' src=img/fixation3.jpg></div><div class='cl'><div class='vertical-center'>$19<br>for<br>yourself</div></div><div class='cr'><div class='vertical-center'>$25<br>for<br>Jen S</div></div><div class='respDivL'><div class='vertical-center'>(E)</div></div><div class='respDivR'><div class='vertical-center'>(I)</div></div></div>","E","$19<br>for<br>yourself","$25<br>for<br>4","0","19","25","4","SELF"
"html-keyboard-response","7","221403","0.0-6.0-3.0","63bd8be8f8c532da7bb5431e","bdp_sd","Sun Mar 26 2023 03:50:41 GMT-0400 (Eastern Daylight Time)","303828","","null","","","","","offerFB","","<div class='trialBorder'><div class='vertical-center'><img style='vertical-align:center; align:center' src=img/fixation3.jpg></div><div class='cl'><div class='vertical-center'><font style='color:orange'>$19<br>for<br>yourself</font></div></div><div class='cr'><div class='vertical-center'>$25<br>for<br>Jen S</div></div><div class='respDivL'><div class='vertical-center'><font style='color:orange'>(E)</font></div></div><div class='respDivR'><div class='vertical-center'>(I)</div></div></div>","null","$19<br>for<br>yourself","$25<br>for<br>4","0","19","25","4",""
"html-keyboard-response","8","221905","0.0-6.0-1.1","63bd8be8f8c532da7bb5431e","bdp_sd","Sun Mar 26 2023 03:50:41 GMT-0400 (Eastern Daylight Time)","303828","","null","","","","","FIX","","<div class='trialBorder'><div class='vertical-center'><img style='vertical-align:center; align:center' src=img/fixation3.jpg></div></div>","null","","","","","","",""
"html-keyboard-response","9","225428","0.0-6.0-2.1","63bd8be8f8c532da7bb5431e","bdp_sd","Sun Mar 26 2023 03:50:41 GMT-0400 (Eastern Daylight Time)","303828","","3520","","","","","offer","","<div class='trialBorder'><div class='vertical-center'><img style='vertical-align:center; align:center' src=img/fixation3.jpg></div><div class='cl'><div class='vertical-center'>$41<br>for<br>yourself</div></div><div class='cr'><div class='vertical-center'>$75<br>for<br>Banach B</div></div><div class='respDivL'><div class='vertical-center'>(E)</div></div><div class='respDivR'><div class='vertical-center'>(I)</div></div></div>","E","$41<br>for<br>yourself","$75<br>for<br>3","0","41","75","3","SELF"
"html-keyboard-response","10","225681","0.0-6.0-3.1","63bd8be8f8c532da7bb5431e","bdp_sd","Sun Mar 26 2023 03:50:41 GMT-0400 (Eastern Daylight Time)","303828","","null","","","","","offerFB","","<div class='trialBorder'><div class='vertical-center'><img style='vertical-align:center; align:center' src=img/fixation3.jpg></div><div class='cl'><div class='vertical-center'><font style='color:orange'>$41<br>for<br>yourself</font></div></div><div class='cr'><div class='vertical-center'>$75<br>for<br>Banach B</div></div><div class='respDivL'><div class='vertical-center'><font style='color:orange'>(E)</font></div></div><div class='respDivR'><div class='vertical-center'>(I)</div></div></div>","null","$41<br>for<br>yourself","$75<br>for<br>3","0","41","75","3",""
"html-keyboard-response","11","226183","0.0-6.0-1.2","63bd8be8f8c532da7bb5431e","bdp_sd","Sun Mar 26 2023 03:50:41 GMT-0400 (Eastern Daylight Time)","303828","","null","","","","","FIX","","<div class='trialBorder'><div class='vertical-center'><img style='vertical-align:center; align:center' src=img/fixation3.jpg></div></div>","null","","","","","","",""
"html-keyboard-response","12","228606","0.0-6.0-2.2","63bd8be8f8c532da7bb5431e","bdp_sd","Sun Mar 26 2023 03:50:41 GMT-0400 (Eastern Daylight Time)","303828","","2422","","","","","offer","","<div class='trialBorder'><div class='vertical-center'><img style='vertical-align:center; align:center' src=img/fixation3.jpg></div><div class='cl'><div class='vertical-center'>$25<br>for<br>yourself</div></div><div class='cr'><div class='vertical-center'>$60<br>for<br>Banach B</div></div><div class='respDivL'><div class='vertical-center'>(E)</div></div><div class='respDivR'><div class='vertical-center'>(I)</div></div></div>","E","$25<br>for<br>yourself","$60<br>for<br>3","0","25","60","3","SELF"
"html-keyboard-response","13","228857","0.0-6.0-3.2","63bd8be8f8c532da7bb5431e","bdp_sd","Sun Mar 26 2023 03:50:41 GMT-0400 (Eastern Daylight Time)","303828","","null","","","","","offerFB","","<div class='trialBorder'><div class='vertical-center'><img style='vertical-align:center; align:center' src=img/fixation3.jpg></div><div class='cl'><div class='vertical-center'><font style='color:orange'>$25<br>for<br>yourself</font></div></div><div class='cr'><div class='vertical-center'>$60<br>for<br>Banach B</div></div><div class='respDivL'><div class='vertical-center'><font style='color:orange'>(E)</font></div></div><div class='respDivR'><div class='vertical-center'>(I)</div></div></div>","null","$25<br>for<br>yourself","$60<br>for<br>3","0","25","60","3",""
"html-keyboard-response","14","229359","0.0-6.0-1.3","63bd8be8f8c532da7bb5431e","bdp_sd","Sun Mar 26 2023 03:50:41 GMT-0400 (Eastern Daylight Time)","303828","","null","","","","","FIX","","<div class='trialBorder'><div class='vertical-center'><img style='vertical-align:center; align:center' src=img/fixation3.jpg></div></div>","null","","","","","","",""
"html-keyboard-response","15","231902","0.0-6.0-2.3","63bd8be8f8c532da7bb5431e","bdp_sd","Sun Mar 26 2023 03:50:41 GMT-0400 (Eastern Daylight Time)","303828","","2540","","","","","offer","","<div class='trialBorder'><div class='vertical-center'><img style='vertical-align:center; align:center' src=img/fixation3.jpg></div><div class='cl'><div class='vertical-center'>$35<br>for<br>Christina M</div></div><div class='cr'><div class='vertical-center'>$34<br>for<br>yourself</div></div><div class='respDivL'><div class='vertical-center'>(E)</div></div><div class='respDivR'><div class='vertical-center'>(I)</div></div></div>","I","$34<br>for<br>yourself","$35<br>for<br>5","1","34","35","5","SELF"
"html-keyboard-response","16","232154","0.0-6.0-3.3","63bd8be8f8c532da7bb5431e","bdp_sd","Sun Mar 26 2023 03:50:41 GMT-0400 (Eastern Daylight Time)","303828","","null","","","","","offerFB","","<div class='trialBorder'><div class='vertical-center'><img style='vertical-align:center; align:center' src=img/fixation3.jpg></div><div class='cl'><div class='vertical-center'>$35<br>for<br>Christina M</div></div><div class='cr'><div class='vertical-center'><font style='color:orange'>$34<br>for<br>yourself</font></div></div><div class='respDivL'><div class='vertical-center'>(E)</div></div><div class='respDivR'><div class='vertical-center'><font style='color:orange'>(I)</font></div></div></div>","null","$34<br>for<br>yourself","$35<br>for<br>5","1","34","35","5",""
"html-keyboard-response","17","232656","0.0-6.0-1.4","63bd8be8f8c532da7bb5431e","bdp_sd","Sun Mar 26 2023 03:50:41 GMT-0400 (Eastern Daylight Time)","303828","","null","","","","","FIX","","<div class='trialBorder'><div class='vertical-center'><img style='vertical-align:center; align:center' src=img/fixation3.jpg></div></div>","null","","","","","","",""
"html-keyboard-response","18","235886","0.0-6.0-2.4","63bd8be8f8c532da7bb5431e","bdp_sd","Sun Mar 26 2023 03:50:41 GMT-0400 (Eastern Daylight Time)","303828","","3229","","","","","offer","","<div class='trialBorder'><div class='vertical-center'><img style='vertical-align:center; align:center' src=img/fixation3.jpg></div><div class='cl'><div class='vertical-center'>$55<br>for<br>yourself</div></div><div class='cr'><div class='vertical-center'>$75<br>for<br>Jen S</div></div><div class='respDivL'><div class='vertical-center'>(E)</div></div><div class='respDivR'><div class='vertical-center'>(I)</div></div></div>","E","$55<br>for<br>yourself","$75<br>for<br>4","0","55","75","4","SELF"
"html-keyboard-response","19","236138","0.0-6.0-3.4","63bd8be8f8c532da7bb5431e","bdp_sd","Sun Mar 26 2023 03:50:41 GMT-0400 (Eastern Daylight Time)","303828","","null","","","","","offerFB","","<div class='trialBorder'><div class='vertical-center'><img style='vertical-align:center; align:center' src=img/fixation3.jpg></div><div class='cl'><div class='vertical-center'><font style='color:orange'>$55<br>for<br>yourself</font></div></div><div class='cr'><div class='vertical-center'>$75<br>for<br>Jen S</div></div><div class='respDivL'><div class='vertical-center'><font style='color:orange'>(E)</font></div></div><div class='respDivR'><div class='vertical-center'>(I)</div></div></div>","null","$55<br>for<br>yourself","$75<br>for<br>4","0","55","75","4",""
"html-keyboard-response","20","236640","0.0-6.0-1.5","63bd8be8f8c532da7bb5431e","bdp_sd","Sun Mar 26 2023 03:50:41 GMT-0400 (Eastern Daylight Time)","303828","","null","","","","","FIX","","<div class='trialBorder'><div class='vertical-center'><img style='vertical-align:center; align:center' src=img/fixation3.jpg></div></div>","null","","","","","","",""
"html-keyboard-response","21","239059","0.0-6.0-2.5","63bd8be8f8c532da7bb5431e","bdp_sd","Sun Mar 26 2023 03:50:41 GMT-0400 (Eastern Daylight Time)","303828","","2418","","","","","offer","","<div class='trialBorder'><div class='vertical-center'><img style='vertical-align:center; align:center' src=img/fixation3.jpg></div><div class='cl'><div class='vertical-center'>$50<br>for<br>Banach B</div></div><div class='cr'><div class='vertical-center'>$27<br>for<br>yourself</div></div><div class='respDivL'><div class='vertical-center'>(E)</div></div><div class='respDivR'><div class='vertical-center'>(I)</div></div></div>","I","$27<br>for<br>yourself","$50<br>for<br>3","1","27","50","3","SELF"
"html-keyboard-response","22","239311","0.0-6.0-3.5","63bd8be8f8c532da7bb5431e","bdp_sd","Sun Mar 26 2023 03:50:41 GMT-0400 (Eastern Daylight Time)","303828","","null","","","","","offerFB","","<div class='trialBorder'><div class='vertical-center'><img style='vertical-align:center; align:center' src=img/fixation3.jpg></div><div class='cl'><div class='vertical-center'>$50<br>for<br>Banach B</div></div><div class='cr'><div class='vertical-center'><font style='color:orange'>$27<br>for<br>yourself</font></div></div><div class='respDivL'><div class='vertical-center'>(E)</div></div><div class='respDivR'><div class='vertical-center'><font style='color:orange'>(I)</font></div></div></div>","null","$27<br>for<br>yourself","$50<br>for<br>3","1","27","50","3",""
"html-keyboard-response","23","239812","0.0-6.0-1.6","63bd8be8f8c532da7bb5431e","bdp_sd","Sun Mar 26 2023 03:50:41 GMT-0400 (Eastern Daylight Time)","303828","","null","","","","","FIX","","<div class='trialBorder'><div class='vertical-center'><img style='vertical-align:center; align:center' src=img/fixation3.jpg></div></div>","null","","","","","","",""
"html-keyboard-response","24","241456","0.0-6.0-2.6","63bd8be8f8c532da7bb5431e","bdp_sd","Sun Mar 26 2023 03:50:41 GMT-0400 (Eastern Daylight Time)","303828","","1644","","","","","offer","","<div class='trialBorder'><div class='vertical-center'><img style='vertical-align:center; align:center' src=img/fixation3.jpg></div><div class='cl'><div class='vertical-center'>$55<br>for<br>Jen S</div></div><div class='cr'><div class='vertical-center'>$40<br>for<br>yourself</div></div><div class='respDivL'><div class='vertical-center'>(E)</div></div><div class='respDivR'><div class='vertical-center'>(I)</div></div></div>","I","$40<br>for<br>yourself","$55<br>for<br>4","1","40","55","4","SELF"
"html-keyboard-response","25","241708","0.0-6.0-3.6","63bd8be8f8c532da7bb5431e","bdp_sd","Sun Mar 26 2023 03:50:41 GMT-0400 (Eastern Daylight Time)","303828","","null","","","","","offerFB","","<div class='trialBorder'><div class='vertical-center'><img style='vertical-align:center; align:center' src=img/fixation3.jpg></div><div class='cl'><div class='vertical-center'>$55<br>for<br>Jen S</div></div><div class='cr'><div class='vertical-center'><font style='color:orange'>$40<br>for<br>yourself</font></div></div><div class='respDivL'><div class='vertical-center'>(E)</div></div><div class='respDivR'><div class='vertical-center'><font style='color:orange'>(I)</font></div></div></div>","null","$40<br>for<br>yourself","$55<br>for<br>4","1","40","55","4",""
"html-keyboard-response","26","242210","0.0-6.0-1.7","63bd8be8f8c532da7bb5431e","bdp_sd","Sun Mar 26 2023 03:50:41 GMT-0400 (Eastern Daylight Time)","303828","","null","","","","","FIX","","<div class='trialBorder'><div class='vertical-center'><img style='vertical-align:center; align:center' src=img/fixation3.jpg></div></div>","null","","","","","","",""
"html-keyboard-response","27","245186","0.0-6.0-2.7","63bd8be8f8c532da7bb5431e","bdp_sd","Sun Mar 26 2023 03:50:41 GMT-0400 (Eastern Daylight Time)","303828","","2976","","","","","offer","","<div class='trialBorder'><div class='vertical-center'><img style='vertical-align:center; align:center' src=img/fixation3.jpg></div><div class='cl'><div class='vertical-center'>$25<br>for<br>Banach B</div></div><div class='cr'><div class='vertical-center'>$14<br>for<br>yourself</div></div><div class='respDivL'><div class='vertical-center'>(E)</div></div><div class='respDivR'><div class='vertical-center'>(I)</div></div></div>","I","$14<br>for<br>yourself","$25<br>for<br>3","1","14","25","3","SELF"
"html-keyboard-response","28","245438","0.0-6.0-3.7","63bd8be8f8c532da7bb5431e","bdp_sd","Sun Mar 26 2023 03:50:41 GMT-0400 (Eastern Daylight Time)","303828","","null","","","","","offerFB","","<div class='trialBorder'><div class='vertical-center'><img style='vertical-align:center; align:center' src=img/fixation3.jpg></div><div class='cl'><div class='vertical-center'>$25<br>for<br>Banach B</div></div><div class='cr'><div class='vertical-center'><font style='color:orange'>$14<br>for<br>yourself</font></div></div><div class='respDivL'><div class='vertical-center'>(E)</div></div><div class='respDivR'><div class='vertical-center'><font style='color:orange'>(I)</font></div></div></div>","null","$14<br>for<br>yourself","$25<br>for<br>3","1","14","25","3",""
"html-keyboard-response","29","245940","0.0-6.0-1.8","63bd8be8f8c532da7bb5431e","bdp_sd","Sun Mar 26 2023 03:50:41 GMT-0400 (Eastern Daylight Time)","303828","","null","","","","","FIX","","<div class='trialBorder'><div class='vertical-center'><img style='vertical-align:center; align:center' src=img/fixation3.jpg></div></div>","null","","","","","","",""
"html-keyboard-response","30","248441","0.0-6.0-2.8","63bd8be8f8c532da7bb5431e","bdp_sd","Sun Mar 26 2023 03:50:41 GMT-0400 (Eastern Daylight Time)","303828","","2500","","","","","offer","","<div class='trialBorder'><div class='vertical-center'><img style='vertical-align:center; align:center' src=img/fixation3.jpg></div><div class='cl'><div class='vertical-center'>$34<br>for<br>yourself</div></div><div class='cr'><div class='vertical-center'>$50<br>for<br>Jen S</div></div><div class='respDivL'><div class='vertical-center'>(E)</div></div><div class='respDivR'><div class='vertical-center'>(I)</div></div></div>","E","$34<br>for<br>yourself","$50<br>for<br>4","0","34","50","4","SELF"
"html-keyboard-response","31","248692","0.0-6.0-3.8","63bd8be8f8c532da7bb5431e","bdp_sd","Sun Mar 26 2023 03:50:41 GMT-0400 (Eastern Daylight Time)","303828","","null","","","","","offerFB","","<div class='trialBorder'><div class='vertical-center'><img style='vertical-align:center; align:center' src=img/fixation3.jpg></div><div class='cl'><div class='vertical-center'><font style='color:orange'>$34<br>for<br>yourself</font></div></div><div class='cr'><div class='vertical-center'>$50<br>for<br>Jen S</div></div><div class='respDivL'><div class='vertical-center'><font style='color:orange'>(E)</font></div></div><div class='respDivR'><div class='vertical-center'>(I)</div></div></div>","null","$34<br>for<br>yourself","$50<br>for<br>4","0","34","50","4",""
"html-keyboard-response","32","249193","0.0-6.0-1.9","63bd8be8f8c532da7bb5431e","bdp_sd","Sun Mar 26 2023 03:50:41 GMT-0400 (Eastern Daylight Time)","303828","","null","","","","","FIX","","<div class='trialBorder'><div class='vertical-center'><img style='vertical-align:center; align:center' src=img/fixation3.jpg></div></div>","null","","","","","","",""
"html-keyboard-response","33","251063","0.0-6.0-2.9","63bd8be8f8c532da7bb5431e","bdp_sd","Sun Mar 26 2023 03:50:41 GMT-0400 (Eastern Daylight Time)","303828","","1869","","","","","offer","","<div class='trialBorder'><div class='vertical-center'><img style='vertical-align:center; align:center' src=img/fixation3.jpg></div><div class='cl'><div class='vertical-center'>$60<br>for<br>Christina M</div></div><div class='cr'><div class='vertical-center'>$54<br>for<br>yourself</div></div><div class='respDivL'><div class='vertical-center'>(E)</div></div><div class='respDivR'><div class='vertical-center'>(I)</div></div></div>","I","$54<br>for<br>yourself","$60<br>for<br>5","1","54","60","5","SELF"
"html-keyboard-response","34","251314","0.0-6.0-3.9","63bd8be8f8c532da7bb5431e","bdp_sd","Sun Mar 26 2023 03:50:41 GMT-0400 (Eastern Daylight Time)","303828","","null","","","","","offerFB","","<div class='trialBorder'><div class='vertical-center'><img style='vertical-align:center; align:center' src=img/fixation3.jpg></div><div class='cl'><div class='vertical-center'>$60<br>for<br>Christina M</div></div><div class='cr'><div class='vertical-center'><font style='color:orange'>$54<br>for<br>yourself</font></div></div><div class='respDivL'><div class='vertical-center'>(E)</div></div><div class='respDivR'><div class='vertical-center'><font style='color:orange'>(I)</font></div></div></div>","null","$54<br>for<br>yourself","$60<br>for<br>5","1","54","60","5",""
"html-keyboard-response","35","251816","0.0-6.0-1.10","63bd8be8f8c532da7bb5431e","bdp_sd","Sun Mar 26 2023 03:50:41 GMT-0400 (Eastern Daylight Time)","303828","","null","","","","","FIX","","<div class='trialBorder'><div class='vertical-center'><img style='vertical-align:center; align:center' src=img/fixation3.jpg></div></div>","null","","","","","","",""
"html-keyboard-response","36","254133","0.0-6.0-2.10","63bd8be8f8c532da7bb5431e","bdp_sd","Sun Mar 26 2023 03:50:41 GMT-0400 (Eastern Daylight Time)","303828","","2316","","","","","offer","","<div class='trialBorder'><div class='vertical-center'><img style='vertical-align:center; align:center' src=img/fixation3.jpg></div><div class='cl'><div class='vertical-center'>$60<br>for<br>Jen S</div></div><div class='cr'><div class='vertical-center'>$49<br>for<br>yourself</div></div><div class='respDivL'><div class='vertical-center'>(E)</div></div><div class='respDivR'><div class='vertical-center'>(I)</div></div></div>","I","$49<br>for<br>yourself","$60<br>for<br>4","1","49","60","4","SELF"
"html-keyboard-response","37","254385","0.0-6.0-3.10","63bd8be8f8c532da7bb5431e","bdp_sd","Sun Mar 26 2023 03:50:41 GMT-0400 (Eastern Daylight Time)","303828","","null","","","","","offerFB","","<div class='trialBorder'><div class='vertical-center'><img style='vertical-align:center; align:center' src=img/fixation3.jpg></div><div class='cl'><div class='vertical-center'>$60<br>for<br>Jen S</div></div><div class='cr'><div class='vertical-center'><font style='color:orange'>$49<br>for<br>yourself</font></div></div><div class='respDivL'><div class='vertical-center'>(E)</div></div><div class='respDivR'><div class='vertical-center'><font style='color:orange'>(I)</font></div></div></div>","null","$49<br>for<br>yourself","$60<br>for<br>4","1","49","60","4",""
"html-keyboard-response","38","254886","0.0-6.0-1.11","63bd8be8f8c532da7bb5431e","bdp_sd","Sun Mar 26 2023 03:50:41 GMT-0400 (Eastern Daylight Time)","303828","","null","","","","","FIX","","<div class='trialBorder'><div class='vertical-center'><img style='vertical-align:center; align:center' src=img/fixation3.jpg></div></div>","null","","","","","","",""
"html-keyboard-response","39","258933","0.0-6.0-2.11","63bd8be8f8c532da7bb5431e","bdp_sd","Sun Mar 26 2023 03:50:41 GMT-0400 (Eastern Daylight Time)","303828","","4045","","","","","offer","","<div class='trialBorder'><div class='vertical-center'><img style='vertical-align:center; align:center' src=img/fixation3.jpg></div><div class='cl'><div class='vertical-center'>$31<br>for<br>yourself</div></div><div class='cr'><div class='vertical-center'>$85<br>for<br>Yuri F</div></div><div class='respDivL'><div class='vertical-center'>(E)</div></div><div class='respDivR'><div class='vertical-center'>(I)</div></div></div>","I","$31<br>for<br>yourself","$85<br>for<br>1","0","31","85","1","OTHER"
"html-keyboard-response","40","259185","0.0-6.0-3.11","63bd8be8f8c532da7bb5431e","bdp_sd","Sun Mar 26 2023 03:50:41 GMT-0400 (Eastern Daylight Time)","303828","","null","","","","","offerFB","","<div class='trialBorder'><div class='vertical-center'><img style='vertical-align:center; align:center' src=img/fixation3.jpg></div><div class='cl'><div class='vertical-center'>$31<br>for<br>yourself</div></div><div class='cr'><div class='vertical-center'><font style='color:orange'>$85<br>for<br>Yuri F</font></div></div><div class='respDivL'><div class='vertical-center'>(E)</div></div><div class='respDivR'><div class='vertical-center'><font style='color:orange'>(I)</font></div></div></div>","null","$31<br>for<br>yourself","$85<br>for<br>1","0","31","85","1",""
"html-keyboard-response","41","259686","0.0-6.0-1.12","63bd8be8f8c532da7bb5431e","bdp_sd","Sun Mar 26 2023 03:50:41 GMT-0400 (Eastern Daylight Time)","303828","","null","","","","","FIX","","<div class='trialBorder'><div class='vertical-center'><img style='vertical-align:center; align:center' src=img/fixation3.jpg></div></div>","null","","","","","","",""
"html-keyboard-response","42","262142","0.0-6.0-2.12","63bd8be8f8c532da7bb5431e","bdp_sd","Sun Mar 26 2023 03:50:41 GMT-0400 (Eastern Daylight Time)","303828","","2455","","","","","offer","","<div class='trialBorder'><div class='vertical-center'><img style='vertical-align:center; align:center' src=img/fixation3.jpg></div><div class='cl'><div class='vertical-center'>$30<br>for<br>Jen S</div></div><div class='cr'><div class='vertical-center'>$25<br>for<br>yourself</div></div><div class='respDivL'><div class='vertical-center'>(E)</div></div><div class='respDivR'><div class='vertical-center'>(I)</div></div></div>","I","$25<br>for<br>yourself","$30<br>for<br>4","1","25","30","4","SELF"
"html-keyboard-response","43","262394","0.0-6.0-3.12","63bd8be8f8c532da7bb5431e","bdp_sd","Sun Mar 26 2023 03:50:41 GMT-0400 (Eastern Daylight Time)","303828","","null","","","","","offerFB","","<div class='trialBorder'><div class='vertical-center'><img style='vertical-align:center; align:center' src=img/fixation3.jpg></div><div class='cl'><div class='vertical-center'>$30<br>for<br>Jen S</div></div><div class='cr'><div class='vertical-center'><font style='color:orange'>$25<br>for<br>yourself</font></div></div><div class='respDivL'><div class='vertical-center'>(E)</div></div><div class='respDivR'><div class='vertical-center'><font style='color:orange'>(I)</font></div></div></div>","null","$25<br>for<br>yourself","$30<br>for<br>4","1","25","30","4",""
"html-keyboard-response","44","262895","0.0-6.0-1.13","63bd8be8f8c532da7bb5431e","bdp_sd","Sun Mar 26 2023 03:50:41 GMT-0400 (Eastern Daylight Time)","303828","","null","","","","","FIX","","<div class='trialBorder'><div class='vertical-center'><img style='vertical-align:center; align:center' src=img/fixation3.jpg></div></div>","null","","","","","","",""
"html-keyboard-response","45","266440","0.0-6.0-2.13","63bd8be8f8c532da7bb5431e","bdp_sd","Sun Mar 26 2023 03:50:41 GMT-0400 (Eastern Daylight Time)","303828","","3543","","","","","offer","","<div class='trialBorder'><div class='vertical-center'><img style='vertical-align:center; align:center' src=img/fixation3.jpg></div><div class='cl'><div class='vertical-center'>$30<br>for<br>Christina M</div></div><div class='cr'><div class='vertical-center'>$28<br>for<br>yourself</div></div><div class='respDivL'><div class='vertical-center'>(E)</div></div><div class='respDivR'><div class='vertical-center'>(I)</div></div></div>","I","$28<br>for<br>yourself","$30<br>for<br>5","1","28","30","5","SELF"
"html-keyboard-response","46","266691","0.0-6.0-3.13","63bd8be8f8c532da7bb5431e","bdp_sd","Sun Mar 26 2023 03:50:41 GMT-0400 (Eastern Daylight Time)","303828","","null","","","","","offerFB","","<div class='trialBorder'><div class='vertical-center'><img style='vertical-align:center; align:center' src=img/fixation3.jpg></div><div class='cl'><div class='vertical-center'>$30<br>for<br>Christina M</div></div><div class='cr'><div class='vertical-center'><font style='color:orange'>$28<br>for<br>yourself</font></div></div><div class='respDivL'><div class='vertical-center'>(E)</div></div><div class='respDivR'><div class='vertical-center'><font style='color:orange'>(I)</font></div></div></div>","null","$28<br>for<br>yourself","$30<br>for<br>5","1","28","30","5",""
"html-keyboard-response","47","267193","0.0-6.0-1.14","63bd8be8f8c532da7bb5431e","bdp_sd","Sun Mar 26 2023 03:50:41 GMT-0400 (Eastern Daylight Time)","303828","","null","","","","","FIX","","<div class='trialBorder'><div class='vertical-center'><img style='vertical-align:center; align:center' src=img/fixation3.jpg></div></div>","null","","","","","","",""
"html-keyboard-response","48","268697","0.0-6.0-2.14","63bd8be8f8c532da7bb5431e","bdp_sd","Sun Mar 26 2023 03:50:41 GMT-0400 (Eastern Daylight Time)","303828","","1502","","","","","offer","","<div class='trialBorder'><div class='vertical-center'><img style='vertical-align:center; align:center' src=img/fixation3.jpg></div><div class='cl'><div class='vertical-center'>$55<br>for<br>Yuri F</div></div><div class='cr'><div class='vertical-center'>$20<br>for<br>yourself</div></div><div class='respDivL'><div class='vertical-center'>(E)</div></div><div class='respDivR'><div class='vertical-center'>(I)</div></div></div>","E","$20<br>for<br>yourself","$55<br>for<br>1","1","20","55","1","OTHER"
"html-keyboard-response","49","268950","0.0-6.0-3.14","63bd8be8f8c532da7bb5431e","bdp_sd","Sun Mar 26 2023 03:50:41 GMT-0400 (Eastern Daylight Time)","303828","","null","","","","","offerFB","","<div class='trialBorder'><div class='vertical-center'><img style='vertical-align:center; align:center' src=img/fixation3.jpg></div><div class='cl'><div class='vertical-center'><font style='color:orange'>$55<br>for<br>Yuri F</font></div></div><div class='cr'><div class='vertical-center'>$20<br>for<br>yourself</div></div><div class='respDivL'><div class='vertical-center'><font style='color:orange'>(E)</font></div></div><div class='respDivR'><div class='vertical-center'>(I)</div></div></div>","null","$20<br>for<br>yourself","$55<br>for<br>1","1","20","55","1",""
"html-keyboard-response","50","269452","0.0-6.0-1.15","63bd8be8f8c532da7bb5431e","bdp_sd","Sun Mar 26 2023 03:50:41 GMT-0400 (Eastern Daylight Time)","303828","","null","","","","","FIX","","<div class='trialBorder'><div class='vertical-center'><img style='vertical-align:center; align:center' src=img/fixation3.jpg></div></div>","null","","","","","","",""
"html-keyboard-response","51","271542","0.0-6.0-2.15","63bd8be8f8c532da7bb5431e","bdp_sd","Sun Mar 26 2023 03:50:41 GMT-0400 (Eastern Daylight Time)","303828","","2088","","","","","offer","","<div class='trialBorder'><div class='vertical-center'><img style='vertical-align:center; align:center' src=img/fixation3.jpg></div><div class='cl'><div class='vertical-center'>$80<br>for<br>Banach B</div></div><div class='cr'><div class='vertical-center'>$54<br>for<br>yourself</div></div><div class='respDivL'><div class='vertical-center'>(E)</div></div><div class='respDivR'><div class='vertical-center'>(I)</div></div></div>","I","$54<br>for<br>yourself","$80<br>for<br>3","1","54","80","3","SELF"
"html-keyboard-response","52","271795","0.0-6.0-3.15","63bd8be8f8c532da7bb5431e","bdp_sd","Sun Mar 26 2023 03:50:41 GMT-0400 (Eastern Daylight Time)","303828","","null","","","","","offerFB","","<div class='trialBorder'><div class='vertical-center'><img style='vertical-align:center; align:center' src=img/fixation3.jpg></div><div class='cl'><div class='vertical-center'>$80<br>for<br>Banach B</div></div><div class='cr'><div class='vertical-center'><font style='color:orange'>$54<br>for<br>yourself</font></div></div><div class='respDivL'><div class='vertical-center'>(E)</div></div><div class='respDivR'><div class='vertical-center'><font style='color:orange'>(I)</font></div></div></div>","null","$54<br>for<br>yourself","$80<br>for<br>3","1","54","80","3",""
"html-keyboard-response","53","272297","0.0-6.0-1.16","63bd8be8f8c532da7bb5431e","bdp_sd","Sun Mar 26 2023 03:50:41 GMT-0400 (Eastern Daylight Time)","303828","","null","","","","","FIX","","<div class='trialBorder'><div class='vertical-center'><img style='vertical-align:center; align:center' src=img/fixation3.jpg></div></div>","null","","","","","","",""
"html-keyboard-response","54","274327","0.0-6.0-2.16","63bd8be8f8c532da7bb5431e","bdp_sd","Sun Mar 26 2023 03:50:41 GMT-0400 (Eastern Daylight Time)","303828","","2029","","","","","offer","","<div class='trialBorder'><div class='vertical-center'><img style='vertical-align:center; align:center' src=img/fixation3.jpg></div><div class='cl'><div class='vertical-center'>$30<br>for<br>Shawn S</div></div><div class='cr'><div class='vertical-center'>$11<br>for<br>yourself</div></div><div class='respDivL'><div class='vertical-center'>(E)</div></div><div class='respDivR'><div class='vertical-center'>(I)</div></div></div>","E","$11<br>for<br>yourself","$30<br>for<br>2","1","11","30","2","OTHER"
"html-keyboard-response","55","274579","0.0-6.0-3.16","63bd8be8f8c532da7bb5431e","bdp_sd","Sun Mar 26 2023 03:50:41 GMT-0400 (Eastern Daylight Time)","303828","","null","","","","","offerFB","","<div class='trialBorder'><div class='vertical-center'><img style='vertical-align:center; align:center' src=img/fixation3.jpg></div><div class='cl'><div class='vertical-center'><font style='color:orange'>$30<br>for<br>Shawn S</font></div></div><div class='cr'><div class='vertical-center'>$11<br>for<br>yourself</div></div><div class='respDivL'><div class='vertical-center'><font style='color:orange'>(E)</font></div></div><div class='respDivR'><div class='vertical-center'>(I)</div></div></div>","null","$11<br>for<br>yourself","$30<br>for<br>2","1","11","30","2",""
"html-keyboard-response","56","275081","0.0-6.0-1.17","63bd8be8f8c532da7bb5431e","bdp_sd","Sun Mar 26 2023 03:50:41 GMT-0400 (Eastern Daylight Time)","303828","","null","","","","","FIX","","<div class='trialBorder'><div class='vertical-center'><img style='vertical-align:center; align:center' src=img/fixation3.jpg></div></div>","null","","","","","","",""
"html-keyboard-response","57","276939","0.0-6.0-2.17","63bd8be8f8c532da7bb5431e","bdp_sd","Sun Mar 26 2023 03:50:41 GMT-0400 (Eastern Daylight Time)","303828","","1856","","","","","offer","","<div class='trialBorder'><div class='vertical-center'><img style='vertical-align:center; align:center' src=img/fixation3.jpg></div><div class='cl'><div class='vertical-center'>$22<br>for<br>yourself</div></div><div class='cr'><div class='vertical-center'>$25<br>for<br>Christina M</div></div><div class='respDivL'><div class='vertical-center'>(E)</div></div><div class='respDivR'><div class='vertical-center'>(I)</div></div></div>","E","$22<br>for<br>yourself","$25<br>for<br>5","0","22","25","5","SELF"
"html-keyboard-response","58","277192","0.0-6.0-3.17","63bd8be8f8c532da7bb5431e","bdp_sd","Sun Mar 26 2023 03:50:41 GMT-0400 (Eastern Daylight Time)","303828","","null","","","","","offerFB","","<div class='trialBorder'><div class='vertical-center'><img style='vertical-align:center; align:center' src=img/fixation3.jpg></div><div class='cl'><div class='vertical-center'><font style='color:orange'>$22<br>for<br>yourself</font></div></div><div class='cr'><div class='vertical-center'>$25<br>for<br>Christina M</div></div><div class='respDivL'><div class='vertical-center'><font style='color:orange'>(E)</font></div></div><div class='respDivR'><div class='vertical-center'>(I)</div></div></div>","null","$22<br>for<br>yourself","$25<br>for<br>5","0","22","25","5",""
"html-keyboard-response","59","277694","0.0-6.0-1.18","63bd8be8f8c532da7bb5431e","bdp_sd","Sun Mar 26 2023 03:50:41 GMT-0400 (Eastern Daylight Time)","303828","","null","","","","","FIX","","<div class='trialBorder'><div class='vertical-center'><img style='vertical-align:center; align:center' src=img/fixation3.jpg></div></div>","null","","","","","","",""
"html-keyboard-response","60","279673","0.0-6.0-2.18","63bd8be8f8c532da7bb5431e","bdp_sd","Sun Mar 26 2023 03:50:41 GMT-0400 (Eastern Daylight Time)","303828","","1978","","","","","offer","","<div class='trialBorder'><div class='vertical-center'><img style='vertical-align:center; align:center' src=img/fixation3.jpg></div><div class='cl'><div class='vertical-center'>$15<br>for<br>yourself</div></div><div class='cr'><div class='vertical-center'>$35<br>for<br>Shawn S</div></div><div class='respDivL'><div class='vertical-center'>(E)</div></div><div class='respDivR'><div class='vertical-center'>(I)</div></div></div>","I","$15<br>for<br>yourself","$35<br>for<br>2","0","15","35","2","OTHER"
"html-keyboard-response","61","279925","0.0-6.0-3.18","63bd8be8f8c532da7bb5431e","bdp_sd","Sun Mar 26 2023 03:50:41 GMT-0400 (Eastern Daylight Time)","303828","","null","","","","","offerFB","","<div class='trialBorder'><div class='vertical-center'><img style='vertical-align:center; align:center' src=img/fixation3.jpg></div><div class='cl'><div class='vertical-center'>$15<br>for<br>yourself</div></div><div class='cr'><div class='vertical-center'><font style='color:orange'>$35<br>for<br>Shawn S</font></div></div><div class='respDivL'><div class='vertical-center'>(E)</div></div><div class='respDivR'><div class='vertical-center'><font style='color:orange'>(I)</font></div></div></div>","null","$15<br>for<br>yourself","$35<br>for<br>2","0","15","35","2",""
"html-keyboard-response","62","280427","0.0-6.0-1.19","63bd8be8f8c532da7bb5431e","bdp_sd","Sun Mar 26 2023 03:50:41 GMT-0400 (Eastern Daylight Time)","303828","","null","","","","","FIX","","<div class='trialBorder'><div class='vertical-center'><img style='vertical-align:center; align:center' src=img/fixation3.jpg></div></div>","null","","","","","","",""
"html-keyboard-response","63","282361","0.0-6.0-2.19","63bd8be8f8c532da7bb5431e","bdp_sd","Sun Mar 26 2023 03:50:41 GMT-0400 (Eastern Daylight Time)","303828","","1933","","","","","offer","","<div class='trialBorder'><div class='vertical-center'><img style='vertical-align:center; align:center' src=img/fixation3.jpg></div><div class='cl'><div class='vertical-center'>$67<br>for<br>yourself</div></div><div class='cr'><div class='vertical-center'>$75<br>for<br>Christina M</div></div><div class='respDivL'><div class='vertical-center'>(E)</div></div><div class='respDivR'><div class='vertical-center'>(I)</div></div></div>","E","$67<br>for<br>yourself","$75<br>for<br>5","0","67","75","5","SELF"
"html-keyboard-response","64","282612","0.0-6.0-3.19","63bd8be8f8c532da7bb5431e","bdp_sd","Sun Mar 26 2023 03:50:41 GMT-0400 (Eastern Daylight Time)","303828","","null","","","","","offerFB","","<div class='trialBorder'><div class='vertical-center'><img style='vertical-align:center; align:center' src=img/fixation3.jpg></div><div class='cl'><div class='vertical-center'><font style='color:orange'>$67<br>for<br>yourself</font></div></div><div class='cr'><div class='vertical-center'>$75<br>for<br>Christina M</div></div><div class='respDivL'><div class='vertical-center'><font style='color:orange'>(E)</font></div></div><div class='respDivR'><div class='vertical-center'>(I)</div></div></div>","null","$67<br>for<br>yourself","$75<br>for<br>5","0","67","75","5",""
"html-keyboard-response","65","283115","0.0-6.0-1.20","63bd8be8f8c532da7bb5431e","bdp_sd","Sun Mar 26 2023 03:50:41 GMT-0400 (Eastern Daylight Time)","303828","","null","","","","","FIX","","<div class='trialBorder'><div class='vertical-center'><img style='vertical-align:center; align:center' src=img/fixation3.jpg></div></div>","null","","","","","","",""
"html-keyboard-response","66","285157","0.0-6.0-2.20","63bd8be8f8c532da7bb5431e","bdp_sd","Sun Mar 26 2023 03:50:41 GMT-0400 (Eastern Daylight Time)","303828","","2041","","","","","offer","","<div class='trialBorder'><div class='vertical-center'><img style='vertical-align:center; align:center' src=img/fixation3.jpg></div><div class='cl'><div class='vertical-center'>$85<br>for<br>Jen S</div></div><div class='cr'><div class='vertical-center'>$69<br>for<br>yourself</div></div><div class='respDivL'><div class='vertical-center'>(E)</div></div><div class='respDivR'><div class='vertical-center'>(I)</div></div></div>","I","$69<br>for<br>yourself","$85<br>for<br>4","1","69","85","4","SELF"
"html-keyboard-response","67","285410","0.0-6.0-3.20","63bd8be8f8c532da7bb5431e","bdp_sd","Sun Mar 26 2023 03:50:41 GMT-0400 (Eastern Daylight Time)","303828","","null","","","","","offerFB","","<div class='trialBorder'><div class='vertical-center'><img style='vertical-align:center; align:center' src=img/fixation3.jpg></div><div class='cl'><div class='vertical-center'>$85<br>for<br>Jen S</div></div><div class='cr'><div class='vertical-center'><font style='color:orange'>$69<br>for<br>yourself</font></div></div><div class='respDivL'><div class='vertical-center'>(E)</div></div><div class='respDivR'><div class='vertical-center'><font style='color:orange'>(I)</font></div></div></div>","null","$69<br>for<br>yourself","$85<br>for<br>4","1","69","85","4",""
"html-keyboard-response","68","285912","0.0-6.0-1.21","63bd8be8f8c532da7bb5431e","bdp_sd","Sun Mar 26 2023 03:50:41 GMT-0400 (Eastern Daylight Time)","303828","","null","","","","","FIX","","<div class='trialBorder'><div class='vertical-center'><img style='vertical-align:center; align:center' src=img/fixation3.jpg></div></div>","null","","","","","","",""
"html-keyboard-response","69","287572","0.0-6.0-2.21","63bd8be8f8c532da7bb5431e","bdp_sd","Sun Mar 26 2023 03:50:41 GMT-0400 (Eastern Daylight Time)","303828","","1659","","","","","offer","","<div class='trialBorder'><div class='vertical-center'><img style='vertical-align:center; align:center' src=img/fixation3.jpg></div><div class='cl'><div class='vertical-center'>$33<br>for<br>yourself</div></div><div class='cr'><div class='vertical-center'>$80<br>for<br>Shawn S</div></div><div class='respDivL'><div class='vertical-center'>(E)</div></div><div class='respDivR'><div class='vertical-center'>(I)</div></div></div>","I","$33<br>for<br>yourself","$80<br>for<br>2","0","33","80","2","OTHER"
"html-keyboard-response","70","287824","0.0-6.0-3.21","63bd8be8f8c532da7bb5431e","bdp_sd","Sun Mar 26 2023 03:50:41 GMT-0400 (Eastern Daylight Time)","303828","","null","","","","","offerFB","","<div class='trialBorder'><div class='vertical-center'><img style='vertical-align:center; align:center' src=img/fixation3.jpg></div><div class='cl'><div class='vertical-center'>$33<br>for<br>yourself</div></div><div class='cr'><div class='vertical-center'><font style='color:orange'>$80<br>for<br>Shawn S</font></div></div><div class='respDivL'><div class='vertical-center'>(E)</div></div><div class='respDivR'><div class='vertical-center'><font style='color:orange'>(I)</font></div></div></div>","null","$33<br>for<br>yourself","$80<br>for<br>2","0","33","80","2",""
"html-keyboard-response","71","288327","0.0-6.0-1.22","63bd8be8f8c532da7bb5431e","bdp_sd","Sun Mar 26 2023 03:50:41 GMT-0400 (Eastern Daylight Time)","303828","","null","","","","","FIX","","<div class='trialBorder'><div class='vertical-center'><img style='vertical-align:center; align:center' src=img/fixation3.jpg></div></div>","null","","","","","","",""
"html-keyboard-response","72","291446","0.0-6.0-2.22","63bd8be8f8c532da7bb5431e","bdp_sd","Sun Mar 26 2023 03:50:41 GMT-0400 (Eastern Daylight Time)","303828","","3117","","","","","offer","","<div class='trialBorder'><div class='vertical-center'><img style='vertical-align:center; align:center' src=img/fixation3.jpg></div><div class='cl'><div class='vertical-center'>$54<br>for<br>yourself</div></div><div class='cr'><div class='vertical-center'>$55<br>for<br>Christina M</div></div><div class='respDivL'><div class='vertical-center'>(E)</div></div><div class='respDivR'><div class='vertical-center'>(I)</div></div></div>","E","$54<br>for<br>yourself","$55<br>for<br>5","0","54","55","5","SELF"
"html-keyboard-response","73","291698","0.0-6.0-3.22","63bd8be8f8c532da7bb5431e","bdp_sd","Sun Mar 26 2023 03:50:41 GMT-0400 (Eastern Daylight Time)","303828","","null","","","","","offerFB","","<div class='trialBorder'><div class='vertical-center'><img style='vertical-align:center; align:center' src=img/fixation3.jpg></div><div class='cl'><div class='vertical-center'><font style='color:orange'>$54<br>for<br>yourself</font></div></div><div class='cr'><div class='vertical-center'>$55<br>for<br>Christina M</div></div><div class='respDivL'><div class='vertical-center'><font style='color:orange'>(E)</font></div></div><div class='respDivR'><div class='vertical-center'>(I)</div></div></div>","null","$54<br>for<br>yourself","$55<br>for<br>5","0","54","55","5",""
"html-keyboard-response","74","292199","0.0-6.0-1.23","63bd8be8f8c532da7bb5431e","bdp_sd","Sun Mar 26 2023 03:50:41 GMT-0400 (Eastern Daylight Time)","303828","","null","","","","","FIX","","<div class='trialBorder'><div class='vertical-center'><img style='vertical-align:center; align:center' src=img/fixation3.jpg></div></div>","null","","","","","","",""
"html-keyboard-response","75","293816","0.0-6.0-2.23","63bd8be8f8c532da7bb5431e","bdp_sd","Sun Mar 26 2023 03:50:41 GMT-0400 (Eastern Daylight Time)","303828","","1616","","","","","offer","","<div class='trialBorder'><div class='vertical-center'><img style='vertical-align:center; align:center' src=img/fixation3.jpg></div><div class='cl'><div class='vertical-center'>$47<br>for<br>yourself</div></div><div class='cr'><div class='vertical-center'>$50<br>for<br>Christina M</div></div><div class='respDivL'><div class='vertical-center'>(E)</div></div><div class='respDivR'><div class='vertical-center'>(I)</div></div></div>","E","$47<br>for<br>yourself","$50<br>for<br>5","0","47","50","5","SELF"
"html-keyboard-response","76","294067","0.0-6.0-3.23","63bd8be8f8c532da7bb5431e","bdp_sd","Sun Mar 26 2023 03:50:41 GMT-0400 (Eastern Daylight Time)","303828","","null","","","","","offerFB","","<div class='trialBorder'><div class='vertical-center'><img style='vertical-align:center; align:center' src=img/fixation3.jpg></div><div class='cl'><div class='vertical-center'><font style='color:orange'>$47<br>for<br>yourself</font></div></div><div class='cr'><div class='vertical-center'>$50<br>for<br>Christina M</div></div><div class='respDivL'><div class='vertical-center'><font style='color:orange'>(E)</font></div></div><div class='respDivR'><div class='vertical-center'>(I)</div></div></div>","null","$47<br>for<br>yourself","$50<br>for<br>5","0","47","50","5",""
"html-keyboard-response","77","294569","0.0-6.0-1.24","63bd8be8f8c532da7bb5431e","bdp_sd","Sun Mar 26 2023 03:50:41 GMT-0400 (Eastern Daylight Time)","303828","","null","","","","","FIX","","<div class='trialBorder'><div class='vertical-center'><img style='vertical-align:center; align:center' src=img/fixation3.jpg></div></div>","null","","","","","","",""
"html-keyboard-response","78","296050","0.0-6.0-2.24","63bd8be8f8c532da7bb5431e","bdp_sd","Sun Mar 26 2023 03:50:41 GMT-0400 (Eastern Daylight Time)","303828","","1481","","","","","offer","","<div class='trialBorder'><div class='vertical-center'><img style='vertical-align:center; align:center' src=img/fixation3.jpg></div><div class='cl'><div class='vertical-center'>$35<br>for<br>Banach B</div></div><div class='cr'><div class='vertical-center'>$24<br>for<br>yourself</div></div><div class='respDivL'><div class='vertical-center'>(E)</div></div><div class='respDivR'><div class='vertical-center'>(I)</div></div></div>","I","$24<br>for<br>yourself","$35<br>for<br>3","1","24","35","3","SELF"
"html-keyboard-response","79","296302","0.0-6.0-3.24","63bd8be8f8c532da7bb5431e","bdp_sd","Sun Mar 26 2023 03:50:41 GMT-0400 (Eastern Daylight Time)","303828","","null","","","","","offerFB","","<div class='trialBorder'><div class='vertical-center'><img style='vertical-align:center; align:center' src=img/fixation3.jpg></div><div class='cl'><div class='vertical-center'>$35<br>for<br>Banach B</div></div><div class='cr'><div class='vertical-center'><font style='color:orange'>$24<br>for<br>yourself</font></div></div><div class='respDivL'><div class='vertical-center'>(E)</div></div><div class='respDivR'><div class='vertical-center'><font style='color:orange'>(I)</font></div></div></div>","null","$24<br>for<br>yourself","$35<br>for<br>3","1","24","35","3",""
"html-keyboard-response","80","296804","0.0-6.0-1.25","63bd8be8f8c532da7bb5431e","bdp_sd","Sun Mar 26 2023 03:50:41 GMT-0400 (Eastern Daylight Time)","303828","","null","","","","","FIX","","<div class='trialBorder'><div class='vertical-center'><img style='vertical-align:center; align:center' src=img/fixation3.jpg></div></div>","null","","","","","","",""
"html-keyboard-response","81","300378","0.0-6.0-2.25","63bd8be8f8c532da7bb5431e","bdp_sd","Sun Mar 26 2023 03:50:41 GMT-0400 (Eastern Daylight Time)","303828","","3573","","","","","offer","","<div class='trialBorder'><div class='vertical-center'><img style='vertical-align:center; align:center' src=img/fixation3.jpg></div><div class='cl'><div class='vertical-center'>$85<br>for<br>Christina M</div></div><div class='cr'><div class='vertical-center'>$80<br>for<br>yourself</div></div><div class='respDivL'><div class='vertical-center'>(E)</div></div><div class='respDivR'><div class='vertical-center'>(I)</div></div></div>","I","$80<br>for<br>yourself","$85<br>for<br>5","1","80","85","5","SELF"
"html-keyboard-response","82","300630","0.0-6.0-3.25","63bd8be8f8c532da7bb5431e","bdp_sd","Sun Mar 26 2023 03:50:41 GMT-0400 (Eastern Daylight Time)","303828","","null","","","","","offerFB","","<div class='trialBorder'><div class='vertical-center'><img style='vertical-align:center; align:center' src=img/fixation3.jpg></div><div class='cl'><div class='vertical-center'>$85<br>for<br>Christina M</div></div><div class='cr'><div class='vertical-center'><font style='color:orange'>$80<br>for<br>yourself</font></div></div><div class='respDivL'><div class='vertical-center'>(E)</div></div><div class='respDivR'><div class='vertical-center'><font style='color:orange'>(I)</font></div></div></div>","null","$80<br>for<br>yourself","$85<br>for<br>5","1","80","85","5",""
"html-keyboard-response","83","301132","0.0-6.0-1.26","63bd8be8f8c532da7bb5431e","bdp_sd","Sun Mar 26 2023 03:50:41 GMT-0400 (Eastern Daylight Time)","303828","","null","","","","","FIX","","<div class='trialBorder'><div class='vertical-center'><img style='vertical-align:center; align:center' src=img/fixation3.jpg></div></div>","null","","","","","","",""
"html-keyboard-response","84","302575","0.0-6.0-2.26","63bd8be8f8c532da7bb5431e","bdp_sd","Sun Mar 26 2023 03:50:41 GMT-0400 (Eastern Daylight Time)","303828","","1441","","","","","offer","","<div class='trialBorder'><div class='vertical-center'><img style='vertical-align:center; align:center' src=img/fixation3.jpg></div><div class='cl'><div class='vertical-center'>$78<br>for<br>yourself</div></div><div class='cr'><div class='vertical-center'>$80<br>for<br>Christina M</div></div><div class='respDivL'><div class='vertical-center'>(E)</div></div><div class='respDivR'><div class='vertical-center'>(I)</div></div></div>","E","$78<br>for<br>yourself","$80<br>for<br>5","0","78","80","5","SELF"
"html-keyboard-response","85","302826","0.0-6.0-3.26","63bd8be8f8c532da7bb5431e","bdp_sd","Sun Mar 26 2023 03:50:41 GMT-0400 (Eastern Daylight Time)","303828","","null","","","","","offerFB","","<div class='trialBorder'><div class='vertical-center'><img style='vertical-align:center; align:center' src=img/fixation3.jpg></div><div class='cl'><div class='vertical-center'><font style='color:orange'>$78<br>for<br>yourself</font></div></div><div class='cr'><div class='vertical-center'>$80<br>for<br>Christina M</div></div><div class='respDivL'><div class='vertical-center'><font style='color:orange'>(E)</font></div></div><div class='respDivR'><div class='vertical-center'>(I)</div></div></div>","null","$78<br>for<br>yourself","$80<br>for<br>5","0","78","80","5",""
"","","","","63bd8be8f8c532da7bb5431e","bdp_sd","Sun Mar 26 2023 03:50:41 GMT-0400 (Eastern Daylight Time)","303828","","","","fullscreenexit","86","302839","fullscreenexit","","","","","","","","","",""
"fullscreen","86","303827","0.0-7.0","63bd8be8f8c532da7bb5431e","bdp_sd","Sun Mar 26 2023 03:50:41 GMT-0400 (Eastern Daylight Time)","303828","","","","","","","","true","","","","","","","","",""
"html-keyboard-response","87","304329","0.0-8.0","","","","","","null","","","","","","","","null","","","","","","",""
