"trial_type","trial_index","time_elapsed","internal_node_id","subject_id","task","startTime","totalTime","view_history","rt","responses","event","trial","time","trialtype","success","stimulus","key_press","selfOffer","otherOffer","otherLeft","selfAmt","otherAmt","otherDist","chosen"
"pavlovia","0","4","0.0-0.0","63ed4bdcb1977e991fe4f095","bdp_sd","Sat Mar 25 2023 21:30:52 GMT-0500 (Central Daylight Time)","130178","","","","","","","","","","","","","","","","",""
"instructions","1","1135","0.0-1.0","63ed4bdcb1977e991fe4f095","bdp_sd","Sat Mar 25 2023 21:30:52 GMT-0500 (Central Daylight Time)","130178","[{""page_index"":0,""viewing_time"":1131}]","1131","","","","","","","","","","","","","","",""
"survey-text","2","69244","0.0-2.0","63ed4bdcb1977e991fe4f095","bdp_sd","Sat Mar 25 2023 21:30:52 GMT-0500 (Central Daylight Time)","130178","","68108","{""Q0"":""Saxon O"",""Q1"":""Kaleb D"",""Q2"":""Tyler B"",""Q3"":""Marissa C"",""Q4"":""John C""}","","","","","","","","","","","","","",""
"","","","","63ed4bdcb1977e991fe4f095","bdp_sd","Sat Mar 25 2023 21:30:52 GMT-0500 (Central Daylight Time)","130178","","","","fullscreenenter","3","70806","fullscreenenter","","","","","","","","","",""
"fullscreen","3","71791","0.0-3.0","63ed4bdcb1977e991fe4f095","bdp_sd","Sat Mar 25 2023 21:30:52 GMT-0500 (Central Daylight Time)","130178","","","","","","","","true","","","","","","","","",""
"instructions","4","80761","0.0-5.0","63ed4bdcb1977e991fe4f095","bdp_sd","Sat Mar 25 2023 21:30:52 GMT-0500 (Central Daylight Time)","130178","[{""page_index"":0,""viewing_time"":3349},{""page_index"":1,""viewing_time"":3226},{""page_index"":2,""viewing_time"":2392}]","8967","","","","","","","","","","","","","","",""
"html-keyboard-response","5","81264","0.0-6.0-1.0","63ed4bdcb1977e991fe4f095","bdp_sd","Sat Mar 25 2023 21:30:52 GMT-0500 (Central Daylight Time)","130178","","null","","","","","FIX","","<div class='trialBorder'><div class='vertical-center'><img style='vertical-align:center; align:center' src=img/fixation3.jpg></div></div>","null","","","","","","",""
"html-keyboard-response","6","84397","0.0-6.0-2.0","63ed4bdcb1977e991fe4f095","bdp_sd","Sat Mar 25 2023 21:30:52 GMT-0500 (Central Daylight Time)","130178","","3131","","","","","offer","","<div class='trialBorder'><div class='vertical-center'><img style='vertical-align:center; align:center' src=img/fixation3.jpg></div><div class='cl'><div class='vertical-center'>$25<br>for<br>yourself</div></div><div class='cr'><div class='vertical-center'>$30<br>for<br>Marissa C</div></div><div class='respDivL'><div class='vertical-center'>(E)</div></div><div class='respDivR'><div class='vertical-center'>(I)</div></div></div>","I","$25<br>for<br>yourself","$30<br>for<br>4","0","25","30","4","OTHER"
"html-keyboard-response","7","84650","0.0-6.0-3.0","63ed4bdcb1977e991fe4f095","bdp_sd","Sat Mar 25 2023 21:30:52 GMT-0500 (Central Daylight Time)","130178","","null","","","","","offerFB","","<div class='trialBorder'><div class='vertical-center'><img style='vertical-align:center; align:center' src=img/fixation3.jpg></div><div class='cl'><div class='vertical-center'>$25<br>for<br>yourself</div></div><div class='cr'><div class='vertical-center'><font style='color:orange'>$30<br>for<br>Marissa C</font></div></div><div class='respDivL'><div class='vertical-center'>(E)</div></div><div class='respDivR'><div class='vertical-center'><font style='color:orange'>(I)</font></div></div></div>","null","$25<br>for<br>yourself","$30<br>for<br>4","0","25","30","4",""
"html-keyboard-response","8","85152","0.0-6.0-1.1","63ed4bdcb1977e991fe4f095","bdp_sd","Sat Mar 25 2023 21:30:52 GMT-0500 (Central Daylight Time)","130178","","null","","","","","FIX","","<div class='trialBorder'><div class='vertical-center'><img style='vertical-align:center; align:center' src=img/fixation3.jpg></div></div>","null","","","","","","",""
"html-keyboard-response","9","86483","0.0-6.0-2.1","63ed4bdcb1977e991fe4f095","bdp_sd","Sat Mar 25 2023 21:30:52 GMT-0500 (Central Daylight Time)","130178","","1330","","","","","offer","","<div class='trialBorder'><div class='vertical-center'><img style='vertical-align:center; align:center' src=img/fixation3.jpg></div><div class='cl'><div class='vertical-center'>$40<br>for<br>yourself</div></div><div class='cr'><div class='vertical-center'>$55<br>for<br>Marissa C</div></div><div class='respDivL'><div class='vertical-center'>(E)</div></div><div class='respDivR'><div class='vertical-center'>(I)</div></div></div>","I","$40<br>for<br>yourself","$55<br>for<br>4","0","40","55","4","OTHER"
"html-keyboard-response","10","86736","0.0-6.0-3.1","63ed4bdcb1977e991fe4f095","bdp_sd","Sat Mar 25 2023 21:30:52 GMT-0500 (Central Daylight Time)","130178","","null","","","","","offerFB","","<div class='trialBorder'><div class='vertical-center'><img style='vertical-align:center; align:center' src=img/fixation3.jpg></div><div class='cl'><div class='vertical-center'>$40<br>for<br>yourself</div></div><div class='cr'><div class='vertical-center'><font style='color:orange'>$55<br>for<br>Marissa C</font></div></div><div class='respDivL'><div class='vertical-center'>(E)</div></div><div class='respDivR'><div class='vertical-center'><font style='color:orange'>(I)</font></div></div></div>","null","$40<br>for<br>yourself","$55<br>for<br>4","0","40","55","4",""
"html-keyboard-response","11","87237","0.0-6.0-1.2","63ed4bdcb1977e991fe4f095","bdp_sd","Sat Mar 25 2023 21:30:52 GMT-0500 (Central Daylight Time)","130178","","null","","","","","FIX","","<div class='trialBorder'><div class='vertical-center'><img style='vertical-align:center; align:center' src=img/fixation3.jpg></div></div>","null","","","","","","",""
"html-keyboard-response","12","88076","0.0-6.0-2.2","63ed4bdcb1977e991fe4f095","bdp_sd","Sat Mar 25 2023 21:30:52 GMT-0500 (Central Daylight Time)","130178","","838","","","","","offer","","<div class='trialBorder'><div class='vertical-center'><img style='vertical-align:center; align:center' src=img/fixation3.jpg></div><div class='cl'><div class='vertical-center'>$33<br>for<br>yourself</div></div><div class='cr'><div class='vertical-center'>$80<br>for<br>Kaleb D</div></div><div class='respDivL'><div class='vertical-center'>(E)</div></div><div class='respDivR'><div class='vertical-center'>(I)</div></div></div>","I","$33<br>for<br>yourself","$80<br>for<br>2","0","33","80","2","OTHER"
"html-keyboard-response","13","88328","0.0-6.0-3.2","63ed4bdcb1977e991fe4f095","bdp_sd","Sat Mar 25 2023 21:30:52 GMT-0500 (Central Daylight Time)","130178","","null","","","","","offerFB","","<div class='trialBorder'><div class='vertical-center'><img style='vertical-align:center; align:center' src=img/fixation3.jpg></div><div class='cl'><div class='vertical-center'>$33<br>for<br>yourself</div></div><div class='cr'><div class='vertical-center'><font style='color:orange'>$80<br>for<br>Kaleb D</font></div></div><div class='respDivL'><div class='vertical-center'>(E)</div></div><div class='respDivR'><div class='vertical-center'><font style='color:orange'>(I)</font></div></div></div>","null","$33<br>for<br>yourself","$80<br>for<br>2","0","33","80","2",""
"html-keyboard-response","14","88830","0.0-6.0-1.3","63ed4bdcb1977e991fe4f095","bdp_sd","Sat Mar 25 2023 21:30:52 GMT-0500 (Central Daylight Time)","130178","","null","","","","","FIX","","<div class='trialBorder'><div class='vertical-center'><img style='vertical-align:center; align:center' src=img/fixation3.jpg></div></div>","null","","","","","","",""
"html-keyboard-response","15","89594","0.0-6.0-2.3","63ed4bdcb1977e991fe4f095","bdp_sd","Sat Mar 25 2023 21:30:52 GMT-0500 (Central Daylight Time)","130178","","763","","","","","offer","","<div class='trialBorder'><div class='vertical-center'><img style='vertical-align:center; align:center' src=img/fixation3.jpg></div><div class='cl'><div class='vertical-center'>$55<br>for<br>yourself</div></div><div class='cr'><div class='vertical-center'>$75<br>for<br>Marissa C</div></div><div class='respDivL'><div class='vertical-center'>(E)</div></div><div class='respDivR'><div class='vertical-center'>(I)</div></div></div>","I","$55<br>for<br>yourself","$75<br>for<br>4","0","55","75","4","OTHER"
"html-keyboard-response","16","89847","0.0-6.0-3.3","63ed4bdcb1977e991fe4f095","bdp_sd","Sat Mar 25 2023 21:30:52 GMT-0500 (Central Daylight Time)","130178","","null","","","","","offerFB","","<div class='trialBorder'><div class='vertical-center'><img style='vertical-align:center; align:center' src=img/fixation3.jpg></div><div class='cl'><div class='vertical-center'>$55<br>for<br>yourself</div></div><div class='cr'><div class='vertical-center'><font style='color:orange'>$75<br>for<br>Marissa C</font></div></div><div class='respDivL'><div class='vertical-center'>(E)</div></div><div class='respDivR'><div class='vertical-center'><font style='color:orange'>(I)</font></div></div></div>","null","$55<br>for<br>yourself","$75<br>for<br>4","0","55","75","4",""
"html-keyboard-response","17","90350","0.0-6.0-1.4","63ed4bdcb1977e991fe4f095","bdp_sd","Sat Mar 25 2023 21:30:52 GMT-0500 (Central Daylight Time)","130178","","null","","","","","FIX","","<div class='trialBorder'><div class='vertical-center'><img style='vertical-align:center; align:center' src=img/fixation3.jpg></div></div>","null","","","","","","",""
"html-keyboard-response","18","91000","0.0-6.0-2.4","63ed4bdcb1977e991fe4f095","bdp_sd","Sat Mar 25 2023 21:30:52 GMT-0500 (Central Daylight Time)","130178","","650","","","","","offer","","<div class='trialBorder'><div class='vertical-center'><img style='vertical-align:center; align:center' src=img/fixation3.jpg></div><div class='cl'><div class='vertical-center'>$49<br>for<br>yourself</div></div><div class='cr'><div class='vertical-center'>$60<br>for<br>Marissa C</div></div><div class='respDivL'><div class='vertical-center'>(E)</div></div><div class='respDivR'><div class='vertical-center'>(I)</div></div></div>","I","$49<br>for<br>yourself","$60<br>for<br>4","0","49","60","4","OTHER"
"html-keyboard-response","19","91253","0.0-6.0-3.4","63ed4bdcb1977e991fe4f095","bdp_sd","Sat Mar 25 2023 21:30:52 GMT-0500 (Central Daylight Time)","130178","","null","","","","","offerFB","","<div class='trialBorder'><div class='vertical-center'><img style='vertical-align:center; align:center' src=img/fixation3.jpg></div><div class='cl'><div class='vertical-center'>$49<br>for<br>yourself</div></div><div class='cr'><div class='vertical-center'><font style='color:orange'>$60<br>for<br>Marissa C</font></div></div><div class='respDivL'><div class='vertical-center'>(E)</div></div><div class='respDivR'><div class='vertical-center'><font style='color:orange'>(I)</font></div></div></div>","null","$49<br>for<br>yourself","$60<br>for<br>4","0","49","60","4",""
"html-keyboard-response","20","91753","0.0-6.0-1.5","63ed4bdcb1977e991fe4f095","bdp_sd","Sat Mar 25 2023 21:30:52 GMT-0500 (Central Daylight Time)","130178","","null","","","","","FIX","","<div class='trialBorder'><div class='vertical-center'><img style='vertical-align:center; align:center' src=img/fixation3.jpg></div></div>","null","","","","","","",""
"html-keyboard-response","21","92994","0.0-6.0-2.5","63ed4bdcb1977e991fe4f095","bdp_sd","Sat Mar 25 2023 21:30:52 GMT-0500 (Central Daylight Time)","130178","","1240","","","","","offer","","<div class='trialBorder'><div class='vertical-center'><img style='vertical-align:center; align:center' src=img/fixation3.jpg></div><div class='cl'><div class='vertical-center'>$50<br>for<br>John C</div></div><div class='cr'><div class='vertical-center'>$47<br>for<br>yourself</div></div><div class='respDivL'><div class='vertical-center'>(E)</div></div><div class='respDivR'><div class='vertical-center'>(I)</div></div></div>","I","$47<br>for<br>yourself","$50<br>for<br>5","1","47","50","5","SELF"
"html-keyboard-response","22","93247","0.0-6.0-3.5","63ed4bdcb1977e991fe4f095","bdp_sd","Sat Mar 25 2023 21:30:52 GMT-0500 (Central Daylight Time)","130178","","null","","","","","offerFB","","<div class='trialBorder'><div class='vertical-center'><img style='vertical-align:center; align:center' src=img/fixation3.jpg></div><div class='cl'><div class='vertical-center'>$50<br>for<br>John C</div></div><div class='cr'><div class='vertical-center'><font style='color:orange'>$47<br>for<br>yourself</font></div></div><div class='respDivL'><div class='vertical-center'>(E)</div></div><div class='respDivR'><div class='vertical-center'><font style='color:orange'>(I)</font></div></div></div>","null","$47<br>for<br>yourself","$50<br>for<br>5","1","47","50","5",""
"html-keyboard-response","23","93747","0.0-6.0-1.6","63ed4bdcb1977e991fe4f095","bdp_sd","Sat Mar 25 2023 21:30:52 GMT-0500 (Central Daylight Time)","130178","","null","","","","","FIX","","<div class='trialBorder'><div class='vertical-center'><img style='vertical-align:center; align:center' src=img/fixation3.jpg></div></div>","null","","","","","","",""
"html-keyboard-response","24","94755","0.0-6.0-2.6","63ed4bdcb1977e991fe4f095","bdp_sd","Sat Mar 25 2023 21:30:52 GMT-0500 (Central Daylight Time)","130178","","1007","","","","","offer","","<div class='trialBorder'><div class='vertical-center'><img style='vertical-align:center; align:center' src=img/fixation3.jpg></div><div class='cl'><div class='vertical-center'>$67<br>for<br>yourself</div></div><div class='cr'><div class='vertical-center'>$75<br>for<br>John C</div></div><div class='respDivL'><div class='vertical-center'>(E)</div></div><div class='respDivR'><div class='vertical-center'>(I)</div></div></div>","E","$67<br>for<br>yourself","$75<br>for<br>5","0","67","75","5","SELF"
"html-keyboard-response","25","95007","0.0-6.0-3.6","63ed4bdcb1977e991fe4f095","bdp_sd","Sat Mar 25 2023 21:30:52 GMT-0500 (Central Daylight Time)","130178","","null","","","","","offerFB","","<div class='trialBorder'><div class='vertical-center'><img style='vertical-align:center; align:center' src=img/fixation3.jpg></div><div class='cl'><div class='vertical-center'><font style='color:orange'>$67<br>for<br>yourself</font></div></div><div class='cr'><div class='vertical-center'>$75<br>for<br>John C</div></div><div class='respDivL'><div class='vertical-center'><font style='color:orange'>(E)</font></div></div><div class='respDivR'><div class='vertical-center'>(I)</div></div></div>","null","$67<br>for<br>yourself","$75<br>for<br>5","0","67","75","5",""
"html-keyboard-response","26","95509","0.0-6.0-1.7","63ed4bdcb1977e991fe4f095","bdp_sd","Sat Mar 25 2023 21:30:52 GMT-0500 (Central Daylight Time)","130178","","null","","","","","FIX","","<div class='trialBorder'><div class='vertical-center'><img style='vertical-align:center; align:center' src=img/fixation3.jpg></div></div>","null","","","","","","",""
"html-keyboard-response","27","96364","0.0-6.0-2.7","63ed4bdcb1977e991fe4f095","bdp_sd","Sat Mar 25 2023 21:30:52 GMT-0500 (Central Daylight Time)","130178","","855","","","","","offer","","<div class='trialBorder'><div class='vertical-center'><img style='vertical-align:center; align:center' src=img/fixation3.jpg></div><div class='cl'><div class='vertical-center'>$60<br>for<br>Tyler B</div></div><div class='cr'><div class='vertical-center'>$25<br>for<br>yourself</div></div><div class='respDivL'><div class='vertical-center'>(E)</div></div><div class='respDivR'><div class='vertical-center'>(I)</div></div></div>","I","$25<br>for<br>yourself","$60<br>for<br>3","1","25","60","3","SELF"
"html-keyboard-response","28","96615","0.0-6.0-3.7","63ed4bdcb1977e991fe4f095","bdp_sd","Sat Mar 25 2023 21:30:52 GMT-0500 (Central Daylight Time)","130178","","null","","","","","offerFB","","<div class='trialBorder'><div class='vertical-center'><img style='vertical-align:center; align:center' src=img/fixation3.jpg></div><div class='cl'><div class='vertical-center'>$60<br>for<br>Tyler B</div></div><div class='cr'><div class='vertical-center'><font style='color:orange'>$25<br>for<br>yourself</font></div></div><div class='respDivL'><div class='vertical-center'>(E)</div></div><div class='respDivR'><div class='vertical-center'><font style='color:orange'>(I)</font></div></div></div>","null","$25<br>for<br>yourself","$60<br>for<br>3","1","25","60","3",""
"html-keyboard-response","29","97116","0.0-6.0-1.8","63ed4bdcb1977e991fe4f095","bdp_sd","Sat Mar 25 2023 21:30:52 GMT-0500 (Central Daylight Time)","130178","","null","","","","","FIX","","<div class='trialBorder'><div class='vertical-center'><img style='vertical-align:center; align:center' src=img/fixation3.jpg></div></div>","null","","","","","","",""
"html-keyboard-response","30","98028","0.0-6.0-2.8","63ed4bdcb1977e991fe4f095","bdp_sd","Sat Mar 25 2023 21:30:52 GMT-0500 (Central Daylight Time)","130178","","911","","","","","offer","","<div class='trialBorder'><div class='vertical-center'><img style='vertical-align:center; align:center' src=img/fixation3.jpg></div><div class='cl'><div class='vertical-center'>$22<br>for<br>yourself</div></div><div class='cr'><div class='vertical-center'>$25<br>for<br>John C</div></div><div class='respDivL'><div class='vertical-center'>(E)</div></div><div class='respDivR'><div class='vertical-center'>(I)</div></div></div>","E","$22<br>for<br>yourself","$25<br>for<br>5","0","22","25","5","SELF"
"html-keyboard-response","31","98280","0.0-6.0-3.8","63ed4bdcb1977e991fe4f095","bdp_sd","Sat Mar 25 2023 21:30:52 GMT-0500 (Central Daylight Time)","130178","","null","","","","","offerFB","","<div class='trialBorder'><div class='vertical-center'><img style='vertical-align:center; align:center' src=img/fixation3.jpg></div><div class='cl'><div class='vertical-center'><font style='color:orange'>$22<br>for<br>yourself</font></div></div><div class='cr'><div class='vertical-center'>$25<br>for<br>John C</div></div><div class='respDivL'><div class='vertical-center'><font style='color:orange'>(E)</font></div></div><div class='respDivR'><div class='vertical-center'>(I)</div></div></div>","null","$22<br>for<br>yourself","$25<br>for<br>5","0","22","25","5",""
"html-keyboard-response","32","98781","0.0-6.0-1.9","63ed4bdcb1977e991fe4f095","bdp_sd","Sat Mar 25 2023 21:30:52 GMT-0500 (Central Daylight Time)","130178","","null","","","","","FIX","","<div class='trialBorder'><div class='vertical-center'><img style='vertical-align:center; align:center' src=img/fixation3.jpg></div></div>","null","","","","","","",""
"html-keyboard-response","33","99683","0.0-6.0-2.9","63ed4bdcb1977e991fe4f095","bdp_sd","Sat Mar 25 2023 21:30:52 GMT-0500 (Central Daylight Time)","130178","","901","","","","","offer","","<div class='trialBorder'><div class='vertical-center'><img style='vertical-align:center; align:center' src=img/fixation3.jpg></div><div class='cl'><div class='vertical-center'>$80<br>for<br>John C</div></div><div class='cr'><div class='vertical-center'>$78<br>for<br>yourself</div></div><div class='respDivL'><div class='vertical-center'>(E)</div></div><div class='respDivR'><div class='vertical-center'>(I)</div></div></div>","I","$78<br>for<br>yourself","$80<br>for<br>5","1","78","80","5","SELF"
"html-keyboard-response","34","99934","0.0-6.0-3.9","63ed4bdcb1977e991fe4f095","bdp_sd","Sat Mar 25 2023 21:30:52 GMT-0500 (Central Daylight Time)","130178","","null","","","","","offerFB","","<div class='trialBorder'><div class='vertical-center'><img style='vertical-align:center; align:center' src=img/fixation3.jpg></div><div class='cl'><div class='vertical-center'>$80<br>for<br>John C</div></div><div class='cr'><div class='vertical-center'><font style='color:orange'>$78<br>for<br>yourself</font></div></div><div class='respDivL'><div class='vertical-center'>(E)</div></div><div class='respDivR'><div class='vertical-center'><font style='color:orange'>(I)</font></div></div></div>","null","$78<br>for<br>yourself","$80<br>for<br>5","1","78","80","5",""
"html-keyboard-response","35","100436","0.0-6.0-1.10","63ed4bdcb1977e991fe4f095","bdp_sd","Sat Mar 25 2023 21:30:52 GMT-0500 (Central Daylight Time)","130178","","null","","","","","FIX","","<div class='trialBorder'><div class='vertical-center'><img style='vertical-align:center; align:center' src=img/fixation3.jpg></div></div>","null","","","","","","",""
"html-keyboard-response","36","101405","0.0-6.0-2.10","63ed4bdcb1977e991fe4f095","bdp_sd","Sat Mar 25 2023 21:30:52 GMT-0500 (Central Daylight Time)","130178","","969","","","","","offer","","<div class='trialBorder'><div class='vertical-center'><img style='vertical-align:center; align:center' src=img/fixation3.jpg></div><div class='cl'><div class='vertical-center'>$25<br>for<br>Tyler B</div></div><div class='cr'><div class='vertical-center'>$14<br>for<br>yourself</div></div><div class='respDivL'><div class='vertical-center'>(E)</div></div><div class='respDivR'><div class='vertical-center'>(I)</div></div></div>","E","$14<br>for<br>yourself","$25<br>for<br>3","1","14","25","3","OTHER"
"html-keyboard-response","37","101657","0.0-6.0-3.10","63ed4bdcb1977e991fe4f095","bdp_sd","Sat Mar 25 2023 21:30:52 GMT-0500 (Central Daylight Time)","130178","","null","","","","","offerFB","","<div class='trialBorder'><div class='vertical-center'><img style='vertical-align:center; align:center' src=img/fixation3.jpg></div><div class='cl'><div class='vertical-center'><font style='color:orange'>$25<br>for<br>Tyler B</font></div></div><div class='cr'><div class='vertical-center'>$14<br>for<br>yourself</div></div><div class='respDivL'><div class='vertical-center'><font style='color:orange'>(E)</font></div></div><div class='respDivR'><div class='vertical-center'>(I)</div></div></div>","null","$14<br>for<br>yourself","$25<br>for<br>3","1","14","25","3",""
"html-keyboard-response","38","102159","0.0-6.0-1.11","63ed4bdcb1977e991fe4f095","bdp_sd","Sat Mar 25 2023 21:30:52 GMT-0500 (Central Daylight Time)","130178","","null","","","","","FIX","","<div class='trialBorder'><div class='vertical-center'><img style='vertical-align:center; align:center' src=img/fixation3.jpg></div></div>","null","","","","","","",""
"html-keyboard-response","39","102987","0.0-6.0-2.11","63ed4bdcb1977e991fe4f095","bdp_sd","Sat Mar 25 2023 21:30:52 GMT-0500 (Central Daylight Time)","130178","","827","","","","","offer","","<div class='trialBorder'><div class='vertical-center'><img style='vertical-align:center; align:center' src=img/fixation3.jpg></div><div class='cl'><div class='vertical-center'>$20<br>for<br>yourself</div></div><div class='cr'><div class='vertical-center'>$55<br>for<br>Saxon O</div></div><div class='respDivL'><div class='vertical-center'>(E)</div></div><div class='respDivR'><div class='vertical-center'>(I)</div></div></div>","I","$20<br>for<br>yourself","$55<br>for<br>1","0","20","55","1","OTHER"
"html-keyboard-response","40","103240","0.0-6.0-3.11","63ed4bdcb1977e991fe4f095","bdp_sd","Sat Mar 25 2023 21:30:52 GMT-0500 (Central Daylight Time)","130178","","null","","","","","offerFB","","<div class='trialBorder'><div class='vertical-center'><img style='vertical-align:center; align:center' src=img/fixation3.jpg></div><div class='cl'><div class='vertical-center'>$20<br>for<br>yourself</div></div><div class='cr'><div class='vertical-center'><font style='color:orange'>$55<br>for<br>Saxon O</font></div></div><div class='respDivL'><div class='vertical-center'>(E)</div></div><div class='respDivR'><div class='vertical-center'><font style='color:orange'>(I)</font></div></div></div>","null","$20<br>for<br>yourself","$55<br>for<br>1","0","20","55","1",""
"html-keyboard-response","41","103741","0.0-6.0-1.12","63ed4bdcb1977e991fe4f095","bdp_sd","Sat Mar 25 2023 21:30:52 GMT-0500 (Central Daylight Time)","130178","","null","","","","","FIX","","<div class='trialBorder'><div class='vertical-center'><img style='vertical-align:center; align:center' src=img/fixation3.jpg></div></div>","null","","","","","","",""
"html-keyboard-response","42","104670","0.0-6.0-2.12","63ed4bdcb1977e991fe4f095","bdp_sd","Sat Mar 25 2023 21:30:52 GMT-0500 (Central Daylight Time)","130178","","928","","","","","offer","","<div class='trialBorder'><div class='vertical-center'><img style='vertical-align:center; align:center' src=img/fixation3.jpg></div><div class='cl'><div class='vertical-center'>$75<br>for<br>Tyler B</div></div><div class='cr'><div class='vertical-center'>$41<br>for<br>yourself</div></div><div class='respDivL'><div class='vertical-center'>(E)</div></div><div class='respDivR'><div class='vertical-center'>(I)</div></div></div>","I","$41<br>for<br>yourself","$75<br>for<br>3","1","41","75","3","SELF"
"html-keyboard-response","43","104921","0.0-6.0-3.12","63ed4bdcb1977e991fe4f095","bdp_sd","Sat Mar 25 2023 21:30:52 GMT-0500 (Central Daylight Time)","130178","","null","","","","","offerFB","","<div class='trialBorder'><div class='vertical-center'><img style='vertical-align:center; align:center' src=img/fixation3.jpg></div><div class='cl'><div class='vertical-center'>$75<br>for<br>Tyler B</div></div><div class='cr'><div class='vertical-center'><font style='color:orange'>$41<br>for<br>yourself</font></div></div><div class='respDivL'><div class='vertical-center'>(E)</div></div><div class='respDivR'><div class='vertical-center'><font style='color:orange'>(I)</font></div></div></div>","null","$41<br>for<br>yourself","$75<br>for<br>3","1","41","75","3",""
"html-keyboard-response","44","105423","0.0-6.0-1.13","63ed4bdcb1977e991fe4f095","bdp_sd","Sat Mar 25 2023 21:30:52 GMT-0500 (Central Daylight Time)","130178","","null","","","","","FIX","","<div class='trialBorder'><div class='vertical-center'><img style='vertical-align:center; align:center' src=img/fixation3.jpg></div></div>","null","","","","","","",""
"html-keyboard-response","45","106841","0.0-6.0-2.13","63ed4bdcb1977e991fe4f095","bdp_sd","Sat Mar 25 2023 21:30:52 GMT-0500 (Central Daylight Time)","130178","","1418","","","","","offer","","<div class='trialBorder'><div class='vertical-center'><img style='vertical-align:center; align:center' src=img/fixation3.jpg></div><div class='cl'><div class='vertical-center'>$31<br>for<br>yourself</div></div><div class='cr'><div class='vertical-center'>$85<br>for<br>Saxon O</div></div><div class='respDivL'><div class='vertical-center'>(E)</div></div><div class='respDivR'><div class='vertical-center'>(I)</div></div></div>","E","$31<br>for<br>yourself","$85<br>for<br>1","0","31","85","1","SELF"
"html-keyboard-response","46","107092","0.0-6.0-3.13","63ed4bdcb1977e991fe4f095","bdp_sd","Sat Mar 25 2023 21:30:52 GMT-0500 (Central Daylight Time)","130178","","null","","","","","offerFB","","<div class='trialBorder'><div class='vertical-center'><img style='vertical-align:center; align:center' src=img/fixation3.jpg></div><div class='cl'><div class='vertical-center'><font style='color:orange'>$31<br>for<br>yourself</font></div></div><div class='cr'><div class='vertical-center'>$85<br>for<br>Saxon O</div></div><div class='respDivL'><div class='vertical-center'><font style='color:orange'>(E)</font></div></div><div class='respDivR'><div class='vertical-center'>(I)</div></div></div>","null","$31<br>for<br>yourself","$85<br>for<br>1","0","31","85","1",""
"html-keyboard-response","47","107593","0.0-6.0-1.14","63ed4bdcb1977e991fe4f095","bdp_sd","Sat Mar 25 2023 21:30:52 GMT-0500 (Central Daylight Time)","130178","","null","","","","","FIX","","<div class='trialBorder'><div class='vertical-center'><img style='vertical-align:center; align:center' src=img/fixation3.jpg></div></div>","null","","","","","","",""
"html-keyboard-response","48","108454","0.0-6.0-2.14","63ed4bdcb1977e991fe4f095","bdp_sd","Sat Mar 25 2023 21:30:52 GMT-0500 (Central Daylight Time)","130178","","859","","","","","offer","","<div class='trialBorder'><div class='vertical-center'><img style='vertical-align:center; align:center' src=img/fixation3.jpg></div><div class='cl'><div class='vertical-center'>$34<br>for<br>yourself</div></div><div class='cr'><div class='vertical-center'>$35<br>for<br>John C</div></div><div class='respDivL'><div class='vertical-center'>(E)</div></div><div class='respDivR'><div class='vertical-center'>(I)</div></div></div>","E","$34<br>for<br>yourself","$35<br>for<br>5","0","34","35","5","SELF"
"html-keyboard-response","49","108705","0.0-6.0-3.14","63ed4bdcb1977e991fe4f095","bdp_sd","Sat Mar 25 2023 21:30:52 GMT-0500 (Central Daylight Time)","130178","","null","","","","","offerFB","","<div class='trialBorder'><div class='vertical-center'><img style='vertical-align:center; align:center' src=img/fixation3.jpg></div><div class='cl'><div class='vertical-center'><font style='color:orange'>$34<br>for<br>yourself</font></div></div><div class='cr'><div class='vertical-center'>$35<br>for<br>John C</div></div><div class='respDivL'><div class='vertical-center'><font style='color:orange'>(E)</font></div></div><div class='respDivR'><div class='vertical-center'>(I)</div></div></div>","null","$34<br>for<br>yourself","$35<br>for<br>5","0","34","35","5",""
"html-keyboard-response","50","109206","0.0-6.0-1.15","63ed4bdcb1977e991fe4f095","bdp_sd","Sat Mar 25 2023 21:30:52 GMT-0500 (Central Daylight Time)","130178","","null","","","","","FIX","","<div class='trialBorder'><div class='vertical-center'><img style='vertical-align:center; align:center' src=img/fixation3.jpg></div></div>","null","","","","","","",""
"html-keyboard-response","51","109871","0.0-6.0-2.15","63ed4bdcb1977e991fe4f095","bdp_sd","Sat Mar 25 2023 21:30:52 GMT-0500 (Central Daylight Time)","130178","","664","","","","","offer","","<div class='trialBorder'><div class='vertical-center'><img style='vertical-align:center; align:center' src=img/fixation3.jpg></div><div class='cl'><div class='vertical-center'>$50<br>for<br>Tyler B</div></div><div class='cr'><div class='vertical-center'>$27<br>for<br>yourself</div></div><div class='respDivL'><div class='vertical-center'>(E)</div></div><div class='respDivR'><div class='vertical-center'>(I)</div></div></div>","I","$27<br>for<br>yourself","$50<br>for<br>3","1","27","50","3","SELF"
"html-keyboard-response","52","110123","0.0-6.0-3.15","63ed4bdcb1977e991fe4f095","bdp_sd","Sat Mar 25 2023 21:30:52 GMT-0500 (Central Daylight Time)","130178","","null","","","","","offerFB","","<div class='trialBorder'><div class='vertical-center'><img style='vertical-align:center; align:center' src=img/fixation3.jpg></div><div class='cl'><div class='vertical-center'>$50<br>for<br>Tyler B</div></div><div class='cr'><div class='vertical-center'><font style='color:orange'>$27<br>for<br>yourself</font></div></div><div class='respDivL'><div class='vertical-center'>(E)</div></div><div class='respDivR'><div class='vertical-center'><font style='color:orange'>(I)</font></div></div></div>","null","$27<br>for<br>yourself","$50<br>for<br>3","1","27","50","3",""
"html-keyboard-response","53","110625","0.0-6.0-1.16","63ed4bdcb1977e991fe4f095","bdp_sd","Sat Mar 25 2023 21:30:52 GMT-0500 (Central Daylight Time)","130178","","null","","","","","FIX","","<div class='trialBorder'><div class='vertical-center'><img style='vertical-align:center; align:center' src=img/fixation3.jpg></div></div>","null","","","","","","",""
"html-keyboard-response","54","111918","0.0-6.0-2.16","63ed4bdcb1977e991fe4f095","bdp_sd","Sat Mar 25 2023 21:30:52 GMT-0500 (Central Daylight Time)","130178","","1293","","","","","offer","","<div class='trialBorder'><div class='vertical-center'><img style='vertical-align:center; align:center' src=img/fixation3.jpg></div><div class='cl'><div class='vertical-center'>$85<br>for<br>Marissa C</div></div><div class='cr'><div class='vertical-center'>$69<br>for<br>yourself</div></div><div class='respDivL'><div class='vertical-center'>(E)</div></div><div class='respDivR'><div class='vertical-center'>(I)</div></div></div>","E","$69<br>for<br>yourself","$85<br>for<br>4","1","69","85","4","OTHER"
"html-keyboard-response","55","112170","0.0-6.0-3.16","63ed4bdcb1977e991fe4f095","bdp_sd","Sat Mar 25 2023 21:30:52 GMT-0500 (Central Daylight Time)","130178","","null","","","","","offerFB","","<div class='trialBorder'><div class='vertical-center'><img style='vertical-align:center; align:center' src=img/fixation3.jpg></div><div class='cl'><div class='vertical-center'><font style='color:orange'>$85<br>for<br>Marissa C</font></div></div><div class='cr'><div class='vertical-center'>$69<br>for<br>yourself</div></div><div class='respDivL'><div class='vertical-center'><font style='color:orange'>(E)</font></div></div><div class='respDivR'><div class='vertical-center'>(I)</div></div></div>","null","$69<br>for<br>yourself","$85<br>for<br>4","1","69","85","4",""
"html-keyboard-response","56","112671","0.0-6.0-1.17","63ed4bdcb1977e991fe4f095","bdp_sd","Sat Mar 25 2023 21:30:52 GMT-0500 (Central Daylight Time)","130178","","null","","","","","FIX","","<div class='trialBorder'><div class='vertical-center'><img style='vertical-align:center; align:center' src=img/fixation3.jpg></div></div>","null","","","","","","",""
"html-keyboard-response","57","114040","0.0-6.0-2.17","63ed4bdcb1977e991fe4f095","bdp_sd","Sat Mar 25 2023 21:30:52 GMT-0500 (Central Daylight Time)","130178","","1368","","","","","offer","","<div class='trialBorder'><div class='vertical-center'><img style='vertical-align:center; align:center' src=img/fixation3.jpg></div><div class='cl'><div class='vertical-center'>$25<br>for<br>Marissa C</div></div><div class='cr'><div class='vertical-center'>$19<br>for<br>yourself</div></div><div class='respDivL'><div class='vertical-center'>(E)</div></div><div class='respDivR'><div class='vertical-center'>(I)</div></div></div>","E","$19<br>for<br>yourself","$25<br>for<br>4","1","19","25","4","OTHER"
"html-keyboard-response","58","114292","0.0-6.0-3.17","63ed4bdcb1977e991fe4f095","bdp_sd","Sat Mar 25 2023 21:30:52 GMT-0500 (Central Daylight Time)","130178","","null","","","","","offerFB","","<div class='trialBorder'><div class='vertical-center'><img style='vertical-align:center; align:center' src=img/fixation3.jpg></div><div class='cl'><div class='vertical-center'><font style='color:orange'>$25<br>for<br>Marissa C</font></div></div><div class='cr'><div class='vertical-center'>$19<br>for<br>yourself</div></div><div class='respDivL'><div class='vertical-center'><font style='color:orange'>(E)</font></div></div><div class='respDivR'><div class='vertical-center'>(I)</div></div></div>","null","$19<br>for<br>yourself","$25<br>for<br>4","1","19","25","4",""
"html-keyboard-response","59","114793","0.0-6.0-1.18","63ed4bdcb1977e991fe4f095","bdp_sd","Sat Mar 25 2023 21:30:52 GMT-0500 (Central Daylight Time)","130178","","null","","","","","FIX","","<div class='trialBorder'><div class='vertical-center'><img style='vertical-align:center; align:center' src=img/fixation3.jpg></div></div>","null","","","","","","",""
"html-keyboard-response","60","115697","0.0-6.0-2.18","63ed4bdcb1977e991fe4f095","bdp_sd","Sat Mar 25 2023 21:30:52 GMT-0500 (Central Daylight Time)","130178","","902","","","","","offer","","<div class='trialBorder'><div class='vertical-center'><img style='vertical-align:center; align:center' src=img/fixation3.jpg></div><div class='cl'><div class='vertical-center'>$15<br>for<br>yourself</div></div><div class='cr'><div class='vertical-center'>$35<br>for<br>Kaleb D</div></div><div class='respDivL'><div class='vertical-center'>(E)</div></div><div class='respDivR'><div class='vertical-center'>(I)</div></div></div>","I","$15<br>for<br>yourself","$35<br>for<br>2","0","15","35","2","OTHER"
"html-keyboard-response","61","115948","0.0-6.0-3.18","63ed4bdcb1977e991fe4f095","bdp_sd","Sat Mar 25 2023 21:30:52 GMT-0500 (Central Daylight Time)","130178","","null","","","","","offerFB","","<div class='trialBorder'><div class='vertical-center'><img style='vertical-align:center; align:center' src=img/fixation3.jpg></div><div class='cl'><div class='vertical-center'>$15<br>for<br>yourself</div></div><div class='cr'><div class='vertical-center'><font style='color:orange'>$35<br>for<br>Kaleb D</font></div></div><div class='respDivL'><div class='vertical-center'>(E)</div></div><div class='respDivR'><div class='vertical-center'><font style='color:orange'>(I)</font></div></div></div>","null","$15<br>for<br>yourself","$35<br>for<br>2","0","15","35","2",""
"html-keyboard-response","62","116449","0.0-6.0-1.19","63ed4bdcb1977e991fe4f095","bdp_sd","Sat Mar 25 2023 21:30:52 GMT-0500 (Central Daylight Time)","130178","","null","","","","","FIX","","<div class='trialBorder'><div class='vertical-center'><img style='vertical-align:center; align:center' src=img/fixation3.jpg></div></div>","null","","","","","","",""
"html-keyboard-response","63","117473","0.0-6.0-2.19","63ed4bdcb1977e991fe4f095","bdp_sd","Sat Mar 25 2023 21:30:52 GMT-0500 (Central Daylight Time)","130178","","1023","","","","","offer","","<div class='trialBorder'><div class='vertical-center'><img style='vertical-align:center; align:center' src=img/fixation3.jpg></div><div class='cl'><div class='vertical-center'>$54<br>for<br>yourself</div></div><div class='cr'><div class='vertical-center'>$80<br>for<br>Tyler B</div></div><div class='respDivL'><div class='vertical-center'>(E)</div></div><div class='respDivR'><div class='vertical-center'>(I)</div></div></div>","E","$54<br>for<br>yourself","$80<br>for<br>3","0","54","80","3","SELF"
"html-keyboard-response","64","117725","0.0-6.0-3.19","63ed4bdcb1977e991fe4f095","bdp_sd","Sat Mar 25 2023 21:30:52 GMT-0500 (Central Daylight Time)","130178","","null","","","","","offerFB","","<div class='trialBorder'><div class='vertical-center'><img style='vertical-align:center; align:center' src=img/fixation3.jpg></div><div class='cl'><div class='vertical-center'><font style='color:orange'>$54<br>for<br>yourself</font></div></div><div class='cr'><div class='vertical-center'>$80<br>for<br>Tyler B</div></div><div class='respDivL'><div class='vertical-center'><font style='color:orange'>(E)</font></div></div><div class='respDivR'><div class='vertical-center'>(I)</div></div></div>","null","$54<br>for<br>yourself","$80<br>for<br>3","0","54","80","3",""
"html-keyboard-response","65","118226","0.0-6.0-1.20","63ed4bdcb1977e991fe4f095","bdp_sd","Sat Mar 25 2023 21:30:52 GMT-0500 (Central Daylight Time)","130178","","null","","","","","FIX","","<div class='trialBorder'><div class='vertical-center'><img style='vertical-align:center; align:center' src=img/fixation3.jpg></div></div>","null","","","","","","",""
"html-keyboard-response","66","119438","0.0-6.0-2.20","63ed4bdcb1977e991fe4f095","bdp_sd","Sat Mar 25 2023 21:30:52 GMT-0500 (Central Daylight Time)","130178","","1211","","","","","offer","","<div class='trialBorder'><div class='vertical-center'><img style='vertical-align:center; align:center' src=img/fixation3.jpg></div><div class='cl'><div class='vertical-center'>$35<br>for<br>Tyler B</div></div><div class='cr'><div class='vertical-center'>$24<br>for<br>yourself</div></div><div class='respDivL'><div class='vertical-center'>(E)</div></div><div class='respDivR'><div class='vertical-center'>(I)</div></div></div>","I","$24<br>for<br>yourself","$35<br>for<br>3","1","24","35","3","SELF"
"html-keyboard-response","67","119690","0.0-6.0-3.20","63ed4bdcb1977e991fe4f095","bdp_sd","Sat Mar 25 2023 21:30:52 GMT-0500 (Central Daylight Time)","130178","","null","","","","","offerFB","","<div class='trialBorder'><div class='vertical-center'><img style='vertical-align:center; align:center' src=img/fixation3.jpg></div><div class='cl'><div class='vertical-center'>$35<br>for<br>Tyler B</div></div><div class='cr'><div class='vertical-center'><font style='color:orange'>$24<br>for<br>yourself</font></div></div><div class='respDivL'><div class='vertical-center'>(E)</div></div><div class='respDivR'><div class='vertical-center'><font style='color:orange'>(I)</font></div></div></div>","null","$24<br>for<br>yourself","$35<br>for<br>3","1","24","35","3",""
"html-keyboard-response","68","120191","0.0-6.0-1.21","63ed4bdcb1977e991fe4f095","bdp_sd","Sat Mar 25 2023 21:30:52 GMT-0500 (Central Daylight Time)","130178","","null","","","","","FIX","","<div class='trialBorder'><div class='vertical-center'><img style='vertical-align:center; align:center' src=img/fixation3.jpg></div></div>","null","","","","","","",""
"html-keyboard-response","69","122017","0.0-6.0-2.21","63ed4bdcb1977e991fe4f095","bdp_sd","Sat Mar 25 2023 21:30:52 GMT-0500 (Central Daylight Time)","130178","","1825","","","","","offer","","<div class='trialBorder'><div class='vertical-center'><img style='vertical-align:center; align:center' src=img/fixation3.jpg></div><div class='cl'><div class='vertical-center'>$11<br>for<br>yourself</div></div><div class='cr'><div class='vertical-center'>$30<br>for<br>Kaleb D</div></div><div class='respDivL'><div class='vertical-center'>(E)</div></div><div class='respDivR'><div class='vertical-center'>(I)</div></div></div>","I","$11<br>for<br>yourself","$30<br>for<br>2","0","11","30","2","OTHER"
"html-keyboard-response","70","122269","0.0-6.0-3.21","63ed4bdcb1977e991fe4f095","bdp_sd","Sat Mar 25 2023 21:30:52 GMT-0500 (Central Daylight Time)","130178","","null","","","","","offerFB","","<div class='trialBorder'><div class='vertical-center'><img style='vertical-align:center; align:center' src=img/fixation3.jpg></div><div class='cl'><div class='vertical-center'>$11<br>for<br>yourself</div></div><div class='cr'><div class='vertical-center'><font style='color:orange'>$30<br>for<br>Kaleb D</font></div></div><div class='respDivL'><div class='vertical-center'>(E)</div></div><div class='respDivR'><div class='vertical-center'><font style='color:orange'>(I)</font></div></div></div>","null","$11<br>for<br>yourself","$30<br>for<br>2","0","11","30","2",""
"html-keyboard-response","71","122770","0.0-6.0-1.22","63ed4bdcb1977e991fe4f095","bdp_sd","Sat Mar 25 2023 21:30:52 GMT-0500 (Central Daylight Time)","130178","","null","","","","","FIX","","<div class='trialBorder'><div class='vertical-center'><img style='vertical-align:center; align:center' src=img/fixation3.jpg></div></div>","null","","","","","","",""
"html-keyboard-response","72","123644","0.0-6.0-2.22","63ed4bdcb1977e991fe4f095","bdp_sd","Sat Mar 25 2023 21:30:52 GMT-0500 (Central Daylight Time)","130178","","872","","","","","offer","","<div class='trialBorder'><div class='vertical-center'><img style='vertical-align:center; align:center' src=img/fixation3.jpg></div><div class='cl'><div class='vertical-center'>$28<br>for<br>yourself</div></div><div class='cr'><div class='vertical-center'>$30<br>for<br>John C</div></div><div class='respDivL'><div class='vertical-center'>(E)</div></div><div class='respDivR'><div class='vertical-center'>(I)</div></div></div>","E","$28<br>for<br>yourself","$30<br>for<br>5","0","28","30","5","SELF"
"html-keyboard-response","73","123894","0.0-6.0-3.22","63ed4bdcb1977e991fe4f095","bdp_sd","Sat Mar 25 2023 21:30:52 GMT-0500 (Central Daylight Time)","130178","","null","","","","","offerFB","","<div class='trialBorder'><div class='vertical-center'><img style='vertical-align:center; align:center' src=img/fixation3.jpg></div><div class='cl'><div class='vertical-center'><font style='color:orange'>$28<br>for<br>yourself</font></div></div><div class='cr'><div class='vertical-center'>$30<br>for<br>John C</div></div><div class='respDivL'><div class='vertical-center'><font style='color:orange'>(E)</font></div></div><div class='respDivR'><div class='vertical-center'>(I)</div></div></div>","null","$28<br>for<br>yourself","$30<br>for<br>5","0","28","30","5",""
"html-keyboard-response","74","124396","0.0-6.0-1.23","63ed4bdcb1977e991fe4f095","bdp_sd","Sat Mar 25 2023 21:30:52 GMT-0500 (Central Daylight Time)","130178","","null","","","","","FIX","","<div class='trialBorder'><div class='vertical-center'><img style='vertical-align:center; align:center' src=img/fixation3.jpg></div></div>","null","","","","","","",""
"html-keyboard-response","75","125082","0.0-6.0-2.23","63ed4bdcb1977e991fe4f095","bdp_sd","Sat Mar 25 2023 21:30:52 GMT-0500 (Central Daylight Time)","130178","","686","","","","","offer","","<div class='trialBorder'><div class='vertical-center'><img style='vertical-align:center; align:center' src=img/fixation3.jpg></div><div class='cl'><div class='vertical-center'>$55<br>for<br>John C</div></div><div class='cr'><div class='vertical-center'>$54<br>for<br>yourself</div></div><div class='respDivL'><div class='vertical-center'>(E)</div></div><div class='respDivR'><div class='vertical-center'>(I)</div></div></div>","I","$54<br>for<br>yourself","$55<br>for<br>5","1","54","55","5","SELF"
"html-keyboard-response","76","125335","0.0-6.0-3.23","63ed4bdcb1977e991fe4f095","bdp_sd","Sat Mar 25 2023 21:30:52 GMT-0500 (Central Daylight Time)","130178","","null","","","","","offerFB","","<div class='trialBorder'><div class='vertical-center'><img style='vertical-align:center; align:center' src=img/fixation3.jpg></div><div class='cl'><div class='vertical-center'>$55<br>for<br>John C</div></div><div class='cr'><div class='vertical-center'><font style='color:orange'>$54<br>for<br>yourself</font></div></div><div class='respDivL'><div class='vertical-center'>(E)</div></div><div class='respDivR'><div class='vertical-center'><font style='color:orange'>(I)</font></div></div></div>","null","$54<br>for<br>yourself","$55<br>for<br>5","1","54","55","5",""
"html-keyboard-response","77","125837","0.0-6.0-1.24","63ed4bdcb1977e991fe4f095","bdp_sd","Sat Mar 25 2023 21:30:52 GMT-0500 (Central Daylight Time)","130178","","null","","","","","FIX","","<div class='trialBorder'><div class='vertical-center'><img style='vertical-align:center; align:center' src=img/fixation3.jpg></div></div>","null","","","","","","",""
"html-keyboard-response","78","126479","0.0-6.0-2.24","63ed4bdcb1977e991fe4f095","bdp_sd","Sat Mar 25 2023 21:30:52 GMT-0500 (Central Daylight Time)","130178","","641","","","","","offer","","<div class='trialBorder'><div class='vertical-center'><img style='vertical-align:center; align:center' src=img/fixation3.jpg></div><div class='cl'><div class='vertical-center'>$60<br>for<br>John C</div></div><div class='cr'><div class='vertical-center'>$54<br>for<br>yourself</div></div><div class='respDivL'><div class='vertical-center'>(E)</div></div><div class='respDivR'><div class='vertical-center'>(I)</div></div></div>","I","$54<br>for<br>yourself","$60<br>for<br>5","1","54","60","5","SELF"
"html-keyboard-response","79","126730","0.0-6.0-3.24","63ed4bdcb1977e991fe4f095","bdp_sd","Sat Mar 25 2023 21:30:52 GMT-0500 (Central Daylight Time)","130178","","null","","","","","offerFB","","<div class='trialBorder'><div class='vertical-center'><img style='vertical-align:center; align:center' src=img/fixation3.jpg></div><div class='cl'><div class='vertical-center'>$60<br>for<br>John C</div></div><div class='cr'><div class='vertical-center'><font style='color:orange'>$54<br>for<br>yourself</font></div></div><div class='respDivL'><div class='vertical-center'>(E)</div></div><div class='respDivR'><div class='vertical-center'><font style='color:orange'>(I)</font></div></div></div>","null","$54<br>for<br>yourself","$60<br>for<br>5","1","54","60","5",""
"html-keyboard-response","80","127232","0.0-6.0-1.25","63ed4bdcb1977e991fe4f095","bdp_sd","Sat Mar 25 2023 21:30:52 GMT-0500 (Central Daylight Time)","130178","","null","","","","","FIX","","<div class='trialBorder'><div class='vertical-center'><img style='vertical-align:center; align:center' src=img/fixation3.jpg></div></div>","null","","","","","","",""
"html-keyboard-response","81","127732","0.0-6.0-2.25","63ed4bdcb1977e991fe4f095","bdp_sd","Sat Mar 25 2023 21:30:52 GMT-0500 (Central Daylight Time)","130178","","499","","","","","offer","","<div class='trialBorder'><div class='vertical-center'><img style='vertical-align:center; align:center' src=img/fixation3.jpg></div><div class='cl'><div class='vertical-center'>$85<br>for<br>John C</div></div><div class='cr'><div class='vertical-center'>$80<br>for<br>yourself</div></div><div class='respDivL'><div class='vertical-center'>(E)</div></div><div class='respDivR'><div class='vertical-center'>(I)</div></div></div>","I","$80<br>for<br>yourself","$85<br>for<br>5","1","80","85","5","SELF"
"html-keyboard-response","82","127983","0.0-6.0-3.25","63ed4bdcb1977e991fe4f095","bdp_sd","Sat Mar 25 2023 21:30:52 GMT-0500 (Central Daylight Time)","130178","","null","","","","","offerFB","","<div class='trialBorder'><div class='vertical-center'><img style='vertical-align:center; align:center' src=img/fixation3.jpg></div><div class='cl'><div class='vertical-center'>$85<br>for<br>John C</div></div><div class='cr'><div class='vertical-center'><font style='color:orange'>$80<br>for<br>yourself</font></div></div><div class='respDivL'><div class='vertical-center'>(E)</div></div><div class='respDivR'><div class='vertical-center'><font style='color:orange'>(I)</font></div></div></div>","null","$80<br>for<br>yourself","$85<br>for<br>5","1","80","85","5",""
"html-keyboard-response","83","128484","0.0-6.0-1.26","63ed4bdcb1977e991fe4f095","bdp_sd","Sat Mar 25 2023 21:30:52 GMT-0500 (Central Daylight Time)","130178","","null","","","","","FIX","","<div class='trialBorder'><div class='vertical-center'><img style='vertical-align:center; align:center' src=img/fixation3.jpg></div></div>","null","","","","","","",""
"html-keyboard-response","84","128925","0.0-6.0-2.26","63ed4bdcb1977e991fe4f095","bdp_sd","Sat Mar 25 2023 21:30:52 GMT-0500 (Central Daylight Time)","130178","","439","","","","","offer","","<div class='trialBorder'><div class='vertical-center'><img style='vertical-align:center; align:center' src=img/fixation3.jpg></div><div class='cl'><div class='vertical-center'>$50<br>for<br>Marissa C</div></div><div class='cr'><div class='vertical-center'>$34<br>for<br>yourself</div></div><div class='respDivL'><div class='vertical-center'>(E)</div></div><div class='respDivR'><div class='vertical-center'>(I)</div></div></div>","I","$34<br>for<br>yourself","$50<br>for<br>4","1","34","50","4","SELF"
"html-keyboard-response","85","129176","0.0-6.0-3.26","63ed4bdcb1977e991fe4f095","bdp_sd","Sat Mar 25 2023 21:30:52 GMT-0500 (Central Daylight Time)","130178","","null","","","","","offerFB","","<div class='trialBorder'><div class='vertical-center'><img style='vertical-align:center; align:center' src=img/fixation3.jpg></div><div class='cl'><div class='vertical-center'>$50<br>for<br>Marissa C</div></div><div class='cr'><div class='vertical-center'><font style='color:orange'>$34<br>for<br>yourself</font></div></div><div class='respDivL'><div class='vertical-center'>(E)</div></div><div class='respDivR'><div class='vertical-center'><font style='color:orange'>(I)</font></div></div></div>","null","$34<br>for<br>yourself","$50<br>for<br>4","1","34","50","4",""
"","","","","63ed4bdcb1977e991fe4f095","bdp_sd","Sat Mar 25 2023 21:30:52 GMT-0500 (Central Daylight Time)","130178","","","","fullscreenexit","86","129202","fullscreenexit","","","","","","","","","",""
"fullscreen","86","130178","0.0-7.0","63ed4bdcb1977e991fe4f095","bdp_sd","Sat Mar 25 2023 21:30:52 GMT-0500 (Central Daylight Time)","130178","","","","","","","","true","","","","","","","","",""
"html-keyboard-response","87","130680","0.0-8.0","","","","","","null","","","","","","","","null","","","","","","",""
