"event","trial","time","trialtype","subject_id","task","startTime","totalTime","trial_type","trial_index","time_elapsed","internal_node_id","view_history","rt","responses","success","stimulus","key_press","selfOffer","otherOffer","otherLeft","selfAmt","otherAmt","otherDist","chosen"
"focus","0","0","focusevent","6400f1783058946c2b4780cd","bdp_sd","Wed Mar 29 2023 10:23:54 GMT-0500 (Central Daylight Time)","253218","","","","","","","","","","","","","","","","",""
"","","","","6400f1783058946c2b4780cd","bdp_sd","Wed Mar 29 2023 10:23:54 GMT-0500 (Central Daylight Time)","253218","pavlovia","0","7","0.0-0.0","","","","","","","","","","","","",""
"","","","","6400f1783058946c2b4780cd","bdp_sd","Wed Mar 29 2023 10:23:54 GMT-0500 (Central Daylight Time)","253218","instructions","1","3071","0.0-1.0","[{""page_index"":0,""viewing_time"":3063}]","3063","","","","","","","","","","",""
"","","","","6400f1783058946c2b4780cd","bdp_sd","Wed Mar 29 2023 10:23:54 GMT-0500 (Central Daylight Time)","253218","survey-text","2","110136","0.0-2.0","","107063","{""Q0"":""Maya V"",""Q1"":""Sarah B"",""Q2"":""Kellen B"",""Q3"":""Francisco V"",""Q4"":""Nick K""}","","","","","","","","","",""
"fullscreenexit","3","112876","fullscreenexit","6400f1783058946c2b4780cd","bdp_sd","Wed Mar 29 2023 10:23:54 GMT-0500 (Central Daylight Time)","253218","","","","","","","","","","","","","","","","",""
"","","","","6400f1783058946c2b4780cd","bdp_sd","Wed Mar 29 2023 10:23:54 GMT-0500 (Central Daylight Time)","253218","fullscreen","3","113641","0.0-3.0","","","","true","","","","","","","","",""
"","","","fullscreenfail","6400f1783058946c2b4780cd","bdp_sd","Wed Mar 29 2023 10:23:54 GMT-0500 (Central Daylight Time)","253218","image-keyboard-response","4","117656","0.0-4.0-0.0","","4013","","","","32","","","","","","",""
"","","","","6400f1783058946c2b4780cd","bdp_sd","Wed Mar 29 2023 10:23:54 GMT-0500 (Central Daylight Time)","253218","instructions","5","140005","0.0-5.0","[{""page_index"":0,""viewing_time"":10176},{""page_index"":1,""viewing_time"":9362},{""page_index"":2,""viewing_time"":2549}]","22087","","","","","","","","","","",""
"","","","FIX","6400f1783058946c2b4780cd","bdp_sd","Wed Mar 29 2023 10:23:54 GMT-0500 (Central Daylight Time)","253218","html-keyboard-response","6","140518","0.0-6.0-1.0","","null","","","<div class='trialBorder'><div class='vertical-center'><img style='vertical-align:center; align:center' src=img/fixation3.jpg></div></div>","null","","","","","","",""
"","","","offer","6400f1783058946c2b4780cd","bdp_sd","Wed Mar 29 2023 10:23:54 GMT-0500 (Central Daylight Time)","253218","html-keyboard-response","7","146894","0.0-6.0-2.0","","6374","","","<div class='trialBorder'><div class='vertical-center'><img style='vertical-align:center; align:center' src=img/fixation3.jpg></div><div class='cl'><div class='vertical-center'>$34<br>for<br>yourself</div></div><div class='cr'><div class='vertical-center'>$35<br>for<br>Nick K</div></div><div class='respDivL'><div class='vertical-center'>(E)</div></div><div class='respDivR'><div class='vertical-center'>(I)</div></div></div>","E","$34<br>for<br>yourself","$35<br>for<br>5","0","34","35","5","SELF"
"","","","offerFB","6400f1783058946c2b4780cd","bdp_sd","Wed Mar 29 2023 10:23:54 GMT-0500 (Central Daylight Time)","253218","html-keyboard-response","8","147158","0.0-6.0-3.0","","null","","","<div class='trialBorder'><div class='vertical-center'><img style='vertical-align:center; align:center' src=img/fixation3.jpg></div><div class='cl'><div class='vertical-center'><font style='color:orange'>$34<br>for<br>yourself</font></div></div><div class='cr'><div class='vertical-center'>$35<br>for<br>Nick K</div></div><div class='respDivL'><div class='vertical-center'><font style='color:orange'>(E)</font></div></div><div class='respDivR'><div class='vertical-center'>(I)</div></div></div>","null","$34<br>for<br>yourself","$35<br>for<br>5","0","34","35","5",""
"","","","FIX","6400f1783058946c2b4780cd","bdp_sd","Wed Mar 29 2023 10:23:54 GMT-0500 (Central Daylight Time)","253218","html-keyboard-response","9","147678","0.0-6.0-1.1","","null","","","<div class='trialBorder'><div class='vertical-center'><img style='vertical-align:center; align:center' src=img/fixation3.jpg></div></div>","null","","","","","","",""
"","","","offer","6400f1783058946c2b4780cd","bdp_sd","Wed Mar 29 2023 10:23:54 GMT-0500 (Central Daylight Time)","253218","html-keyboard-response","10","156444","0.0-6.0-2.1","","8764","","","<div class='trialBorder'><div class='vertical-center'><img style='vertical-align:center; align:center' src=img/fixation3.jpg></div><div class='cl'><div class='vertical-center'>$60<br>for<br>Nick K</div></div><div class='cr'><div class='vertical-center'>$54<br>for<br>yourself</div></div><div class='respDivL'><div class='vertical-center'>(E)</div></div><div class='respDivR'><div class='vertical-center'>(I)</div></div></div>","I","$54<br>for<br>yourself","$60<br>for<br>5","1","54","60","5","SELF"
"","","","offerFB","6400f1783058946c2b4780cd","bdp_sd","Wed Mar 29 2023 10:23:54 GMT-0500 (Central Daylight Time)","253218","html-keyboard-response","11","156708","0.0-6.0-3.1","","null","","","<div class='trialBorder'><div class='vertical-center'><img style='vertical-align:center; align:center' src=img/fixation3.jpg></div><div class='cl'><div class='vertical-center'>$60<br>for<br>Nick K</div></div><div class='cr'><div class='vertical-center'><font style='color:orange'>$54<br>for<br>yourself</font></div></div><div class='respDivL'><div class='vertical-center'>(E)</div></div><div class='respDivR'><div class='vertical-center'><font style='color:orange'>(I)</font></div></div></div>","null","$54<br>for<br>yourself","$60<br>for<br>5","1","54","60","5",""
"","","","FIX","6400f1783058946c2b4780cd","bdp_sd","Wed Mar 29 2023 10:23:54 GMT-0500 (Central Daylight Time)","253218","html-keyboard-response","12","157228","0.0-6.0-1.2","","null","","","<div class='trialBorder'><div class='vertical-center'><img style='vertical-align:center; align:center' src=img/fixation3.jpg></div></div>","null","","","","","","",""
"","","","offer","6400f1783058946c2b4780cd","bdp_sd","Wed Mar 29 2023 10:23:54 GMT-0500 (Central Daylight Time)","253218","html-keyboard-response","13","162567","0.0-6.0-2.2","","5338","","","<div class='trialBorder'><div class='vertical-center'><img style='vertical-align:center; align:center' src=img/fixation3.jpg></div><div class='cl'><div class='vertical-center'>$24<br>for<br>yourself</div></div><div class='cr'><div class='vertical-center'>$35<br>for<br>Kellen B</div></div><div class='respDivL'><div class='vertical-center'>(E)</div></div><div class='respDivR'><div class='vertical-center'>(I)</div></div></div>","E","$24<br>for<br>yourself","$35<br>for<br>3","0","24","35","3","SELF"
"","","","offerFB","6400f1783058946c2b4780cd","bdp_sd","Wed Mar 29 2023 10:23:54 GMT-0500 (Central Daylight Time)","253218","html-keyboard-response","14","162838","0.0-6.0-3.2","","null","","","<div class='trialBorder'><div class='vertical-center'><img style='vertical-align:center; align:center' src=img/fixation3.jpg></div><div class='cl'><div class='vertical-center'><font style='color:orange'>$24<br>for<br>yourself</font></div></div><div class='cr'><div class='vertical-center'>$35<br>for<br>Kellen B</div></div><div class='respDivL'><div class='vertical-center'><font style='color:orange'>(E)</font></div></div><div class='respDivR'><div class='vertical-center'>(I)</div></div></div>","null","$24<br>for<br>yourself","$35<br>for<br>3","0","24","35","3",""
"","","","FIX","6400f1783058946c2b4780cd","bdp_sd","Wed Mar 29 2023 10:23:54 GMT-0500 (Central Daylight Time)","253218","html-keyboard-response","15","163358","0.0-6.0-1.3","","null","","","<div class='trialBorder'><div class='vertical-center'><img style='vertical-align:center; align:center' src=img/fixation3.jpg></div></div>","null","","","","","","",""
"","","","offer","6400f1783058946c2b4780cd","bdp_sd","Wed Mar 29 2023 10:23:54 GMT-0500 (Central Daylight Time)","253218","html-keyboard-response","16","168743","0.0-6.0-2.3","","5385","","","<div class='trialBorder'><div class='vertical-center'><img style='vertical-align:center; align:center' src=img/fixation3.jpg></div><div class='cl'><div class='vertical-center'>$75<br>for<br>Kellen B</div></div><div class='cr'><div class='vertical-center'>$41<br>for<br>yourself</div></div><div class='respDivL'><div class='vertical-center'>(E)</div></div><div class='respDivR'><div class='vertical-center'>(I)</div></div></div>","E","$41<br>for<br>yourself","$75<br>for<br>3","1","41","75","3","OTHER"
"","","","offerFB","6400f1783058946c2b4780cd","bdp_sd","Wed Mar 29 2023 10:23:54 GMT-0500 (Central Daylight Time)","253218","html-keyboard-response","17","168998","0.0-6.0-3.3","","null","","","<div class='trialBorder'><div class='vertical-center'><img style='vertical-align:center; align:center' src=img/fixation3.jpg></div><div class='cl'><div class='vertical-center'><font style='color:orange'>$75<br>for<br>Kellen B</font></div></div><div class='cr'><div class='vertical-center'>$41<br>for<br>yourself</div></div><div class='respDivL'><div class='vertical-center'><font style='color:orange'>(E)</font></div></div><div class='respDivR'><div class='vertical-center'>(I)</div></div></div>","null","$41<br>for<br>yourself","$75<br>for<br>3","1","41","75","3",""
"","","","FIX","6400f1783058946c2b4780cd","bdp_sd","Wed Mar 29 2023 10:23:54 GMT-0500 (Central Daylight Time)","253218","html-keyboard-response","18","169509","0.0-6.0-1.4","","null","","","<div class='trialBorder'><div class='vertical-center'><img style='vertical-align:center; align:center' src=img/fixation3.jpg></div></div>","null","","","","","","",""
"","","","offer","6400f1783058946c2b4780cd","bdp_sd","Wed Mar 29 2023 10:23:54 GMT-0500 (Central Daylight Time)","253218","html-keyboard-response","19","171417","0.0-6.0-2.4","","1908","","","<div class='trialBorder'><div class='vertical-center'><img style='vertical-align:center; align:center' src=img/fixation3.jpg></div><div class='cl'><div class='vertical-center'>$47<br>for<br>yourself</div></div><div class='cr'><div class='vertical-center'>$50<br>for<br>Nick K</div></div><div class='respDivL'><div class='vertical-center'>(E)</div></div><div class='respDivR'><div class='vertical-center'>(I)</div></div></div>","E","$47<br>for<br>yourself","$50<br>for<br>5","0","47","50","5","SELF"
"","","","offerFB","6400f1783058946c2b4780cd","bdp_sd","Wed Mar 29 2023 10:23:54 GMT-0500 (Central Daylight Time)","253218","html-keyboard-response","20","171667","0.0-6.0-3.4","","null","","","<div class='trialBorder'><div class='vertical-center'><img style='vertical-align:center; align:center' src=img/fixation3.jpg></div><div class='cl'><div class='vertical-center'><font style='color:orange'>$47<br>for<br>yourself</font></div></div><div class='cr'><div class='vertical-center'>$50<br>for<br>Nick K</div></div><div class='respDivL'><div class='vertical-center'><font style='color:orange'>(E)</font></div></div><div class='respDivR'><div class='vertical-center'>(I)</div></div></div>","null","$47<br>for<br>yourself","$50<br>for<br>5","0","47","50","5",""
"","","","FIX","6400f1783058946c2b4780cd","bdp_sd","Wed Mar 29 2023 10:23:54 GMT-0500 (Central Daylight Time)","253218","html-keyboard-response","21","172188","0.0-6.0-1.5","","null","","","<div class='trialBorder'><div class='vertical-center'><img style='vertical-align:center; align:center' src=img/fixation3.jpg></div></div>","null","","","","","","",""
"","","","offer","6400f1783058946c2b4780cd","bdp_sd","Wed Mar 29 2023 10:23:54 GMT-0500 (Central Daylight Time)","253218","html-keyboard-response","22","175792","0.0-6.0-2.5","","3603","","","<div class='trialBorder'><div class='vertical-center'><img style='vertical-align:center; align:center' src=img/fixation3.jpg></div><div class='cl'><div class='vertical-center'>$14<br>for<br>yourself</div></div><div class='cr'><div class='vertical-center'>$25<br>for<br>Kellen B</div></div><div class='respDivL'><div class='vertical-center'>(E)</div></div><div class='respDivR'><div class='vertical-center'>(I)</div></div></div>","I","$14<br>for<br>yourself","$25<br>for<br>3","0","14","25","3","OTHER"
"","","","offerFB","6400f1783058946c2b4780cd","bdp_sd","Wed Mar 29 2023 10:23:54 GMT-0500 (Central Daylight Time)","253218","html-keyboard-response","23","176057","0.0-6.0-3.5","","null","","","<div class='trialBorder'><div class='vertical-center'><img style='vertical-align:center; align:center' src=img/fixation3.jpg></div><div class='cl'><div class='vertical-center'>$14<br>for<br>yourself</div></div><div class='cr'><div class='vertical-center'><font style='color:orange'>$25<br>for<br>Kellen B</font></div></div><div class='respDivL'><div class='vertical-center'>(E)</div></div><div class='respDivR'><div class='vertical-center'><font style='color:orange'>(I)</font></div></div></div>","null","$14<br>for<br>yourself","$25<br>for<br>3","0","14","25","3",""
"","","","FIX","6400f1783058946c2b4780cd","bdp_sd","Wed Mar 29 2023 10:23:54 GMT-0500 (Central Daylight Time)","253218","html-keyboard-response","24","176578","0.0-6.0-1.6","","null","","","<div class='trialBorder'><div class='vertical-center'><img style='vertical-align:center; align:center' src=img/fixation3.jpg></div></div>","null","","","","","","",""
"","","","offer","6400f1783058946c2b4780cd","bdp_sd","Wed Mar 29 2023 10:23:54 GMT-0500 (Central Daylight Time)","253218","html-keyboard-response","25","178567","0.0-6.0-2.6","","1988","","","<div class='trialBorder'><div class='vertical-center'><img style='vertical-align:center; align:center' src=img/fixation3.jpg></div><div class='cl'><div class='vertical-center'>$55<br>for<br>Francisco V</div></div><div class='cr'><div class='vertical-center'>$40<br>for<br>yourself</div></div><div class='respDivL'><div class='vertical-center'>(E)</div></div><div class='respDivR'><div class='vertical-center'>(I)</div></div></div>","I","$40<br>for<br>yourself","$55<br>for<br>4","1","40","55","4","SELF"
"","","","offerFB","6400f1783058946c2b4780cd","bdp_sd","Wed Mar 29 2023 10:23:54 GMT-0500 (Central Daylight Time)","253218","html-keyboard-response","26","178818","0.0-6.0-3.6","","null","","","<div class='trialBorder'><div class='vertical-center'><img style='vertical-align:center; align:center' src=img/fixation3.jpg></div><div class='cl'><div class='vertical-center'>$55<br>for<br>Francisco V</div></div><div class='cr'><div class='vertical-center'><font style='color:orange'>$40<br>for<br>yourself</font></div></div><div class='respDivL'><div class='vertical-center'>(E)</div></div><div class='respDivR'><div class='vertical-center'><font style='color:orange'>(I)</font></div></div></div>","null","$40<br>for<br>yourself","$55<br>for<br>4","1","40","55","4",""
"","","","FIX","6400f1783058946c2b4780cd","bdp_sd","Wed Mar 29 2023 10:23:54 GMT-0500 (Central Daylight Time)","253218","html-keyboard-response","27","179338","0.0-6.0-1.7","","null","","","<div class='trialBorder'><div class='vertical-center'><img style='vertical-align:center; align:center' src=img/fixation3.jpg></div></div>","null","","","","","","",""
"","","","offer","6400f1783058946c2b4780cd","bdp_sd","Wed Mar 29 2023 10:23:54 GMT-0500 (Central Daylight Time)","253218","html-keyboard-response","28","181817","0.0-6.0-2.7","","2479","","","<div class='trialBorder'><div class='vertical-center'><img style='vertical-align:center; align:center' src=img/fixation3.jpg></div><div class='cl'><div class='vertical-center'>$80<br>for<br>Nick K</div></div><div class='cr'><div class='vertical-center'>$78<br>for<br>yourself</div></div><div class='respDivL'><div class='vertical-center'>(E)</div></div><div class='respDivR'><div class='vertical-center'>(I)</div></div></div>","I","$78<br>for<br>yourself","$80<br>for<br>5","1","78","80","5","SELF"
"","","","offerFB","6400f1783058946c2b4780cd","bdp_sd","Wed Mar 29 2023 10:23:54 GMT-0500 (Central Daylight Time)","253218","html-keyboard-response","29","182078","0.0-6.0-3.7","","null","","","<div class='trialBorder'><div class='vertical-center'><img style='vertical-align:center; align:center' src=img/fixation3.jpg></div><div class='cl'><div class='vertical-center'>$80<br>for<br>Nick K</div></div><div class='cr'><div class='vertical-center'><font style='color:orange'>$78<br>for<br>yourself</font></div></div><div class='respDivL'><div class='vertical-center'>(E)</div></div><div class='respDivR'><div class='vertical-center'><font style='color:orange'>(I)</font></div></div></div>","null","$78<br>for<br>yourself","$80<br>for<br>5","1","78","80","5",""
"","","","FIX","6400f1783058946c2b4780cd","bdp_sd","Wed Mar 29 2023 10:23:54 GMT-0500 (Central Daylight Time)","253218","html-keyboard-response","30","182598","0.0-6.0-1.8","","null","","","<div class='trialBorder'><div class='vertical-center'><img style='vertical-align:center; align:center' src=img/fixation3.jpg></div></div>","null","","","","","","",""
"","","","offer","6400f1783058946c2b4780cd","bdp_sd","Wed Mar 29 2023 10:23:54 GMT-0500 (Central Daylight Time)","253218","html-keyboard-response","31","185431","0.0-6.0-2.8","","2832","","","<div class='trialBorder'><div class='vertical-center'><img style='vertical-align:center; align:center' src=img/fixation3.jpg></div><div class='cl'><div class='vertical-center'>$54<br>for<br>yourself</div></div><div class='cr'><div class='vertical-center'>$80<br>for<br>Kellen B</div></div><div class='respDivL'><div class='vertical-center'>(E)</div></div><div class='respDivR'><div class='vertical-center'>(I)</div></div></div>","E","$54<br>for<br>yourself","$80<br>for<br>3","0","54","80","3","SELF"
"","","","offerFB","6400f1783058946c2b4780cd","bdp_sd","Wed Mar 29 2023 10:23:54 GMT-0500 (Central Daylight Time)","253218","html-keyboard-response","32","185688","0.0-6.0-3.8","","null","","","<div class='trialBorder'><div class='vertical-center'><img style='vertical-align:center; align:center' src=img/fixation3.jpg></div><div class='cl'><div class='vertical-center'><font style='color:orange'>$54<br>for<br>yourself</font></div></div><div class='cr'><div class='vertical-center'>$80<br>for<br>Kellen B</div></div><div class='respDivL'><div class='vertical-center'><font style='color:orange'>(E)</font></div></div><div class='respDivR'><div class='vertical-center'>(I)</div></div></div>","null","$54<br>for<br>yourself","$80<br>for<br>3","0","54","80","3",""
"","","","FIX","6400f1783058946c2b4780cd","bdp_sd","Wed Mar 29 2023 10:23:54 GMT-0500 (Central Daylight Time)","253218","html-keyboard-response","33","186189","0.0-6.0-1.9","","null","","","<div class='trialBorder'><div class='vertical-center'><img style='vertical-align:center; align:center' src=img/fixation3.jpg></div></div>","null","","","","","","",""
"","","","offer","6400f1783058946c2b4780cd","bdp_sd","Wed Mar 29 2023 10:23:54 GMT-0500 (Central Daylight Time)","253218","html-keyboard-response","34","188193","0.0-6.0-2.9","","2003","","","<div class='trialBorder'><div class='vertical-center'><img style='vertical-align:center; align:center' src=img/fixation3.jpg></div><div class='cl'><div class='vertical-center'>$20<br>for<br>yourself</div></div><div class='cr'><div class='vertical-center'>$55<br>for<br>Maya V</div></div><div class='respDivL'><div class='vertical-center'>(E)</div></div><div class='respDivR'><div class='vertical-center'>(I)</div></div></div>","I","$20<br>for<br>yourself","$55<br>for<br>1","0","20","55","1","OTHER"
"","","","offerFB","6400f1783058946c2b4780cd","bdp_sd","Wed Mar 29 2023 10:23:54 GMT-0500 (Central Daylight Time)","253218","html-keyboard-response","35","188448","0.0-6.0-3.9","","null","","","<div class='trialBorder'><div class='vertical-center'><img style='vertical-align:center; align:center' src=img/fixation3.jpg></div><div class='cl'><div class='vertical-center'>$20<br>for<br>yourself</div></div><div class='cr'><div class='vertical-center'><font style='color:orange'>$55<br>for<br>Maya V</font></div></div><div class='respDivL'><div class='vertical-center'>(E)</div></div><div class='respDivR'><div class='vertical-center'><font style='color:orange'>(I)</font></div></div></div>","null","$20<br>for<br>yourself","$55<br>for<br>1","0","20","55","1",""
"","","","FIX","6400f1783058946c2b4780cd","bdp_sd","Wed Mar 29 2023 10:23:54 GMT-0500 (Central Daylight Time)","253218","html-keyboard-response","36","188968","0.0-6.0-1.10","","null","","","<div class='trialBorder'><div class='vertical-center'><img style='vertical-align:center; align:center' src=img/fixation3.jpg></div></div>","null","","","","","","",""
"","","","offer","6400f1783058946c2b4780cd","bdp_sd","Wed Mar 29 2023 10:23:54 GMT-0500 (Central Daylight Time)","253218","html-keyboard-response","37","193743","0.0-6.0-2.10","","4775","","","<div class='trialBorder'><div class='vertical-center'><img style='vertical-align:center; align:center' src=img/fixation3.jpg></div><div class='cl'><div class='vertical-center'>$11<br>for<br>yourself</div></div><div class='cr'><div class='vertical-center'>$30<br>for<br>Sarah B</div></div><div class='respDivL'><div class='vertical-center'>(E)</div></div><div class='respDivR'><div class='vertical-center'>(I)</div></div></div>","I","$11<br>for<br>yourself","$30<br>for<br>2","0","11","30","2","OTHER"
"","","","offerFB","6400f1783058946c2b4780cd","bdp_sd","Wed Mar 29 2023 10:23:54 GMT-0500 (Central Daylight Time)","253218","html-keyboard-response","38","193998","0.0-6.0-3.10","","null","","","<div class='trialBorder'><div class='vertical-center'><img style='vertical-align:center; align:center' src=img/fixation3.jpg></div><div class='cl'><div class='vertical-center'>$11<br>for<br>yourself</div></div><div class='cr'><div class='vertical-center'><font style='color:orange'>$30<br>for<br>Sarah B</font></div></div><div class='respDivL'><div class='vertical-center'>(E)</div></div><div class='respDivR'><div class='vertical-center'><font style='color:orange'>(I)</font></div></div></div>","null","$11<br>for<br>yourself","$30<br>for<br>2","0","11","30","2",""
"","","","FIX","6400f1783058946c2b4780cd","bdp_sd","Wed Mar 29 2023 10:23:54 GMT-0500 (Central Daylight Time)","253218","html-keyboard-response","39","194508","0.0-6.0-1.11","","null","","","<div class='trialBorder'><div class='vertical-center'><img style='vertical-align:center; align:center' src=img/fixation3.jpg></div></div>","null","","","","","","",""
"","","","offer","6400f1783058946c2b4780cd","bdp_sd","Wed Mar 29 2023 10:23:54 GMT-0500 (Central Daylight Time)","253218","html-keyboard-response","40","196266","0.0-6.0-2.11","","1758","","","<div class='trialBorder'><div class='vertical-center'><img style='vertical-align:center; align:center' src=img/fixation3.jpg></div><div class='cl'><div class='vertical-center'>$67<br>for<br>yourself</div></div><div class='cr'><div class='vertical-center'>$75<br>for<br>Nick K</div></div><div class='respDivL'><div class='vertical-center'>(E)</div></div><div class='respDivR'><div class='vertical-center'>(I)</div></div></div>","E","$67<br>for<br>yourself","$75<br>for<br>5","0","67","75","5","SELF"
"","","","offerFB","6400f1783058946c2b4780cd","bdp_sd","Wed Mar 29 2023 10:23:54 GMT-0500 (Central Daylight Time)","253218","html-keyboard-response","41","196528","0.0-6.0-3.11","","null","","","<div class='trialBorder'><div class='vertical-center'><img style='vertical-align:center; align:center' src=img/fixation3.jpg></div><div class='cl'><div class='vertical-center'><font style='color:orange'>$67<br>for<br>yourself</font></div></div><div class='cr'><div class='vertical-center'>$75<br>for<br>Nick K</div></div><div class='respDivL'><div class='vertical-center'><font style='color:orange'>(E)</font></div></div><div class='respDivR'><div class='vertical-center'>(I)</div></div></div>","null","$67<br>for<br>yourself","$75<br>for<br>5","0","67","75","5",""
"","","","FIX","6400f1783058946c2b4780cd","bdp_sd","Wed Mar 29 2023 10:23:54 GMT-0500 (Central Daylight Time)","253218","html-keyboard-response","42","197038","0.0-6.0-1.12","","null","","","<div class='trialBorder'><div class='vertical-center'><img style='vertical-align:center; align:center' src=img/fixation3.jpg></div></div>","null","","","","","","",""
"","","","offer","6400f1783058946c2b4780cd","bdp_sd","Wed Mar 29 2023 10:23:54 GMT-0500 (Central Daylight Time)","253218","html-keyboard-response","43","199205","0.0-6.0-2.12","","2166","","","<div class='trialBorder'><div class='vertical-center'><img style='vertical-align:center; align:center' src=img/fixation3.jpg></div><div class='cl'><div class='vertical-center'>$25<br>for<br>Francisco V</div></div><div class='cr'><div class='vertical-center'>$19<br>for<br>yourself</div></div><div class='respDivL'><div class='vertical-center'>(E)</div></div><div class='respDivR'><div class='vertical-center'>(I)</div></div></div>","I","$19<br>for<br>yourself","$25<br>for<br>4","1","19","25","4","SELF"
"","","","offerFB","6400f1783058946c2b4780cd","bdp_sd","Wed Mar 29 2023 10:23:54 GMT-0500 (Central Daylight Time)","253218","html-keyboard-response","44","199463","0.0-6.0-3.12","","null","","","<div class='trialBorder'><div class='vertical-center'><img style='vertical-align:center; align:center' src=img/fixation3.jpg></div><div class='cl'><div class='vertical-center'>$25<br>for<br>Francisco V</div></div><div class='cr'><div class='vertical-center'><font style='color:orange'>$19<br>for<br>yourself</font></div></div><div class='respDivL'><div class='vertical-center'>(E)</div></div><div class='respDivR'><div class='vertical-center'><font style='color:orange'>(I)</font></div></div></div>","null","$19<br>for<br>yourself","$25<br>for<br>4","1","19","25","4",""
"","","","FIX","6400f1783058946c2b4780cd","bdp_sd","Wed Mar 29 2023 10:23:54 GMT-0500 (Central Daylight Time)","253218","html-keyboard-response","45","199978","0.0-6.0-1.13","","null","","","<div class='trialBorder'><div class='vertical-center'><img style='vertical-align:center; align:center' src=img/fixation3.jpg></div></div>","null","","","","","","",""
"","","","offer","6400f1783058946c2b4780cd","bdp_sd","Wed Mar 29 2023 10:23:54 GMT-0500 (Central Daylight Time)","253218","html-keyboard-response","46","204143","0.0-6.0-2.13","","4164","","","<div class='trialBorder'><div class='vertical-center'><img style='vertical-align:center; align:center' src=img/fixation3.jpg></div><div class='cl'><div class='vertical-center'>$35<br>for<br>Sarah B</div></div><div class='cr'><div class='vertical-center'>$15<br>for<br>yourself</div></div><div class='respDivL'><div class='vertical-center'>(E)</div></div><div class='respDivR'><div class='vertical-center'>(I)</div></div></div>","E","$15<br>for<br>yourself","$35<br>for<br>2","1","15","35","2","OTHER"
"","","","offerFB","6400f1783058946c2b4780cd","bdp_sd","Wed Mar 29 2023 10:23:54 GMT-0500 (Central Daylight Time)","253218","html-keyboard-response","47","204409","0.0-6.0-3.13","","null","","","<div class='trialBorder'><div class='vertical-center'><img style='vertical-align:center; align:center' src=img/fixation3.jpg></div><div class='cl'><div class='vertical-center'><font style='color:orange'>$35<br>for<br>Sarah B</font></div></div><div class='cr'><div class='vertical-center'>$15<br>for<br>yourself</div></div><div class='respDivL'><div class='vertical-center'><font style='color:orange'>(E)</font></div></div><div class='respDivR'><div class='vertical-center'>(I)</div></div></div>","null","$15<br>for<br>yourself","$35<br>for<br>2","1","15","35","2",""
"","","","FIX","6400f1783058946c2b4780cd","bdp_sd","Wed Mar 29 2023 10:23:54 GMT-0500 (Central Daylight Time)","253218","html-keyboard-response","48","204928","0.0-6.0-1.14","","null","","","<div class='trialBorder'><div class='vertical-center'><img style='vertical-align:center; align:center' src=img/fixation3.jpg></div></div>","null","","","","","","",""
"","","","offer","6400f1783058946c2b4780cd","bdp_sd","Wed Mar 29 2023 10:23:54 GMT-0500 (Central Daylight Time)","253218","html-keyboard-response","49","207843","0.0-6.0-2.14","","2913","","","<div class='trialBorder'><div class='vertical-center'><img style='vertical-align:center; align:center' src=img/fixation3.jpg></div><div class='cl'><div class='vertical-center'>$80<br>for<br>yourself</div></div><div class='cr'><div class='vertical-center'>$85<br>for<br>Nick K</div></div><div class='respDivL'><div class='vertical-center'>(E)</div></div><div class='respDivR'><div class='vertical-center'>(I)</div></div></div>","E","$80<br>for<br>yourself","$85<br>for<br>5","0","80","85","5","SELF"
"","","","offerFB","6400f1783058946c2b4780cd","bdp_sd","Wed Mar 29 2023 10:23:54 GMT-0500 (Central Daylight Time)","253218","html-keyboard-response","50","208098","0.0-6.0-3.14","","null","","","<div class='trialBorder'><div class='vertical-center'><img style='vertical-align:center; align:center' src=img/fixation3.jpg></div><div class='cl'><div class='vertical-center'><font style='color:orange'>$80<br>for<br>yourself</font></div></div><div class='cr'><div class='vertical-center'>$85<br>for<br>Nick K</div></div><div class='respDivL'><div class='vertical-center'><font style='color:orange'>(E)</font></div></div><div class='respDivR'><div class='vertical-center'>(I)</div></div></div>","null","$80<br>for<br>yourself","$85<br>for<br>5","0","80","85","5",""
"","","","FIX","6400f1783058946c2b4780cd","bdp_sd","Wed Mar 29 2023 10:23:54 GMT-0500 (Central Daylight Time)","253218","html-keyboard-response","51","208618","0.0-6.0-1.15","","null","","","<div class='trialBorder'><div class='vertical-center'><img style='vertical-align:center; align:center' src=img/fixation3.jpg></div></div>","null","","","","","","",""
"","","","offer","6400f1783058946c2b4780cd","bdp_sd","Wed Mar 29 2023 10:23:54 GMT-0500 (Central Daylight Time)","253218","html-keyboard-response","52","210855","0.0-6.0-2.15","","2235","","","<div class='trialBorder'><div class='vertical-center'><img style='vertical-align:center; align:center' src=img/fixation3.jpg></div><div class='cl'><div class='vertical-center'>$75<br>for<br>Francisco V</div></div><div class='cr'><div class='vertical-center'>$55<br>for<br>yourself</div></div><div class='respDivL'><div class='vertical-center'>(E)</div></div><div class='respDivR'><div class='vertical-center'>(I)</div></div></div>","I","$55<br>for<br>yourself","$75<br>for<br>4","1","55","75","4","SELF"
"","","","offerFB","6400f1783058946c2b4780cd","bdp_sd","Wed Mar 29 2023 10:23:54 GMT-0500 (Central Daylight Time)","253218","html-keyboard-response","53","211108","0.0-6.0-3.15","","null","","","<div class='trialBorder'><div class='vertical-center'><img style='vertical-align:center; align:center' src=img/fixation3.jpg></div><div class='cl'><div class='vertical-center'>$75<br>for<br>Francisco V</div></div><div class='cr'><div class='vertical-center'><font style='color:orange'>$55<br>for<br>yourself</font></div></div><div class='respDivL'><div class='vertical-center'>(E)</div></div><div class='respDivR'><div class='vertical-center'><font style='color:orange'>(I)</font></div></div></div>","null","$55<br>for<br>yourself","$75<br>for<br>4","1","55","75","4",""
"","","","FIX","6400f1783058946c2b4780cd","bdp_sd","Wed Mar 29 2023 10:23:54 GMT-0500 (Central Daylight Time)","253218","html-keyboard-response","54","211618","0.0-6.0-1.16","","null","","","<div class='trialBorder'><div class='vertical-center'><img style='vertical-align:center; align:center' src=img/fixation3.jpg></div></div>","null","","","","","","",""
"","","","offer","6400f1783058946c2b4780cd","bdp_sd","Wed Mar 29 2023 10:23:54 GMT-0500 (Central Daylight Time)","253218","html-keyboard-response","55","215879","0.0-6.0-2.16","","4260","","","<div class='trialBorder'><div class='vertical-center'><img style='vertical-align:center; align:center' src=img/fixation3.jpg></div><div class='cl'><div class='vertical-center'>$25<br>for<br>yourself</div></div><div class='cr'><div class='vertical-center'>$60<br>for<br>Kellen B</div></div><div class='respDivL'><div class='vertical-center'>(E)</div></div><div class='respDivR'><div class='vertical-center'>(I)</div></div></div>","I","$25<br>for<br>yourself","$60<br>for<br>3","0","25","60","3","OTHER"
"","","","offerFB","6400f1783058946c2b4780cd","bdp_sd","Wed Mar 29 2023 10:23:54 GMT-0500 (Central Daylight Time)","253218","html-keyboard-response","56","216138","0.0-6.0-3.16","","null","","","<div class='trialBorder'><div class='vertical-center'><img style='vertical-align:center; align:center' src=img/fixation3.jpg></div><div class='cl'><div class='vertical-center'>$25<br>for<br>yourself</div></div><div class='cr'><div class='vertical-center'><font style='color:orange'>$60<br>for<br>Kellen B</font></div></div><div class='respDivL'><div class='vertical-center'>(E)</div></div><div class='respDivR'><div class='vertical-center'><font style='color:orange'>(I)</font></div></div></div>","null","$25<br>for<br>yourself","$60<br>for<br>3","0","25","60","3",""
"","","","FIX","6400f1783058946c2b4780cd","bdp_sd","Wed Mar 29 2023 10:23:54 GMT-0500 (Central Daylight Time)","253218","html-keyboard-response","57","216648","0.0-6.0-1.17","","null","","","<div class='trialBorder'><div class='vertical-center'><img style='vertical-align:center; align:center' src=img/fixation3.jpg></div></div>","null","","","","","","",""
"","","","offer","6400f1783058946c2b4780cd","bdp_sd","Wed Mar 29 2023 10:23:54 GMT-0500 (Central Daylight Time)","253218","html-keyboard-response","58","220605","0.0-6.0-2.17","","3956","","","<div class='trialBorder'><div class='vertical-center'><img style='vertical-align:center; align:center' src=img/fixation3.jpg></div><div class='cl'><div class='vertical-center'>$33<br>for<br>yourself</div></div><div class='cr'><div class='vertical-center'>$80<br>for<br>Sarah B</div></div><div class='respDivL'><div class='vertical-center'>(E)</div></div><div class='respDivR'><div class='vertical-center'>(I)</div></div></div>","E","$33<br>for<br>yourself","$80<br>for<br>2","0","33","80","2","SELF"
"","","","offerFB","6400f1783058946c2b4780cd","bdp_sd","Wed Mar 29 2023 10:23:54 GMT-0500 (Central Daylight Time)","253218","html-keyboard-response","59","220858","0.0-6.0-3.17","","null","","","<div class='trialBorder'><div class='vertical-center'><img style='vertical-align:center; align:center' src=img/fixation3.jpg></div><div class='cl'><div class='vertical-center'><font style='color:orange'>$33<br>for<br>yourself</font></div></div><div class='cr'><div class='vertical-center'>$80<br>for<br>Sarah B</div></div><div class='respDivL'><div class='vertical-center'><font style='color:orange'>(E)</font></div></div><div class='respDivR'><div class='vertical-center'>(I)</div></div></div>","null","$33<br>for<br>yourself","$80<br>for<br>2","0","33","80","2",""
"","","","FIX","6400f1783058946c2b4780cd","bdp_sd","Wed Mar 29 2023 10:23:54 GMT-0500 (Central Daylight Time)","253218","html-keyboard-response","60","221378","0.0-6.0-1.18","","null","","","<div class='trialBorder'><div class='vertical-center'><img style='vertical-align:center; align:center' src=img/fixation3.jpg></div></div>","null","","","","","","",""
"","","","offer","6400f1783058946c2b4780cd","bdp_sd","Wed Mar 29 2023 10:23:54 GMT-0500 (Central Daylight Time)","253218","html-keyboard-response","61","223680","0.0-6.0-2.18","","2301","","","<div class='trialBorder'><div class='vertical-center'><img style='vertical-align:center; align:center' src=img/fixation3.jpg></div><div class='cl'><div class='vertical-center'>$60<br>for<br>Francisco V</div></div><div class='cr'><div class='vertical-center'>$49<br>for<br>yourself</div></div><div class='respDivL'><div class='vertical-center'>(E)</div></div><div class='respDivR'><div class='vertical-center'>(I)</div></div></div>","I","$49<br>for<br>yourself","$60<br>for<br>4","1","49","60","4","SELF"
"","","","offerFB","6400f1783058946c2b4780cd","bdp_sd","Wed Mar 29 2023 10:23:54 GMT-0500 (Central Daylight Time)","253218","html-keyboard-response","62","223948","0.0-6.0-3.18","","null","","","<div class='trialBorder'><div class='vertical-center'><img style='vertical-align:center; align:center' src=img/fixation3.jpg></div><div class='cl'><div class='vertical-center'>$60<br>for<br>Francisco V</div></div><div class='cr'><div class='vertical-center'><font style='color:orange'>$49<br>for<br>yourself</font></div></div><div class='respDivL'><div class='vertical-center'>(E)</div></div><div class='respDivR'><div class='vertical-center'><font style='color:orange'>(I)</font></div></div></div>","null","$49<br>for<br>yourself","$60<br>for<br>4","1","49","60","4",""
"","","","FIX","6400f1783058946c2b4780cd","bdp_sd","Wed Mar 29 2023 10:23:54 GMT-0500 (Central Daylight Time)","253218","html-keyboard-response","63","224468","0.0-6.0-1.19","","null","","","<div class='trialBorder'><div class='vertical-center'><img style='vertical-align:center; align:center' src=img/fixation3.jpg></div></div>","null","","","","","","",""
"","","","offer","6400f1783058946c2b4780cd","bdp_sd","Wed Mar 29 2023 10:23:54 GMT-0500 (Central Daylight Time)","253218","html-keyboard-response","64","226167","0.0-6.0-2.19","","1698","","","<div class='trialBorder'><div class='vertical-center'><img style='vertical-align:center; align:center' src=img/fixation3.jpg></div><div class='cl'><div class='vertical-center'>$85<br>for<br>Francisco V</div></div><div class='cr'><div class='vertical-center'>$69<br>for<br>yourself</div></div><div class='respDivL'><div class='vertical-center'>(E)</div></div><div class='respDivR'><div class='vertical-center'>(I)</div></div></div>","I","$69<br>for<br>yourself","$85<br>for<br>4","1","69","85","4","SELF"
"","","","offerFB","6400f1783058946c2b4780cd","bdp_sd","Wed Mar 29 2023 10:23:54 GMT-0500 (Central Daylight Time)","253218","html-keyboard-response","65","226418","0.0-6.0-3.19","","null","","","<div class='trialBorder'><div class='vertical-center'><img style='vertical-align:center; align:center' src=img/fixation3.jpg></div><div class='cl'><div class='vertical-center'>$85<br>for<br>Francisco V</div></div><div class='cr'><div class='vertical-center'><font style='color:orange'>$69<br>for<br>yourself</font></div></div><div class='respDivL'><div class='vertical-center'>(E)</div></div><div class='respDivR'><div class='vertical-center'><font style='color:orange'>(I)</font></div></div></div>","null","$69<br>for<br>yourself","$85<br>for<br>4","1","69","85","4",""
"","","","FIX","6400f1783058946c2b4780cd","bdp_sd","Wed Mar 29 2023 10:23:54 GMT-0500 (Central Daylight Time)","253218","html-keyboard-response","66","226933","0.0-6.0-1.20","","null","","","<div class='trialBorder'><div class='vertical-center'><img style='vertical-align:center; align:center' src=img/fixation3.jpg></div></div>","null","","","","","","",""
"","","","offer","6400f1783058946c2b4780cd","bdp_sd","Wed Mar 29 2023 10:23:54 GMT-0500 (Central Daylight Time)","253218","html-keyboard-response","67","228692","0.0-6.0-2.20","","1758","","","<div class='trialBorder'><div class='vertical-center'><img style='vertical-align:center; align:center' src=img/fixation3.jpg></div><div class='cl'><div class='vertical-center'>$28<br>for<br>yourself</div></div><div class='cr'><div class='vertical-center'>$30<br>for<br>Nick K</div></div><div class='respDivL'><div class='vertical-center'>(E)</div></div><div class='respDivR'><div class='vertical-center'>(I)</div></div></div>","E","$28<br>for<br>yourself","$30<br>for<br>5","0","28","30","5","SELF"
"","","","offerFB","6400f1783058946c2b4780cd","bdp_sd","Wed Mar 29 2023 10:23:54 GMT-0500 (Central Daylight Time)","253218","html-keyboard-response","68","228958","0.0-6.0-3.20","","null","","","<div class='trialBorder'><div class='vertical-center'><img style='vertical-align:center; align:center' src=img/fixation3.jpg></div><div class='cl'><div class='vertical-center'><font style='color:orange'>$28<br>for<br>yourself</font></div></div><div class='cr'><div class='vertical-center'>$30<br>for<br>Nick K</div></div><div class='respDivL'><div class='vertical-center'><font style='color:orange'>(E)</font></div></div><div class='respDivR'><div class='vertical-center'>(I)</div></div></div>","null","$28<br>for<br>yourself","$30<br>for<br>5","0","28","30","5",""
"","","","FIX","6400f1783058946c2b4780cd","bdp_sd","Wed Mar 29 2023 10:23:54 GMT-0500 (Central Daylight Time)","253218","html-keyboard-response","69","229478","0.0-6.0-1.21","","null","","","<div class='trialBorder'><div class='vertical-center'><img style='vertical-align:center; align:center' src=img/fixation3.jpg></div></div>","null","","","","","","",""
"","","","offer","6400f1783058946c2b4780cd","bdp_sd","Wed Mar 29 2023 10:23:54 GMT-0500 (Central Daylight Time)","253218","html-keyboard-response","70","231766","0.0-6.0-2.21","","2288","","","<div class='trialBorder'><div class='vertical-center'><img style='vertical-align:center; align:center' src=img/fixation3.jpg></div><div class='cl'><div class='vertical-center'>$31<br>for<br>yourself</div></div><div class='cr'><div class='vertical-center'>$85<br>for<br>Maya V</div></div><div class='respDivL'><div class='vertical-center'>(E)</div></div><div class='respDivR'><div class='vertical-center'>(I)</div></div></div>","I","$31<br>for<br>yourself","$85<br>for<br>1","0","31","85","1","OTHER"
"","","","offerFB","6400f1783058946c2b4780cd","bdp_sd","Wed Mar 29 2023 10:23:54 GMT-0500 (Central Daylight Time)","253218","html-keyboard-response","71","232027","0.0-6.0-3.21","","null","","","<div class='trialBorder'><div class='vertical-center'><img style='vertical-align:center; align:center' src=img/fixation3.jpg></div><div class='cl'><div class='vertical-center'>$31<br>for<br>yourself</div></div><div class='cr'><div class='vertical-center'><font style='color:orange'>$85<br>for<br>Maya V</font></div></div><div class='respDivL'><div class='vertical-center'>(E)</div></div><div class='respDivR'><div class='vertical-center'><font style='color:orange'>(I)</font></div></div></div>","null","$31<br>for<br>yourself","$85<br>for<br>1","0","31","85","1",""
"","","","FIX","6400f1783058946c2b4780cd","bdp_sd","Wed Mar 29 2023 10:23:54 GMT-0500 (Central Daylight Time)","253218","html-keyboard-response","72","232538","0.0-6.0-1.22","","null","","","<div class='trialBorder'><div class='vertical-center'><img style='vertical-align:center; align:center' src=img/fixation3.jpg></div></div>","null","","","","","","",""
"","","","offer","6400f1783058946c2b4780cd","bdp_sd","Wed Mar 29 2023 10:23:54 GMT-0500 (Central Daylight Time)","253218","html-keyboard-response","73","240804","0.0-6.0-2.22","","8266","","","<div class='trialBorder'><div class='vertical-center'><img style='vertical-align:center; align:center' src=img/fixation3.jpg></div><div class='cl'><div class='vertical-center'>$55<br>for<br>Nick K</div></div><div class='cr'><div class='vertical-center'>$54<br>for<br>yourself</div></div><div class='respDivL'><div class='vertical-center'>(E)</div></div><div class='respDivR'><div class='vertical-center'>(I)</div></div></div>","I","$54<br>for<br>yourself","$55<br>for<br>5","1","54","55","5","SELF"
"","","","offerFB","6400f1783058946c2b4780cd","bdp_sd","Wed Mar 29 2023 10:23:54 GMT-0500 (Central Daylight Time)","253218","html-keyboard-response","74","241068","0.0-6.0-3.22","","null","","","<div class='trialBorder'><div class='vertical-center'><img style='vertical-align:center; align:center' src=img/fixation3.jpg></div><div class='cl'><div class='vertical-center'>$55<br>for<br>Nick K</div></div><div class='cr'><div class='vertical-center'><font style='color:orange'>$54<br>for<br>yourself</font></div></div><div class='respDivL'><div class='vertical-center'>(E)</div></div><div class='respDivR'><div class='vertical-center'><font style='color:orange'>(I)</font></div></div></div>","null","$54<br>for<br>yourself","$55<br>for<br>5","1","54","55","5",""
"","","","FIX","6400f1783058946c2b4780cd","bdp_sd","Wed Mar 29 2023 10:23:54 GMT-0500 (Central Daylight Time)","253218","html-keyboard-response","75","241588","0.0-6.0-1.23","","null","","","<div class='trialBorder'><div class='vertical-center'><img style='vertical-align:center; align:center' src=img/fixation3.jpg></div></div>","null","","","","","","",""
"","","","offer","6400f1783058946c2b4780cd","bdp_sd","Wed Mar 29 2023 10:23:54 GMT-0500 (Central Daylight Time)","253218","html-keyboard-response","76","243717","0.0-6.0-2.23","","2128","","","<div class='trialBorder'><div class='vertical-center'><img style='vertical-align:center; align:center' src=img/fixation3.jpg></div><div class='cl'><div class='vertical-center'>$25<br>for<br>Nick K</div></div><div class='cr'><div class='vertical-center'>$22<br>for<br>yourself</div></div><div class='respDivL'><div class='vertical-center'>(E)</div></div><div class='respDivR'><div class='vertical-center'>(I)</div></div></div>","I","$22<br>for<br>yourself","$25<br>for<br>5","1","22","25","5","SELF"
"","","","offerFB","6400f1783058946c2b4780cd","bdp_sd","Wed Mar 29 2023 10:23:54 GMT-0500 (Central Daylight Time)","253218","html-keyboard-response","77","243969","0.0-6.0-3.23","","null","","","<div class='trialBorder'><div class='vertical-center'><img style='vertical-align:center; align:center' src=img/fixation3.jpg></div><div class='cl'><div class='vertical-center'>$25<br>for<br>Nick K</div></div><div class='cr'><div class='vertical-center'><font style='color:orange'>$22<br>for<br>yourself</font></div></div><div class='respDivL'><div class='vertical-center'>(E)</div></div><div class='respDivR'><div class='vertical-center'><font style='color:orange'>(I)</font></div></div></div>","null","$22<br>for<br>yourself","$25<br>for<br>5","1","22","25","5",""
"","","","FIX","6400f1783058946c2b4780cd","bdp_sd","Wed Mar 29 2023 10:23:54 GMT-0500 (Central Daylight Time)","253218","html-keyboard-response","78","244488","0.0-6.0-1.24","","null","","","<div class='trialBorder'><div class='vertical-center'><img style='vertical-align:center; align:center' src=img/fixation3.jpg></div></div>","null","","","","","","",""
"","","","offer","6400f1783058946c2b4780cd","bdp_sd","Wed Mar 29 2023 10:23:54 GMT-0500 (Central Daylight Time)","253218","html-keyboard-response","79","246067","0.0-6.0-2.24","","1578","","","<div class='trialBorder'><div class='vertical-center'><img style='vertical-align:center; align:center' src=img/fixation3.jpg></div><div class='cl'><div class='vertical-center'>$34<br>for<br>yourself</div></div><div class='cr'><div class='vertical-center'>$50<br>for<br>Francisco V</div></div><div class='respDivL'><div class='vertical-center'>(E)</div></div><div class='respDivR'><div class='vertical-center'>(I)</div></div></div>","E","$34<br>for<br>yourself","$50<br>for<br>4","0","34","50","4","SELF"
"","","","offerFB","6400f1783058946c2b4780cd","bdp_sd","Wed Mar 29 2023 10:23:54 GMT-0500 (Central Daylight Time)","253218","html-keyboard-response","80","246318","0.0-6.0-3.24","","null","","","<div class='trialBorder'><div class='vertical-center'><img style='vertical-align:center; align:center' src=img/fixation3.jpg></div><div class='cl'><div class='vertical-center'><font style='color:orange'>$34<br>for<br>yourself</font></div></div><div class='cr'><div class='vertical-center'>$50<br>for<br>Francisco V</div></div><div class='respDivL'><div class='vertical-center'><font style='color:orange'>(E)</font></div></div><div class='respDivR'><div class='vertical-center'>(I)</div></div></div>","null","$34<br>for<br>yourself","$50<br>for<br>4","0","34","50","4",""
"","","","FIX","6400f1783058946c2b4780cd","bdp_sd","Wed Mar 29 2023 10:23:54 GMT-0500 (Central Daylight Time)","253218","html-keyboard-response","81","246838","0.0-6.0-1.25","","null","","","<div class='trialBorder'><div class='vertical-center'><img style='vertical-align:center; align:center' src=img/fixation3.jpg></div></div>","null","","","","","","",""
"","","","offer","6400f1783058946c2b4780cd","bdp_sd","Wed Mar 29 2023 10:23:54 GMT-0500 (Central Daylight Time)","253218","html-keyboard-response","82","248879","0.0-6.0-2.25","","2040","","","<div class='trialBorder'><div class='vertical-center'><img style='vertical-align:center; align:center' src=img/fixation3.jpg></div><div class='cl'><div class='vertical-center'>$50<br>for<br>Kellen B</div></div><div class='cr'><div class='vertical-center'>$27<br>for<br>yourself</div></div><div class='respDivL'><div class='vertical-center'>(E)</div></div><div class='respDivR'><div class='vertical-center'>(I)</div></div></div>","E","$27<br>for<br>yourself","$50<br>for<br>3","1","27","50","3","OTHER"
"","","","offerFB","6400f1783058946c2b4780cd","bdp_sd","Wed Mar 29 2023 10:23:54 GMT-0500 (Central Daylight Time)","253218","html-keyboard-response","83","249138","0.0-6.0-3.25","","null","","","<div class='trialBorder'><div class='vertical-center'><img style='vertical-align:center; align:center' src=img/fixation3.jpg></div><div class='cl'><div class='vertical-center'><font style='color:orange'>$50<br>for<br>Kellen B</font></div></div><div class='cr'><div class='vertical-center'>$27<br>for<br>yourself</div></div><div class='respDivL'><div class='vertical-center'><font style='color:orange'>(E)</font></div></div><div class='respDivR'><div class='vertical-center'>(I)</div></div></div>","null","$27<br>for<br>yourself","$50<br>for<br>3","1","27","50","3",""
"","","","FIX","6400f1783058946c2b4780cd","bdp_sd","Wed Mar 29 2023 10:23:54 GMT-0500 (Central Daylight Time)","253218","html-keyboard-response","84","249658","0.0-6.0-1.26","","null","","","<div class='trialBorder'><div class='vertical-center'><img style='vertical-align:center; align:center' src=img/fixation3.jpg></div></div>","null","","","","","","",""
"","","","offer","6400f1783058946c2b4780cd","bdp_sd","Wed Mar 29 2023 10:23:54 GMT-0500 (Central Daylight Time)","253218","html-keyboard-response","85","251942","0.0-6.0-2.26","","2283","","","<div class='trialBorder'><div class='vertical-center'><img style='vertical-align:center; align:center' src=img/fixation3.jpg></div><div class='cl'><div class='vertical-center'>$30<br>for<br>Francisco V</div></div><div class='cr'><div class='vertical-center'>$25<br>for<br>yourself</div></div><div class='respDivL'><div class='vertical-center'>(E)</div></div><div class='respDivR'><div class='vertical-center'>(I)</div></div></div>","I","$25<br>for<br>yourself","$30<br>for<br>4","1","25","30","4","SELF"
"","","","offerFB","6400f1783058946c2b4780cd","bdp_sd","Wed Mar 29 2023 10:23:54 GMT-0500 (Central Daylight Time)","253218","html-keyboard-response","86","252198","0.0-6.0-3.26","","null","","","<div class='trialBorder'><div class='vertical-center'><img style='vertical-align:center; align:center' src=img/fixation3.jpg></div><div class='cl'><div class='vertical-center'>$30<br>for<br>Francisco V</div></div><div class='cr'><div class='vertical-center'><font style='color:orange'>$25<br>for<br>yourself</font></div></div><div class='respDivL'><div class='vertical-center'>(E)</div></div><div class='respDivR'><div class='vertical-center'><font style='color:orange'>(I)</font></div></div></div>","null","$25<br>for<br>yourself","$30<br>for<br>4","1","25","30","4",""
"fullscreenexit","87","252472","fullscreenexit","6400f1783058946c2b4780cd","bdp_sd","Wed Mar 29 2023 10:23:54 GMT-0500 (Central Daylight Time)","253218","","","","","","","","","","","","","","","","",""
"","","","","6400f1783058946c2b4780cd","bdp_sd","Wed Mar 29 2023 10:23:54 GMT-0500 (Central Daylight Time)","253218","fullscreen","87","253218","0.0-7.0","","","","true","","","","","","","","",""
"","","","","","","","","html-keyboard-response","88","253728","0.0-8.0","","null","","","","null","","","","","","",""
