"trial_type","trial_index","time_elapsed","internal_node_id","subject_id","task","startTime","totalTime","view_history","rt","responses","event","trial","time","trialtype","success","stimulus","key_press","selfOffer","otherOffer","otherLeft","selfAmt","otherAmt","otherDist","chosen"
"pavlovia","0","2","0.0-0.0","594936ad4152bf0001bfd5cd","bdp_sd","Sat Mar 25 2023 20:57:43 GMT-0400 (Eastern Daylight Time)","302401","","","","","","","","","","","","","","","","",""
"instructions","1","30241","0.0-1.0","594936ad4152bf0001bfd5cd","bdp_sd","Sat Mar 25 2023 20:57:43 GMT-0400 (Eastern Daylight Time)","302401","[{""page_index"":0,""viewing_time"":30239}]","30239","","","","","","","","","","","","","","",""
"survey-text","2","189844","0.0-2.0","594936ad4152bf0001bfd5cd","bdp_sd","Sat Mar 25 2023 20:57:43 GMT-0400 (Eastern Daylight Time)","302401","","159601","{""Q0"":""Claude M"",""Q1"":""George M"",""Q2"":""Charlie C"",""Q3"":""Boar D"",""Q4"":""Lav D""}","","","","","","","","","","","","","",""
"","","","","594936ad4152bf0001bfd5cd","bdp_sd","Sat Mar 25 2023 20:57:43 GMT-0400 (Eastern Daylight Time)","302401","","","","fullscreenenter","3","190751","fullscreenenter","","","","","","","","","",""
"fullscreen","3","191739","0.0-3.0","594936ad4152bf0001bfd5cd","bdp_sd","Sat Mar 25 2023 20:57:43 GMT-0400 (Eastern Daylight Time)","302401","","","","","","","","true","","","","","","","","",""
"instructions","4","207019","0.0-5.0","594936ad4152bf0001bfd5cd","bdp_sd","Sat Mar 25 2023 20:57:43 GMT-0400 (Eastern Daylight Time)","302401","[{""page_index"":0,""viewing_time"":6143},{""page_index"":1,""viewing_time"":4520},{""page_index"":2,""viewing_time"":4617}]","15280","","","","","","","","","","","","","","",""
"html-keyboard-response","5","207521","0.0-6.0-1.0","594936ad4152bf0001bfd5cd","bdp_sd","Sat Mar 25 2023 20:57:43 GMT-0400 (Eastern Daylight Time)","302401","","null","","","","","FIX","","<div class='trialBorder'><div class='vertical-center'><img style='vertical-align:center; align:center' src=img/fixation3.jpg></div></div>","null","","","","","","",""
"html-keyboard-response","6","210967","0.0-6.0-2.0","594936ad4152bf0001bfd5cd","bdp_sd","Sat Mar 25 2023 20:57:43 GMT-0400 (Eastern Daylight Time)","302401","","3443","","","","","offer","","<div class='trialBorder'><div class='vertical-center'><img style='vertical-align:center; align:center' src=img/fixation3.jpg></div><div class='cl'><div class='vertical-center'>$35<br>for<br>Lav D</div></div><div class='cr'><div class='vertical-center'>$34<br>for<br>yourself</div></div><div class='respDivL'><div class='vertical-center'>(E)</div></div><div class='respDivR'><div class='vertical-center'>(I)</div></div></div>","I","$34<br>for<br>yourself","$35<br>for<br>5","1","34","35","5","SELF"
"html-keyboard-response","7","211219","0.0-6.0-3.0","594936ad4152bf0001bfd5cd","bdp_sd","Sat Mar 25 2023 20:57:43 GMT-0400 (Eastern Daylight Time)","302401","","null","","","","","offerFB","","<div class='trialBorder'><div class='vertical-center'><img style='vertical-align:center; align:center' src=img/fixation3.jpg></div><div class='cl'><div class='vertical-center'>$35<br>for<br>Lav D</div></div><div class='cr'><div class='vertical-center'><font style='color:orange'>$34<br>for<br>yourself</font></div></div><div class='respDivL'><div class='vertical-center'>(E)</div></div><div class='respDivR'><div class='vertical-center'><font style='color:orange'>(I)</font></div></div></div>","null","$34<br>for<br>yourself","$35<br>for<br>5","1","34","35","5",""
"html-keyboard-response","8","211720","0.0-6.0-1.1","594936ad4152bf0001bfd5cd","bdp_sd","Sat Mar 25 2023 20:57:43 GMT-0400 (Eastern Daylight Time)","302401","","null","","","","","FIX","","<div class='trialBorder'><div class='vertical-center'><img style='vertical-align:center; align:center' src=img/fixation3.jpg></div></div>","null","","","","","","",""
"html-keyboard-response","9","215219","0.0-6.0-2.1","594936ad4152bf0001bfd5cd","bdp_sd","Sat Mar 25 2023 20:57:43 GMT-0400 (Eastern Daylight Time)","302401","","3498","","","","","offer","","<div class='trialBorder'><div class='vertical-center'><img style='vertical-align:center; align:center' src=img/fixation3.jpg></div><div class='cl'><div class='vertical-center'>$50<br>for<br>Lav D</div></div><div class='cr'><div class='vertical-center'>$47<br>for<br>yourself</div></div><div class='respDivL'><div class='vertical-center'>(E)</div></div><div class='respDivR'><div class='vertical-center'>(I)</div></div></div>","I","$47<br>for<br>yourself","$50<br>for<br>5","1","47","50","5","SELF"
"html-keyboard-response","10","215470","0.0-6.0-3.1","594936ad4152bf0001bfd5cd","bdp_sd","Sat Mar 25 2023 20:57:43 GMT-0400 (Eastern Daylight Time)","302401","","null","","","","","offerFB","","<div class='trialBorder'><div class='vertical-center'><img style='vertical-align:center; align:center' src=img/fixation3.jpg></div><div class='cl'><div class='vertical-center'>$50<br>for<br>Lav D</div></div><div class='cr'><div class='vertical-center'><font style='color:orange'>$47<br>for<br>yourself</font></div></div><div class='respDivL'><div class='vertical-center'>(E)</div></div><div class='respDivR'><div class='vertical-center'><font style='color:orange'>(I)</font></div></div></div>","null","$47<br>for<br>yourself","$50<br>for<br>5","1","47","50","5",""
"html-keyboard-response","11","215971","0.0-6.0-1.2","594936ad4152bf0001bfd5cd","bdp_sd","Sat Mar 25 2023 20:57:43 GMT-0400 (Eastern Daylight Time)","302401","","null","","","","","FIX","","<div class='trialBorder'><div class='vertical-center'><img style='vertical-align:center; align:center' src=img/fixation3.jpg></div></div>","null","","","","","","",""
"html-keyboard-response","12","218614","0.0-6.0-2.2","594936ad4152bf0001bfd5cd","bdp_sd","Sat Mar 25 2023 20:57:43 GMT-0400 (Eastern Daylight Time)","302401","","2643","","","","","offer","","<div class='trialBorder'><div class='vertical-center'><img style='vertical-align:center; align:center' src=img/fixation3.jpg></div><div class='cl'><div class='vertical-center'>$25<br>for<br>Lav D</div></div><div class='cr'><div class='vertical-center'>$22<br>for<br>yourself</div></div><div class='respDivL'><div class='vertical-center'>(E)</div></div><div class='respDivR'><div class='vertical-center'>(I)</div></div></div>","E","$22<br>for<br>yourself","$25<br>for<br>5","1","22","25","5","OTHER"
"html-keyboard-response","13","218867","0.0-6.0-3.2","594936ad4152bf0001bfd5cd","bdp_sd","Sat Mar 25 2023 20:57:43 GMT-0400 (Eastern Daylight Time)","302401","","null","","","","","offerFB","","<div class='trialBorder'><div class='vertical-center'><img style='vertical-align:center; align:center' src=img/fixation3.jpg></div><div class='cl'><div class='vertical-center'><font style='color:orange'>$25<br>for<br>Lav D</font></div></div><div class='cr'><div class='vertical-center'>$22<br>for<br>yourself</div></div><div class='respDivL'><div class='vertical-center'><font style='color:orange'>(E)</font></div></div><div class='respDivR'><div class='vertical-center'>(I)</div></div></div>","null","$22<br>for<br>yourself","$25<br>for<br>5","1","22","25","5",""
"html-keyboard-response","14","219368","0.0-6.0-1.3","594936ad4152bf0001bfd5cd","bdp_sd","Sat Mar 25 2023 20:57:43 GMT-0400 (Eastern Daylight Time)","302401","","null","","","","","FIX","","<div class='trialBorder'><div class='vertical-center'><img style='vertical-align:center; align:center' src=img/fixation3.jpg></div></div>","null","","","","","","",""
"html-keyboard-response","15","223322","0.0-6.0-2.3","594936ad4152bf0001bfd5cd","bdp_sd","Sat Mar 25 2023 20:57:43 GMT-0400 (Eastern Daylight Time)","302401","","3953","","","","","offer","","<div class='trialBorder'><div class='vertical-center'><img style='vertical-align:center; align:center' src=img/fixation3.jpg></div><div class='cl'><div class='vertical-center'>$28<br>for<br>yourself</div></div><div class='cr'><div class='vertical-center'>$30<br>for<br>Lav D</div></div><div class='respDivL'><div class='vertical-center'>(E)</div></div><div class='respDivR'><div class='vertical-center'>(I)</div></div></div>","I","$28<br>for<br>yourself","$30<br>for<br>5","0","28","30","5","OTHER"
"html-keyboard-response","16","223576","0.0-6.0-3.3","594936ad4152bf0001bfd5cd","bdp_sd","Sat Mar 25 2023 20:57:43 GMT-0400 (Eastern Daylight Time)","302401","","null","","","","","offerFB","","<div class='trialBorder'><div class='vertical-center'><img style='vertical-align:center; align:center' src=img/fixation3.jpg></div><div class='cl'><div class='vertical-center'>$28<br>for<br>yourself</div></div><div class='cr'><div class='vertical-center'><font style='color:orange'>$30<br>for<br>Lav D</font></div></div><div class='respDivL'><div class='vertical-center'>(E)</div></div><div class='respDivR'><div class='vertical-center'><font style='color:orange'>(I)</font></div></div></div>","null","$28<br>for<br>yourself","$30<br>for<br>5","0","28","30","5",""
"html-keyboard-response","17","224078","0.0-6.0-1.4","594936ad4152bf0001bfd5cd","bdp_sd","Sat Mar 25 2023 20:57:43 GMT-0400 (Eastern Daylight Time)","302401","","null","","","","","FIX","","<div class='trialBorder'><div class='vertical-center'><img style='vertical-align:center; align:center' src=img/fixation3.jpg></div></div>","null","","","","","","",""
"html-keyboard-response","18","225630","0.0-6.0-2.4","594936ad4152bf0001bfd5cd","bdp_sd","Sat Mar 25 2023 20:57:43 GMT-0400 (Eastern Daylight Time)","302401","","1551","","","","","offer","","<div class='trialBorder'><div class='vertical-center'><img style='vertical-align:center; align:center' src=img/fixation3.jpg></div><div class='cl'><div class='vertical-center'>$55<br>for<br>Lav D</div></div><div class='cr'><div class='vertical-center'>$54<br>for<br>yourself</div></div><div class='respDivL'><div class='vertical-center'>(E)</div></div><div class='respDivR'><div class='vertical-center'>(I)</div></div></div>","I","$54<br>for<br>yourself","$55<br>for<br>5","1","54","55","5","SELF"
"html-keyboard-response","19","225883","0.0-6.0-3.4","594936ad4152bf0001bfd5cd","bdp_sd","Sat Mar 25 2023 20:57:43 GMT-0400 (Eastern Daylight Time)","302401","","null","","","","","offerFB","","<div class='trialBorder'><div class='vertical-center'><img style='vertical-align:center; align:center' src=img/fixation3.jpg></div><div class='cl'><div class='vertical-center'>$55<br>for<br>Lav D</div></div><div class='cr'><div class='vertical-center'><font style='color:orange'>$54<br>for<br>yourself</font></div></div><div class='respDivL'><div class='vertical-center'>(E)</div></div><div class='respDivR'><div class='vertical-center'><font style='color:orange'>(I)</font></div></div></div>","null","$54<br>for<br>yourself","$55<br>for<br>5","1","54","55","5",""
"html-keyboard-response","20","226384","0.0-6.0-1.5","594936ad4152bf0001bfd5cd","bdp_sd","Sat Mar 25 2023 20:57:43 GMT-0400 (Eastern Daylight Time)","302401","","null","","","","","FIX","","<div class='trialBorder'><div class='vertical-center'><img style='vertical-align:center; align:center' src=img/fixation3.jpg></div></div>","null","","","","","","",""
"html-keyboard-response","21","228462","0.0-6.0-2.5","594936ad4152bf0001bfd5cd","bdp_sd","Sat Mar 25 2023 20:57:43 GMT-0400 (Eastern Daylight Time)","302401","","2077","","","","","offer","","<div class='trialBorder'><div class='vertical-center'><img style='vertical-align:center; align:center' src=img/fixation3.jpg></div><div class='cl'><div class='vertical-center'>$25<br>for<br>Charlie C</div></div><div class='cr'><div class='vertical-center'>$14<br>for<br>yourself</div></div><div class='respDivL'><div class='vertical-center'>(E)</div></div><div class='respDivR'><div class='vertical-center'>(I)</div></div></div>","E","$14<br>for<br>yourself","$25<br>for<br>3","1","14","25","3","OTHER"
"html-keyboard-response","22","228714","0.0-6.0-3.5","594936ad4152bf0001bfd5cd","bdp_sd","Sat Mar 25 2023 20:57:43 GMT-0400 (Eastern Daylight Time)","302401","","null","","","","","offerFB","","<div class='trialBorder'><div class='vertical-center'><img style='vertical-align:center; align:center' src=img/fixation3.jpg></div><div class='cl'><div class='vertical-center'><font style='color:orange'>$25<br>for<br>Charlie C</font></div></div><div class='cr'><div class='vertical-center'>$14<br>for<br>yourself</div></div><div class='respDivL'><div class='vertical-center'><font style='color:orange'>(E)</font></div></div><div class='respDivR'><div class='vertical-center'>(I)</div></div></div>","null","$14<br>for<br>yourself","$25<br>for<br>3","1","14","25","3",""
"html-keyboard-response","23","229215","0.0-6.0-1.6","594936ad4152bf0001bfd5cd","bdp_sd","Sat Mar 25 2023 20:57:43 GMT-0400 (Eastern Daylight Time)","302401","","null","","","","","FIX","","<div class='trialBorder'><div class='vertical-center'><img style='vertical-align:center; align:center' src=img/fixation3.jpg></div></div>","null","","","","","","",""
"html-keyboard-response","24","233264","0.0-6.0-2.6","594936ad4152bf0001bfd5cd","bdp_sd","Sat Mar 25 2023 20:57:43 GMT-0400 (Eastern Daylight Time)","302401","","4048","","","","","offer","","<div class='trialBorder'><div class='vertical-center'><img style='vertical-align:center; align:center' src=img/fixation3.jpg></div><div class='cl'><div class='vertical-center'>$19<br>for<br>yourself</div></div><div class='cr'><div class='vertical-center'>$25<br>for<br>Boar D</div></div><div class='respDivL'><div class='vertical-center'>(E)</div></div><div class='respDivR'><div class='vertical-center'>(I)</div></div></div>","I","$19<br>for<br>yourself","$25<br>for<br>4","0","19","25","4","OTHER"
"html-keyboard-response","25","233517","0.0-6.0-3.6","594936ad4152bf0001bfd5cd","bdp_sd","Sat Mar 25 2023 20:57:43 GMT-0400 (Eastern Daylight Time)","302401","","null","","","","","offerFB","","<div class='trialBorder'><div class='vertical-center'><img style='vertical-align:center; align:center' src=img/fixation3.jpg></div><div class='cl'><div class='vertical-center'>$19<br>for<br>yourself</div></div><div class='cr'><div class='vertical-center'><font style='color:orange'>$25<br>for<br>Boar D</font></div></div><div class='respDivL'><div class='vertical-center'>(E)</div></div><div class='respDivR'><div class='vertical-center'><font style='color:orange'>(I)</font></div></div></div>","null","$19<br>for<br>yourself","$25<br>for<br>4","0","19","25","4",""
"html-keyboard-response","26","234019","0.0-6.0-1.7","594936ad4152bf0001bfd5cd","bdp_sd","Sat Mar 25 2023 20:57:43 GMT-0400 (Eastern Daylight Time)","302401","","null","","","","","FIX","","<div class='trialBorder'><div class='vertical-center'><img style='vertical-align:center; align:center' src=img/fixation3.jpg></div></div>","null","","","","","","",""
"html-keyboard-response","27","238101","0.0-6.0-2.7","594936ad4152bf0001bfd5cd","bdp_sd","Sat Mar 25 2023 20:57:43 GMT-0400 (Eastern Daylight Time)","302401","","4082","","","","","offer","","<div class='trialBorder'><div class='vertical-center'><img style='vertical-align:center; align:center' src=img/fixation3.jpg></div><div class='cl'><div class='vertical-center'>$60<br>for<br>Boar D</div></div><div class='cr'><div class='vertical-center'>$49<br>for<br>yourself</div></div><div class='respDivL'><div class='vertical-center'>(E)</div></div><div class='respDivR'><div class='vertical-center'>(I)</div></div></div>","E","$49<br>for<br>yourself","$60<br>for<br>4","1","49","60","4","OTHER"
"html-keyboard-response","28","238354","0.0-6.0-3.7","594936ad4152bf0001bfd5cd","bdp_sd","Sat Mar 25 2023 20:57:43 GMT-0400 (Eastern Daylight Time)","302401","","null","","","","","offerFB","","<div class='trialBorder'><div class='vertical-center'><img style='vertical-align:center; align:center' src=img/fixation3.jpg></div><div class='cl'><div class='vertical-center'><font style='color:orange'>$60<br>for<br>Boar D</font></div></div><div class='cr'><div class='vertical-center'>$49<br>for<br>yourself</div></div><div class='respDivL'><div class='vertical-center'><font style='color:orange'>(E)</font></div></div><div class='respDivR'><div class='vertical-center'>(I)</div></div></div>","null","$49<br>for<br>yourself","$60<br>for<br>4","1","49","60","4",""
"html-keyboard-response","29","238857","0.0-6.0-1.8","594936ad4152bf0001bfd5cd","bdp_sd","Sat Mar 25 2023 20:57:43 GMT-0400 (Eastern Daylight Time)","302401","","null","","","","","FIX","","<div class='trialBorder'><div class='vertical-center'><img style='vertical-align:center; align:center' src=img/fixation3.jpg></div></div>","null","","","","","","",""
"html-keyboard-response","30","240958","0.0-6.0-2.8","594936ad4152bf0001bfd5cd","bdp_sd","Sat Mar 25 2023 20:57:43 GMT-0400 (Eastern Daylight Time)","302401","","2100","","","","","offer","","<div class='trialBorder'><div class='vertical-center'><img style='vertical-align:center; align:center' src=img/fixation3.jpg></div><div class='cl'><div class='vertical-center'>$50<br>for<br>Charlie C</div></div><div class='cr'><div class='vertical-center'>$27<br>for<br>yourself</div></div><div class='respDivL'><div class='vertical-center'>(E)</div></div><div class='respDivR'><div class='vertical-center'>(I)</div></div></div>","E","$27<br>for<br>yourself","$50<br>for<br>3","1","27","50","3","OTHER"
"html-keyboard-response","31","241210","0.0-6.0-3.8","594936ad4152bf0001bfd5cd","bdp_sd","Sat Mar 25 2023 20:57:43 GMT-0400 (Eastern Daylight Time)","302401","","null","","","","","offerFB","","<div class='trialBorder'><div class='vertical-center'><img style='vertical-align:center; align:center' src=img/fixation3.jpg></div><div class='cl'><div class='vertical-center'><font style='color:orange'>$50<br>for<br>Charlie C</font></div></div><div class='cr'><div class='vertical-center'>$27<br>for<br>yourself</div></div><div class='respDivL'><div class='vertical-center'><font style='color:orange'>(E)</font></div></div><div class='respDivR'><div class='vertical-center'>(I)</div></div></div>","null","$27<br>for<br>yourself","$50<br>for<br>3","1","27","50","3",""
"html-keyboard-response","32","241712","0.0-6.0-1.9","594936ad4152bf0001bfd5cd","bdp_sd","Sat Mar 25 2023 20:57:43 GMT-0400 (Eastern Daylight Time)","302401","","null","","","","","FIX","","<div class='trialBorder'><div class='vertical-center'><img style='vertical-align:center; align:center' src=img/fixation3.jpg></div></div>","null","","","","","","",""
"html-keyboard-response","33","245917","0.0-6.0-2.9","594936ad4152bf0001bfd5cd","bdp_sd","Sat Mar 25 2023 20:57:43 GMT-0400 (Eastern Daylight Time)","302401","","4203","","","","","offer","","<div class='trialBorder'><div class='vertical-center'><img style='vertical-align:center; align:center' src=img/fixation3.jpg></div><div class='cl'><div class='vertical-center'>$60<br>for<br>Charlie C</div></div><div class='cr'><div class='vertical-center'>$25<br>for<br>yourself</div></div><div class='respDivL'><div class='vertical-center'>(E)</div></div><div class='respDivR'><div class='vertical-center'>(I)</div></div></div>","E","$25<br>for<br>yourself","$60<br>for<br>3","1","25","60","3","OTHER"
"html-keyboard-response","34","246170","0.0-6.0-3.9","594936ad4152bf0001bfd5cd","bdp_sd","Sat Mar 25 2023 20:57:43 GMT-0400 (Eastern Daylight Time)","302401","","null","","","","","offerFB","","<div class='trialBorder'><div class='vertical-center'><img style='vertical-align:center; align:center' src=img/fixation3.jpg></div><div class='cl'><div class='vertical-center'><font style='color:orange'>$60<br>for<br>Charlie C</font></div></div><div class='cr'><div class='vertical-center'>$25<br>for<br>yourself</div></div><div class='respDivL'><div class='vertical-center'><font style='color:orange'>(E)</font></div></div><div class='respDivR'><div class='vertical-center'>(I)</div></div></div>","null","$25<br>for<br>yourself","$60<br>for<br>3","1","25","60","3",""
"html-keyboard-response","35","246672","0.0-6.0-1.10","594936ad4152bf0001bfd5cd","bdp_sd","Sat Mar 25 2023 20:57:43 GMT-0400 (Eastern Daylight Time)","302401","","null","","","","","FIX","","<div class='trialBorder'><div class='vertical-center'><img style='vertical-align:center; align:center' src=img/fixation3.jpg></div></div>","null","","","","","","",""
"html-keyboard-response","36","248409","0.0-6.0-2.10","594936ad4152bf0001bfd5cd","bdp_sd","Sat Mar 25 2023 20:57:43 GMT-0400 (Eastern Daylight Time)","302401","","1737","","","","","offer","","<div class='trialBorder'><div class='vertical-center'><img style='vertical-align:center; align:center' src=img/fixation3.jpg></div><div class='cl'><div class='vertical-center'>$55<br>for<br>Boar D</div></div><div class='cr'><div class='vertical-center'>$40<br>for<br>yourself</div></div><div class='respDivL'><div class='vertical-center'>(E)</div></div><div class='respDivR'><div class='vertical-center'>(I)</div></div></div>","I","$40<br>for<br>yourself","$55<br>for<br>4","1","40","55","4","SELF"
"html-keyboard-response","37","248660","0.0-6.0-3.10","594936ad4152bf0001bfd5cd","bdp_sd","Sat Mar 25 2023 20:57:43 GMT-0400 (Eastern Daylight Time)","302401","","null","","","","","offerFB","","<div class='trialBorder'><div class='vertical-center'><img style='vertical-align:center; align:center' src=img/fixation3.jpg></div><div class='cl'><div class='vertical-center'>$55<br>for<br>Boar D</div></div><div class='cr'><div class='vertical-center'><font style='color:orange'>$40<br>for<br>yourself</font></div></div><div class='respDivL'><div class='vertical-center'>(E)</div></div><div class='respDivR'><div class='vertical-center'><font style='color:orange'>(I)</font></div></div></div>","null","$40<br>for<br>yourself","$55<br>for<br>4","1","40","55","4",""
"html-keyboard-response","38","249161","0.0-6.0-1.11","594936ad4152bf0001bfd5cd","bdp_sd","Sat Mar 25 2023 20:57:43 GMT-0400 (Eastern Daylight Time)","302401","","null","","","","","FIX","","<div class='trialBorder'><div class='vertical-center'><img style='vertical-align:center; align:center' src=img/fixation3.jpg></div></div>","null","","","","","","",""
"html-keyboard-response","39","250792","0.0-6.0-2.11","594936ad4152bf0001bfd5cd","bdp_sd","Sat Mar 25 2023 20:57:43 GMT-0400 (Eastern Daylight Time)","302401","","1631","","","","","offer","","<div class='trialBorder'><div class='vertical-center'><img style='vertical-align:center; align:center' src=img/fixation3.jpg></div><div class='cl'><div class='vertical-center'>$50<br>for<br>Boar D</div></div><div class='cr'><div class='vertical-center'>$34<br>for<br>yourself</div></div><div class='respDivL'><div class='vertical-center'>(E)</div></div><div class='respDivR'><div class='vertical-center'>(I)</div></div></div>","I","$34<br>for<br>yourself","$50<br>for<br>4","1","34","50","4","SELF"
"html-keyboard-response","40","251044","0.0-6.0-3.11","594936ad4152bf0001bfd5cd","bdp_sd","Sat Mar 25 2023 20:57:43 GMT-0400 (Eastern Daylight Time)","302401","","null","","","","","offerFB","","<div class='trialBorder'><div class='vertical-center'><img style='vertical-align:center; align:center' src=img/fixation3.jpg></div><div class='cl'><div class='vertical-center'>$50<br>for<br>Boar D</div></div><div class='cr'><div class='vertical-center'><font style='color:orange'>$34<br>for<br>yourself</font></div></div><div class='respDivL'><div class='vertical-center'>(E)</div></div><div class='respDivR'><div class='vertical-center'><font style='color:orange'>(I)</font></div></div></div>","null","$34<br>for<br>yourself","$50<br>for<br>4","1","34","50","4",""
"html-keyboard-response","41","251545","0.0-6.0-1.12","594936ad4152bf0001bfd5cd","bdp_sd","Sat Mar 25 2023 20:57:43 GMT-0400 (Eastern Daylight Time)","302401","","null","","","","","FIX","","<div class='trialBorder'><div class='vertical-center'><img style='vertical-align:center; align:center' src=img/fixation3.jpg></div></div>","null","","","","","","",""
"html-keyboard-response","42","253772","0.0-6.0-2.12","594936ad4152bf0001bfd5cd","bdp_sd","Sat Mar 25 2023 20:57:43 GMT-0400 (Eastern Daylight Time)","302401","","2226","","","","","offer","","<div class='trialBorder'><div class='vertical-center'><img style='vertical-align:center; align:center' src=img/fixation3.jpg></div><div class='cl'><div class='vertical-center'>$54<br>for<br>yourself</div></div><div class='cr'><div class='vertical-center'>$80<br>for<br>Charlie C</div></div><div class='respDivL'><div class='vertical-center'>(E)</div></div><div class='respDivR'><div class='vertical-center'>(I)</div></div></div>","I","$54<br>for<br>yourself","$80<br>for<br>3","0","54","80","3","OTHER"
"html-keyboard-response","43","254025","0.0-6.0-3.12","594936ad4152bf0001bfd5cd","bdp_sd","Sat Mar 25 2023 20:57:43 GMT-0400 (Eastern Daylight Time)","302401","","null","","","","","offerFB","","<div class='trialBorder'><div class='vertical-center'><img style='vertical-align:center; align:center' src=img/fixation3.jpg></div><div class='cl'><div class='vertical-center'>$54<br>for<br>yourself</div></div><div class='cr'><div class='vertical-center'><font style='color:orange'>$80<br>for<br>Charlie C</font></div></div><div class='respDivL'><div class='vertical-center'>(E)</div></div><div class='respDivR'><div class='vertical-center'><font style='color:orange'>(I)</font></div></div></div>","null","$54<br>for<br>yourself","$80<br>for<br>3","0","54","80","3",""
"html-keyboard-response","44","254527","0.0-6.0-1.13","594936ad4152bf0001bfd5cd","bdp_sd","Sat Mar 25 2023 20:57:43 GMT-0400 (Eastern Daylight Time)","302401","","null","","","","","FIX","","<div class='trialBorder'><div class='vertical-center'><img style='vertical-align:center; align:center' src=img/fixation3.jpg></div></div>","null","","","","","","",""
"html-keyboard-response","45","257827","0.0-6.0-2.13","594936ad4152bf0001bfd5cd","bdp_sd","Sat Mar 25 2023 20:57:43 GMT-0400 (Eastern Daylight Time)","302401","","3299","","","","","offer","","<div class='trialBorder'><div class='vertical-center'><img style='vertical-align:center; align:center' src=img/fixation3.jpg></div><div class='cl'><div class='vertical-center'>$35<br>for<br>Charlie C</div></div><div class='cr'><div class='vertical-center'>$24<br>for<br>yourself</div></div><div class='respDivL'><div class='vertical-center'>(E)</div></div><div class='respDivR'><div class='vertical-center'>(I)</div></div></div>","E","$24<br>for<br>yourself","$35<br>for<br>3","1","24","35","3","OTHER"
"html-keyboard-response","46","258080","0.0-6.0-3.13","594936ad4152bf0001bfd5cd","bdp_sd","Sat Mar 25 2023 20:57:43 GMT-0400 (Eastern Daylight Time)","302401","","null","","","","","offerFB","","<div class='trialBorder'><div class='vertical-center'><img style='vertical-align:center; align:center' src=img/fixation3.jpg></div><div class='cl'><div class='vertical-center'><font style='color:orange'>$35<br>for<br>Charlie C</font></div></div><div class='cr'><div class='vertical-center'>$24<br>for<br>yourself</div></div><div class='respDivL'><div class='vertical-center'><font style='color:orange'>(E)</font></div></div><div class='respDivR'><div class='vertical-center'>(I)</div></div></div>","null","$24<br>for<br>yourself","$35<br>for<br>3","1","24","35","3",""
"html-keyboard-response","47","258581","0.0-6.0-1.14","594936ad4152bf0001bfd5cd","bdp_sd","Sat Mar 25 2023 20:57:43 GMT-0400 (Eastern Daylight Time)","302401","","null","","","","","FIX","","<div class='trialBorder'><div class='vertical-center'><img style='vertical-align:center; align:center' src=img/fixation3.jpg></div></div>","null","","","","","","",""
"html-keyboard-response","48","261319","0.0-6.0-2.14","594936ad4152bf0001bfd5cd","bdp_sd","Sat Mar 25 2023 20:57:43 GMT-0400 (Eastern Daylight Time)","302401","","2738","","","","","offer","","<div class='trialBorder'><div class='vertical-center'><img style='vertical-align:center; align:center' src=img/fixation3.jpg></div><div class='cl'><div class='vertical-center'>$54<br>for<br>yourself</div></div><div class='cr'><div class='vertical-center'>$60<br>for<br>Lav D</div></div><div class='respDivL'><div class='vertical-center'>(E)</div></div><div class='respDivR'><div class='vertical-center'>(I)</div></div></div>","E","$54<br>for<br>yourself","$60<br>for<br>5","0","54","60","5","SELF"
"html-keyboard-response","49","261574","0.0-6.0-3.14","594936ad4152bf0001bfd5cd","bdp_sd","Sat Mar 25 2023 20:57:43 GMT-0400 (Eastern Daylight Time)","302401","","null","","","","","offerFB","","<div class='trialBorder'><div class='vertical-center'><img style='vertical-align:center; align:center' src=img/fixation3.jpg></div><div class='cl'><div class='vertical-center'><font style='color:orange'>$54<br>for<br>yourself</font></div></div><div class='cr'><div class='vertical-center'>$60<br>for<br>Lav D</div></div><div class='respDivL'><div class='vertical-center'><font style='color:orange'>(E)</font></div></div><div class='respDivR'><div class='vertical-center'>(I)</div></div></div>","null","$54<br>for<br>yourself","$60<br>for<br>5","0","54","60","5",""
"html-keyboard-response","50","262075","0.0-6.0-1.15","594936ad4152bf0001bfd5cd","bdp_sd","Sat Mar 25 2023 20:57:43 GMT-0400 (Eastern Daylight Time)","302401","","null","","","","","FIX","","<div class='trialBorder'><div class='vertical-center'><img style='vertical-align:center; align:center' src=img/fixation3.jpg></div></div>","null","","","","","","",""
"html-keyboard-response","51","265499","0.0-6.0-2.15","594936ad4152bf0001bfd5cd","bdp_sd","Sat Mar 25 2023 20:57:43 GMT-0400 (Eastern Daylight Time)","302401","","3423","","","","","offer","","<div class='trialBorder'><div class='vertical-center'><img style='vertical-align:center; align:center' src=img/fixation3.jpg></div><div class='cl'><div class='vertical-center'>$31<br>for<br>yourself</div></div><div class='cr'><div class='vertical-center'>$85<br>for<br>Claude M</div></div><div class='respDivL'><div class='vertical-center'>(E)</div></div><div class='respDivR'><div class='vertical-center'>(I)</div></div></div>","I","$31<br>for<br>yourself","$85<br>for<br>1","0","31","85","1","OTHER"
"html-keyboard-response","52","265753","0.0-6.0-3.15","594936ad4152bf0001bfd5cd","bdp_sd","Sat Mar 25 2023 20:57:43 GMT-0400 (Eastern Daylight Time)","302401","","null","","","","","offerFB","","<div class='trialBorder'><div class='vertical-center'><img style='vertical-align:center; align:center' src=img/fixation3.jpg></div><div class='cl'><div class='vertical-center'>$31<br>for<br>yourself</div></div><div class='cr'><div class='vertical-center'><font style='color:orange'>$85<br>for<br>Claude M</font></div></div><div class='respDivL'><div class='vertical-center'>(E)</div></div><div class='respDivR'><div class='vertical-center'><font style='color:orange'>(I)</font></div></div></div>","null","$31<br>for<br>yourself","$85<br>for<br>1","0","31","85","1",""
"html-keyboard-response","53","266255","0.0-6.0-1.16","594936ad4152bf0001bfd5cd","bdp_sd","Sat Mar 25 2023 20:57:43 GMT-0400 (Eastern Daylight Time)","302401","","null","","","","","FIX","","<div class='trialBorder'><div class='vertical-center'><img style='vertical-align:center; align:center' src=img/fixation3.jpg></div></div>","null","","","","","","",""
"html-keyboard-response","54","268193","0.0-6.0-2.16","594936ad4152bf0001bfd5cd","bdp_sd","Sat Mar 25 2023 20:57:43 GMT-0400 (Eastern Daylight Time)","302401","","1937","","","","","offer","","<div class='trialBorder'><div class='vertical-center'><img style='vertical-align:center; align:center' src=img/fixation3.jpg></div><div class='cl'><div class='vertical-center'>$55<br>for<br>yourself</div></div><div class='cr'><div class='vertical-center'>$75<br>for<br>Boar D</div></div><div class='respDivL'><div class='vertical-center'>(E)</div></div><div class='respDivR'><div class='vertical-center'>(I)</div></div></div>","I","$55<br>for<br>yourself","$75<br>for<br>4","0","55","75","4","OTHER"
"html-keyboard-response","55","268444","0.0-6.0-3.16","594936ad4152bf0001bfd5cd","bdp_sd","Sat Mar 25 2023 20:57:43 GMT-0400 (Eastern Daylight Time)","302401","","null","","","","","offerFB","","<div class='trialBorder'><div class='vertical-center'><img style='vertical-align:center; align:center' src=img/fixation3.jpg></div><div class='cl'><div class='vertical-center'>$55<br>for<br>yourself</div></div><div class='cr'><div class='vertical-center'><font style='color:orange'>$75<br>for<br>Boar D</font></div></div><div class='respDivL'><div class='vertical-center'>(E)</div></div><div class='respDivR'><div class='vertical-center'><font style='color:orange'>(I)</font></div></div></div>","null","$55<br>for<br>yourself","$75<br>for<br>4","0","55","75","4",""
"html-keyboard-response","56","268945","0.0-6.0-1.17","594936ad4152bf0001bfd5cd","bdp_sd","Sat Mar 25 2023 20:57:43 GMT-0400 (Eastern Daylight Time)","302401","","null","","","","","FIX","","<div class='trialBorder'><div class='vertical-center'><img style='vertical-align:center; align:center' src=img/fixation3.jpg></div></div>","null","","","","","","",""
"html-keyboard-response","57","270281","0.0-6.0-2.17","594936ad4152bf0001bfd5cd","bdp_sd","Sat Mar 25 2023 20:57:43 GMT-0400 (Eastern Daylight Time)","302401","","1335","","","","","offer","","<div class='trialBorder'><div class='vertical-center'><img style='vertical-align:center; align:center' src=img/fixation3.jpg></div><div class='cl'><div class='vertical-center'>$33<br>for<br>yourself</div></div><div class='cr'><div class='vertical-center'>$80<br>for<br>George M</div></div><div class='respDivL'><div class='vertical-center'>(E)</div></div><div class='respDivR'><div class='vertical-center'>(I)</div></div></div>","I","$33<br>for<br>yourself","$80<br>for<br>2","0","33","80","2","OTHER"
"html-keyboard-response","58","270533","0.0-6.0-3.17","594936ad4152bf0001bfd5cd","bdp_sd","Sat Mar 25 2023 20:57:43 GMT-0400 (Eastern Daylight Time)","302401","","null","","","","","offerFB","","<div class='trialBorder'><div class='vertical-center'><img style='vertical-align:center; align:center' src=img/fixation3.jpg></div><div class='cl'><div class='vertical-center'>$33<br>for<br>yourself</div></div><div class='cr'><div class='vertical-center'><font style='color:orange'>$80<br>for<br>George M</font></div></div><div class='respDivL'><div class='vertical-center'>(E)</div></div><div class='respDivR'><div class='vertical-center'><font style='color:orange'>(I)</font></div></div></div>","null","$33<br>for<br>yourself","$80<br>for<br>2","0","33","80","2",""
"html-keyboard-response","59","271036","0.0-6.0-1.18","594936ad4152bf0001bfd5cd","bdp_sd","Sat Mar 25 2023 20:57:43 GMT-0400 (Eastern Daylight Time)","302401","","null","","","","","FIX","","<div class='trialBorder'><div class='vertical-center'><img style='vertical-align:center; align:center' src=img/fixation3.jpg></div></div>","null","","","","","","",""
"html-keyboard-response","60","276402","0.0-6.0-2.18","594936ad4152bf0001bfd5cd","bdp_sd","Sat Mar 25 2023 20:57:43 GMT-0400 (Eastern Daylight Time)","302401","","5365","","","","","offer","","<div class='trialBorder'><div class='vertical-center'><img style='vertical-align:center; align:center' src=img/fixation3.jpg></div><div class='cl'><div class='vertical-center'>$75<br>for<br>Charlie C</div></div><div class='cr'><div class='vertical-center'>$41<br>for<br>yourself</div></div><div class='respDivL'><div class='vertical-center'>(E)</div></div><div class='respDivR'><div class='vertical-center'>(I)</div></div></div>","E","$41<br>for<br>yourself","$75<br>for<br>3","1","41","75","3","OTHER"
"html-keyboard-response","61","276655","0.0-6.0-3.18","594936ad4152bf0001bfd5cd","bdp_sd","Sat Mar 25 2023 20:57:43 GMT-0400 (Eastern Daylight Time)","302401","","null","","","","","offerFB","","<div class='trialBorder'><div class='vertical-center'><img style='vertical-align:center; align:center' src=img/fixation3.jpg></div><div class='cl'><div class='vertical-center'><font style='color:orange'>$75<br>for<br>Charlie C</font></div></div><div class='cr'><div class='vertical-center'>$41<br>for<br>yourself</div></div><div class='respDivL'><div class='vertical-center'><font style='color:orange'>(E)</font></div></div><div class='respDivR'><div class='vertical-center'>(I)</div></div></div>","null","$41<br>for<br>yourself","$75<br>for<br>3","1","41","75","3",""
"html-keyboard-response","62","277157","0.0-6.0-1.19","594936ad4152bf0001bfd5cd","bdp_sd","Sat Mar 25 2023 20:57:43 GMT-0400 (Eastern Daylight Time)","302401","","null","","","","","FIX","","<div class='trialBorder'><div class='vertical-center'><img style='vertical-align:center; align:center' src=img/fixation3.jpg></div></div>","null","","","","","","",""
"html-keyboard-response","63","280945","0.0-6.0-2.19","594936ad4152bf0001bfd5cd","bdp_sd","Sat Mar 25 2023 20:57:43 GMT-0400 (Eastern Daylight Time)","302401","","3787","","","","","offer","","<div class='trialBorder'><div class='vertical-center'><img style='vertical-align:center; align:center' src=img/fixation3.jpg></div><div class='cl'><div class='vertical-center'>$67<br>for<br>yourself</div></div><div class='cr'><div class='vertical-center'>$75<br>for<br>Lav D</div></div><div class='respDivL'><div class='vertical-center'>(E)</div></div><div class='respDivR'><div class='vertical-center'>(I)</div></div></div>","E","$67<br>for<br>yourself","$75<br>for<br>5","0","67","75","5","SELF"
"html-keyboard-response","64","281196","0.0-6.0-3.19","594936ad4152bf0001bfd5cd","bdp_sd","Sat Mar 25 2023 20:57:43 GMT-0400 (Eastern Daylight Time)","302401","","null","","","","","offerFB","","<div class='trialBorder'><div class='vertical-center'><img style='vertical-align:center; align:center' src=img/fixation3.jpg></div><div class='cl'><div class='vertical-center'><font style='color:orange'>$67<br>for<br>yourself</font></div></div><div class='cr'><div class='vertical-center'>$75<br>for<br>Lav D</div></div><div class='respDivL'><div class='vertical-center'><font style='color:orange'>(E)</font></div></div><div class='respDivR'><div class='vertical-center'>(I)</div></div></div>","null","$67<br>for<br>yourself","$75<br>for<br>5","0","67","75","5",""
"html-keyboard-response","65","281697","0.0-6.0-1.20","594936ad4152bf0001bfd5cd","bdp_sd","Sat Mar 25 2023 20:57:43 GMT-0400 (Eastern Daylight Time)","302401","","null","","","","","FIX","","<div class='trialBorder'><div class='vertical-center'><img style='vertical-align:center; align:center' src=img/fixation3.jpg></div></div>","null","","","","","","",""
"html-keyboard-response","66","283145","0.0-6.0-2.20","594936ad4152bf0001bfd5cd","bdp_sd","Sat Mar 25 2023 20:57:43 GMT-0400 (Eastern Daylight Time)","302401","","1447","","","","","offer","","<div class='trialBorder'><div class='vertical-center'><img style='vertical-align:center; align:center' src=img/fixation3.jpg></div><div class='cl'><div class='vertical-center'>$15<br>for<br>yourself</div></div><div class='cr'><div class='vertical-center'>$35<br>for<br>George M</div></div><div class='respDivL'><div class='vertical-center'>(E)</div></div><div class='respDivR'><div class='vertical-center'>(I)</div></div></div>","I","$15<br>for<br>yourself","$35<br>for<br>2","0","15","35","2","OTHER"
"html-keyboard-response","67","283397","0.0-6.0-3.20","594936ad4152bf0001bfd5cd","bdp_sd","Sat Mar 25 2023 20:57:43 GMT-0400 (Eastern Daylight Time)","302401","","null","","","","","offerFB","","<div class='trialBorder'><div class='vertical-center'><img style='vertical-align:center; align:center' src=img/fixation3.jpg></div><div class='cl'><div class='vertical-center'>$15<br>for<br>yourself</div></div><div class='cr'><div class='vertical-center'><font style='color:orange'>$35<br>for<br>George M</font></div></div><div class='respDivL'><div class='vertical-center'>(E)</div></div><div class='respDivR'><div class='vertical-center'><font style='color:orange'>(I)</font></div></div></div>","null","$15<br>for<br>yourself","$35<br>for<br>2","0","15","35","2",""
"html-keyboard-response","68","283899","0.0-6.0-1.21","594936ad4152bf0001bfd5cd","bdp_sd","Sat Mar 25 2023 20:57:43 GMT-0400 (Eastern Daylight Time)","302401","","null","","","","","FIX","","<div class='trialBorder'><div class='vertical-center'><img style='vertical-align:center; align:center' src=img/fixation3.jpg></div></div>","null","","","","","","",""
"html-keyboard-response","69","287252","0.0-6.0-2.21","594936ad4152bf0001bfd5cd","bdp_sd","Sat Mar 25 2023 20:57:43 GMT-0400 (Eastern Daylight Time)","302401","","3352","","","","","offer","","<div class='trialBorder'><div class='vertical-center'><img style='vertical-align:center; align:center' src=img/fixation3.jpg></div><div class='cl'><div class='vertical-center'>$25<br>for<br>yourself</div></div><div class='cr'><div class='vertical-center'>$30<br>for<br>Boar D</div></div><div class='respDivL'><div class='vertical-center'>(E)</div></div><div class='respDivR'><div class='vertical-center'>(I)</div></div></div>","I","$25<br>for<br>yourself","$30<br>for<br>4","0","25","30","4","OTHER"
"html-keyboard-response","70","287503","0.0-6.0-3.21","594936ad4152bf0001bfd5cd","bdp_sd","Sat Mar 25 2023 20:57:43 GMT-0400 (Eastern Daylight Time)","302401","","null","","","","","offerFB","","<div class='trialBorder'><div class='vertical-center'><img style='vertical-align:center; align:center' src=img/fixation3.jpg></div><div class='cl'><div class='vertical-center'>$25<br>for<br>yourself</div></div><div class='cr'><div class='vertical-center'><font style='color:orange'>$30<br>for<br>Boar D</font></div></div><div class='respDivL'><div class='vertical-center'>(E)</div></div><div class='respDivR'><div class='vertical-center'><font style='color:orange'>(I)</font></div></div></div>","null","$25<br>for<br>yourself","$30<br>for<br>4","0","25","30","4",""
"html-keyboard-response","71","288005","0.0-6.0-1.22","594936ad4152bf0001bfd5cd","bdp_sd","Sat Mar 25 2023 20:57:43 GMT-0400 (Eastern Daylight Time)","302401","","null","","","","","FIX","","<div class='trialBorder'><div class='vertical-center'><img style='vertical-align:center; align:center' src=img/fixation3.jpg></div></div>","null","","","","","","",""
"html-keyboard-response","72","290258","0.0-6.0-2.22","594936ad4152bf0001bfd5cd","bdp_sd","Sat Mar 25 2023 20:57:43 GMT-0400 (Eastern Daylight Time)","302401","","2252","","","","","offer","","<div class='trialBorder'><div class='vertical-center'><img style='vertical-align:center; align:center' src=img/fixation3.jpg></div><div class='cl'><div class='vertical-center'>$85<br>for<br>Boar D</div></div><div class='cr'><div class='vertical-center'>$69<br>for<br>yourself</div></div><div class='respDivL'><div class='vertical-center'>(E)</div></div><div class='respDivR'><div class='vertical-center'>(I)</div></div></div>","I","$69<br>for<br>yourself","$85<br>for<br>4","1","69","85","4","SELF"
"html-keyboard-response","73","290510","0.0-6.0-3.22","594936ad4152bf0001bfd5cd","bdp_sd","Sat Mar 25 2023 20:57:43 GMT-0400 (Eastern Daylight Time)","302401","","null","","","","","offerFB","","<div class='trialBorder'><div class='vertical-center'><img style='vertical-align:center; align:center' src=img/fixation3.jpg></div><div class='cl'><div class='vertical-center'>$85<br>for<br>Boar D</div></div><div class='cr'><div class='vertical-center'><font style='color:orange'>$69<br>for<br>yourself</font></div></div><div class='respDivL'><div class='vertical-center'>(E)</div></div><div class='respDivR'><div class='vertical-center'><font style='color:orange'>(I)</font></div></div></div>","null","$69<br>for<br>yourself","$85<br>for<br>4","1","69","85","4",""
"html-keyboard-response","74","291011","0.0-6.0-1.23","594936ad4152bf0001bfd5cd","bdp_sd","Sat Mar 25 2023 20:57:43 GMT-0400 (Eastern Daylight Time)","302401","","null","","","","","FIX","","<div class='trialBorder'><div class='vertical-center'><img style='vertical-align:center; align:center' src=img/fixation3.jpg></div></div>","null","","","","","","",""
"html-keyboard-response","75","292309","0.0-6.0-2.23","594936ad4152bf0001bfd5cd","bdp_sd","Sat Mar 25 2023 20:57:43 GMT-0400 (Eastern Daylight Time)","302401","","1297","","","","","offer","","<div class='trialBorder'><div class='vertical-center'><img style='vertical-align:center; align:center' src=img/fixation3.jpg></div><div class='cl'><div class='vertical-center'>$20<br>for<br>yourself</div></div><div class='cr'><div class='vertical-center'>$55<br>for<br>Claude M</div></div><div class='respDivL'><div class='vertical-center'>(E)</div></div><div class='respDivR'><div class='vertical-center'>(I)</div></div></div>","I","$20<br>for<br>yourself","$55<br>for<br>1","0","20","55","1","OTHER"
"html-keyboard-response","76","292560","0.0-6.0-3.23","594936ad4152bf0001bfd5cd","bdp_sd","Sat Mar 25 2023 20:57:43 GMT-0400 (Eastern Daylight Time)","302401","","null","","","","","offerFB","","<div class='trialBorder'><div class='vertical-center'><img style='vertical-align:center; align:center' src=img/fixation3.jpg></div><div class='cl'><div class='vertical-center'>$20<br>for<br>yourself</div></div><div class='cr'><div class='vertical-center'><font style='color:orange'>$55<br>for<br>Claude M</font></div></div><div class='respDivL'><div class='vertical-center'>(E)</div></div><div class='respDivR'><div class='vertical-center'><font style='color:orange'>(I)</font></div></div></div>","null","$20<br>for<br>yourself","$55<br>for<br>1","0","20","55","1",""
"html-keyboard-response","77","293062","0.0-6.0-1.24","594936ad4152bf0001bfd5cd","bdp_sd","Sat Mar 25 2023 20:57:43 GMT-0400 (Eastern Daylight Time)","302401","","null","","","","","FIX","","<div class='trialBorder'><div class='vertical-center'><img style='vertical-align:center; align:center' src=img/fixation3.jpg></div></div>","null","","","","","","",""
"html-keyboard-response","78","295524","0.0-6.0-2.24","594936ad4152bf0001bfd5cd","bdp_sd","Sat Mar 25 2023 20:57:43 GMT-0400 (Eastern Daylight Time)","302401","","2462","","","","","offer","","<div class='trialBorder'><div class='vertical-center'><img style='vertical-align:center; align:center' src=img/fixation3.jpg></div><div class='cl'><div class='vertical-center'>$80<br>for<br>Lav D</div></div><div class='cr'><div class='vertical-center'>$78<br>for<br>yourself</div></div><div class='respDivL'><div class='vertical-center'>(E)</div></div><div class='respDivR'><div class='vertical-center'>(I)</div></div></div>","I","$78<br>for<br>yourself","$80<br>for<br>5","1","78","80","5","SELF"
"html-keyboard-response","79","295776","0.0-6.0-3.24","594936ad4152bf0001bfd5cd","bdp_sd","Sat Mar 25 2023 20:57:43 GMT-0400 (Eastern Daylight Time)","302401","","null","","","","","offerFB","","<div class='trialBorder'><div class='vertical-center'><img style='vertical-align:center; align:center' src=img/fixation3.jpg></div><div class='cl'><div class='vertical-center'>$80<br>for<br>Lav D</div></div><div class='cr'><div class='vertical-center'><font style='color:orange'>$78<br>for<br>yourself</font></div></div><div class='respDivL'><div class='vertical-center'>(E)</div></div><div class='respDivR'><div class='vertical-center'><font style='color:orange'>(I)</font></div></div></div>","null","$78<br>for<br>yourself","$80<br>for<br>5","1","78","80","5",""
"html-keyboard-response","80","296278","0.0-6.0-1.25","594936ad4152bf0001bfd5cd","bdp_sd","Sat Mar 25 2023 20:57:43 GMT-0400 (Eastern Daylight Time)","302401","","null","","","","","FIX","","<div class='trialBorder'><div class='vertical-center'><img style='vertical-align:center; align:center' src=img/fixation3.jpg></div></div>","null","","","","","","",""
"html-keyboard-response","81","299155","0.0-6.0-2.25","594936ad4152bf0001bfd5cd","bdp_sd","Sat Mar 25 2023 20:57:43 GMT-0400 (Eastern Daylight Time)","302401","","2877","","","","","offer","","<div class='trialBorder'><div class='vertical-center'><img style='vertical-align:center; align:center' src=img/fixation3.jpg></div><div class='cl'><div class='vertical-center'>$80<br>for<br>yourself</div></div><div class='cr'><div class='vertical-center'>$85<br>for<br>Lav D</div></div><div class='respDivL'><div class='vertical-center'>(E)</div></div><div class='respDivR'><div class='vertical-center'>(I)</div></div></div>","I","$80<br>for<br>yourself","$85<br>for<br>5","0","80","85","5","OTHER"
"html-keyboard-response","82","299407","0.0-6.0-3.25","594936ad4152bf0001bfd5cd","bdp_sd","Sat Mar 25 2023 20:57:43 GMT-0400 (Eastern Daylight Time)","302401","","null","","","","","offerFB","","<div class='trialBorder'><div class='vertical-center'><img style='vertical-align:center; align:center' src=img/fixation3.jpg></div><div class='cl'><div class='vertical-center'>$80<br>for<br>yourself</div></div><div class='cr'><div class='vertical-center'><font style='color:orange'>$85<br>for<br>Lav D</font></div></div><div class='respDivL'><div class='vertical-center'>(E)</div></div><div class='respDivR'><div class='vertical-center'><font style='color:orange'>(I)</font></div></div></div>","null","$80<br>for<br>yourself","$85<br>for<br>5","0","80","85","5",""
"html-keyboard-response","83","299908","0.0-6.0-1.26","594936ad4152bf0001bfd5cd","bdp_sd","Sat Mar 25 2023 20:57:43 GMT-0400 (Eastern Daylight Time)","302401","","null","","","","","FIX","","<div class='trialBorder'><div class='vertical-center'><img style='vertical-align:center; align:center' src=img/fixation3.jpg></div></div>","null","","","","","","",""
"html-keyboard-response","84","301147","0.0-6.0-2.26","594936ad4152bf0001bfd5cd","bdp_sd","Sat Mar 25 2023 20:57:43 GMT-0400 (Eastern Daylight Time)","302401","","1238","","","","","offer","","<div class='trialBorder'><div class='vertical-center'><img style='vertical-align:center; align:center' src=img/fixation3.jpg></div><div class='cl'><div class='vertical-center'>$11<br>for<br>yourself</div></div><div class='cr'><div class='vertical-center'>$30<br>for<br>George M</div></div><div class='respDivL'><div class='vertical-center'>(E)</div></div><div class='respDivR'><div class='vertical-center'>(I)</div></div></div>","I","$11<br>for<br>yourself","$30<br>for<br>2","0","11","30","2","OTHER"
"html-keyboard-response","85","301399","0.0-6.0-3.26","594936ad4152bf0001bfd5cd","bdp_sd","Sat Mar 25 2023 20:57:43 GMT-0400 (Eastern Daylight Time)","302401","","null","","","","","offerFB","","<div class='trialBorder'><div class='vertical-center'><img style='vertical-align:center; align:center' src=img/fixation3.jpg></div><div class='cl'><div class='vertical-center'>$11<br>for<br>yourself</div></div><div class='cr'><div class='vertical-center'><font style='color:orange'>$30<br>for<br>George M</font></div></div><div class='respDivL'><div class='vertical-center'>(E)</div></div><div class='respDivR'><div class='vertical-center'><font style='color:orange'>(I)</font></div></div></div>","null","$11<br>for<br>yourself","$30<br>for<br>2","0","11","30","2",""
"","","","","594936ad4152bf0001bfd5cd","bdp_sd","Sat Mar 25 2023 20:57:43 GMT-0400 (Eastern Daylight Time)","302401","","","","fullscreenexit","86","301414","fullscreenexit","","","","","","","","","",""
"fullscreen","86","302401","0.0-7.0","594936ad4152bf0001bfd5cd","bdp_sd","Sat Mar 25 2023 20:57:43 GMT-0400 (Eastern Daylight Time)","302401","","","","","","","","true","","","","","","","","",""
"html-keyboard-response","87","302902","0.0-8.0","","","","","","null","","","","","","","","null","","","","","","",""
