"trial_type","trial_index","time_elapsed","internal_node_id","subject_id","task","startTime","totalTime","view_history","rt","responses","event","trial","time","trialtype","success","stimulus","key_press","selfOffer","otherOffer","otherLeft","selfAmt","otherAmt","otherDist","chosen"
"pavlovia","0","6","0.0-0.0","63d428eb946e85527cfdf058","bdp_sd","Sat Mar 25 2023 19:44:40 GMT-0700 (Pacific Daylight Time)","100474","","","","","","","","","","","","","","","","",""
"instructions","1","1793","0.0-1.0","63d428eb946e85527cfdf058","bdp_sd","Sat Mar 25 2023 19:44:40 GMT-0700 (Pacific Daylight Time)","100474","[{""page_index"":0,""viewing_time"":1785}]","1786","","","","","","","","","","","","","","",""
"survey-text","2","27552","0.0-2.0","63d428eb946e85527cfdf058","bdp_sd","Sat Mar 25 2023 19:44:40 GMT-0700 (Pacific Daylight Time)","100474","","25757","{""Q0"":""Ashley"",""Q1"":""Alyssa"",""Q2"":""Michael"",""Q3"":""Lillie"",""Q4"":""Grace""}","","","","","","","","","","","","","",""
"","","","","63d428eb946e85527cfdf058","bdp_sd","Sat Mar 25 2023 19:44:40 GMT-0700 (Pacific Daylight Time)","100474","","","","fullscreenenter","3","29451","fullscreenenter","","","","","","","","","",""
"fullscreen","3","30436","0.0-3.0","63d428eb946e85527cfdf058","bdp_sd","Sat Mar 25 2023 19:44:40 GMT-0700 (Pacific Daylight Time)","100474","","","","","","","","true","","","","","","","","",""
"instructions","4","67376","0.0-5.0","63d428eb946e85527cfdf058","bdp_sd","Sat Mar 25 2023 19:44:40 GMT-0700 (Pacific Daylight Time)","100474","[{""page_index"":0,""viewing_time"":1783},{""page_index"":1,""viewing_time"":11788},{""page_index"":0,""viewing_time"":1376},{""page_index"":1,""viewing_time"":2014},{""page_index"":2,""viewing_time"":1947},{""page_index"":1,""viewing_time"":2993},{""page_index"":2,""viewing_time"":3871},{""page_index"":1,""viewing_time"":5794},{""page_index"":2,""viewing_time"":5369}]","36936","","","","","","","","","","","","","","",""
"html-keyboard-response","5","67880","0.0-6.0-1.0","63d428eb946e85527cfdf058","bdp_sd","Sat Mar 25 2023 19:44:40 GMT-0700 (Pacific Daylight Time)","100474","","null","","","","","FIX","","<div class='trialBorder'><div class='vertical-center'><img style='vertical-align:center; align:center' src=img/fixation3.jpg></div></div>","null","","","","","","",""
"html-keyboard-response","6","70561","0.0-6.0-2.0","63d428eb946e85527cfdf058","bdp_sd","Sat Mar 25 2023 19:44:40 GMT-0700 (Pacific Daylight Time)","100474","","2678","","","","","offer","","<div class='trialBorder'><div class='vertical-center'><img style='vertical-align:center; align:center' src=img/fixation3.jpg></div><div class='cl'><div class='vertical-center'>$80<br>for<br>yourself</div></div><div class='cr'><div class='vertical-center'>$85<br>for<br>Grace</div></div><div class='respDivL'><div class='vertical-center'>(E)</div></div><div class='respDivR'><div class='vertical-center'>(I)</div></div></div>","E","$80<br>for<br>yourself","$85<br>for<br>5","0","80","85","5","SELF"
"html-keyboard-response","7","70815","0.0-6.0-3.0","63d428eb946e85527cfdf058","bdp_sd","Sat Mar 25 2023 19:44:40 GMT-0700 (Pacific Daylight Time)","100474","","null","","","","","offerFB","","<div class='trialBorder'><div class='vertical-center'><img style='vertical-align:center; align:center' src=img/fixation3.jpg></div><div class='cl'><div class='vertical-center'><font style='color:orange'>$80<br>for<br>yourself</font></div></div><div class='cr'><div class='vertical-center'>$85<br>for<br>Grace</div></div><div class='respDivL'><div class='vertical-center'><font style='color:orange'>(E)</font></div></div><div class='respDivR'><div class='vertical-center'>(I)</div></div></div>","null","$80<br>for<br>yourself","$85<br>for<br>5","0","80","85","5",""
"html-keyboard-response","8","71319","0.0-6.0-1.1","63d428eb946e85527cfdf058","bdp_sd","Sat Mar 25 2023 19:44:40 GMT-0700 (Pacific Daylight Time)","100474","","null","","","","","FIX","","<div class='trialBorder'><div class='vertical-center'><img style='vertical-align:center; align:center' src=img/fixation3.jpg></div></div>","null","","","","","","",""
"html-keyboard-response","9","73612","0.0-6.0-2.1","63d428eb946e85527cfdf058","bdp_sd","Sat Mar 25 2023 19:44:40 GMT-0700 (Pacific Daylight Time)","100474","","2291","","","","","offer","","<div class='trialBorder'><div class='vertical-center'><img style='vertical-align:center; align:center' src=img/fixation3.jpg></div><div class='cl'><div class='vertical-center'>$50<br>for<br>Grace</div></div><div class='cr'><div class='vertical-center'>$47<br>for<br>yourself</div></div><div class='respDivL'><div class='vertical-center'>(E)</div></div><div class='respDivR'><div class='vertical-center'>(I)</div></div></div>","I","$47<br>for<br>yourself","$50<br>for<br>5","1","47","50","5","SELF"
"html-keyboard-response","10","73864","0.0-6.0-3.1","63d428eb946e85527cfdf058","bdp_sd","Sat Mar 25 2023 19:44:40 GMT-0700 (Pacific Daylight Time)","100474","","null","","","","","offerFB","","<div class='trialBorder'><div class='vertical-center'><img style='vertical-align:center; align:center' src=img/fixation3.jpg></div><div class='cl'><div class='vertical-center'>$50<br>for<br>Grace</div></div><div class='cr'><div class='vertical-center'><font style='color:orange'>$47<br>for<br>yourself</font></div></div><div class='respDivL'><div class='vertical-center'>(E)</div></div><div class='respDivR'><div class='vertical-center'><font style='color:orange'>(I)</font></div></div></div>","null","$47<br>for<br>yourself","$50<br>for<br>5","1","47","50","5",""
"html-keyboard-response","11","74366","0.0-6.0-1.2","63d428eb946e85527cfdf058","bdp_sd","Sat Mar 25 2023 19:44:40 GMT-0700 (Pacific Daylight Time)","100474","","null","","","","","FIX","","<div class='trialBorder'><div class='vertical-center'><img style='vertical-align:center; align:center' src=img/fixation3.jpg></div></div>","null","","","","","","",""
"html-keyboard-response","12","74871","0.0-6.0-2.2","63d428eb946e85527cfdf058","bdp_sd","Sat Mar 25 2023 19:44:40 GMT-0700 (Pacific Daylight Time)","100474","","502","","","","","offer","","<div class='trialBorder'><div class='vertical-center'><img style='vertical-align:center; align:center' src=img/fixation3.jpg></div><div class='cl'><div class='vertical-center'>$34<br>for<br>yourself</div></div><div class='cr'><div class='vertical-center'>$50<br>for<br>Lillie</div></div><div class='respDivL'><div class='vertical-center'>(E)</div></div><div class='respDivR'><div class='vertical-center'>(I)</div></div></div>","E","$34<br>for<br>yourself","$50<br>for<br>4","0","34","50","4","SELF"
"html-keyboard-response","13","75123","0.0-6.0-3.2","63d428eb946e85527cfdf058","bdp_sd","Sat Mar 25 2023 19:44:40 GMT-0700 (Pacific Daylight Time)","100474","","null","","","","","offerFB","","<div class='trialBorder'><div class='vertical-center'><img style='vertical-align:center; align:center' src=img/fixation3.jpg></div><div class='cl'><div class='vertical-center'><font style='color:orange'>$34<br>for<br>yourself</font></div></div><div class='cr'><div class='vertical-center'>$50<br>for<br>Lillie</div></div><div class='respDivL'><div class='vertical-center'><font style='color:orange'>(E)</font></div></div><div class='respDivR'><div class='vertical-center'>(I)</div></div></div>","null","$34<br>for<br>yourself","$50<br>for<br>4","0","34","50","4",""
"html-keyboard-response","14","75625","0.0-6.0-1.3","63d428eb946e85527cfdf058","bdp_sd","Sat Mar 25 2023 19:44:40 GMT-0700 (Pacific Daylight Time)","100474","","null","","","","","FIX","","<div class='trialBorder'><div class='vertical-center'><img style='vertical-align:center; align:center' src=img/fixation3.jpg></div></div>","null","","","","","","",""
"html-keyboard-response","15","76041","0.0-6.0-2.3","63d428eb946e85527cfdf058","bdp_sd","Sat Mar 25 2023 19:44:40 GMT-0700 (Pacific Daylight Time)","100474","","414","","","","","offer","","<div class='trialBorder'><div class='vertical-center'><img style='vertical-align:center; align:center' src=img/fixation3.jpg></div><div class='cl'><div class='vertical-center'>$11<br>for<br>yourself</div></div><div class='cr'><div class='vertical-center'>$30<br>for<br>Alyssa</div></div><div class='respDivL'><div class='vertical-center'>(E)</div></div><div class='respDivR'><div class='vertical-center'>(I)</div></div></div>","I","$11<br>for<br>yourself","$30<br>for<br>2","0","11","30","2","OTHER"
"html-keyboard-response","16","76294","0.0-6.0-3.3","63d428eb946e85527cfdf058","bdp_sd","Sat Mar 25 2023 19:44:40 GMT-0700 (Pacific Daylight Time)","100474","","null","","","","","offerFB","","<div class='trialBorder'><div class='vertical-center'><img style='vertical-align:center; align:center' src=img/fixation3.jpg></div><div class='cl'><div class='vertical-center'>$11<br>for<br>yourself</div></div><div class='cr'><div class='vertical-center'><font style='color:orange'>$30<br>for<br>Alyssa</font></div></div><div class='respDivL'><div class='vertical-center'>(E)</div></div><div class='respDivR'><div class='vertical-center'><font style='color:orange'>(I)</font></div></div></div>","null","$11<br>for<br>yourself","$30<br>for<br>2","0","11","30","2",""
"html-keyboard-response","17","76796","0.0-6.0-1.4","63d428eb946e85527cfdf058","bdp_sd","Sat Mar 25 2023 19:44:40 GMT-0700 (Pacific Daylight Time)","100474","","null","","","","","FIX","","<div class='trialBorder'><div class='vertical-center'><img style='vertical-align:center; align:center' src=img/fixation3.jpg></div></div>","null","","","","","","",""
"html-keyboard-response","18","77093","0.0-6.0-2.4","63d428eb946e85527cfdf058","bdp_sd","Sat Mar 25 2023 19:44:40 GMT-0700 (Pacific Daylight Time)","100474","","295","","","","","offer","","<div class='trialBorder'><div class='vertical-center'><img style='vertical-align:center; align:center' src=img/fixation3.jpg></div><div class='cl'><div class='vertical-center'>$55<br>for<br>Ashley</div></div><div class='cr'><div class='vertical-center'>$20<br>for<br>yourself</div></div><div class='respDivL'><div class='vertical-center'>(E)</div></div><div class='respDivR'><div class='vertical-center'>(I)</div></div></div>","E","$20<br>for<br>yourself","$55<br>for<br>1","1","20","55","1","OTHER"
"html-keyboard-response","19","77346","0.0-6.0-3.4","63d428eb946e85527cfdf058","bdp_sd","Sat Mar 25 2023 19:44:40 GMT-0700 (Pacific Daylight Time)","100474","","null","","","","","offerFB","","<div class='trialBorder'><div class='vertical-center'><img style='vertical-align:center; align:center' src=img/fixation3.jpg></div><div class='cl'><div class='vertical-center'><font style='color:orange'>$55<br>for<br>Ashley</font></div></div><div class='cr'><div class='vertical-center'>$20<br>for<br>yourself</div></div><div class='respDivL'><div class='vertical-center'><font style='color:orange'>(E)</font></div></div><div class='respDivR'><div class='vertical-center'>(I)</div></div></div>","null","$20<br>for<br>yourself","$55<br>for<br>1","1","20","55","1",""
"html-keyboard-response","20","77848","0.0-6.0-1.5","63d428eb946e85527cfdf058","bdp_sd","Sat Mar 25 2023 19:44:40 GMT-0700 (Pacific Daylight Time)","100474","","null","","","","","FIX","","<div class='trialBorder'><div class='vertical-center'><img style='vertical-align:center; align:center' src=img/fixation3.jpg></div></div>","null","","","","","","",""
"html-keyboard-response","21","78318","0.0-6.0-2.5","63d428eb946e85527cfdf058","bdp_sd","Sat Mar 25 2023 19:44:40 GMT-0700 (Pacific Daylight Time)","100474","","467","","","","","offer","","<div class='trialBorder'><div class='vertical-center'><img style='vertical-align:center; align:center' src=img/fixation3.jpg></div><div class='cl'><div class='vertical-center'>$25<br>for<br>yourself</div></div><div class='cr'><div class='vertical-center'>$30<br>for<br>Lillie</div></div><div class='respDivL'><div class='vertical-center'>(E)</div></div><div class='respDivR'><div class='vertical-center'>(I)</div></div></div>","E","$25<br>for<br>yourself","$30<br>for<br>4","0","25","30","4","SELF"
"html-keyboard-response","22","78570","0.0-6.0-3.5","63d428eb946e85527cfdf058","bdp_sd","Sat Mar 25 2023 19:44:40 GMT-0700 (Pacific Daylight Time)","100474","","null","","","","","offerFB","","<div class='trialBorder'><div class='vertical-center'><img style='vertical-align:center; align:center' src=img/fixation3.jpg></div><div class='cl'><div class='vertical-center'><font style='color:orange'>$25<br>for<br>yourself</font></div></div><div class='cr'><div class='vertical-center'>$30<br>for<br>Lillie</div></div><div class='respDivL'><div class='vertical-center'><font style='color:orange'>(E)</font></div></div><div class='respDivR'><div class='vertical-center'>(I)</div></div></div>","null","$25<br>for<br>yourself","$30<br>for<br>4","0","25","30","4",""
"html-keyboard-response","23","79073","0.0-6.0-1.6","63d428eb946e85527cfdf058","bdp_sd","Sat Mar 25 2023 19:44:40 GMT-0700 (Pacific Daylight Time)","100474","","null","","","","","FIX","","<div class='trialBorder'><div class='vertical-center'><img style='vertical-align:center; align:center' src=img/fixation3.jpg></div></div>","null","","","","","","",""
"html-keyboard-response","24","79077","0.0-6.0-2.6","63d428eb946e85527cfdf058","bdp_sd","Sat Mar 25 2023 19:44:40 GMT-0700 (Pacific Daylight Time)","100474","","1","","","","","offer","","<div class='trialBorder'><div class='vertical-center'><img style='vertical-align:center; align:center' src=img/fixation3.jpg></div><div class='cl'><div class='vertical-center'>$54<br>for<br>yourself</div></div><div class='cr'><div class='vertical-center'>$55<br>for<br>Grace</div></div><div class='respDivL'><div class='vertical-center'>(E)</div></div><div class='respDivR'><div class='vertical-center'>(I)</div></div></div>","I","$54<br>for<br>yourself","$55<br>for<br>5","0","54","55","5","OTHER"
"html-keyboard-response","25","79330","0.0-6.0-3.6","63d428eb946e85527cfdf058","bdp_sd","Sat Mar 25 2023 19:44:40 GMT-0700 (Pacific Daylight Time)","100474","","null","","","","","offerFB","","<div class='trialBorder'><div class='vertical-center'><img style='vertical-align:center; align:center' src=img/fixation3.jpg></div><div class='cl'><div class='vertical-center'>$54<br>for<br>yourself</div></div><div class='cr'><div class='vertical-center'><font style='color:orange'>$55<br>for<br>Grace</font></div></div><div class='respDivL'><div class='vertical-center'>(E)</div></div><div class='respDivR'><div class='vertical-center'><font style='color:orange'>(I)</font></div></div></div>","null","$54<br>for<br>yourself","$55<br>for<br>5","0","54","55","5",""
"html-keyboard-response","26","79832","0.0-6.0-1.7","63d428eb946e85527cfdf058","bdp_sd","Sat Mar 25 2023 19:44:40 GMT-0700 (Pacific Daylight Time)","100474","","null","","","","","FIX","","<div class='trialBorder'><div class='vertical-center'><img style='vertical-align:center; align:center' src=img/fixation3.jpg></div></div>","null","","","","","","",""
"html-keyboard-response","27","79950","0.0-6.0-2.7","63d428eb946e85527cfdf058","bdp_sd","Sat Mar 25 2023 19:44:40 GMT-0700 (Pacific Daylight Time)","100474","","115","","","","","offer","","<div class='trialBorder'><div class='vertical-center'><img style='vertical-align:center; align:center' src=img/fixation3.jpg></div><div class='cl'><div class='vertical-center'>$85<br>for<br>Lillie</div></div><div class='cr'><div class='vertical-center'>$69<br>for<br>yourself</div></div><div class='respDivL'><div class='vertical-center'>(E)</div></div><div class='respDivR'><div class='vertical-center'>(I)</div></div></div>","E","$69<br>for<br>yourself","$85<br>for<br>4","1","69","85","4","OTHER"
"html-keyboard-response","28","80203","0.0-6.0-3.7","63d428eb946e85527cfdf058","bdp_sd","Sat Mar 25 2023 19:44:40 GMT-0700 (Pacific Daylight Time)","100474","","null","","","","","offerFB","","<div class='trialBorder'><div class='vertical-center'><img style='vertical-align:center; align:center' src=img/fixation3.jpg></div><div class='cl'><div class='vertical-center'><font style='color:orange'>$85<br>for<br>Lillie</font></div></div><div class='cr'><div class='vertical-center'>$69<br>for<br>yourself</div></div><div class='respDivL'><div class='vertical-center'><font style='color:orange'>(E)</font></div></div><div class='respDivR'><div class='vertical-center'>(I)</div></div></div>","null","$69<br>for<br>yourself","$85<br>for<br>4","1","69","85","4",""
"html-keyboard-response","29","80706","0.0-6.0-1.8","63d428eb946e85527cfdf058","bdp_sd","Sat Mar 25 2023 19:44:40 GMT-0700 (Pacific Daylight Time)","100474","","null","","","","","FIX","","<div class='trialBorder'><div class='vertical-center'><img style='vertical-align:center; align:center' src=img/fixation3.jpg></div></div>","null","","","","","","",""
"html-keyboard-response","30","80713","0.0-6.0-2.8","63d428eb946e85527cfdf058","bdp_sd","Sat Mar 25 2023 19:44:40 GMT-0700 (Pacific Daylight Time)","100474","","2","","","","","offer","","<div class='trialBorder'><div class='vertical-center'><img style='vertical-align:center; align:center' src=img/fixation3.jpg></div><div class='cl'><div class='vertical-center'>$30<br>for<br>Grace</div></div><div class='cr'><div class='vertical-center'>$28<br>for<br>yourself</div></div><div class='respDivL'><div class='vertical-center'>(E)</div></div><div class='respDivR'><div class='vertical-center'>(I)</div></div></div>","E","$28<br>for<br>yourself","$30<br>for<br>5","1","28","30","5","OTHER"
"html-keyboard-response","31","80965","0.0-6.0-3.8","63d428eb946e85527cfdf058","bdp_sd","Sat Mar 25 2023 19:44:40 GMT-0700 (Pacific Daylight Time)","100474","","null","","","","","offerFB","","<div class='trialBorder'><div class='vertical-center'><img style='vertical-align:center; align:center' src=img/fixation3.jpg></div><div class='cl'><div class='vertical-center'><font style='color:orange'>$30<br>for<br>Grace</font></div></div><div class='cr'><div class='vertical-center'>$28<br>for<br>yourself</div></div><div class='respDivL'><div class='vertical-center'><font style='color:orange'>(E)</font></div></div><div class='respDivR'><div class='vertical-center'>(I)</div></div></div>","null","$28<br>for<br>yourself","$30<br>for<br>5","1","28","30","5",""
"html-keyboard-response","32","81467","0.0-6.0-1.9","63d428eb946e85527cfdf058","bdp_sd","Sat Mar 25 2023 19:44:40 GMT-0700 (Pacific Daylight Time)","100474","","null","","","","","FIX","","<div class='trialBorder'><div class='vertical-center'><img style='vertical-align:center; align:center' src=img/fixation3.jpg></div></div>","null","","","","","","",""
"html-keyboard-response","33","81674","0.0-6.0-2.9","63d428eb946e85527cfdf058","bdp_sd","Sat Mar 25 2023 19:44:40 GMT-0700 (Pacific Daylight Time)","100474","","204","","","","","offer","","<div class='trialBorder'><div class='vertical-center'><img style='vertical-align:center; align:center' src=img/fixation3.jpg></div><div class='cl'><div class='vertical-center'>$54<br>for<br>yourself</div></div><div class='cr'><div class='vertical-center'>$60<br>for<br>Grace</div></div><div class='respDivL'><div class='vertical-center'>(E)</div></div><div class='respDivR'><div class='vertical-center'>(I)</div></div></div>","E","$54<br>for<br>yourself","$60<br>for<br>5","0","54","60","5","SELF"
"html-keyboard-response","34","81927","0.0-6.0-3.9","63d428eb946e85527cfdf058","bdp_sd","Sat Mar 25 2023 19:44:40 GMT-0700 (Pacific Daylight Time)","100474","","null","","","","","offerFB","","<div class='trialBorder'><div class='vertical-center'><img style='vertical-align:center; align:center' src=img/fixation3.jpg></div><div class='cl'><div class='vertical-center'><font style='color:orange'>$54<br>for<br>yourself</font></div></div><div class='cr'><div class='vertical-center'>$60<br>for<br>Grace</div></div><div class='respDivL'><div class='vertical-center'><font style='color:orange'>(E)</font></div></div><div class='respDivR'><div class='vertical-center'>(I)</div></div></div>","null","$54<br>for<br>yourself","$60<br>for<br>5","0","54","60","5",""
"html-keyboard-response","35","82429","0.0-6.0-1.10","63d428eb946e85527cfdf058","bdp_sd","Sat Mar 25 2023 19:44:40 GMT-0700 (Pacific Daylight Time)","100474","","null","","","","","FIX","","<div class='trialBorder'><div class='vertical-center'><img style='vertical-align:center; align:center' src=img/fixation3.jpg></div></div>","null","","","","","","",""
"html-keyboard-response","36","82603","0.0-6.0-2.10","63d428eb946e85527cfdf058","bdp_sd","Sat Mar 25 2023 19:44:40 GMT-0700 (Pacific Daylight Time)","100474","","171","","","","","offer","","<div class='trialBorder'><div class='vertical-center'><img style='vertical-align:center; align:center' src=img/fixation3.jpg></div><div class='cl'><div class='vertical-center'>$60<br>for<br>Lillie</div></div><div class='cr'><div class='vertical-center'>$49<br>for<br>yourself</div></div><div class='respDivL'><div class='vertical-center'>(E)</div></div><div class='respDivR'><div class='vertical-center'>(I)</div></div></div>","I","$49<br>for<br>yourself","$60<br>for<br>4","1","49","60","4","SELF"
"html-keyboard-response","37","82855","0.0-6.0-3.10","63d428eb946e85527cfdf058","bdp_sd","Sat Mar 25 2023 19:44:40 GMT-0700 (Pacific Daylight Time)","100474","","null","","","","","offerFB","","<div class='trialBorder'><div class='vertical-center'><img style='vertical-align:center; align:center' src=img/fixation3.jpg></div><div class='cl'><div class='vertical-center'>$60<br>for<br>Lillie</div></div><div class='cr'><div class='vertical-center'><font style='color:orange'>$49<br>for<br>yourself</font></div></div><div class='respDivL'><div class='vertical-center'>(E)</div></div><div class='respDivR'><div class='vertical-center'><font style='color:orange'>(I)</font></div></div></div>","null","$49<br>for<br>yourself","$60<br>for<br>4","1","49","60","4",""
"html-keyboard-response","38","83357","0.0-6.0-1.11","63d428eb946e85527cfdf058","bdp_sd","Sat Mar 25 2023 19:44:40 GMT-0700 (Pacific Daylight Time)","100474","","null","","","","","FIX","","<div class='trialBorder'><div class='vertical-center'><img style='vertical-align:center; align:center' src=img/fixation3.jpg></div></div>","null","","","","","","",""
"html-keyboard-response","39","83567","0.0-6.0-2.11","63d428eb946e85527cfdf058","bdp_sd","Sat Mar 25 2023 19:44:40 GMT-0700 (Pacific Daylight Time)","100474","","207","","","","","offer","","<div class='trialBorder'><div class='vertical-center'><img style='vertical-align:center; align:center' src=img/fixation3.jpg></div><div class='cl'><div class='vertical-center'>$85<br>for<br>Ashley</div></div><div class='cr'><div class='vertical-center'>$31<br>for<br>yourself</div></div><div class='respDivL'><div class='vertical-center'>(E)</div></div><div class='respDivR'><div class='vertical-center'>(I)</div></div></div>","E","$31<br>for<br>yourself","$85<br>for<br>1","1","31","85","1","OTHER"
"html-keyboard-response","40","83820","0.0-6.0-3.11","63d428eb946e85527cfdf058","bdp_sd","Sat Mar 25 2023 19:44:40 GMT-0700 (Pacific Daylight Time)","100474","","null","","","","","offerFB","","<div class='trialBorder'><div class='vertical-center'><img style='vertical-align:center; align:center' src=img/fixation3.jpg></div><div class='cl'><div class='vertical-center'><font style='color:orange'>$85<br>for<br>Ashley</font></div></div><div class='cr'><div class='vertical-center'>$31<br>for<br>yourself</div></div><div class='respDivL'><div class='vertical-center'><font style='color:orange'>(E)</font></div></div><div class='respDivR'><div class='vertical-center'>(I)</div></div></div>","null","$31<br>for<br>yourself","$85<br>for<br>1","1","31","85","1",""
"html-keyboard-response","41","84321","0.0-6.0-1.12","63d428eb946e85527cfdf058","bdp_sd","Sat Mar 25 2023 19:44:40 GMT-0700 (Pacific Daylight Time)","100474","","null","","","","","FIX","","<div class='trialBorder'><div class='vertical-center'><img style='vertical-align:center; align:center' src=img/fixation3.jpg></div></div>","null","","","","","","",""
"html-keyboard-response","42","84502","0.0-6.0-2.12","63d428eb946e85527cfdf058","bdp_sd","Sat Mar 25 2023 19:44:40 GMT-0700 (Pacific Daylight Time)","100474","","178","","","","","offer","","<div class='trialBorder'><div class='vertical-center'><img style='vertical-align:center; align:center' src=img/fixation3.jpg></div><div class='cl'><div class='vertical-center'>$75<br>for<br>Michael</div></div><div class='cr'><div class='vertical-center'>$41<br>for<br>yourself</div></div><div class='respDivL'><div class='vertical-center'>(E)</div></div><div class='respDivR'><div class='vertical-center'>(I)</div></div></div>","I","$41<br>for<br>yourself","$75<br>for<br>3","1","41","75","3","SELF"
"html-keyboard-response","43","84755","0.0-6.0-3.12","63d428eb946e85527cfdf058","bdp_sd","Sat Mar 25 2023 19:44:40 GMT-0700 (Pacific Daylight Time)","100474","","null","","","","","offerFB","","<div class='trialBorder'><div class='vertical-center'><img style='vertical-align:center; align:center' src=img/fixation3.jpg></div><div class='cl'><div class='vertical-center'>$75<br>for<br>Michael</div></div><div class='cr'><div class='vertical-center'><font style='color:orange'>$41<br>for<br>yourself</font></div></div><div class='respDivL'><div class='vertical-center'>(E)</div></div><div class='respDivR'><div class='vertical-center'><font style='color:orange'>(I)</font></div></div></div>","null","$41<br>for<br>yourself","$75<br>for<br>3","1","41","75","3",""
"html-keyboard-response","44","85257","0.0-6.0-1.13","63d428eb946e85527cfdf058","bdp_sd","Sat Mar 25 2023 19:44:40 GMT-0700 (Pacific Daylight Time)","100474","","null","","","","","FIX","","<div class='trialBorder'><div class='vertical-center'><img style='vertical-align:center; align:center' src=img/fixation3.jpg></div></div>","null","","","","","","",""
"html-keyboard-response","45","85524","0.0-6.0-2.13","63d428eb946e85527cfdf058","bdp_sd","Sat Mar 25 2023 19:44:40 GMT-0700 (Pacific Daylight Time)","100474","","263","","","","","offer","","<div class='trialBorder'><div class='vertical-center'><img style='vertical-align:center; align:center' src=img/fixation3.jpg></div><div class='cl'><div class='vertical-center'>$60<br>for<br>Michael</div></div><div class='cr'><div class='vertical-center'>$25<br>for<br>yourself</div></div><div class='respDivL'><div class='vertical-center'>(E)</div></div><div class='respDivR'><div class='vertical-center'>(I)</div></div></div>","E","$25<br>for<br>yourself","$60<br>for<br>3","1","25","60","3","OTHER"
"html-keyboard-response","46","85776","0.0-6.0-3.13","63d428eb946e85527cfdf058","bdp_sd","Sat Mar 25 2023 19:44:40 GMT-0700 (Pacific Daylight Time)","100474","","null","","","","","offerFB","","<div class='trialBorder'><div class='vertical-center'><img style='vertical-align:center; align:center' src=img/fixation3.jpg></div><div class='cl'><div class='vertical-center'><font style='color:orange'>$60<br>for<br>Michael</font></div></div><div class='cr'><div class='vertical-center'>$25<br>for<br>yourself</div></div><div class='respDivL'><div class='vertical-center'><font style='color:orange'>(E)</font></div></div><div class='respDivR'><div class='vertical-center'>(I)</div></div></div>","null","$25<br>for<br>yourself","$60<br>for<br>3","1","25","60","3",""
"html-keyboard-response","47","86278","0.0-6.0-1.14","63d428eb946e85527cfdf058","bdp_sd","Sat Mar 25 2023 19:44:40 GMT-0700 (Pacific Daylight Time)","100474","","null","","","","","FIX","","<div class='trialBorder'><div class='vertical-center'><img style='vertical-align:center; align:center' src=img/fixation3.jpg></div></div>","null","","","","","","",""
"html-keyboard-response","48","86433","0.0-6.0-2.14","63d428eb946e85527cfdf058","bdp_sd","Sat Mar 25 2023 19:44:40 GMT-0700 (Pacific Daylight Time)","100474","","154","","","","","offer","","<div class='trialBorder'><div class='vertical-center'><img style='vertical-align:center; align:center' src=img/fixation3.jpg></div><div class='cl'><div class='vertical-center'>$15<br>for<br>yourself</div></div><div class='cr'><div class='vertical-center'>$35<br>for<br>Alyssa</div></div><div class='respDivL'><div class='vertical-center'>(E)</div></div><div class='respDivR'><div class='vertical-center'>(I)</div></div></div>","E","$15<br>for<br>yourself","$35<br>for<br>2","0","15","35","2","SELF"
"html-keyboard-response","49","86687","0.0-6.0-3.14","63d428eb946e85527cfdf058","bdp_sd","Sat Mar 25 2023 19:44:40 GMT-0700 (Pacific Daylight Time)","100474","","null","","","","","offerFB","","<div class='trialBorder'><div class='vertical-center'><img style='vertical-align:center; align:center' src=img/fixation3.jpg></div><div class='cl'><div class='vertical-center'><font style='color:orange'>$15<br>for<br>yourself</font></div></div><div class='cr'><div class='vertical-center'>$35<br>for<br>Alyssa</div></div><div class='respDivL'><div class='vertical-center'><font style='color:orange'>(E)</font></div></div><div class='respDivR'><div class='vertical-center'>(I)</div></div></div>","null","$15<br>for<br>yourself","$35<br>for<br>2","0","15","35","2",""
"html-keyboard-response","50","87190","0.0-6.0-1.15","63d428eb946e85527cfdf058","bdp_sd","Sat Mar 25 2023 19:44:40 GMT-0700 (Pacific Daylight Time)","100474","","null","","","","","FIX","","<div class='trialBorder'><div class='vertical-center'><img style='vertical-align:center; align:center' src=img/fixation3.jpg></div></div>","null","","","","","","",""
"html-keyboard-response","51","87318","0.0-6.0-2.15","63d428eb946e85527cfdf058","bdp_sd","Sat Mar 25 2023 19:44:40 GMT-0700 (Pacific Daylight Time)","100474","","124","","","","","offer","","<div class='trialBorder'><div class='vertical-center'><img style='vertical-align:center; align:center' src=img/fixation3.jpg></div><div class='cl'><div class='vertical-center'>$35<br>for<br>Grace</div></div><div class='cr'><div class='vertical-center'>$34<br>for<br>yourself</div></div><div class='respDivL'><div class='vertical-center'>(E)</div></div><div class='respDivR'><div class='vertical-center'>(I)</div></div></div>","I","$34<br>for<br>yourself","$35<br>for<br>5","1","34","35","5","SELF"
"html-keyboard-response","52","87571","0.0-6.0-3.15","63d428eb946e85527cfdf058","bdp_sd","Sat Mar 25 2023 19:44:40 GMT-0700 (Pacific Daylight Time)","100474","","null","","","","","offerFB","","<div class='trialBorder'><div class='vertical-center'><img style='vertical-align:center; align:center' src=img/fixation3.jpg></div><div class='cl'><div class='vertical-center'>$35<br>for<br>Grace</div></div><div class='cr'><div class='vertical-center'><font style='color:orange'>$34<br>for<br>yourself</font></div></div><div class='respDivL'><div class='vertical-center'>(E)</div></div><div class='respDivR'><div class='vertical-center'><font style='color:orange'>(I)</font></div></div></div>","null","$34<br>for<br>yourself","$35<br>for<br>5","1","34","35","5",""
"html-keyboard-response","53","88073","0.0-6.0-1.16","63d428eb946e85527cfdf058","bdp_sd","Sat Mar 25 2023 19:44:40 GMT-0700 (Pacific Daylight Time)","100474","","null","","","","","FIX","","<div class='trialBorder'><div class='vertical-center'><img style='vertical-align:center; align:center' src=img/fixation3.jpg></div></div>","null","","","","","","",""
"html-keyboard-response","54","88240","0.0-6.0-2.16","63d428eb946e85527cfdf058","bdp_sd","Sat Mar 25 2023 19:44:40 GMT-0700 (Pacific Daylight Time)","100474","","164","","","","","offer","","<div class='trialBorder'><div class='vertical-center'><img style='vertical-align:center; align:center' src=img/fixation3.jpg></div><div class='cl'><div class='vertical-center'>$55<br>for<br>yourself</div></div><div class='cr'><div class='vertical-center'>$75<br>for<br>Lillie</div></div><div class='respDivL'><div class='vertical-center'>(E)</div></div><div class='respDivR'><div class='vertical-center'>(I)</div></div></div>","E","$55<br>for<br>yourself","$75<br>for<br>4","0","55","75","4","SELF"
"html-keyboard-response","55","88494","0.0-6.0-3.16","63d428eb946e85527cfdf058","bdp_sd","Sat Mar 25 2023 19:44:40 GMT-0700 (Pacific Daylight Time)","100474","","null","","","","","offerFB","","<div class='trialBorder'><div class='vertical-center'><img style='vertical-align:center; align:center' src=img/fixation3.jpg></div><div class='cl'><div class='vertical-center'><font style='color:orange'>$55<br>for<br>yourself</font></div></div><div class='cr'><div class='vertical-center'>$75<br>for<br>Lillie</div></div><div class='respDivL'><div class='vertical-center'><font style='color:orange'>(E)</font></div></div><div class='respDivR'><div class='vertical-center'>(I)</div></div></div>","null","$55<br>for<br>yourself","$75<br>for<br>4","0","55","75","4",""
"html-keyboard-response","56","88996","0.0-6.0-1.17","63d428eb946e85527cfdf058","bdp_sd","Sat Mar 25 2023 19:44:40 GMT-0700 (Pacific Daylight Time)","100474","","null","","","","","FIX","","<div class='trialBorder'><div class='vertical-center'><img style='vertical-align:center; align:center' src=img/fixation3.jpg></div></div>","null","","","","","","",""
"html-keyboard-response","57","89129","0.0-6.0-2.17","63d428eb946e85527cfdf058","bdp_sd","Sat Mar 25 2023 19:44:40 GMT-0700 (Pacific Daylight Time)","100474","","130","","","","","offer","","<div class='trialBorder'><div class='vertical-center'><img style='vertical-align:center; align:center' src=img/fixation3.jpg></div><div class='cl'><div class='vertical-center'>$80<br>for<br>Michael</div></div><div class='cr'><div class='vertical-center'>$54<br>for<br>yourself</div></div><div class='respDivL'><div class='vertical-center'>(E)</div></div><div class='respDivR'><div class='vertical-center'>(I)</div></div></div>","I","$54<br>for<br>yourself","$80<br>for<br>3","1","54","80","3","SELF"
"html-keyboard-response","58","89381","0.0-6.0-3.17","63d428eb946e85527cfdf058","bdp_sd","Sat Mar 25 2023 19:44:40 GMT-0700 (Pacific Daylight Time)","100474","","null","","","","","offerFB","","<div class='trialBorder'><div class='vertical-center'><img style='vertical-align:center; align:center' src=img/fixation3.jpg></div><div class='cl'><div class='vertical-center'>$80<br>for<br>Michael</div></div><div class='cr'><div class='vertical-center'><font style='color:orange'>$54<br>for<br>yourself</font></div></div><div class='respDivL'><div class='vertical-center'>(E)</div></div><div class='respDivR'><div class='vertical-center'><font style='color:orange'>(I)</font></div></div></div>","null","$54<br>for<br>yourself","$80<br>for<br>3","1","54","80","3",""
"html-keyboard-response","59","89884","0.0-6.0-1.18","63d428eb946e85527cfdf058","bdp_sd","Sat Mar 25 2023 19:44:40 GMT-0700 (Pacific Daylight Time)","100474","","null","","","","","FIX","","<div class='trialBorder'><div class='vertical-center'><img style='vertical-align:center; align:center' src=img/fixation3.jpg></div></div>","null","","","","","","",""
"html-keyboard-response","60","90055","0.0-6.0-2.18","63d428eb946e85527cfdf058","bdp_sd","Sat Mar 25 2023 19:44:40 GMT-0700 (Pacific Daylight Time)","100474","","169","","","","","offer","","<div class='trialBorder'><div class='vertical-center'><img style='vertical-align:center; align:center' src=img/fixation3.jpg></div><div class='cl'><div class='vertical-center'>$19<br>for<br>yourself</div></div><div class='cr'><div class='vertical-center'>$25<br>for<br>Lillie</div></div><div class='respDivL'><div class='vertical-center'>(E)</div></div><div class='respDivR'><div class='vertical-center'>(I)</div></div></div>","E","$19<br>for<br>yourself","$25<br>for<br>4","0","19","25","4","SELF"
"html-keyboard-response","61","90309","0.0-6.0-3.18","63d428eb946e85527cfdf058","bdp_sd","Sat Mar 25 2023 19:44:40 GMT-0700 (Pacific Daylight Time)","100474","","null","","","","","offerFB","","<div class='trialBorder'><div class='vertical-center'><img style='vertical-align:center; align:center' src=img/fixation3.jpg></div><div class='cl'><div class='vertical-center'><font style='color:orange'>$19<br>for<br>yourself</font></div></div><div class='cr'><div class='vertical-center'>$25<br>for<br>Lillie</div></div><div class='respDivL'><div class='vertical-center'><font style='color:orange'>(E)</font></div></div><div class='respDivR'><div class='vertical-center'>(I)</div></div></div>","null","$19<br>for<br>yourself","$25<br>for<br>4","0","19","25","4",""
"html-keyboard-response","62","90811","0.0-6.0-1.19","63d428eb946e85527cfdf058","bdp_sd","Sat Mar 25 2023 19:44:40 GMT-0700 (Pacific Daylight Time)","100474","","null","","","","","FIX","","<div class='trialBorder'><div class='vertical-center'><img style='vertical-align:center; align:center' src=img/fixation3.jpg></div></div>","null","","","","","","",""
"html-keyboard-response","63","90920","0.0-6.0-2.19","63d428eb946e85527cfdf058","bdp_sd","Sat Mar 25 2023 19:44:40 GMT-0700 (Pacific Daylight Time)","100474","","107","","","","","offer","","<div class='trialBorder'><div class='vertical-center'><img style='vertical-align:center; align:center' src=img/fixation3.jpg></div><div class='cl'><div class='vertical-center'>$80<br>for<br>Alyssa</div></div><div class='cr'><div class='vertical-center'>$33<br>for<br>yourself</div></div><div class='respDivL'><div class='vertical-center'>(E)</div></div><div class='respDivR'><div class='vertical-center'>(I)</div></div></div>","I","$33<br>for<br>yourself","$80<br>for<br>2","1","33","80","2","SELF"
"html-keyboard-response","64","91173","0.0-6.0-3.19","63d428eb946e85527cfdf058","bdp_sd","Sat Mar 25 2023 19:44:40 GMT-0700 (Pacific Daylight Time)","100474","","null","","","","","offerFB","","<div class='trialBorder'><div class='vertical-center'><img style='vertical-align:center; align:center' src=img/fixation3.jpg></div><div class='cl'><div class='vertical-center'>$80<br>for<br>Alyssa</div></div><div class='cr'><div class='vertical-center'><font style='color:orange'>$33<br>for<br>yourself</font></div></div><div class='respDivL'><div class='vertical-center'>(E)</div></div><div class='respDivR'><div class='vertical-center'><font style='color:orange'>(I)</font></div></div></div>","null","$33<br>for<br>yourself","$80<br>for<br>2","1","33","80","2",""
"html-keyboard-response","65","91675","0.0-6.0-1.20","63d428eb946e85527cfdf058","bdp_sd","Sat Mar 25 2023 19:44:40 GMT-0700 (Pacific Daylight Time)","100474","","null","","","","","FIX","","<div class='trialBorder'><div class='vertical-center'><img style='vertical-align:center; align:center' src=img/fixation3.jpg></div></div>","null","","","","","","",""
"html-keyboard-response","66","91901","0.0-6.0-2.20","63d428eb946e85527cfdf058","bdp_sd","Sat Mar 25 2023 19:44:40 GMT-0700 (Pacific Daylight Time)","100474","","223","","","","","offer","","<div class='trialBorder'><div class='vertical-center'><img style='vertical-align:center; align:center' src=img/fixation3.jpg></div><div class='cl'><div class='vertical-center'>$22<br>for<br>yourself</div></div><div class='cr'><div class='vertical-center'>$25<br>for<br>Grace</div></div><div class='respDivL'><div class='vertical-center'>(E)</div></div><div class='respDivR'><div class='vertical-center'>(I)</div></div></div>","E","$22<br>for<br>yourself","$25<br>for<br>5","0","22","25","5","SELF"
"html-keyboard-response","67","92154","0.0-6.0-3.20","63d428eb946e85527cfdf058","bdp_sd","Sat Mar 25 2023 19:44:40 GMT-0700 (Pacific Daylight Time)","100474","","null","","","","","offerFB","","<div class='trialBorder'><div class='vertical-center'><img style='vertical-align:center; align:center' src=img/fixation3.jpg></div><div class='cl'><div class='vertical-center'><font style='color:orange'>$22<br>for<br>yourself</font></div></div><div class='cr'><div class='vertical-center'>$25<br>for<br>Grace</div></div><div class='respDivL'><div class='vertical-center'><font style='color:orange'>(E)</font></div></div><div class='respDivR'><div class='vertical-center'>(I)</div></div></div>","null","$22<br>for<br>yourself","$25<br>for<br>5","0","22","25","5",""
"html-keyboard-response","68","92656","0.0-6.0-1.21","63d428eb946e85527cfdf058","bdp_sd","Sat Mar 25 2023 19:44:40 GMT-0700 (Pacific Daylight Time)","100474","","null","","","","","FIX","","<div class='trialBorder'><div class='vertical-center'><img style='vertical-align:center; align:center' src=img/fixation3.jpg></div></div>","null","","","","","","",""
"html-keyboard-response","69","92817","0.0-6.0-2.21","63d428eb946e85527cfdf058","bdp_sd","Sat Mar 25 2023 19:44:40 GMT-0700 (Pacific Daylight Time)","100474","","158","","","","","offer","","<div class='trialBorder'><div class='vertical-center'><img style='vertical-align:center; align:center' src=img/fixation3.jpg></div><div class='cl'><div class='vertical-center'>$67<br>for<br>yourself</div></div><div class='cr'><div class='vertical-center'>$75<br>for<br>Grace</div></div><div class='respDivL'><div class='vertical-center'>(E)</div></div><div class='respDivR'><div class='vertical-center'>(I)</div></div></div>","I","$67<br>for<br>yourself","$75<br>for<br>5","0","67","75","5","OTHER"
"html-keyboard-response","70","93069","0.0-6.0-3.21","63d428eb946e85527cfdf058","bdp_sd","Sat Mar 25 2023 19:44:40 GMT-0700 (Pacific Daylight Time)","100474","","null","","","","","offerFB","","<div class='trialBorder'><div class='vertical-center'><img style='vertical-align:center; align:center' src=img/fixation3.jpg></div><div class='cl'><div class='vertical-center'>$67<br>for<br>yourself</div></div><div class='cr'><div class='vertical-center'><font style='color:orange'>$75<br>for<br>Grace</font></div></div><div class='respDivL'><div class='vertical-center'>(E)</div></div><div class='respDivR'><div class='vertical-center'><font style='color:orange'>(I)</font></div></div></div>","null","$67<br>for<br>yourself","$75<br>for<br>5","0","67","75","5",""
"html-keyboard-response","71","93571","0.0-6.0-1.22","63d428eb946e85527cfdf058","bdp_sd","Sat Mar 25 2023 19:44:40 GMT-0700 (Pacific Daylight Time)","100474","","null","","","","","FIX","","<div class='trialBorder'><div class='vertical-center'><img style='vertical-align:center; align:center' src=img/fixation3.jpg></div></div>","null","","","","","","",""
"html-keyboard-response","72","93834","0.0-6.0-2.22","63d428eb946e85527cfdf058","bdp_sd","Sat Mar 25 2023 19:44:40 GMT-0700 (Pacific Daylight Time)","100474","","260","","","","","offer","","<div class='trialBorder'><div class='vertical-center'><img style='vertical-align:center; align:center' src=img/fixation3.jpg></div><div class='cl'><div class='vertical-center'>$24<br>for<br>yourself</div></div><div class='cr'><div class='vertical-center'>$35<br>for<br>Michael</div></div><div class='respDivL'><div class='vertical-center'>(E)</div></div><div class='respDivR'><div class='vertical-center'>(I)</div></div></div>","E","$24<br>for<br>yourself","$35<br>for<br>3","0","24","35","3","SELF"
"html-keyboard-response","73","94087","0.0-6.0-3.22","63d428eb946e85527cfdf058","bdp_sd","Sat Mar 25 2023 19:44:40 GMT-0700 (Pacific Daylight Time)","100474","","null","","","","","offerFB","","<div class='trialBorder'><div class='vertical-center'><img style='vertical-align:center; align:center' src=img/fixation3.jpg></div><div class='cl'><div class='vertical-center'><font style='color:orange'>$24<br>for<br>yourself</font></div></div><div class='cr'><div class='vertical-center'>$35<br>for<br>Michael</div></div><div class='respDivL'><div class='vertical-center'><font style='color:orange'>(E)</font></div></div><div class='respDivR'><div class='vertical-center'>(I)</div></div></div>","null","$24<br>for<br>yourself","$35<br>for<br>3","0","24","35","3",""
"html-keyboard-response","74","94589","0.0-6.0-1.23","63d428eb946e85527cfdf058","bdp_sd","Sat Mar 25 2023 19:44:40 GMT-0700 (Pacific Daylight Time)","100474","","null","","","","","FIX","","<div class='trialBorder'><div class='vertical-center'><img style='vertical-align:center; align:center' src=img/fixation3.jpg></div></div>","null","","","","","","",""
"html-keyboard-response","75","94758","0.0-6.0-2.23","63d428eb946e85527cfdf058","bdp_sd","Sat Mar 25 2023 19:44:40 GMT-0700 (Pacific Daylight Time)","100474","","166","","","","","offer","","<div class='trialBorder'><div class='vertical-center'><img style='vertical-align:center; align:center' src=img/fixation3.jpg></div><div class='cl'><div class='vertical-center'>$27<br>for<br>yourself</div></div><div class='cr'><div class='vertical-center'>$50<br>for<br>Michael</div></div><div class='respDivL'><div class='vertical-center'>(E)</div></div><div class='respDivR'><div class='vertical-center'>(I)</div></div></div>","I","$27<br>for<br>yourself","$50<br>for<br>3","0","27","50","3","OTHER"
"html-keyboard-response","76","95010","0.0-6.0-3.23","63d428eb946e85527cfdf058","bdp_sd","Sat Mar 25 2023 19:44:40 GMT-0700 (Pacific Daylight Time)","100474","","null","","","","","offerFB","","<div class='trialBorder'><div class='vertical-center'><img style='vertical-align:center; align:center' src=img/fixation3.jpg></div><div class='cl'><div class='vertical-center'>$27<br>for<br>yourself</div></div><div class='cr'><div class='vertical-center'><font style='color:orange'>$50<br>for<br>Michael</font></div></div><div class='respDivL'><div class='vertical-center'>(E)</div></div><div class='respDivR'><div class='vertical-center'><font style='color:orange'>(I)</font></div></div></div>","null","$27<br>for<br>yourself","$50<br>for<br>3","0","27","50","3",""
"html-keyboard-response","77","95513","0.0-6.0-1.24","63d428eb946e85527cfdf058","bdp_sd","Sat Mar 25 2023 19:44:40 GMT-0700 (Pacific Daylight Time)","100474","","null","","","","","FIX","","<div class='trialBorder'><div class='vertical-center'><img style='vertical-align:center; align:center' src=img/fixation3.jpg></div></div>","null","","","","","","",""
"html-keyboard-response","78","96651","0.0-6.0-2.24","63d428eb946e85527cfdf058","bdp_sd","Sat Mar 25 2023 19:44:40 GMT-0700 (Pacific Daylight Time)","100474","","1135","","","","","offer","","<div class='trialBorder'><div class='vertical-center'><img style='vertical-align:center; align:center' src=img/fixation3.jpg></div><div class='cl'><div class='vertical-center'>$25<br>for<br>Michael</div></div><div class='cr'><div class='vertical-center'>$14<br>for<br>yourself</div></div><div class='respDivL'><div class='vertical-center'>(E)</div></div><div class='respDivR'><div class='vertical-center'>(I)</div></div></div>","E","$14<br>for<br>yourself","$25<br>for<br>3","1","14","25","3","OTHER"
"html-keyboard-response","79","96903","0.0-6.0-3.24","63d428eb946e85527cfdf058","bdp_sd","Sat Mar 25 2023 19:44:40 GMT-0700 (Pacific Daylight Time)","100474","","null","","","","","offerFB","","<div class='trialBorder'><div class='vertical-center'><img style='vertical-align:center; align:center' src=img/fixation3.jpg></div><div class='cl'><div class='vertical-center'><font style='color:orange'>$25<br>for<br>Michael</font></div></div><div class='cr'><div class='vertical-center'>$14<br>for<br>yourself</div></div><div class='respDivL'><div class='vertical-center'><font style='color:orange'>(E)</font></div></div><div class='respDivR'><div class='vertical-center'>(I)</div></div></div>","null","$14<br>for<br>yourself","$25<br>for<br>3","1","14","25","3",""
"html-keyboard-response","80","97405","0.0-6.0-1.25","63d428eb946e85527cfdf058","bdp_sd","Sat Mar 25 2023 19:44:40 GMT-0700 (Pacific Daylight Time)","100474","","null","","","","","FIX","","<div class='trialBorder'><div class='vertical-center'><img style='vertical-align:center; align:center' src=img/fixation3.jpg></div></div>","null","","","","","","",""
"html-keyboard-response","81","98461","0.0-6.0-2.25","63d428eb946e85527cfdf058","bdp_sd","Sat Mar 25 2023 19:44:40 GMT-0700 (Pacific Daylight Time)","100474","","1053","","","","","offer","","<div class='trialBorder'><div class='vertical-center'><img style='vertical-align:center; align:center' src=img/fixation3.jpg></div><div class='cl'><div class='vertical-center'>$78<br>for<br>yourself</div></div><div class='cr'><div class='vertical-center'>$80<br>for<br>Grace</div></div><div class='respDivL'><div class='vertical-center'>(E)</div></div><div class='respDivR'><div class='vertical-center'>(I)</div></div></div>","E","$78<br>for<br>yourself","$80<br>for<br>5","0","78","80","5","SELF"
"html-keyboard-response","82","98714","0.0-6.0-3.25","63d428eb946e85527cfdf058","bdp_sd","Sat Mar 25 2023 19:44:40 GMT-0700 (Pacific Daylight Time)","100474","","null","","","","","offerFB","","<div class='trialBorder'><div class='vertical-center'><img style='vertical-align:center; align:center' src=img/fixation3.jpg></div><div class='cl'><div class='vertical-center'><font style='color:orange'>$78<br>for<br>yourself</font></div></div><div class='cr'><div class='vertical-center'>$80<br>for<br>Grace</div></div><div class='respDivL'><div class='vertical-center'><font style='color:orange'>(E)</font></div></div><div class='respDivR'><div class='vertical-center'>(I)</div></div></div>","null","$78<br>for<br>yourself","$80<br>for<br>5","0","78","80","5",""
"html-keyboard-response","83","99216","0.0-6.0-1.26","63d428eb946e85527cfdf058","bdp_sd","Sat Mar 25 2023 19:44:40 GMT-0700 (Pacific Daylight Time)","100474","","null","","","","","FIX","","<div class='trialBorder'><div class='vertical-center'><img style='vertical-align:center; align:center' src=img/fixation3.jpg></div></div>","null","","","","","","",""
"html-keyboard-response","84","99218","0.0-6.0-2.26","63d428eb946e85527cfdf058","bdp_sd","Sat Mar 25 2023 19:44:40 GMT-0700 (Pacific Daylight Time)","100474","","0","","","","","offer","","<div class='trialBorder'><div class='vertical-center'><img style='vertical-align:center; align:center' src=img/fixation3.jpg></div><div class='cl'><div class='vertical-center'>$55<br>for<br>Lillie</div></div><div class='cr'><div class='vertical-center'>$40<br>for<br>yourself</div></div><div class='respDivL'><div class='vertical-center'>(E)</div></div><div class='respDivR'><div class='vertical-center'>(I)</div></div></div>","I","$40<br>for<br>yourself","$55<br>for<br>4","1","40","55","4","SELF"
"html-keyboard-response","85","99471","0.0-6.0-3.26","63d428eb946e85527cfdf058","bdp_sd","Sat Mar 25 2023 19:44:40 GMT-0700 (Pacific Daylight Time)","100474","","null","","","","","offerFB","","<div class='trialBorder'><div class='vertical-center'><img style='vertical-align:center; align:center' src=img/fixation3.jpg></div><div class='cl'><div class='vertical-center'>$55<br>for<br>Lillie</div></div><div class='cr'><div class='vertical-center'><font style='color:orange'>$40<br>for<br>yourself</font></div></div><div class='respDivL'><div class='vertical-center'>(E)</div></div><div class='respDivR'><div class='vertical-center'><font style='color:orange'>(I)</font></div></div></div>","null","$40<br>for<br>yourself","$55<br>for<br>4","1","40","55","4",""
"","","","","63d428eb946e85527cfdf058","bdp_sd","Sat Mar 25 2023 19:44:40 GMT-0700 (Pacific Daylight Time)","100474","","","","fullscreenexit","86","99514","fullscreenexit","","","","","","","","","",""
"fullscreen","86","100473","0.0-7.0","63d428eb946e85527cfdf058","bdp_sd","Sat Mar 25 2023 19:44:40 GMT-0700 (Pacific Daylight Time)","100474","","","","","","","","true","","","","","","","","",""
"html-keyboard-response","87","100975","0.0-8.0","","","","","","null","","","","","","","","null","","","","","","",""
