"trial_type","trial_index","time_elapsed","internal_node_id","subject_id","task","startTime","totalTime","view_history","rt","responses","event","trial","time","trialtype","success","stimulus","key_press","selfOffer","otherOffer","otherLeft","selfAmt","otherAmt","otherDist","chosen"
"pavlovia","0","2","0.0-0.0","60fcd2b146529d02f1566012","bdp_sd","Fri Mar 24 2023 23:14:03 GMT-0700 (Pacific Daylight Time)","160998","","","","","","","","","","","","","","","","",""
"instructions","1","3112","0.0-1.0","60fcd2b146529d02f1566012","bdp_sd","Fri Mar 24 2023 23:14:03 GMT-0700 (Pacific Daylight Time)","160998","[{""page_index"":0,""viewing_time"":3108}]","3109","","","","","","","","","","","","","","",""
"survey-text","2","45385","0.0-2.0","60fcd2b146529d02f1566012","bdp_sd","Fri Mar 24 2023 23:14:03 GMT-0700 (Pacific Daylight Time)","160998","","42270","{""Q0"":""David G"",""Q1"":""Cassie D"",""Q2"":""Kestrel S"",""Q3"":""Caitlin T"",""Q4"":""Ming Q""}","","","","","","","","","","","","","",""
"","","","","60fcd2b146529d02f1566012","bdp_sd","Fri Mar 24 2023 23:14:03 GMT-0700 (Pacific Daylight Time)","160998","","","","fullscreenenter","3","46859","fullscreenenter","","","","","","","","","",""
"fullscreen","3","47806","0.0-3.0","60fcd2b146529d02f1566012","bdp_sd","Fri Mar 24 2023 23:14:03 GMT-0700 (Pacific Daylight Time)","160998","","","","","","","","true","","","","","","","","",""
"instructions","4","80780","0.0-5.0","60fcd2b146529d02f1566012","bdp_sd","Fri Mar 24 2023 23:14:03 GMT-0700 (Pacific Daylight Time)","160998","[{""page_index"":0,""viewing_time"":6418},{""page_index"":1,""viewing_time"":16797},{""page_index"":2,""viewing_time"":9757}]","32973","","","","","","","","","","","","","","",""
"html-keyboard-response","5","81283","0.0-6.0-1.0","60fcd2b146529d02f1566012","bdp_sd","Fri Mar 24 2023 23:14:03 GMT-0700 (Pacific Daylight Time)","160998","","null","","","","","FIX","","<div class='trialBorder'><div class='vertical-center'><img style='vertical-align:center; align:center' src=img/fixation3.jpg></div></div>","null","","","","","","",""
"html-keyboard-response","6","90021","0.0-6.0-2.0","60fcd2b146529d02f1566012","bdp_sd","Fri Mar 24 2023 23:14:03 GMT-0700 (Pacific Daylight Time)","160998","","8735","","","","","offer","","<div class='trialBorder'><div class='vertical-center'><img style='vertical-align:center; align:center' src=img/fixation3.jpg></div><div class='cl'><div class='vertical-center'>$50<br>for<br>Caitlin T</div></div><div class='cr'><div class='vertical-center'>$34<br>for<br>yourself</div></div><div class='respDivL'><div class='vertical-center'>(E)</div></div><div class='respDivR'><div class='vertical-center'>(I)</div></div></div>","I","$34<br>for<br>yourself","$50<br>for<br>4","1","34","50","4","SELF"
"html-keyboard-response","7","90275","0.0-6.0-3.0","60fcd2b146529d02f1566012","bdp_sd","Fri Mar 24 2023 23:14:03 GMT-0700 (Pacific Daylight Time)","160998","","null","","","","","offerFB","","<div class='trialBorder'><div class='vertical-center'><img style='vertical-align:center; align:center' src=img/fixation3.jpg></div><div class='cl'><div class='vertical-center'>$50<br>for<br>Caitlin T</div></div><div class='cr'><div class='vertical-center'><font style='color:orange'>$34<br>for<br>yourself</font></div></div><div class='respDivL'><div class='vertical-center'>(E)</div></div><div class='respDivR'><div class='vertical-center'><font style='color:orange'>(I)</font></div></div></div>","null","$34<br>for<br>yourself","$50<br>for<br>4","1","34","50","4",""
"html-keyboard-response","8","90777","0.0-6.0-1.1","60fcd2b146529d02f1566012","bdp_sd","Fri Mar 24 2023 23:14:03 GMT-0700 (Pacific Daylight Time)","160998","","null","","","","","FIX","","<div class='trialBorder'><div class='vertical-center'><img style='vertical-align:center; align:center' src=img/fixation3.jpg></div></div>","null","","","","","","",""
"html-keyboard-response","9","93117","0.0-6.0-2.1","60fcd2b146529d02f1566012","bdp_sd","Fri Mar 24 2023 23:14:03 GMT-0700 (Pacific Daylight Time)","160998","","2338","","","","","offer","","<div class='trialBorder'><div class='vertical-center'><img style='vertical-align:center; align:center' src=img/fixation3.jpg></div><div class='cl'><div class='vertical-center'>$78<br>for<br>yourself</div></div><div class='cr'><div class='vertical-center'>$80<br>for<br>Ming Q</div></div><div class='respDivL'><div class='vertical-center'>(E)</div></div><div class='respDivR'><div class='vertical-center'>(I)</div></div></div>","E","$78<br>for<br>yourself","$80<br>for<br>5","0","78","80","5","SELF"
"html-keyboard-response","10","93370","0.0-6.0-3.1","60fcd2b146529d02f1566012","bdp_sd","Fri Mar 24 2023 23:14:03 GMT-0700 (Pacific Daylight Time)","160998","","null","","","","","offerFB","","<div class='trialBorder'><div class='vertical-center'><img style='vertical-align:center; align:center' src=img/fixation3.jpg></div><div class='cl'><div class='vertical-center'><font style='color:orange'>$78<br>for<br>yourself</font></div></div><div class='cr'><div class='vertical-center'>$80<br>for<br>Ming Q</div></div><div class='respDivL'><div class='vertical-center'><font style='color:orange'>(E)</font></div></div><div class='respDivR'><div class='vertical-center'>(I)</div></div></div>","null","$78<br>for<br>yourself","$80<br>for<br>5","0","78","80","5",""
"html-keyboard-response","11","93873","0.0-6.0-1.2","60fcd2b146529d02f1566012","bdp_sd","Fri Mar 24 2023 23:14:03 GMT-0700 (Pacific Daylight Time)","160998","","null","","","","","FIX","","<div class='trialBorder'><div class='vertical-center'><img style='vertical-align:center; align:center' src=img/fixation3.jpg></div></div>","null","","","","","","",""
"html-keyboard-response","12","95018","0.0-6.0-2.2","60fcd2b146529d02f1566012","bdp_sd","Fri Mar 24 2023 23:14:03 GMT-0700 (Pacific Daylight Time)","160998","","1143","","","","","offer","","<div class='trialBorder'><div class='vertical-center'><img style='vertical-align:center; align:center' src=img/fixation3.jpg></div><div class='cl'><div class='vertical-center'>$25<br>for<br>yourself</div></div><div class='cr'><div class='vertical-center'>$60<br>for<br>Kestrel S</div></div><div class='respDivL'><div class='vertical-center'>(E)</div></div><div class='respDivR'><div class='vertical-center'>(I)</div></div></div>","I","$25<br>for<br>yourself","$60<br>for<br>3","0","25","60","3","OTHER"
"html-keyboard-response","13","95271","0.0-6.0-3.2","60fcd2b146529d02f1566012","bdp_sd","Fri Mar 24 2023 23:14:03 GMT-0700 (Pacific Daylight Time)","160998","","null","","","","","offerFB","","<div class='trialBorder'><div class='vertical-center'><img style='vertical-align:center; align:center' src=img/fixation3.jpg></div><div class='cl'><div class='vertical-center'>$25<br>for<br>yourself</div></div><div class='cr'><div class='vertical-center'><font style='color:orange'>$60<br>for<br>Kestrel S</font></div></div><div class='respDivL'><div class='vertical-center'>(E)</div></div><div class='respDivR'><div class='vertical-center'><font style='color:orange'>(I)</font></div></div></div>","null","$25<br>for<br>yourself","$60<br>for<br>3","0","25","60","3",""
"html-keyboard-response","14","95774","0.0-6.0-1.3","60fcd2b146529d02f1566012","bdp_sd","Fri Mar 24 2023 23:14:03 GMT-0700 (Pacific Daylight Time)","160998","","null","","","","","FIX","","<div class='trialBorder'><div class='vertical-center'><img style='vertical-align:center; align:center' src=img/fixation3.jpg></div></div>","null","","","","","","",""
"html-keyboard-response","15","100378","0.0-6.0-2.3","60fcd2b146529d02f1566012","bdp_sd","Fri Mar 24 2023 23:14:03 GMT-0700 (Pacific Daylight Time)","160998","","4603","","","","","offer","","<div class='trialBorder'><div class='vertical-center'><img style='vertical-align:center; align:center' src=img/fixation3.jpg></div><div class='cl'><div class='vertical-center'>$50<br>for<br>Ming Q</div></div><div class='cr'><div class='vertical-center'>$47<br>for<br>yourself</div></div><div class='respDivL'><div class='vertical-center'>(E)</div></div><div class='respDivR'><div class='vertical-center'>(I)</div></div></div>","I","$47<br>for<br>yourself","$50<br>for<br>5","1","47","50","5","SELF"
"html-keyboard-response","16","100631","0.0-6.0-3.3","60fcd2b146529d02f1566012","bdp_sd","Fri Mar 24 2023 23:14:03 GMT-0700 (Pacific Daylight Time)","160998","","null","","","","","offerFB","","<div class='trialBorder'><div class='vertical-center'><img style='vertical-align:center; align:center' src=img/fixation3.jpg></div><div class='cl'><div class='vertical-center'>$50<br>for<br>Ming Q</div></div><div class='cr'><div class='vertical-center'><font style='color:orange'>$47<br>for<br>yourself</font></div></div><div class='respDivL'><div class='vertical-center'>(E)</div></div><div class='respDivR'><div class='vertical-center'><font style='color:orange'>(I)</font></div></div></div>","null","$47<br>for<br>yourself","$50<br>for<br>5","1","47","50","5",""
"html-keyboard-response","17","101133","0.0-6.0-1.4","60fcd2b146529d02f1566012","bdp_sd","Fri Mar 24 2023 23:14:03 GMT-0700 (Pacific Daylight Time)","160998","","null","","","","","FIX","","<div class='trialBorder'><div class='vertical-center'><img style='vertical-align:center; align:center' src=img/fixation3.jpg></div></div>","null","","","","","","",""
"html-keyboard-response","18","103967","0.0-6.0-2.4","60fcd2b146529d02f1566012","bdp_sd","Fri Mar 24 2023 23:14:03 GMT-0700 (Pacific Daylight Time)","160998","","2833","","","","","offer","","<div class='trialBorder'><div class='vertical-center'><img style='vertical-align:center; align:center' src=img/fixation3.jpg></div><div class='cl'><div class='vertical-center'>$27<br>for<br>yourself</div></div><div class='cr'><div class='vertical-center'>$50<br>for<br>Kestrel S</div></div><div class='respDivL'><div class='vertical-center'>(E)</div></div><div class='respDivR'><div class='vertical-center'>(I)</div></div></div>","I","$27<br>for<br>yourself","$50<br>for<br>3","0","27","50","3","OTHER"
"html-keyboard-response","19","104219","0.0-6.0-3.4","60fcd2b146529d02f1566012","bdp_sd","Fri Mar 24 2023 23:14:03 GMT-0700 (Pacific Daylight Time)","160998","","null","","","","","offerFB","","<div class='trialBorder'><div class='vertical-center'><img style='vertical-align:center; align:center' src=img/fixation3.jpg></div><div class='cl'><div class='vertical-center'>$27<br>for<br>yourself</div></div><div class='cr'><div class='vertical-center'><font style='color:orange'>$50<br>for<br>Kestrel S</font></div></div><div class='respDivL'><div class='vertical-center'>(E)</div></div><div class='respDivR'><div class='vertical-center'><font style='color:orange'>(I)</font></div></div></div>","null","$27<br>for<br>yourself","$50<br>for<br>3","0","27","50","3",""
"html-keyboard-response","20","104721","0.0-6.0-1.5","60fcd2b146529d02f1566012","bdp_sd","Fri Mar 24 2023 23:14:03 GMT-0700 (Pacific Daylight Time)","160998","","null","","","","","FIX","","<div class='trialBorder'><div class='vertical-center'><img style='vertical-align:center; align:center' src=img/fixation3.jpg></div></div>","null","","","","","","",""
"html-keyboard-response","21","107478","0.0-6.0-2.5","60fcd2b146529d02f1566012","bdp_sd","Fri Mar 24 2023 23:14:03 GMT-0700 (Pacific Daylight Time)","160998","","2756","","","","","offer","","<div class='trialBorder'><div class='vertical-center'><img style='vertical-align:center; align:center' src=img/fixation3.jpg></div><div class='cl'><div class='vertical-center'>$20<br>for<br>yourself</div></div><div class='cr'><div class='vertical-center'>$55<br>for<br>David G</div></div><div class='respDivL'><div class='vertical-center'>(E)</div></div><div class='respDivR'><div class='vertical-center'>(I)</div></div></div>","I","$20<br>for<br>yourself","$55<br>for<br>1","0","20","55","1","OTHER"
"html-keyboard-response","22","107731","0.0-6.0-3.5","60fcd2b146529d02f1566012","bdp_sd","Fri Mar 24 2023 23:14:03 GMT-0700 (Pacific Daylight Time)","160998","","null","","","","","offerFB","","<div class='trialBorder'><div class='vertical-center'><img style='vertical-align:center; align:center' src=img/fixation3.jpg></div><div class='cl'><div class='vertical-center'>$20<br>for<br>yourself</div></div><div class='cr'><div class='vertical-center'><font style='color:orange'>$55<br>for<br>David G</font></div></div><div class='respDivL'><div class='vertical-center'>(E)</div></div><div class='respDivR'><div class='vertical-center'><font style='color:orange'>(I)</font></div></div></div>","null","$20<br>for<br>yourself","$55<br>for<br>1","0","20","55","1",""
"html-keyboard-response","23","108234","0.0-6.0-1.6","60fcd2b146529d02f1566012","bdp_sd","Fri Mar 24 2023 23:14:03 GMT-0700 (Pacific Daylight Time)","160998","","null","","","","","FIX","","<div class='trialBorder'><div class='vertical-center'><img style='vertical-align:center; align:center' src=img/fixation3.jpg></div></div>","null","","","","","","",""
"html-keyboard-response","24","111020","0.0-6.0-2.6","60fcd2b146529d02f1566012","bdp_sd","Fri Mar 24 2023 23:14:03 GMT-0700 (Pacific Daylight Time)","160998","","2785","","","","","offer","","<div class='trialBorder'><div class='vertical-center'><img style='vertical-align:center; align:center' src=img/fixation3.jpg></div><div class='cl'><div class='vertical-center'>$80<br>for<br>Kestrel S</div></div><div class='cr'><div class='vertical-center'>$54<br>for<br>yourself</div></div><div class='respDivL'><div class='vertical-center'>(E)</div></div><div class='respDivR'><div class='vertical-center'>(I)</div></div></div>","I","$54<br>for<br>yourself","$80<br>for<br>3","1","54","80","3","SELF"
"html-keyboard-response","25","111272","0.0-6.0-3.6","60fcd2b146529d02f1566012","bdp_sd","Fri Mar 24 2023 23:14:03 GMT-0700 (Pacific Daylight Time)","160998","","null","","","","","offerFB","","<div class='trialBorder'><div class='vertical-center'><img style='vertical-align:center; align:center' src=img/fixation3.jpg></div><div class='cl'><div class='vertical-center'>$80<br>for<br>Kestrel S</div></div><div class='cr'><div class='vertical-center'><font style='color:orange'>$54<br>for<br>yourself</font></div></div><div class='respDivL'><div class='vertical-center'>(E)</div></div><div class='respDivR'><div class='vertical-center'><font style='color:orange'>(I)</font></div></div></div>","null","$54<br>for<br>yourself","$80<br>for<br>3","1","54","80","3",""
"html-keyboard-response","26","111774","0.0-6.0-1.7","60fcd2b146529d02f1566012","bdp_sd","Fri Mar 24 2023 23:14:03 GMT-0700 (Pacific Daylight Time)","160998","","null","","","","","FIX","","<div class='trialBorder'><div class='vertical-center'><img style='vertical-align:center; align:center' src=img/fixation3.jpg></div></div>","null","","","","","","",""
"html-keyboard-response","27","113535","0.0-6.0-2.7","60fcd2b146529d02f1566012","bdp_sd","Fri Mar 24 2023 23:14:03 GMT-0700 (Pacific Daylight Time)","160998","","1760","","","","","offer","","<div class='trialBorder'><div class='vertical-center'><img style='vertical-align:center; align:center' src=img/fixation3.jpg></div><div class='cl'><div class='vertical-center'>$35<br>for<br>Cassie D</div></div><div class='cr'><div class='vertical-center'>$15<br>for<br>yourself</div></div><div class='respDivL'><div class='vertical-center'>(E)</div></div><div class='respDivR'><div class='vertical-center'>(I)</div></div></div>","E","$15<br>for<br>yourself","$35<br>for<br>2","1","15","35","2","OTHER"
"html-keyboard-response","28","113788","0.0-6.0-3.7","60fcd2b146529d02f1566012","bdp_sd","Fri Mar 24 2023 23:14:03 GMT-0700 (Pacific Daylight Time)","160998","","null","","","","","offerFB","","<div class='trialBorder'><div class='vertical-center'><img style='vertical-align:center; align:center' src=img/fixation3.jpg></div><div class='cl'><div class='vertical-center'><font style='color:orange'>$35<br>for<br>Cassie D</font></div></div><div class='cr'><div class='vertical-center'>$15<br>for<br>yourself</div></div><div class='respDivL'><div class='vertical-center'><font style='color:orange'>(E)</font></div></div><div class='respDivR'><div class='vertical-center'>(I)</div></div></div>","null","$15<br>for<br>yourself","$35<br>for<br>2","1","15","35","2",""
"html-keyboard-response","29","114291","0.0-6.0-1.8","60fcd2b146529d02f1566012","bdp_sd","Fri Mar 24 2023 23:14:03 GMT-0700 (Pacific Daylight Time)","160998","","null","","","","","FIX","","<div class='trialBorder'><div class='vertical-center'><img style='vertical-align:center; align:center' src=img/fixation3.jpg></div></div>","null","","","","","","",""
"html-keyboard-response","30","115740","0.0-6.0-2.8","60fcd2b146529d02f1566012","bdp_sd","Fri Mar 24 2023 23:14:03 GMT-0700 (Pacific Daylight Time)","160998","","1447","","","","","offer","","<div class='trialBorder'><div class='vertical-center'><img style='vertical-align:center; align:center' src=img/fixation3.jpg></div><div class='cl'><div class='vertical-center'>$35<br>for<br>Ming Q</div></div><div class='cr'><div class='vertical-center'>$34<br>for<br>yourself</div></div><div class='respDivL'><div class='vertical-center'>(E)</div></div><div class='respDivR'><div class='vertical-center'>(I)</div></div></div>","I","$34<br>for<br>yourself","$35<br>for<br>5","1","34","35","5","SELF"
"html-keyboard-response","31","115992","0.0-6.0-3.8","60fcd2b146529d02f1566012","bdp_sd","Fri Mar 24 2023 23:14:03 GMT-0700 (Pacific Daylight Time)","160998","","null","","","","","offerFB","","<div class='trialBorder'><div class='vertical-center'><img style='vertical-align:center; align:center' src=img/fixation3.jpg></div><div class='cl'><div class='vertical-center'>$35<br>for<br>Ming Q</div></div><div class='cr'><div class='vertical-center'><font style='color:orange'>$34<br>for<br>yourself</font></div></div><div class='respDivL'><div class='vertical-center'>(E)</div></div><div class='respDivR'><div class='vertical-center'><font style='color:orange'>(I)</font></div></div></div>","null","$34<br>for<br>yourself","$35<br>for<br>5","1","34","35","5",""
"html-keyboard-response","32","116494","0.0-6.0-1.9","60fcd2b146529d02f1566012","bdp_sd","Fri Mar 24 2023 23:14:03 GMT-0700 (Pacific Daylight Time)","160998","","null","","","","","FIX","","<div class='trialBorder'><div class='vertical-center'><img style='vertical-align:center; align:center' src=img/fixation3.jpg></div></div>","null","","","","","","",""
"html-keyboard-response","33","118303","0.0-6.0-2.9","60fcd2b146529d02f1566012","bdp_sd","Fri Mar 24 2023 23:14:03 GMT-0700 (Pacific Daylight Time)","160998","","1806","","","","","offer","","<div class='trialBorder'><div class='vertical-center'><img style='vertical-align:center; align:center' src=img/fixation3.jpg></div><div class='cl'><div class='vertical-center'>$25<br>for<br>Kestrel S</div></div><div class='cr'><div class='vertical-center'>$14<br>for<br>yourself</div></div><div class='respDivL'><div class='vertical-center'>(E)</div></div><div class='respDivR'><div class='vertical-center'>(I)</div></div></div>","E","$14<br>for<br>yourself","$25<br>for<br>3","1","14","25","3","OTHER"
"html-keyboard-response","34","118555","0.0-6.0-3.9","60fcd2b146529d02f1566012","bdp_sd","Fri Mar 24 2023 23:14:03 GMT-0700 (Pacific Daylight Time)","160998","","null","","","","","offerFB","","<div class='trialBorder'><div class='vertical-center'><img style='vertical-align:center; align:center' src=img/fixation3.jpg></div><div class='cl'><div class='vertical-center'><font style='color:orange'>$25<br>for<br>Kestrel S</font></div></div><div class='cr'><div class='vertical-center'>$14<br>for<br>yourself</div></div><div class='respDivL'><div class='vertical-center'><font style='color:orange'>(E)</font></div></div><div class='respDivR'><div class='vertical-center'>(I)</div></div></div>","null","$14<br>for<br>yourself","$25<br>for<br>3","1","14","25","3",""
"html-keyboard-response","35","119058","0.0-6.0-1.10","60fcd2b146529d02f1566012","bdp_sd","Fri Mar 24 2023 23:14:03 GMT-0700 (Pacific Daylight Time)","160998","","null","","","","","FIX","","<div class='trialBorder'><div class='vertical-center'><img style='vertical-align:center; align:center' src=img/fixation3.jpg></div></div>","null","","","","","","",""
"html-keyboard-response","36","120611","0.0-6.0-2.10","60fcd2b146529d02f1566012","bdp_sd","Fri Mar 24 2023 23:14:03 GMT-0700 (Pacific Daylight Time)","160998","","1551","","","","","offer","","<div class='trialBorder'><div class='vertical-center'><img style='vertical-align:center; align:center' src=img/fixation3.jpg></div><div class='cl'><div class='vertical-center'>$75<br>for<br>Caitlin T</div></div><div class='cr'><div class='vertical-center'>$55<br>for<br>yourself</div></div><div class='respDivL'><div class='vertical-center'>(E)</div></div><div class='respDivR'><div class='vertical-center'>(I)</div></div></div>","I","$55<br>for<br>yourself","$75<br>for<br>4","1","55","75","4","SELF"
"html-keyboard-response","37","120864","0.0-6.0-3.10","60fcd2b146529d02f1566012","bdp_sd","Fri Mar 24 2023 23:14:03 GMT-0700 (Pacific Daylight Time)","160998","","null","","","","","offerFB","","<div class='trialBorder'><div class='vertical-center'><img style='vertical-align:center; align:center' src=img/fixation3.jpg></div><div class='cl'><div class='vertical-center'>$75<br>for<br>Caitlin T</div></div><div class='cr'><div class='vertical-center'><font style='color:orange'>$55<br>for<br>yourself</font></div></div><div class='respDivL'><div class='vertical-center'>(E)</div></div><div class='respDivR'><div class='vertical-center'><font style='color:orange'>(I)</font></div></div></div>","null","$55<br>for<br>yourself","$75<br>for<br>4","1","55","75","4",""
"html-keyboard-response","38","121366","0.0-6.0-1.11","60fcd2b146529d02f1566012","bdp_sd","Fri Mar 24 2023 23:14:03 GMT-0700 (Pacific Daylight Time)","160998","","null","","","","","FIX","","<div class='trialBorder'><div class='vertical-center'><img style='vertical-align:center; align:center' src=img/fixation3.jpg></div></div>","null","","","","","","",""
"html-keyboard-response","39","123066","0.0-6.0-2.11","60fcd2b146529d02f1566012","bdp_sd","Fri Mar 24 2023 23:14:03 GMT-0700 (Pacific Daylight Time)","160998","","1698","","","","","offer","","<div class='trialBorder'><div class='vertical-center'><img style='vertical-align:center; align:center' src=img/fixation3.jpg></div><div class='cl'><div class='vertical-center'>$55<br>for<br>Ming Q</div></div><div class='cr'><div class='vertical-center'>$54<br>for<br>yourself</div></div><div class='respDivL'><div class='vertical-center'>(E)</div></div><div class='respDivR'><div class='vertical-center'>(I)</div></div></div>","I","$54<br>for<br>yourself","$55<br>for<br>5","1","54","55","5","SELF"
"html-keyboard-response","40","123318","0.0-6.0-3.11","60fcd2b146529d02f1566012","bdp_sd","Fri Mar 24 2023 23:14:03 GMT-0700 (Pacific Daylight Time)","160998","","null","","","","","offerFB","","<div class='trialBorder'><div class='vertical-center'><img style='vertical-align:center; align:center' src=img/fixation3.jpg></div><div class='cl'><div class='vertical-center'>$55<br>for<br>Ming Q</div></div><div class='cr'><div class='vertical-center'><font style='color:orange'>$54<br>for<br>yourself</font></div></div><div class='respDivL'><div class='vertical-center'>(E)</div></div><div class='respDivR'><div class='vertical-center'><font style='color:orange'>(I)</font></div></div></div>","null","$54<br>for<br>yourself","$55<br>for<br>5","1","54","55","5",""
"html-keyboard-response","41","123821","0.0-6.0-1.12","60fcd2b146529d02f1566012","bdp_sd","Fri Mar 24 2023 23:14:03 GMT-0700 (Pacific Daylight Time)","160998","","null","","","","","FIX","","<div class='trialBorder'><div class='vertical-center'><img style='vertical-align:center; align:center' src=img/fixation3.jpg></div></div>","null","","","","","","",""
"html-keyboard-response","42","125598","0.0-6.0-2.12","60fcd2b146529d02f1566012","bdp_sd","Fri Mar 24 2023 23:14:03 GMT-0700 (Pacific Daylight Time)","160998","","1775","","","","","offer","","<div class='trialBorder'><div class='vertical-center'><img style='vertical-align:center; align:center' src=img/fixation3.jpg></div><div class='cl'><div class='vertical-center'>$33<br>for<br>yourself</div></div><div class='cr'><div class='vertical-center'>$80<br>for<br>Cassie D</div></div><div class='respDivL'><div class='vertical-center'>(E)</div></div><div class='respDivR'><div class='vertical-center'>(I)</div></div></div>","I","$33<br>for<br>yourself","$80<br>for<br>2","0","33","80","2","OTHER"
"html-keyboard-response","43","125850","0.0-6.0-3.12","60fcd2b146529d02f1566012","bdp_sd","Fri Mar 24 2023 23:14:03 GMT-0700 (Pacific Daylight Time)","160998","","null","","","","","offerFB","","<div class='trialBorder'><div class='vertical-center'><img style='vertical-align:center; align:center' src=img/fixation3.jpg></div><div class='cl'><div class='vertical-center'>$33<br>for<br>yourself</div></div><div class='cr'><div class='vertical-center'><font style='color:orange'>$80<br>for<br>Cassie D</font></div></div><div class='respDivL'><div class='vertical-center'>(E)</div></div><div class='respDivR'><div class='vertical-center'><font style='color:orange'>(I)</font></div></div></div>","null","$33<br>for<br>yourself","$80<br>for<br>2","0","33","80","2",""
"html-keyboard-response","44","126353","0.0-6.0-1.13","60fcd2b146529d02f1566012","bdp_sd","Fri Mar 24 2023 23:14:03 GMT-0700 (Pacific Daylight Time)","160998","","null","","","","","FIX","","<div class='trialBorder'><div class='vertical-center'><img style='vertical-align:center; align:center' src=img/fixation3.jpg></div></div>","null","","","","","","",""
"html-keyboard-response","45","127785","0.0-6.0-2.13","60fcd2b146529d02f1566012","bdp_sd","Fri Mar 24 2023 23:14:03 GMT-0700 (Pacific Daylight Time)","160998","","1430","","","","","offer","","<div class='trialBorder'><div class='vertical-center'><img style='vertical-align:center; align:center' src=img/fixation3.jpg></div><div class='cl'><div class='vertical-center'>$85<br>for<br>Ming Q</div></div><div class='cr'><div class='vertical-center'>$80<br>for<br>yourself</div></div><div class='respDivL'><div class='vertical-center'>(E)</div></div><div class='respDivR'><div class='vertical-center'>(I)</div></div></div>","I","$80<br>for<br>yourself","$85<br>for<br>5","1","80","85","5","SELF"
"html-keyboard-response","46","128038","0.0-6.0-3.13","60fcd2b146529d02f1566012","bdp_sd","Fri Mar 24 2023 23:14:03 GMT-0700 (Pacific Daylight Time)","160998","","null","","","","","offerFB","","<div class='trialBorder'><div class='vertical-center'><img style='vertical-align:center; align:center' src=img/fixation3.jpg></div><div class='cl'><div class='vertical-center'>$85<br>for<br>Ming Q</div></div><div class='cr'><div class='vertical-center'><font style='color:orange'>$80<br>for<br>yourself</font></div></div><div class='respDivL'><div class='vertical-center'>(E)</div></div><div class='respDivR'><div class='vertical-center'><font style='color:orange'>(I)</font></div></div></div>","null","$80<br>for<br>yourself","$85<br>for<br>5","1","80","85","5",""
"html-keyboard-response","47","128541","0.0-6.0-1.14","60fcd2b146529d02f1566012","bdp_sd","Fri Mar 24 2023 23:14:03 GMT-0700 (Pacific Daylight Time)","160998","","null","","","","","FIX","","<div class='trialBorder'><div class='vertical-center'><img style='vertical-align:center; align:center' src=img/fixation3.jpg></div></div>","null","","","","","","",""
"html-keyboard-response","48","130036","0.0-6.0-2.14","60fcd2b146529d02f1566012","bdp_sd","Fri Mar 24 2023 23:14:03 GMT-0700 (Pacific Daylight Time)","160998","","1494","","","","","offer","","<div class='trialBorder'><div class='vertical-center'><img style='vertical-align:center; align:center' src=img/fixation3.jpg></div><div class='cl'><div class='vertical-center'>$67<br>for<br>yourself</div></div><div class='cr'><div class='vertical-center'>$75<br>for<br>Ming Q</div></div><div class='respDivL'><div class='vertical-center'>(E)</div></div><div class='respDivR'><div class='vertical-center'>(I)</div></div></div>","E","$67<br>for<br>yourself","$75<br>for<br>5","0","67","75","5","SELF"
"html-keyboard-response","49","130287","0.0-6.0-3.14","60fcd2b146529d02f1566012","bdp_sd","Fri Mar 24 2023 23:14:03 GMT-0700 (Pacific Daylight Time)","160998","","null","","","","","offerFB","","<div class='trialBorder'><div class='vertical-center'><img style='vertical-align:center; align:center' src=img/fixation3.jpg></div><div class='cl'><div class='vertical-center'><font style='color:orange'>$67<br>for<br>yourself</font></div></div><div class='cr'><div class='vertical-center'>$75<br>for<br>Ming Q</div></div><div class='respDivL'><div class='vertical-center'><font style='color:orange'>(E)</font></div></div><div class='respDivR'><div class='vertical-center'>(I)</div></div></div>","null","$67<br>for<br>yourself","$75<br>for<br>5","0","67","75","5",""
"html-keyboard-response","50","130789","0.0-6.0-1.15","60fcd2b146529d02f1566012","bdp_sd","Fri Mar 24 2023 23:14:03 GMT-0700 (Pacific Daylight Time)","160998","","null","","","","","FIX","","<div class='trialBorder'><div class='vertical-center'><img style='vertical-align:center; align:center' src=img/fixation3.jpg></div></div>","null","","","","","","",""
"html-keyboard-response","51","133098","0.0-6.0-2.15","60fcd2b146529d02f1566012","bdp_sd","Fri Mar 24 2023 23:14:03 GMT-0700 (Pacific Daylight Time)","160998","","2307","","","","","offer","","<div class='trialBorder'><div class='vertical-center'><img style='vertical-align:center; align:center' src=img/fixation3.jpg></div><div class='cl'><div class='vertical-center'>$30<br>for<br>Caitlin T</div></div><div class='cr'><div class='vertical-center'>$25<br>for<br>yourself</div></div><div class='respDivL'><div class='vertical-center'>(E)</div></div><div class='respDivR'><div class='vertical-center'>(I)</div></div></div>","I","$25<br>for<br>yourself","$30<br>for<br>4","1","25","30","4","SELF"
"html-keyboard-response","52","133350","0.0-6.0-3.15","60fcd2b146529d02f1566012","bdp_sd","Fri Mar 24 2023 23:14:03 GMT-0700 (Pacific Daylight Time)","160998","","null","","","","","offerFB","","<div class='trialBorder'><div class='vertical-center'><img style='vertical-align:center; align:center' src=img/fixation3.jpg></div><div class='cl'><div class='vertical-center'>$30<br>for<br>Caitlin T</div></div><div class='cr'><div class='vertical-center'><font style='color:orange'>$25<br>for<br>yourself</font></div></div><div class='respDivL'><div class='vertical-center'>(E)</div></div><div class='respDivR'><div class='vertical-center'><font style='color:orange'>(I)</font></div></div></div>","null","$25<br>for<br>yourself","$30<br>for<br>4","1","25","30","4",""
"html-keyboard-response","53","133851","0.0-6.0-1.16","60fcd2b146529d02f1566012","bdp_sd","Fri Mar 24 2023 23:14:03 GMT-0700 (Pacific Daylight Time)","160998","","null","","","","","FIX","","<div class='trialBorder'><div class='vertical-center'><img style='vertical-align:center; align:center' src=img/fixation3.jpg></div></div>","null","","","","","","",""
"html-keyboard-response","54","135181","0.0-6.0-2.16","60fcd2b146529d02f1566012","bdp_sd","Fri Mar 24 2023 23:14:03 GMT-0700 (Pacific Daylight Time)","160998","","1329","","","","","offer","","<div class='trialBorder'><div class='vertical-center'><img style='vertical-align:center; align:center' src=img/fixation3.jpg></div><div class='cl'><div class='vertical-center'>$11<br>for<br>yourself</div></div><div class='cr'><div class='vertical-center'>$30<br>for<br>Cassie D</div></div><div class='respDivL'><div class='vertical-center'>(E)</div></div><div class='respDivR'><div class='vertical-center'>(I)</div></div></div>","I","$11<br>for<br>yourself","$30<br>for<br>2","0","11","30","2","OTHER"
"html-keyboard-response","55","135434","0.0-6.0-3.16","60fcd2b146529d02f1566012","bdp_sd","Fri Mar 24 2023 23:14:03 GMT-0700 (Pacific Daylight Time)","160998","","null","","","","","offerFB","","<div class='trialBorder'><div class='vertical-center'><img style='vertical-align:center; align:center' src=img/fixation3.jpg></div><div class='cl'><div class='vertical-center'>$11<br>for<br>yourself</div></div><div class='cr'><div class='vertical-center'><font style='color:orange'>$30<br>for<br>Cassie D</font></div></div><div class='respDivL'><div class='vertical-center'>(E)</div></div><div class='respDivR'><div class='vertical-center'><font style='color:orange'>(I)</font></div></div></div>","null","$11<br>for<br>yourself","$30<br>for<br>2","0","11","30","2",""
"html-keyboard-response","56","135936","0.0-6.0-1.17","60fcd2b146529d02f1566012","bdp_sd","Fri Mar 24 2023 23:14:03 GMT-0700 (Pacific Daylight Time)","160998","","null","","","","","FIX","","<div class='trialBorder'><div class='vertical-center'><img style='vertical-align:center; align:center' src=img/fixation3.jpg></div></div>","null","","","","","","",""
"html-keyboard-response","57","137533","0.0-6.0-2.17","60fcd2b146529d02f1566012","bdp_sd","Fri Mar 24 2023 23:14:03 GMT-0700 (Pacific Daylight Time)","160998","","1595","","","","","offer","","<div class='trialBorder'><div class='vertical-center'><img style='vertical-align:center; align:center' src=img/fixation3.jpg></div><div class='cl'><div class='vertical-center'>$28<br>for<br>yourself</div></div><div class='cr'><div class='vertical-center'>$30<br>for<br>Ming Q</div></div><div class='respDivL'><div class='vertical-center'>(E)</div></div><div class='respDivR'><div class='vertical-center'>(I)</div></div></div>","E","$28<br>for<br>yourself","$30<br>for<br>5","0","28","30","5","SELF"
"html-keyboard-response","58","137785","0.0-6.0-3.17","60fcd2b146529d02f1566012","bdp_sd","Fri Mar 24 2023 23:14:03 GMT-0700 (Pacific Daylight Time)","160998","","null","","","","","offerFB","","<div class='trialBorder'><div class='vertical-center'><img style='vertical-align:center; align:center' src=img/fixation3.jpg></div><div class='cl'><div class='vertical-center'><font style='color:orange'>$28<br>for<br>yourself</font></div></div><div class='cr'><div class='vertical-center'>$30<br>for<br>Ming Q</div></div><div class='respDivL'><div class='vertical-center'><font style='color:orange'>(E)</font></div></div><div class='respDivR'><div class='vertical-center'>(I)</div></div></div>","null","$28<br>for<br>yourself","$30<br>for<br>5","0","28","30","5",""
"html-keyboard-response","59","138288","0.0-6.0-1.18","60fcd2b146529d02f1566012","bdp_sd","Fri Mar 24 2023 23:14:03 GMT-0700 (Pacific Daylight Time)","160998","","null","","","","","FIX","","<div class='trialBorder'><div class='vertical-center'><img style='vertical-align:center; align:center' src=img/fixation3.jpg></div></div>","null","","","","","","",""
"html-keyboard-response","60","140077","0.0-6.0-2.18","60fcd2b146529d02f1566012","bdp_sd","Fri Mar 24 2023 23:14:03 GMT-0700 (Pacific Daylight Time)","160998","","1788","","","","","offer","","<div class='trialBorder'><div class='vertical-center'><img style='vertical-align:center; align:center' src=img/fixation3.jpg></div><div class='cl'><div class='vertical-center'>$31<br>for<br>yourself</div></div><div class='cr'><div class='vertical-center'>$85<br>for<br>David G</div></div><div class='respDivL'><div class='vertical-center'>(E)</div></div><div class='respDivR'><div class='vertical-center'>(I)</div></div></div>","I","$31<br>for<br>yourself","$85<br>for<br>1","0","31","85","1","OTHER"
"html-keyboard-response","61","140330","0.0-6.0-3.18","60fcd2b146529d02f1566012","bdp_sd","Fri Mar 24 2023 23:14:03 GMT-0700 (Pacific Daylight Time)","160998","","null","","","","","offerFB","","<div class='trialBorder'><div class='vertical-center'><img style='vertical-align:center; align:center' src=img/fixation3.jpg></div><div class='cl'><div class='vertical-center'>$31<br>for<br>yourself</div></div><div class='cr'><div class='vertical-center'><font style='color:orange'>$85<br>for<br>David G</font></div></div><div class='respDivL'><div class='vertical-center'>(E)</div></div><div class='respDivR'><div class='vertical-center'><font style='color:orange'>(I)</font></div></div></div>","null","$31<br>for<br>yourself","$85<br>for<br>1","0","31","85","1",""
"html-keyboard-response","62","140832","0.0-6.0-1.19","60fcd2b146529d02f1566012","bdp_sd","Fri Mar 24 2023 23:14:03 GMT-0700 (Pacific Daylight Time)","160998","","null","","","","","FIX","","<div class='trialBorder'><div class='vertical-center'><img style='vertical-align:center; align:center' src=img/fixation3.jpg></div></div>","null","","","","","","",""
"html-keyboard-response","63","142368","0.0-6.0-2.19","60fcd2b146529d02f1566012","bdp_sd","Fri Mar 24 2023 23:14:03 GMT-0700 (Pacific Daylight Time)","160998","","1535","","","","","offer","","<div class='trialBorder'><div class='vertical-center'><img style='vertical-align:center; align:center' src=img/fixation3.jpg></div><div class='cl'><div class='vertical-center'>$60<br>for<br>Ming Q</div></div><div class='cr'><div class='vertical-center'>$54<br>for<br>yourself</div></div><div class='respDivL'><div class='vertical-center'>(E)</div></div><div class='respDivR'><div class='vertical-center'>(I)</div></div></div>","I","$54<br>for<br>yourself","$60<br>for<br>5","1","54","60","5","SELF"
"html-keyboard-response","64","142621","0.0-6.0-3.19","60fcd2b146529d02f1566012","bdp_sd","Fri Mar 24 2023 23:14:03 GMT-0700 (Pacific Daylight Time)","160998","","null","","","","","offerFB","","<div class='trialBorder'><div class='vertical-center'><img style='vertical-align:center; align:center' src=img/fixation3.jpg></div><div class='cl'><div class='vertical-center'>$60<br>for<br>Ming Q</div></div><div class='cr'><div class='vertical-center'><font style='color:orange'>$54<br>for<br>yourself</font></div></div><div class='respDivL'><div class='vertical-center'>(E)</div></div><div class='respDivR'><div class='vertical-center'><font style='color:orange'>(I)</font></div></div></div>","null","$54<br>for<br>yourself","$60<br>for<br>5","1","54","60","5",""
"html-keyboard-response","65","143123","0.0-6.0-1.20","60fcd2b146529d02f1566012","bdp_sd","Fri Mar 24 2023 23:14:03 GMT-0700 (Pacific Daylight Time)","160998","","null","","","","","FIX","","<div class='trialBorder'><div class='vertical-center'><img style='vertical-align:center; align:center' src=img/fixation3.jpg></div></div>","null","","","","","","",""
"html-keyboard-response","66","144874","0.0-6.0-2.20","60fcd2b146529d02f1566012","bdp_sd","Fri Mar 24 2023 23:14:03 GMT-0700 (Pacific Daylight Time)","160998","","1750","","","","","offer","","<div class='trialBorder'><div class='vertical-center'><img style='vertical-align:center; align:center' src=img/fixation3.jpg></div><div class='cl'><div class='vertical-center'>$25<br>for<br>Caitlin T</div></div><div class='cr'><div class='vertical-center'>$19<br>for<br>yourself</div></div><div class='respDivL'><div class='vertical-center'>(E)</div></div><div class='respDivR'><div class='vertical-center'>(I)</div></div></div>","I","$19<br>for<br>yourself","$25<br>for<br>4","1","19","25","4","SELF"
"html-keyboard-response","67","145127","0.0-6.0-3.20","60fcd2b146529d02f1566012","bdp_sd","Fri Mar 24 2023 23:14:03 GMT-0700 (Pacific Daylight Time)","160998","","null","","","","","offerFB","","<div class='trialBorder'><div class='vertical-center'><img style='vertical-align:center; align:center' src=img/fixation3.jpg></div><div class='cl'><div class='vertical-center'>$25<br>for<br>Caitlin T</div></div><div class='cr'><div class='vertical-center'><font style='color:orange'>$19<br>for<br>yourself</font></div></div><div class='respDivL'><div class='vertical-center'>(E)</div></div><div class='respDivR'><div class='vertical-center'><font style='color:orange'>(I)</font></div></div></div>","null","$19<br>for<br>yourself","$25<br>for<br>4","1","19","25","4",""
"html-keyboard-response","68","145629","0.0-6.0-1.21","60fcd2b146529d02f1566012","bdp_sd","Fri Mar 24 2023 23:14:03 GMT-0700 (Pacific Daylight Time)","160998","","null","","","","","FIX","","<div class='trialBorder'><div class='vertical-center'><img style='vertical-align:center; align:center' src=img/fixation3.jpg></div></div>","null","","","","","","",""
"html-keyboard-response","69","147341","0.0-6.0-2.21","60fcd2b146529d02f1566012","bdp_sd","Fri Mar 24 2023 23:14:03 GMT-0700 (Pacific Daylight Time)","160998","","1710","","","","","offer","","<div class='trialBorder'><div class='vertical-center'><img style='vertical-align:center; align:center' src=img/fixation3.jpg></div><div class='cl'><div class='vertical-center'>$69<br>for<br>yourself</div></div><div class='cr'><div class='vertical-center'>$85<br>for<br>Caitlin T</div></div><div class='respDivL'><div class='vertical-center'>(E)</div></div><div class='respDivR'><div class='vertical-center'>(I)</div></div></div>","E","$69<br>for<br>yourself","$85<br>for<br>4","0","69","85","4","SELF"
"html-keyboard-response","70","147594","0.0-6.0-3.21","60fcd2b146529d02f1566012","bdp_sd","Fri Mar 24 2023 23:14:03 GMT-0700 (Pacific Daylight Time)","160998","","null","","","","","offerFB","","<div class='trialBorder'><div class='vertical-center'><img style='vertical-align:center; align:center' src=img/fixation3.jpg></div><div class='cl'><div class='vertical-center'><font style='color:orange'>$69<br>for<br>yourself</font></div></div><div class='cr'><div class='vertical-center'>$85<br>for<br>Caitlin T</div></div><div class='respDivL'><div class='vertical-center'><font style='color:orange'>(E)</font></div></div><div class='respDivR'><div class='vertical-center'>(I)</div></div></div>","null","$69<br>for<br>yourself","$85<br>for<br>4","0","69","85","4",""
"html-keyboard-response","71","148096","0.0-6.0-1.22","60fcd2b146529d02f1566012","bdp_sd","Fri Mar 24 2023 23:14:03 GMT-0700 (Pacific Daylight Time)","160998","","null","","","","","FIX","","<div class='trialBorder'><div class='vertical-center'><img style='vertical-align:center; align:center' src=img/fixation3.jpg></div></div>","null","","","","","","",""
"html-keyboard-response","72","150483","0.0-6.0-2.22","60fcd2b146529d02f1566012","bdp_sd","Fri Mar 24 2023 23:14:03 GMT-0700 (Pacific Daylight Time)","160998","","2386","","","","","offer","","<div class='trialBorder'><div class='vertical-center'><img style='vertical-align:center; align:center' src=img/fixation3.jpg></div><div class='cl'><div class='vertical-center'>$35<br>for<br>Kestrel S</div></div><div class='cr'><div class='vertical-center'>$24<br>for<br>yourself</div></div><div class='respDivL'><div class='vertical-center'>(E)</div></div><div class='respDivR'><div class='vertical-center'>(I)</div></div></div>","I","$24<br>for<br>yourself","$35<br>for<br>3","1","24","35","3","SELF"
"html-keyboard-response","73","150736","0.0-6.0-3.22","60fcd2b146529d02f1566012","bdp_sd","Fri Mar 24 2023 23:14:03 GMT-0700 (Pacific Daylight Time)","160998","","null","","","","","offerFB","","<div class='trialBorder'><div class='vertical-center'><img style='vertical-align:center; align:center' src=img/fixation3.jpg></div><div class='cl'><div class='vertical-center'>$35<br>for<br>Kestrel S</div></div><div class='cr'><div class='vertical-center'><font style='color:orange'>$24<br>for<br>yourself</font></div></div><div class='respDivL'><div class='vertical-center'>(E)</div></div><div class='respDivR'><div class='vertical-center'><font style='color:orange'>(I)</font></div></div></div>","null","$24<br>for<br>yourself","$35<br>for<br>3","1","24","35","3",""
"html-keyboard-response","74","151238","0.0-6.0-1.23","60fcd2b146529d02f1566012","bdp_sd","Fri Mar 24 2023 23:14:03 GMT-0700 (Pacific Daylight Time)","160998","","null","","","","","FIX","","<div class='trialBorder'><div class='vertical-center'><img style='vertical-align:center; align:center' src=img/fixation3.jpg></div></div>","null","","","","","","",""
"html-keyboard-response","75","152824","0.0-6.0-2.23","60fcd2b146529d02f1566012","bdp_sd","Fri Mar 24 2023 23:14:03 GMT-0700 (Pacific Daylight Time)","160998","","1584","","","","","offer","","<div class='trialBorder'><div class='vertical-center'><img style='vertical-align:center; align:center' src=img/fixation3.jpg></div><div class='cl'><div class='vertical-center'>$22<br>for<br>yourself</div></div><div class='cr'><div class='vertical-center'>$25<br>for<br>Ming Q</div></div><div class='respDivL'><div class='vertical-center'>(E)</div></div><div class='respDivR'><div class='vertical-center'>(I)</div></div></div>","E","$22<br>for<br>yourself","$25<br>for<br>5","0","22","25","5","SELF"
"html-keyboard-response","76","153077","0.0-6.0-3.23","60fcd2b146529d02f1566012","bdp_sd","Fri Mar 24 2023 23:14:03 GMT-0700 (Pacific Daylight Time)","160998","","null","","","","","offerFB","","<div class='trialBorder'><div class='vertical-center'><img style='vertical-align:center; align:center' src=img/fixation3.jpg></div><div class='cl'><div class='vertical-center'><font style='color:orange'>$22<br>for<br>yourself</font></div></div><div class='cr'><div class='vertical-center'>$25<br>for<br>Ming Q</div></div><div class='respDivL'><div class='vertical-center'><font style='color:orange'>(E)</font></div></div><div class='respDivR'><div class='vertical-center'>(I)</div></div></div>","null","$22<br>for<br>yourself","$25<br>for<br>5","0","22","25","5",""
"html-keyboard-response","77","153579","0.0-6.0-1.24","60fcd2b146529d02f1566012","bdp_sd","Fri Mar 24 2023 23:14:03 GMT-0700 (Pacific Daylight Time)","160998","","null","","","","","FIX","","<div class='trialBorder'><div class='vertical-center'><img style='vertical-align:center; align:center' src=img/fixation3.jpg></div></div>","null","","","","","","",""
"html-keyboard-response","78","155264","0.0-6.0-2.24","60fcd2b146529d02f1566012","bdp_sd","Fri Mar 24 2023 23:14:03 GMT-0700 (Pacific Daylight Time)","160998","","1684","","","","","offer","","<div class='trialBorder'><div class='vertical-center'><img style='vertical-align:center; align:center' src=img/fixation3.jpg></div><div class='cl'><div class='vertical-center'>$55<br>for<br>Caitlin T</div></div><div class='cr'><div class='vertical-center'>$40<br>for<br>yourself</div></div><div class='respDivL'><div class='vertical-center'>(E)</div></div><div class='respDivR'><div class='vertical-center'>(I)</div></div></div>","I","$40<br>for<br>yourself","$55<br>for<br>4","1","40","55","4","SELF"
"html-keyboard-response","79","155517","0.0-6.0-3.24","60fcd2b146529d02f1566012","bdp_sd","Fri Mar 24 2023 23:14:03 GMT-0700 (Pacific Daylight Time)","160998","","null","","","","","offerFB","","<div class='trialBorder'><div class='vertical-center'><img style='vertical-align:center; align:center' src=img/fixation3.jpg></div><div class='cl'><div class='vertical-center'>$55<br>for<br>Caitlin T</div></div><div class='cr'><div class='vertical-center'><font style='color:orange'>$40<br>for<br>yourself</font></div></div><div class='respDivL'><div class='vertical-center'>(E)</div></div><div class='respDivR'><div class='vertical-center'><font style='color:orange'>(I)</font></div></div></div>","null","$40<br>for<br>yourself","$55<br>for<br>4","1","40","55","4",""
"html-keyboard-response","80","156019","0.0-6.0-1.25","60fcd2b146529d02f1566012","bdp_sd","Fri Mar 24 2023 23:14:03 GMT-0700 (Pacific Daylight Time)","160998","","null","","","","","FIX","","<div class='trialBorder'><div class='vertical-center'><img style='vertical-align:center; align:center' src=img/fixation3.jpg></div></div>","null","","","","","","",""
"html-keyboard-response","81","157365","0.0-6.0-2.25","60fcd2b146529d02f1566012","bdp_sd","Fri Mar 24 2023 23:14:03 GMT-0700 (Pacific Daylight Time)","160998","","1343","","","","","offer","","<div class='trialBorder'><div class='vertical-center'><img style='vertical-align:center; align:center' src=img/fixation3.jpg></div><div class='cl'><div class='vertical-center'>$49<br>for<br>yourself</div></div><div class='cr'><div class='vertical-center'>$60<br>for<br>Caitlin T</div></div><div class='respDivL'><div class='vertical-center'>(E)</div></div><div class='respDivR'><div class='vertical-center'>(I)</div></div></div>","E","$49<br>for<br>yourself","$60<br>for<br>4","0","49","60","4","SELF"
"html-keyboard-response","82","157618","0.0-6.0-3.25","60fcd2b146529d02f1566012","bdp_sd","Fri Mar 24 2023 23:14:03 GMT-0700 (Pacific Daylight Time)","160998","","null","","","","","offerFB","","<div class='trialBorder'><div class='vertical-center'><img style='vertical-align:center; align:center' src=img/fixation3.jpg></div><div class='cl'><div class='vertical-center'><font style='color:orange'>$49<br>for<br>yourself</font></div></div><div class='cr'><div class='vertical-center'>$60<br>for<br>Caitlin T</div></div><div class='respDivL'><div class='vertical-center'><font style='color:orange'>(E)</font></div></div><div class='respDivR'><div class='vertical-center'>(I)</div></div></div>","null","$49<br>for<br>yourself","$60<br>for<br>4","0","49","60","4",""
"html-keyboard-response","83","158121","0.0-6.0-1.26","60fcd2b146529d02f1566012","bdp_sd","Fri Mar 24 2023 23:14:03 GMT-0700 (Pacific Daylight Time)","160998","","null","","","","","FIX","","<div class='trialBorder'><div class='vertical-center'><img style='vertical-align:center; align:center' src=img/fixation3.jpg></div></div>","null","","","","","","",""
"html-keyboard-response","84","159742","0.0-6.0-2.26","60fcd2b146529d02f1566012","bdp_sd","Fri Mar 24 2023 23:14:03 GMT-0700 (Pacific Daylight Time)","160998","","1620","","","","","offer","","<div class='trialBorder'><div class='vertical-center'><img style='vertical-align:center; align:center' src=img/fixation3.jpg></div><div class='cl'><div class='vertical-center'>$41<br>for<br>yourself</div></div><div class='cr'><div class='vertical-center'>$75<br>for<br>Kestrel S</div></div><div class='respDivL'><div class='vertical-center'>(E)</div></div><div class='respDivR'><div class='vertical-center'>(I)</div></div></div>","I","$41<br>for<br>yourself","$75<br>for<br>3","0","41","75","3","OTHER"
"html-keyboard-response","85","159995","0.0-6.0-3.26","60fcd2b146529d02f1566012","bdp_sd","Fri Mar 24 2023 23:14:03 GMT-0700 (Pacific Daylight Time)","160998","","null","","","","","offerFB","","<div class='trialBorder'><div class='vertical-center'><img style='vertical-align:center; align:center' src=img/fixation3.jpg></div><div class='cl'><div class='vertical-center'>$41<br>for<br>yourself</div></div><div class='cr'><div class='vertical-center'><font style='color:orange'>$75<br>for<br>Kestrel S</font></div></div><div class='respDivL'><div class='vertical-center'>(E)</div></div><div class='respDivR'><div class='vertical-center'><font style='color:orange'>(I)</font></div></div></div>","null","$41<br>for<br>yourself","$75<br>for<br>3","0","41","75","3",""
"","","","","60fcd2b146529d02f1566012","bdp_sd","Fri Mar 24 2023 23:14:03 GMT-0700 (Pacific Daylight Time)","160998","","","","fullscreenexit","86","160566","fullscreenexit","","","","","","","","","",""
"fullscreen","86","160997","0.0-7.0","60fcd2b146529d02f1566012","bdp_sd","Fri Mar 24 2023 23:14:03 GMT-0700 (Pacific Daylight Time)","160998","","","","","","","","true","","","","","","","","",""
"html-keyboard-response","87","161499","0.0-8.0","","","","","","null","","","","","","","","null","","","","","","",""
