"trial_type","trial_index","time_elapsed","internal_node_id","subject_id","task","startTime","totalTime","view_history","rt","responses","event","trial","time","trialtype","success","stimulus","key_press","selfOffer","otherOffer","otherLeft","selfAmt","otherAmt","otherDist","chosen"
"pavlovia","0","1","0.0-0.0","63fe38bfab28b75385783fba","bdp_sd","Mon Mar 27 2023 18:21:26 GMT-0400 (Eastern Daylight Time)","128682","","","","","","","","","","","","","","","","",""
"instructions","1","2542","0.0-1.0","63fe38bfab28b75385783fba","bdp_sd","Mon Mar 27 2023 18:21:26 GMT-0400 (Eastern Daylight Time)","128682","[{""page_index"":0,""viewing_time"":2541}]","2541","","","","","","","","","","","","","","",""
"survey-text","2","44096","0.0-2.0","63fe38bfab28b75385783fba","bdp_sd","Mon Mar 27 2023 18:21:26 GMT-0400 (Eastern Daylight Time)","128682","","41553","{""Q0"":""Jason S"",""Q1"":""Dennis S"",""Q2"":""Leslie B"",""Q3"":""Charlia"",""Q4"":""Rita L""}","","","","","","","","","","","","","",""
"","","","","63fe38bfab28b75385783fba","bdp_sd","Mon Mar 27 2023 18:21:26 GMT-0400 (Eastern Daylight Time)","128682","","","","fullscreenenter","3","45515","fullscreenenter","","","","","","","","","",""
"fullscreen","3","46464","0.0-3.0","63fe38bfab28b75385783fba","bdp_sd","Mon Mar 27 2023 18:21:26 GMT-0400 (Eastern Daylight Time)","128682","","","","","","","","true","","","","","","","","",""
"instructions","4","55557","0.0-5.0","63fe38bfab28b75385783fba","bdp_sd","Mon Mar 27 2023 18:21:26 GMT-0400 (Eastern Daylight Time)","128682","[{""page_index"":0,""viewing_time"":4105},{""page_index"":1,""viewing_time"":3732},{""page_index"":2,""viewing_time"":1254}]","9092","","","","","","","","","","","","","","",""
"html-keyboard-response","5","56058","0.0-6.0-1.0","63fe38bfab28b75385783fba","bdp_sd","Mon Mar 27 2023 18:21:26 GMT-0400 (Eastern Daylight Time)","128682","","null","","","","","FIX","","<div class='trialBorder'><div class='vertical-center'><img style='vertical-align:center; align:center' src=img/fixation3.jpg></div></div>","null","","","","","","",""
"html-keyboard-response","6","57667","0.0-6.0-2.0","63fe38bfab28b75385783fba","bdp_sd","Mon Mar 27 2023 18:21:26 GMT-0400 (Eastern Daylight Time)","128682","","1607","","","","","offer","","<div class='trialBorder'><div class='vertical-center'><img style='vertical-align:center; align:center' src=img/fixation3.jpg></div><div class='cl'><div class='vertical-center'>$85<br>for<br>Charlia</div></div><div class='cr'><div class='vertical-center'>$69<br>for<br>yourself</div></div><div class='respDivL'><div class='vertical-center'>(E)</div></div><div class='respDivR'><div class='vertical-center'>(I)</div></div></div>","I","$69<br>for<br>yourself","$85<br>for<br>4","1","69","85","4","SELF"
"html-keyboard-response","7","57919","0.0-6.0-3.0","63fe38bfab28b75385783fba","bdp_sd","Mon Mar 27 2023 18:21:26 GMT-0400 (Eastern Daylight Time)","128682","","null","","","","","offerFB","","<div class='trialBorder'><div class='vertical-center'><img style='vertical-align:center; align:center' src=img/fixation3.jpg></div><div class='cl'><div class='vertical-center'>$85<br>for<br>Charlia</div></div><div class='cr'><div class='vertical-center'><font style='color:orange'>$69<br>for<br>yourself</font></div></div><div class='respDivL'><div class='vertical-center'>(E)</div></div><div class='respDivR'><div class='vertical-center'><font style='color:orange'>(I)</font></div></div></div>","null","$69<br>for<br>yourself","$85<br>for<br>4","1","69","85","4",""
"html-keyboard-response","8","58420","0.0-6.0-1.1","63fe38bfab28b75385783fba","bdp_sd","Mon Mar 27 2023 18:21:26 GMT-0400 (Eastern Daylight Time)","128682","","null","","","","","FIX","","<div class='trialBorder'><div class='vertical-center'><img style='vertical-align:center; align:center' src=img/fixation3.jpg></div></div>","null","","","","","","",""
"html-keyboard-response","9","60879","0.0-6.0-2.1","63fe38bfab28b75385783fba","bdp_sd","Mon Mar 27 2023 18:21:26 GMT-0400 (Eastern Daylight Time)","128682","","2458","","","","","offer","","<div class='trialBorder'><div class='vertical-center'><img style='vertical-align:center; align:center' src=img/fixation3.jpg></div><div class='cl'><div class='vertical-center'>$31<br>for<br>yourself</div></div><div class='cr'><div class='vertical-center'>$85<br>for<br>Jason S</div></div><div class='respDivL'><div class='vertical-center'>(E)</div></div><div class='respDivR'><div class='vertical-center'>(I)</div></div></div>","I","$31<br>for<br>yourself","$85<br>for<br>1","0","31","85","1","OTHER"
"html-keyboard-response","10","61129","0.0-6.0-3.1","63fe38bfab28b75385783fba","bdp_sd","Mon Mar 27 2023 18:21:26 GMT-0400 (Eastern Daylight Time)","128682","","null","","","","","offerFB","","<div class='trialBorder'><div class='vertical-center'><img style='vertical-align:center; align:center' src=img/fixation3.jpg></div><div class='cl'><div class='vertical-center'>$31<br>for<br>yourself</div></div><div class='cr'><div class='vertical-center'><font style='color:orange'>$85<br>for<br>Jason S</font></div></div><div class='respDivL'><div class='vertical-center'>(E)</div></div><div class='respDivR'><div class='vertical-center'><font style='color:orange'>(I)</font></div></div></div>","null","$31<br>for<br>yourself","$85<br>for<br>1","0","31","85","1",""
"html-keyboard-response","11","61631","0.0-6.0-1.2","63fe38bfab28b75385783fba","bdp_sd","Mon Mar 27 2023 18:21:26 GMT-0400 (Eastern Daylight Time)","128682","","null","","","","","FIX","","<div class='trialBorder'><div class='vertical-center'><img style='vertical-align:center; align:center' src=img/fixation3.jpg></div></div>","null","","","","","","",""
"html-keyboard-response","12","63203","0.0-6.0-2.2","63fe38bfab28b75385783fba","bdp_sd","Mon Mar 27 2023 18:21:26 GMT-0400 (Eastern Daylight Time)","128682","","1572","","","","","offer","","<div class='trialBorder'><div class='vertical-center'><img style='vertical-align:center; align:center' src=img/fixation3.jpg></div><div class='cl'><div class='vertical-center'>$40<br>for<br>yourself</div></div><div class='cr'><div class='vertical-center'>$55<br>for<br>Charlia</div></div><div class='respDivL'><div class='vertical-center'>(E)</div></div><div class='respDivR'><div class='vertical-center'>(I)</div></div></div>","E","$40<br>for<br>yourself","$55<br>for<br>4","0","40","55","4","SELF"
"html-keyboard-response","13","63455","0.0-6.0-3.2","63fe38bfab28b75385783fba","bdp_sd","Mon Mar 27 2023 18:21:26 GMT-0400 (Eastern Daylight Time)","128682","","null","","","","","offerFB","","<div class='trialBorder'><div class='vertical-center'><img style='vertical-align:center; align:center' src=img/fixation3.jpg></div><div class='cl'><div class='vertical-center'><font style='color:orange'>$40<br>for<br>yourself</font></div></div><div class='cr'><div class='vertical-center'>$55<br>for<br>Charlia</div></div><div class='respDivL'><div class='vertical-center'><font style='color:orange'>(E)</font></div></div><div class='respDivR'><div class='vertical-center'>(I)</div></div></div>","null","$40<br>for<br>yourself","$55<br>for<br>4","0","40","55","4",""
"html-keyboard-response","14","63956","0.0-6.0-1.3","63fe38bfab28b75385783fba","bdp_sd","Mon Mar 27 2023 18:21:26 GMT-0400 (Eastern Daylight Time)","128682","","null","","","","","FIX","","<div class='trialBorder'><div class='vertical-center'><img style='vertical-align:center; align:center' src=img/fixation3.jpg></div></div>","null","","","","","","",""
"html-keyboard-response","15","65347","0.0-6.0-2.3","63fe38bfab28b75385783fba","bdp_sd","Mon Mar 27 2023 18:21:26 GMT-0400 (Eastern Daylight Time)","128682","","1390","","","","","offer","","<div class='trialBorder'><div class='vertical-center'><img style='vertical-align:center; align:center' src=img/fixation3.jpg></div><div class='cl'><div class='vertical-center'>$80<br>for<br>Dennis S</div></div><div class='cr'><div class='vertical-center'>$33<br>for<br>yourself</div></div><div class='respDivL'><div class='vertical-center'>(E)</div></div><div class='respDivR'><div class='vertical-center'>(I)</div></div></div>","I","$33<br>for<br>yourself","$80<br>for<br>2","1","33","80","2","SELF"
"html-keyboard-response","16","65599","0.0-6.0-3.3","63fe38bfab28b75385783fba","bdp_sd","Mon Mar 27 2023 18:21:26 GMT-0400 (Eastern Daylight Time)","128682","","null","","","","","offerFB","","<div class='trialBorder'><div class='vertical-center'><img style='vertical-align:center; align:center' src=img/fixation3.jpg></div><div class='cl'><div class='vertical-center'>$80<br>for<br>Dennis S</div></div><div class='cr'><div class='vertical-center'><font style='color:orange'>$33<br>for<br>yourself</font></div></div><div class='respDivL'><div class='vertical-center'>(E)</div></div><div class='respDivR'><div class='vertical-center'><font style='color:orange'>(I)</font></div></div></div>","null","$33<br>for<br>yourself","$80<br>for<br>2","1","33","80","2",""
"html-keyboard-response","17","66100","0.0-6.0-1.4","63fe38bfab28b75385783fba","bdp_sd","Mon Mar 27 2023 18:21:26 GMT-0400 (Eastern Daylight Time)","128682","","null","","","","","FIX","","<div class='trialBorder'><div class='vertical-center'><img style='vertical-align:center; align:center' src=img/fixation3.jpg></div></div>","null","","","","","","",""
"html-keyboard-response","18","70222","0.0-6.0-2.4","63fe38bfab28b75385783fba","bdp_sd","Mon Mar 27 2023 18:21:26 GMT-0400 (Eastern Daylight Time)","128682","","4121","","","","","offer","","<div class='trialBorder'><div class='vertical-center'><img style='vertical-align:center; align:center' src=img/fixation3.jpg></div><div class='cl'><div class='vertical-center'>$35<br>for<br>Dennis S</div></div><div class='cr'><div class='vertical-center'>$15<br>for<br>yourself</div></div><div class='respDivL'><div class='vertical-center'>(E)</div></div><div class='respDivR'><div class='vertical-center'>(I)</div></div></div>","I","$15<br>for<br>yourself","$35<br>for<br>2","1","15","35","2","SELF"
"html-keyboard-response","19","70473","0.0-6.0-3.4","63fe38bfab28b75385783fba","bdp_sd","Mon Mar 27 2023 18:21:26 GMT-0400 (Eastern Daylight Time)","128682","","null","","","","","offerFB","","<div class='trialBorder'><div class='vertical-center'><img style='vertical-align:center; align:center' src=img/fixation3.jpg></div><div class='cl'><div class='vertical-center'>$35<br>for<br>Dennis S</div></div><div class='cr'><div class='vertical-center'><font style='color:orange'>$15<br>for<br>yourself</font></div></div><div class='respDivL'><div class='vertical-center'>(E)</div></div><div class='respDivR'><div class='vertical-center'><font style='color:orange'>(I)</font></div></div></div>","null","$15<br>for<br>yourself","$35<br>for<br>2","1","15","35","2",""
"html-keyboard-response","20","70974","0.0-6.0-1.5","63fe38bfab28b75385783fba","bdp_sd","Mon Mar 27 2023 18:21:26 GMT-0400 (Eastern Daylight Time)","128682","","null","","","","","FIX","","<div class='trialBorder'><div class='vertical-center'><img style='vertical-align:center; align:center' src=img/fixation3.jpg></div></div>","null","","","","","","",""
"html-keyboard-response","21","72783","0.0-6.0-2.5","63fe38bfab28b75385783fba","bdp_sd","Mon Mar 27 2023 18:21:26 GMT-0400 (Eastern Daylight Time)","128682","","1808","","","","","offer","","<div class='trialBorder'><div class='vertical-center'><img style='vertical-align:center; align:center' src=img/fixation3.jpg></div><div class='cl'><div class='vertical-center'>$19<br>for<br>yourself</div></div><div class='cr'><div class='vertical-center'>$25<br>for<br>Charlia</div></div><div class='respDivL'><div class='vertical-center'>(E)</div></div><div class='respDivR'><div class='vertical-center'>(I)</div></div></div>","E","$19<br>for<br>yourself","$25<br>for<br>4","0","19","25","4","SELF"
"html-keyboard-response","22","73035","0.0-6.0-3.5","63fe38bfab28b75385783fba","bdp_sd","Mon Mar 27 2023 18:21:26 GMT-0400 (Eastern Daylight Time)","128682","","null","","","","","offerFB","","<div class='trialBorder'><div class='vertical-center'><img style='vertical-align:center; align:center' src=img/fixation3.jpg></div><div class='cl'><div class='vertical-center'><font style='color:orange'>$19<br>for<br>yourself</font></div></div><div class='cr'><div class='vertical-center'>$25<br>for<br>Charlia</div></div><div class='respDivL'><div class='vertical-center'><font style='color:orange'>(E)</font></div></div><div class='respDivR'><div class='vertical-center'>(I)</div></div></div>","null","$19<br>for<br>yourself","$25<br>for<br>4","0","19","25","4",""
"html-keyboard-response","23","73536","0.0-6.0-1.6","63fe38bfab28b75385783fba","bdp_sd","Mon Mar 27 2023 18:21:26 GMT-0400 (Eastern Daylight Time)","128682","","null","","","","","FIX","","<div class='trialBorder'><div class='vertical-center'><img style='vertical-align:center; align:center' src=img/fixation3.jpg></div></div>","null","","","","","","",""
"html-keyboard-response","24","77314","0.0-6.0-2.6","63fe38bfab28b75385783fba","bdp_sd","Mon Mar 27 2023 18:21:26 GMT-0400 (Eastern Daylight Time)","128682","","3777","","","","","offer","","<div class='trialBorder'><div class='vertical-center'><img style='vertical-align:center; align:center' src=img/fixation3.jpg></div><div class='cl'><div class='vertical-center'>$75<br>for<br>Leslie B</div></div><div class='cr'><div class='vertical-center'>$41<br>for<br>yourself</div></div><div class='respDivL'><div class='vertical-center'>(E)</div></div><div class='respDivR'><div class='vertical-center'>(I)</div></div></div>","E","$41<br>for<br>yourself","$75<br>for<br>3","1","41","75","3","OTHER"
"html-keyboard-response","25","77566","0.0-6.0-3.6","63fe38bfab28b75385783fba","bdp_sd","Mon Mar 27 2023 18:21:26 GMT-0400 (Eastern Daylight Time)","128682","","null","","","","","offerFB","","<div class='trialBorder'><div class='vertical-center'><img style='vertical-align:center; align:center' src=img/fixation3.jpg></div><div class='cl'><div class='vertical-center'><font style='color:orange'>$75<br>for<br>Leslie B</font></div></div><div class='cr'><div class='vertical-center'>$41<br>for<br>yourself</div></div><div class='respDivL'><div class='vertical-center'><font style='color:orange'>(E)</font></div></div><div class='respDivR'><div class='vertical-center'>(I)</div></div></div>","null","$41<br>for<br>yourself","$75<br>for<br>3","1","41","75","3",""
"html-keyboard-response","26","78067","0.0-6.0-1.7","63fe38bfab28b75385783fba","bdp_sd","Mon Mar 27 2023 18:21:26 GMT-0400 (Eastern Daylight Time)","128682","","null","","","","","FIX","","<div class='trialBorder'><div class='vertical-center'><img style='vertical-align:center; align:center' src=img/fixation3.jpg></div></div>","null","","","","","","",""
"html-keyboard-response","27","79532","0.0-6.0-2.7","63fe38bfab28b75385783fba","bdp_sd","Mon Mar 27 2023 18:21:26 GMT-0400 (Eastern Daylight Time)","128682","","1465","","","","","offer","","<div class='trialBorder'><div class='vertical-center'><img style='vertical-align:center; align:center' src=img/fixation3.jpg></div><div class='cl'><div class='vertical-center'>$80<br>for<br>Rita L</div></div><div class='cr'><div class='vertical-center'>$78<br>for<br>yourself</div></div><div class='respDivL'><div class='vertical-center'>(E)</div></div><div class='respDivR'><div class='vertical-center'>(I)</div></div></div>","I","$78<br>for<br>yourself","$80<br>for<br>5","1","78","80","5","SELF"
"html-keyboard-response","28","79784","0.0-6.0-3.7","63fe38bfab28b75385783fba","bdp_sd","Mon Mar 27 2023 18:21:26 GMT-0400 (Eastern Daylight Time)","128682","","null","","","","","offerFB","","<div class='trialBorder'><div class='vertical-center'><img style='vertical-align:center; align:center' src=img/fixation3.jpg></div><div class='cl'><div class='vertical-center'>$80<br>for<br>Rita L</div></div><div class='cr'><div class='vertical-center'><font style='color:orange'>$78<br>for<br>yourself</font></div></div><div class='respDivL'><div class='vertical-center'>(E)</div></div><div class='respDivR'><div class='vertical-center'><font style='color:orange'>(I)</font></div></div></div>","null","$78<br>for<br>yourself","$80<br>for<br>5","1","78","80","5",""
"html-keyboard-response","29","80285","0.0-6.0-1.8","63fe38bfab28b75385783fba","bdp_sd","Mon Mar 27 2023 18:21:26 GMT-0400 (Eastern Daylight Time)","128682","","null","","","","","FIX","","<div class='trialBorder'><div class='vertical-center'><img style='vertical-align:center; align:center' src=img/fixation3.jpg></div></div>","null","","","","","","",""
"html-keyboard-response","30","82049","0.0-6.0-2.8","63fe38bfab28b75385783fba","bdp_sd","Mon Mar 27 2023 18:21:26 GMT-0400 (Eastern Daylight Time)","128682","","1763","","","","","offer","","<div class='trialBorder'><div class='vertical-center'><img style='vertical-align:center; align:center' src=img/fixation3.jpg></div><div class='cl'><div class='vertical-center'>$54<br>for<br>yourself</div></div><div class='cr'><div class='vertical-center'>$55<br>for<br>Rita L</div></div><div class='respDivL'><div class='vertical-center'>(E)</div></div><div class='respDivR'><div class='vertical-center'>(I)</div></div></div>","E","$54<br>for<br>yourself","$55<br>for<br>5","0","54","55","5","SELF"
"html-keyboard-response","31","82299","0.0-6.0-3.8","63fe38bfab28b75385783fba","bdp_sd","Mon Mar 27 2023 18:21:26 GMT-0400 (Eastern Daylight Time)","128682","","null","","","","","offerFB","","<div class='trialBorder'><div class='vertical-center'><img style='vertical-align:center; align:center' src=img/fixation3.jpg></div><div class='cl'><div class='vertical-center'><font style='color:orange'>$54<br>for<br>yourself</font></div></div><div class='cr'><div class='vertical-center'>$55<br>for<br>Rita L</div></div><div class='respDivL'><div class='vertical-center'><font style='color:orange'>(E)</font></div></div><div class='respDivR'><div class='vertical-center'>(I)</div></div></div>","null","$54<br>for<br>yourself","$55<br>for<br>5","0","54","55","5",""
"html-keyboard-response","32","82801","0.0-6.0-1.9","63fe38bfab28b75385783fba","bdp_sd","Mon Mar 27 2023 18:21:26 GMT-0400 (Eastern Daylight Time)","128682","","null","","","","","FIX","","<div class='trialBorder'><div class='vertical-center'><img style='vertical-align:center; align:center' src=img/fixation3.jpg></div></div>","null","","","","","","",""
"html-keyboard-response","33","84929","0.0-6.0-2.9","63fe38bfab28b75385783fba","bdp_sd","Mon Mar 27 2023 18:21:26 GMT-0400 (Eastern Daylight Time)","128682","","2128","","","","","offer","","<div class='trialBorder'><div class='vertical-center'><img style='vertical-align:center; align:center' src=img/fixation3.jpg></div><div class='cl'><div class='vertical-center'>$27<br>for<br>yourself</div></div><div class='cr'><div class='vertical-center'>$50<br>for<br>Leslie B</div></div><div class='respDivL'><div class='vertical-center'>(E)</div></div><div class='respDivR'><div class='vertical-center'>(I)</div></div></div>","E","$27<br>for<br>yourself","$50<br>for<br>3","0","27","50","3","SELF"
"html-keyboard-response","34","85181","0.0-6.0-3.9","63fe38bfab28b75385783fba","bdp_sd","Mon Mar 27 2023 18:21:26 GMT-0400 (Eastern Daylight Time)","128682","","null","","","","","offerFB","","<div class='trialBorder'><div class='vertical-center'><img style='vertical-align:center; align:center' src=img/fixation3.jpg></div><div class='cl'><div class='vertical-center'><font style='color:orange'>$27<br>for<br>yourself</font></div></div><div class='cr'><div class='vertical-center'>$50<br>for<br>Leslie B</div></div><div class='respDivL'><div class='vertical-center'><font style='color:orange'>(E)</font></div></div><div class='respDivR'><div class='vertical-center'>(I)</div></div></div>","null","$27<br>for<br>yourself","$50<br>for<br>3","0","27","50","3",""
"html-keyboard-response","35","85682","0.0-6.0-1.10","63fe38bfab28b75385783fba","bdp_sd","Mon Mar 27 2023 18:21:26 GMT-0400 (Eastern Daylight Time)","128682","","null","","","","","FIX","","<div class='trialBorder'><div class='vertical-center'><img style='vertical-align:center; align:center' src=img/fixation3.jpg></div></div>","null","","","","","","",""
"html-keyboard-response","36","88818","0.0-6.0-2.10","63fe38bfab28b75385783fba","bdp_sd","Mon Mar 27 2023 18:21:26 GMT-0400 (Eastern Daylight Time)","128682","","3136","","","","","offer","","<div class='trialBorder'><div class='vertical-center'><img style='vertical-align:center; align:center' src=img/fixation3.jpg></div><div class='cl'><div class='vertical-center'>$55<br>for<br>Jason S</div></div><div class='cr'><div class='vertical-center'>$20<br>for<br>yourself</div></div><div class='respDivL'><div class='vertical-center'>(E)</div></div><div class='respDivR'><div class='vertical-center'>(I)</div></div></div>","E","$20<br>for<br>yourself","$55<br>for<br>1","1","20","55","1","OTHER"
"html-keyboard-response","37","89070","0.0-6.0-3.10","63fe38bfab28b75385783fba","bdp_sd","Mon Mar 27 2023 18:21:26 GMT-0400 (Eastern Daylight Time)","128682","","null","","","","","offerFB","","<div class='trialBorder'><div class='vertical-center'><img style='vertical-align:center; align:center' src=img/fixation3.jpg></div><div class='cl'><div class='vertical-center'><font style='color:orange'>$55<br>for<br>Jason S</font></div></div><div class='cr'><div class='vertical-center'>$20<br>for<br>yourself</div></div><div class='respDivL'><div class='vertical-center'><font style='color:orange'>(E)</font></div></div><div class='respDivR'><div class='vertical-center'>(I)</div></div></div>","null","$20<br>for<br>yourself","$55<br>for<br>1","1","20","55","1",""
"html-keyboard-response","38","89571","0.0-6.0-1.11","63fe38bfab28b75385783fba","bdp_sd","Mon Mar 27 2023 18:21:26 GMT-0400 (Eastern Daylight Time)","128682","","null","","","","","FIX","","<div class='trialBorder'><div class='vertical-center'><img style='vertical-align:center; align:center' src=img/fixation3.jpg></div></div>","null","","","","","","",""
"html-keyboard-response","39","91290","0.0-6.0-2.11","63fe38bfab28b75385783fba","bdp_sd","Mon Mar 27 2023 18:21:26 GMT-0400 (Eastern Daylight Time)","128682","","1719","","","","","offer","","<div class='trialBorder'><div class='vertical-center'><img style='vertical-align:center; align:center' src=img/fixation3.jpg></div><div class='cl'><div class='vertical-center'>$54<br>for<br>yourself</div></div><div class='cr'><div class='vertical-center'>$60<br>for<br>Rita L</div></div><div class='respDivL'><div class='vertical-center'>(E)</div></div><div class='respDivR'><div class='vertical-center'>(I)</div></div></div>","E","$54<br>for<br>yourself","$60<br>for<br>5","0","54","60","5","SELF"
"html-keyboard-response","40","91542","0.0-6.0-3.11","63fe38bfab28b75385783fba","bdp_sd","Mon Mar 27 2023 18:21:26 GMT-0400 (Eastern Daylight Time)","128682","","null","","","","","offerFB","","<div class='trialBorder'><div class='vertical-center'><img style='vertical-align:center; align:center' src=img/fixation3.jpg></div><div class='cl'><div class='vertical-center'><font style='color:orange'>$54<br>for<br>yourself</font></div></div><div class='cr'><div class='vertical-center'>$60<br>for<br>Rita L</div></div><div class='respDivL'><div class='vertical-center'><font style='color:orange'>(E)</font></div></div><div class='respDivR'><div class='vertical-center'>(I)</div></div></div>","null","$54<br>for<br>yourself","$60<br>for<br>5","0","54","60","5",""
"html-keyboard-response","41","92043","0.0-6.0-1.12","63fe38bfab28b75385783fba","bdp_sd","Mon Mar 27 2023 18:21:26 GMT-0400 (Eastern Daylight Time)","128682","","null","","","","","FIX","","<div class='trialBorder'><div class='vertical-center'><img style='vertical-align:center; align:center' src=img/fixation3.jpg></div></div>","null","","","","","","",""
"html-keyboard-response","42","94908","0.0-6.0-2.12","63fe38bfab28b75385783fba","bdp_sd","Mon Mar 27 2023 18:21:26 GMT-0400 (Eastern Daylight Time)","128682","","2865","","","","","offer","","<div class='trialBorder'><div class='vertical-center'><img style='vertical-align:center; align:center' src=img/fixation3.jpg></div><div class='cl'><div class='vertical-center'>$35<br>for<br>Rita L</div></div><div class='cr'><div class='vertical-center'>$34<br>for<br>yourself</div></div><div class='respDivL'><div class='vertical-center'>(E)</div></div><div class='respDivR'><div class='vertical-center'>(I)</div></div></div>","I","$34<br>for<br>yourself","$35<br>for<br>5","1","34","35","5","SELF"
"html-keyboard-response","43","95159","0.0-6.0-3.12","63fe38bfab28b75385783fba","bdp_sd","Mon Mar 27 2023 18:21:26 GMT-0400 (Eastern Daylight Time)","128682","","null","","","","","offerFB","","<div class='trialBorder'><div class='vertical-center'><img style='vertical-align:center; align:center' src=img/fixation3.jpg></div><div class='cl'><div class='vertical-center'>$35<br>for<br>Rita L</div></div><div class='cr'><div class='vertical-center'><font style='color:orange'>$34<br>for<br>yourself</font></div></div><div class='respDivL'><div class='vertical-center'>(E)</div></div><div class='respDivR'><div class='vertical-center'><font style='color:orange'>(I)</font></div></div></div>","null","$34<br>for<br>yourself","$35<br>for<br>5","1","34","35","5",""
"html-keyboard-response","44","95661","0.0-6.0-1.13","63fe38bfab28b75385783fba","bdp_sd","Mon Mar 27 2023 18:21:26 GMT-0400 (Eastern Daylight Time)","128682","","null","","","","","FIX","","<div class='trialBorder'><div class='vertical-center'><img style='vertical-align:center; align:center' src=img/fixation3.jpg></div></div>","null","","","","","","",""
"html-keyboard-response","45","96753","0.0-6.0-2.13","63fe38bfab28b75385783fba","bdp_sd","Mon Mar 27 2023 18:21:26 GMT-0400 (Eastern Daylight Time)","128682","","1092","","","","","offer","","<div class='trialBorder'><div class='vertical-center'><img style='vertical-align:center; align:center' src=img/fixation3.jpg></div><div class='cl'><div class='vertical-center'>$80<br>for<br>yourself</div></div><div class='cr'><div class='vertical-center'>$85<br>for<br>Rita L</div></div><div class='respDivL'><div class='vertical-center'>(E)</div></div><div class='respDivR'><div class='vertical-center'>(I)</div></div></div>","E","$80<br>for<br>yourself","$85<br>for<br>5","0","80","85","5","SELF"
"html-keyboard-response","46","97005","0.0-6.0-3.13","63fe38bfab28b75385783fba","bdp_sd","Mon Mar 27 2023 18:21:26 GMT-0400 (Eastern Daylight Time)","128682","","null","","","","","offerFB","","<div class='trialBorder'><div class='vertical-center'><img style='vertical-align:center; align:center' src=img/fixation3.jpg></div><div class='cl'><div class='vertical-center'><font style='color:orange'>$80<br>for<br>yourself</font></div></div><div class='cr'><div class='vertical-center'>$85<br>for<br>Rita L</div></div><div class='respDivL'><div class='vertical-center'><font style='color:orange'>(E)</font></div></div><div class='respDivR'><div class='vertical-center'>(I)</div></div></div>","null","$80<br>for<br>yourself","$85<br>for<br>5","0","80","85","5",""
"html-keyboard-response","47","97505","0.0-6.0-1.14","63fe38bfab28b75385783fba","bdp_sd","Mon Mar 27 2023 18:21:26 GMT-0400 (Eastern Daylight Time)","128682","","null","","","","","FIX","","<div class='trialBorder'><div class='vertical-center'><img style='vertical-align:center; align:center' src=img/fixation3.jpg></div></div>","null","","","","","","",""
"html-keyboard-response","48","100302","0.0-6.0-2.14","63fe38bfab28b75385783fba","bdp_sd","Mon Mar 27 2023 18:21:26 GMT-0400 (Eastern Daylight Time)","128682","","2796","","","","","offer","","<div class='trialBorder'><div class='vertical-center'><img style='vertical-align:center; align:center' src=img/fixation3.jpg></div><div class='cl'><div class='vertical-center'>$11<br>for<br>yourself</div></div><div class='cr'><div class='vertical-center'>$30<br>for<br>Dennis S</div></div><div class='respDivL'><div class='vertical-center'>(E)</div></div><div class='respDivR'><div class='vertical-center'>(I)</div></div></div>","I","$11<br>for<br>yourself","$30<br>for<br>2","0","11","30","2","OTHER"
"html-keyboard-response","49","100553","0.0-6.0-3.14","63fe38bfab28b75385783fba","bdp_sd","Mon Mar 27 2023 18:21:26 GMT-0400 (Eastern Daylight Time)","128682","","null","","","","","offerFB","","<div class='trialBorder'><div class='vertical-center'><img style='vertical-align:center; align:center' src=img/fixation3.jpg></div><div class='cl'><div class='vertical-center'>$11<br>for<br>yourself</div></div><div class='cr'><div class='vertical-center'><font style='color:orange'>$30<br>for<br>Dennis S</font></div></div><div class='respDivL'><div class='vertical-center'>(E)</div></div><div class='respDivR'><div class='vertical-center'><font style='color:orange'>(I)</font></div></div></div>","null","$11<br>for<br>yourself","$30<br>for<br>2","0","11","30","2",""
"html-keyboard-response","50","101055","0.0-6.0-1.15","63fe38bfab28b75385783fba","bdp_sd","Mon Mar 27 2023 18:21:26 GMT-0400 (Eastern Daylight Time)","128682","","null","","","","","FIX","","<div class='trialBorder'><div class='vertical-center'><img style='vertical-align:center; align:center' src=img/fixation3.jpg></div></div>","null","","","","","","",""
"html-keyboard-response","51","102863","0.0-6.0-2.15","63fe38bfab28b75385783fba","bdp_sd","Mon Mar 27 2023 18:21:26 GMT-0400 (Eastern Daylight Time)","128682","","1808","","","","","offer","","<div class='trialBorder'><div class='vertical-center'><img style='vertical-align:center; align:center' src=img/fixation3.jpg></div><div class='cl'><div class='vertical-center'>$35<br>for<br>Leslie B</div></div><div class='cr'><div class='vertical-center'>$24<br>for<br>yourself</div></div><div class='respDivL'><div class='vertical-center'>(E)</div></div><div class='respDivR'><div class='vertical-center'>(I)</div></div></div>","E","$24<br>for<br>yourself","$35<br>for<br>3","1","24","35","3","OTHER"
"html-keyboard-response","52","103114","0.0-6.0-3.15","63fe38bfab28b75385783fba","bdp_sd","Mon Mar 27 2023 18:21:26 GMT-0400 (Eastern Daylight Time)","128682","","null","","","","","offerFB","","<div class='trialBorder'><div class='vertical-center'><img style='vertical-align:center; align:center' src=img/fixation3.jpg></div><div class='cl'><div class='vertical-center'><font style='color:orange'>$35<br>for<br>Leslie B</font></div></div><div class='cr'><div class='vertical-center'>$24<br>for<br>yourself</div></div><div class='respDivL'><div class='vertical-center'><font style='color:orange'>(E)</font></div></div><div class='respDivR'><div class='vertical-center'>(I)</div></div></div>","null","$24<br>for<br>yourself","$35<br>for<br>3","1","24","35","3",""
"html-keyboard-response","53","103615","0.0-6.0-1.16","63fe38bfab28b75385783fba","bdp_sd","Mon Mar 27 2023 18:21:26 GMT-0400 (Eastern Daylight Time)","128682","","null","","","","","FIX","","<div class='trialBorder'><div class='vertical-center'><img style='vertical-align:center; align:center' src=img/fixation3.jpg></div></div>","null","","","","","","",""
"html-keyboard-response","54","105063","0.0-6.0-2.16","63fe38bfab28b75385783fba","bdp_sd","Mon Mar 27 2023 18:21:26 GMT-0400 (Eastern Daylight Time)","128682","","1448","","","","","offer","","<div class='trialBorder'><div class='vertical-center'><img style='vertical-align:center; align:center' src=img/fixation3.jpg></div><div class='cl'><div class='vertical-center'>$55<br>for<br>yourself</div></div><div class='cr'><div class='vertical-center'>$75<br>for<br>Charlia</div></div><div class='respDivL'><div class='vertical-center'>(E)</div></div><div class='respDivR'><div class='vertical-center'>(I)</div></div></div>","E","$55<br>for<br>yourself","$75<br>for<br>4","0","55","75","4","SELF"
"html-keyboard-response","55","105314","0.0-6.0-3.16","63fe38bfab28b75385783fba","bdp_sd","Mon Mar 27 2023 18:21:26 GMT-0400 (Eastern Daylight Time)","128682","","null","","","","","offerFB","","<div class='trialBorder'><div class='vertical-center'><img style='vertical-align:center; align:center' src=img/fixation3.jpg></div><div class='cl'><div class='vertical-center'><font style='color:orange'>$55<br>for<br>yourself</font></div></div><div class='cr'><div class='vertical-center'>$75<br>for<br>Charlia</div></div><div class='respDivL'><div class='vertical-center'><font style='color:orange'>(E)</font></div></div><div class='respDivR'><div class='vertical-center'>(I)</div></div></div>","null","$55<br>for<br>yourself","$75<br>for<br>4","0","55","75","4",""
"html-keyboard-response","56","105815","0.0-6.0-1.17","63fe38bfab28b75385783fba","bdp_sd","Mon Mar 27 2023 18:21:26 GMT-0400 (Eastern Daylight Time)","128682","","null","","","","","FIX","","<div class='trialBorder'><div class='vertical-center'><img style='vertical-align:center; align:center' src=img/fixation3.jpg></div></div>","null","","","","","","",""
"html-keyboard-response","57","107931","0.0-6.0-2.17","63fe38bfab28b75385783fba","bdp_sd","Mon Mar 27 2023 18:21:26 GMT-0400 (Eastern Daylight Time)","128682","","2116","","","","","offer","","<div class='trialBorder'><div class='vertical-center'><img style='vertical-align:center; align:center' src=img/fixation3.jpg></div><div class='cl'><div class='vertical-center'>$25<br>for<br>yourself</div></div><div class='cr'><div class='vertical-center'>$30<br>for<br>Charlia</div></div><div class='respDivL'><div class='vertical-center'>(E)</div></div><div class='respDivR'><div class='vertical-center'>(I)</div></div></div>","I","$25<br>for<br>yourself","$30<br>for<br>4","0","25","30","4","OTHER"
"html-keyboard-response","58","108182","0.0-6.0-3.17","63fe38bfab28b75385783fba","bdp_sd","Mon Mar 27 2023 18:21:26 GMT-0400 (Eastern Daylight Time)","128682","","null","","","","","offerFB","","<div class='trialBorder'><div class='vertical-center'><img style='vertical-align:center; align:center' src=img/fixation3.jpg></div><div class='cl'><div class='vertical-center'>$25<br>for<br>yourself</div></div><div class='cr'><div class='vertical-center'><font style='color:orange'>$30<br>for<br>Charlia</font></div></div><div class='respDivL'><div class='vertical-center'>(E)</div></div><div class='respDivR'><div class='vertical-center'><font style='color:orange'>(I)</font></div></div></div>","null","$25<br>for<br>yourself","$30<br>for<br>4","0","25","30","4",""
"html-keyboard-response","59","108683","0.0-6.0-1.18","63fe38bfab28b75385783fba","bdp_sd","Mon Mar 27 2023 18:21:26 GMT-0400 (Eastern Daylight Time)","128682","","null","","","","","FIX","","<div class='trialBorder'><div class='vertical-center'><img style='vertical-align:center; align:center' src=img/fixation3.jpg></div></div>","null","","","","","","",""
"html-keyboard-response","60","109954","0.0-6.0-2.18","63fe38bfab28b75385783fba","bdp_sd","Mon Mar 27 2023 18:21:26 GMT-0400 (Eastern Daylight Time)","128682","","1270","","","","","offer","","<div class='trialBorder'><div class='vertical-center'><img style='vertical-align:center; align:center' src=img/fixation3.jpg></div><div class='cl'><div class='vertical-center'>$22<br>for<br>yourself</div></div><div class='cr'><div class='vertical-center'>$25<br>for<br>Rita L</div></div><div class='respDivL'><div class='vertical-center'>(E)</div></div><div class='respDivR'><div class='vertical-center'>(I)</div></div></div>","I","$22<br>for<br>yourself","$25<br>for<br>5","0","22","25","5","OTHER"
"html-keyboard-response","61","110206","0.0-6.0-3.18","63fe38bfab28b75385783fba","bdp_sd","Mon Mar 27 2023 18:21:26 GMT-0400 (Eastern Daylight Time)","128682","","null","","","","","offerFB","","<div class='trialBorder'><div class='vertical-center'><img style='vertical-align:center; align:center' src=img/fixation3.jpg></div><div class='cl'><div class='vertical-center'>$22<br>for<br>yourself</div></div><div class='cr'><div class='vertical-center'><font style='color:orange'>$25<br>for<br>Rita L</font></div></div><div class='respDivL'><div class='vertical-center'>(E)</div></div><div class='respDivR'><div class='vertical-center'><font style='color:orange'>(I)</font></div></div></div>","null","$22<br>for<br>yourself","$25<br>for<br>5","0","22","25","5",""
"html-keyboard-response","62","110707","0.0-6.0-1.19","63fe38bfab28b75385783fba","bdp_sd","Mon Mar 27 2023 18:21:26 GMT-0400 (Eastern Daylight Time)","128682","","null","","","","","FIX","","<div class='trialBorder'><div class='vertical-center'><img style='vertical-align:center; align:center' src=img/fixation3.jpg></div></div>","null","","","","","","",""
"html-keyboard-response","63","111736","0.0-6.0-2.19","63fe38bfab28b75385783fba","bdp_sd","Mon Mar 27 2023 18:21:26 GMT-0400 (Eastern Daylight Time)","128682","","1029","","","","","offer","","<div class='trialBorder'><div class='vertical-center'><img style='vertical-align:center; align:center' src=img/fixation3.jpg></div><div class='cl'><div class='vertical-center'>$30<br>for<br>Rita L</div></div><div class='cr'><div class='vertical-center'>$28<br>for<br>yourself</div></div><div class='respDivL'><div class='vertical-center'>(E)</div></div><div class='respDivR'><div class='vertical-center'>(I)</div></div></div>","I","$28<br>for<br>yourself","$30<br>for<br>5","1","28","30","5","SELF"
"html-keyboard-response","64","111987","0.0-6.0-3.19","63fe38bfab28b75385783fba","bdp_sd","Mon Mar 27 2023 18:21:26 GMT-0400 (Eastern Daylight Time)","128682","","null","","","","","offerFB","","<div class='trialBorder'><div class='vertical-center'><img style='vertical-align:center; align:center' src=img/fixation3.jpg></div><div class='cl'><div class='vertical-center'>$30<br>for<br>Rita L</div></div><div class='cr'><div class='vertical-center'><font style='color:orange'>$28<br>for<br>yourself</font></div></div><div class='respDivL'><div class='vertical-center'>(E)</div></div><div class='respDivR'><div class='vertical-center'><font style='color:orange'>(I)</font></div></div></div>","null","$28<br>for<br>yourself","$30<br>for<br>5","1","28","30","5",""
"html-keyboard-response","65","112487","0.0-6.0-1.20","63fe38bfab28b75385783fba","bdp_sd","Mon Mar 27 2023 18:21:26 GMT-0400 (Eastern Daylight Time)","128682","","null","","","","","FIX","","<div class='trialBorder'><div class='vertical-center'><img style='vertical-align:center; align:center' src=img/fixation3.jpg></div></div>","null","","","","","","",""
"html-keyboard-response","66","113626","0.0-6.0-2.20","63fe38bfab28b75385783fba","bdp_sd","Mon Mar 27 2023 18:21:26 GMT-0400 (Eastern Daylight Time)","128682","","1139","","","","","offer","","<div class='trialBorder'><div class='vertical-center'><img style='vertical-align:center; align:center' src=img/fixation3.jpg></div><div class='cl'><div class='vertical-center'>$25<br>for<br>yourself</div></div><div class='cr'><div class='vertical-center'>$60<br>for<br>Leslie B</div></div><div class='respDivL'><div class='vertical-center'>(E)</div></div><div class='respDivR'><div class='vertical-center'>(I)</div></div></div>","E","$25<br>for<br>yourself","$60<br>for<br>3","0","25","60","3","SELF"
"html-keyboard-response","67","113877","0.0-6.0-3.20","63fe38bfab28b75385783fba","bdp_sd","Mon Mar 27 2023 18:21:26 GMT-0400 (Eastern Daylight Time)","128682","","null","","","","","offerFB","","<div class='trialBorder'><div class='vertical-center'><img style='vertical-align:center; align:center' src=img/fixation3.jpg></div><div class='cl'><div class='vertical-center'><font style='color:orange'>$25<br>for<br>yourself</font></div></div><div class='cr'><div class='vertical-center'>$60<br>for<br>Leslie B</div></div><div class='respDivL'><div class='vertical-center'><font style='color:orange'>(E)</font></div></div><div class='respDivR'><div class='vertical-center'>(I)</div></div></div>","null","$25<br>for<br>yourself","$60<br>for<br>3","0","25","60","3",""
"html-keyboard-response","68","114378","0.0-6.0-1.21","63fe38bfab28b75385783fba","bdp_sd","Mon Mar 27 2023 18:21:26 GMT-0400 (Eastern Daylight Time)","128682","","null","","","","","FIX","","<div class='trialBorder'><div class='vertical-center'><img style='vertical-align:center; align:center' src=img/fixation3.jpg></div></div>","null","","","","","","",""
"html-keyboard-response","69","116649","0.0-6.0-2.21","63fe38bfab28b75385783fba","bdp_sd","Mon Mar 27 2023 18:21:26 GMT-0400 (Eastern Daylight Time)","128682","","2271","","","","","offer","","<div class='trialBorder'><div class='vertical-center'><img style='vertical-align:center; align:center' src=img/fixation3.jpg></div><div class='cl'><div class='vertical-center'>$25<br>for<br>Leslie B</div></div><div class='cr'><div class='vertical-center'>$14<br>for<br>yourself</div></div><div class='respDivL'><div class='vertical-center'>(E)</div></div><div class='respDivR'><div class='vertical-center'>(I)</div></div></div>","E","$14<br>for<br>yourself","$25<br>for<br>3","1","14","25","3","OTHER"
"html-keyboard-response","70","116901","0.0-6.0-3.21","63fe38bfab28b75385783fba","bdp_sd","Mon Mar 27 2023 18:21:26 GMT-0400 (Eastern Daylight Time)","128682","","null","","","","","offerFB","","<div class='trialBorder'><div class='vertical-center'><img style='vertical-align:center; align:center' src=img/fixation3.jpg></div><div class='cl'><div class='vertical-center'><font style='color:orange'>$25<br>for<br>Leslie B</font></div></div><div class='cr'><div class='vertical-center'>$14<br>for<br>yourself</div></div><div class='respDivL'><div class='vertical-center'><font style='color:orange'>(E)</font></div></div><div class='respDivR'><div class='vertical-center'>(I)</div></div></div>","null","$14<br>for<br>yourself","$25<br>for<br>3","1","14","25","3",""
"html-keyboard-response","71","117402","0.0-6.0-1.22","63fe38bfab28b75385783fba","bdp_sd","Mon Mar 27 2023 18:21:26 GMT-0400 (Eastern Daylight Time)","128682","","null","","","","","FIX","","<div class='trialBorder'><div class='vertical-center'><img style='vertical-align:center; align:center' src=img/fixation3.jpg></div></div>","null","","","","","","",""
"html-keyboard-response","72","118314","0.0-6.0-2.22","63fe38bfab28b75385783fba","bdp_sd","Mon Mar 27 2023 18:21:26 GMT-0400 (Eastern Daylight Time)","128682","","912","","","","","offer","","<div class='trialBorder'><div class='vertical-center'><img style='vertical-align:center; align:center' src=img/fixation3.jpg></div><div class='cl'><div class='vertical-center'>$67<br>for<br>yourself</div></div><div class='cr'><div class='vertical-center'>$75<br>for<br>Rita L</div></div><div class='respDivL'><div class='vertical-center'>(E)</div></div><div class='respDivR'><div class='vertical-center'>(I)</div></div></div>","E","$67<br>for<br>yourself","$75<br>for<br>5","0","67","75","5","SELF"
"html-keyboard-response","73","118565","0.0-6.0-3.22","63fe38bfab28b75385783fba","bdp_sd","Mon Mar 27 2023 18:21:26 GMT-0400 (Eastern Daylight Time)","128682","","null","","","","","offerFB","","<div class='trialBorder'><div class='vertical-center'><img style='vertical-align:center; align:center' src=img/fixation3.jpg></div><div class='cl'><div class='vertical-center'><font style='color:orange'>$67<br>for<br>yourself</font></div></div><div class='cr'><div class='vertical-center'>$75<br>for<br>Rita L</div></div><div class='respDivL'><div class='vertical-center'><font style='color:orange'>(E)</font></div></div><div class='respDivR'><div class='vertical-center'>(I)</div></div></div>","null","$67<br>for<br>yourself","$75<br>for<br>5","0","67","75","5",""
"html-keyboard-response","74","119066","0.0-6.0-1.23","63fe38bfab28b75385783fba","bdp_sd","Mon Mar 27 2023 18:21:26 GMT-0400 (Eastern Daylight Time)","128682","","null","","","","","FIX","","<div class='trialBorder'><div class='vertical-center'><img style='vertical-align:center; align:center' src=img/fixation3.jpg></div></div>","null","","","","","","",""
"html-keyboard-response","75","120126","0.0-6.0-2.23","63fe38bfab28b75385783fba","bdp_sd","Mon Mar 27 2023 18:21:26 GMT-0400 (Eastern Daylight Time)","128682","","1060","","","","","offer","","<div class='trialBorder'><div class='vertical-center'><img style='vertical-align:center; align:center' src=img/fixation3.jpg></div><div class='cl'><div class='vertical-center'>$60<br>for<br>Charlia</div></div><div class='cr'><div class='vertical-center'>$49<br>for<br>yourself</div></div><div class='respDivL'><div class='vertical-center'>(E)</div></div><div class='respDivR'><div class='vertical-center'>(I)</div></div></div>","I","$49<br>for<br>yourself","$60<br>for<br>4","1","49","60","4","SELF"
"html-keyboard-response","76","120378","0.0-6.0-3.23","63fe38bfab28b75385783fba","bdp_sd","Mon Mar 27 2023 18:21:26 GMT-0400 (Eastern Daylight Time)","128682","","null","","","","","offerFB","","<div class='trialBorder'><div class='vertical-center'><img style='vertical-align:center; align:center' src=img/fixation3.jpg></div><div class='cl'><div class='vertical-center'>$60<br>for<br>Charlia</div></div><div class='cr'><div class='vertical-center'><font style='color:orange'>$49<br>for<br>yourself</font></div></div><div class='respDivL'><div class='vertical-center'>(E)</div></div><div class='respDivR'><div class='vertical-center'><font style='color:orange'>(I)</font></div></div></div>","null","$49<br>for<br>yourself","$60<br>for<br>4","1","49","60","4",""
"html-keyboard-response","77","120879","0.0-6.0-1.24","63fe38bfab28b75385783fba","bdp_sd","Mon Mar 27 2023 18:21:26 GMT-0400 (Eastern Daylight Time)","128682","","null","","","","","FIX","","<div class='trialBorder'><div class='vertical-center'><img style='vertical-align:center; align:center' src=img/fixation3.jpg></div></div>","null","","","","","","",""
"html-keyboard-response","78","123338","0.0-6.0-2.24","63fe38bfab28b75385783fba","bdp_sd","Mon Mar 27 2023 18:21:26 GMT-0400 (Eastern Daylight Time)","128682","","2458","","","","","offer","","<div class='trialBorder'><div class='vertical-center'><img style='vertical-align:center; align:center' src=img/fixation3.jpg></div><div class='cl'><div class='vertical-center'>$50<br>for<br>Rita L</div></div><div class='cr'><div class='vertical-center'>$47<br>for<br>yourself</div></div><div class='respDivL'><div class='vertical-center'>(E)</div></div><div class='respDivR'><div class='vertical-center'>(I)</div></div></div>","I","$47<br>for<br>yourself","$50<br>for<br>5","1","47","50","5","SELF"
"html-keyboard-response","79","123589","0.0-6.0-3.24","63fe38bfab28b75385783fba","bdp_sd","Mon Mar 27 2023 18:21:26 GMT-0400 (Eastern Daylight Time)","128682","","null","","","","","offerFB","","<div class='trialBorder'><div class='vertical-center'><img style='vertical-align:center; align:center' src=img/fixation3.jpg></div><div class='cl'><div class='vertical-center'>$50<br>for<br>Rita L</div></div><div class='cr'><div class='vertical-center'><font style='color:orange'>$47<br>for<br>yourself</font></div></div><div class='respDivL'><div class='vertical-center'>(E)</div></div><div class='respDivR'><div class='vertical-center'><font style='color:orange'>(I)</font></div></div></div>","null","$47<br>for<br>yourself","$50<br>for<br>5","1","47","50","5",""
"html-keyboard-response","80","124091","0.0-6.0-1.25","63fe38bfab28b75385783fba","bdp_sd","Mon Mar 27 2023 18:21:26 GMT-0400 (Eastern Daylight Time)","128682","","null","","","","","FIX","","<div class='trialBorder'><div class='vertical-center'><img style='vertical-align:center; align:center' src=img/fixation3.jpg></div></div>","null","","","","","","",""
"html-keyboard-response","81","125267","0.0-6.0-2.25","63fe38bfab28b75385783fba","bdp_sd","Mon Mar 27 2023 18:21:26 GMT-0400 (Eastern Daylight Time)","128682","","1176","","","","","offer","","<div class='trialBorder'><div class='vertical-center'><img style='vertical-align:center; align:center' src=img/fixation3.jpg></div><div class='cl'><div class='vertical-center'>$54<br>for<br>yourself</div></div><div class='cr'><div class='vertical-center'>$80<br>for<br>Leslie B</div></div><div class='respDivL'><div class='vertical-center'>(E)</div></div><div class='respDivR'><div class='vertical-center'>(I)</div></div></div>","E","$54<br>for<br>yourself","$80<br>for<br>3","0","54","80","3","SELF"
"html-keyboard-response","82","125517","0.0-6.0-3.25","63fe38bfab28b75385783fba","bdp_sd","Mon Mar 27 2023 18:21:26 GMT-0400 (Eastern Daylight Time)","128682","","null","","","","","offerFB","","<div class='trialBorder'><div class='vertical-center'><img style='vertical-align:center; align:center' src=img/fixation3.jpg></div><div class='cl'><div class='vertical-center'><font style='color:orange'>$54<br>for<br>yourself</font></div></div><div class='cr'><div class='vertical-center'>$80<br>for<br>Leslie B</div></div><div class='respDivL'><div class='vertical-center'><font style='color:orange'>(E)</font></div></div><div class='respDivR'><div class='vertical-center'>(I)</div></div></div>","null","$54<br>for<br>yourself","$80<br>for<br>3","0","54","80","3",""
"html-keyboard-response","83","126018","0.0-6.0-1.26","63fe38bfab28b75385783fba","bdp_sd","Mon Mar 27 2023 18:21:26 GMT-0400 (Eastern Daylight Time)","128682","","null","","","","","FIX","","<div class='trialBorder'><div class='vertical-center'><img style='vertical-align:center; align:center' src=img/fixation3.jpg></div></div>","null","","","","","","",""
"html-keyboard-response","84","127429","0.0-6.0-2.26","63fe38bfab28b75385783fba","bdp_sd","Mon Mar 27 2023 18:21:26 GMT-0400 (Eastern Daylight Time)","128682","","1410","","","","","offer","","<div class='trialBorder'><div class='vertical-center'><img style='vertical-align:center; align:center' src=img/fixation3.jpg></div><div class='cl'><div class='vertical-center'>$50<br>for<br>Charlia</div></div><div class='cr'><div class='vertical-center'>$34<br>for<br>yourself</div></div><div class='respDivL'><div class='vertical-center'>(E)</div></div><div class='respDivR'><div class='vertical-center'>(I)</div></div></div>","I","$34<br>for<br>yourself","$50<br>for<br>4","1","34","50","4","SELF"
"html-keyboard-response","85","127680","0.0-6.0-3.26","63fe38bfab28b75385783fba","bdp_sd","Mon Mar 27 2023 18:21:26 GMT-0400 (Eastern Daylight Time)","128682","","null","","","","","offerFB","","<div class='trialBorder'><div class='vertical-center'><img style='vertical-align:center; align:center' src=img/fixation3.jpg></div><div class='cl'><div class='vertical-center'>$50<br>for<br>Charlia</div></div><div class='cr'><div class='vertical-center'><font style='color:orange'>$34<br>for<br>yourself</font></div></div><div class='respDivL'><div class='vertical-center'>(E)</div></div><div class='respDivR'><div class='vertical-center'><font style='color:orange'>(I)</font></div></div></div>","null","$34<br>for<br>yourself","$50<br>for<br>4","1","34","50","4",""
"","","","","63fe38bfab28b75385783fba","bdp_sd","Mon Mar 27 2023 18:21:26 GMT-0400 (Eastern Daylight Time)","128682","","","","fullscreenexit","86","128227","fullscreenexit","","","","","","","","","",""
"fullscreen","86","128681","0.0-7.0","63fe38bfab28b75385783fba","bdp_sd","Mon Mar 27 2023 18:21:26 GMT-0400 (Eastern Daylight Time)","128682","","","","","","","","true","","","","","","","","",""
"html-keyboard-response","87","129182","0.0-8.0","","","","","","null","","","","","","","","null","","","","","","",""
