"event","trial","time","trialtype","subject_id","task","startTime","totalTime","trial_type","trial_index","time_elapsed","internal_node_id","view_history","rt","responses","success","stimulus","key_press","selfOffer","otherOffer","otherLeft","selfAmt","otherAmt","otherDist","chosen"
"focus","0","0","focusevent","5f5834134283933a1c3b42d0","bdp_sd","Mon Mar 27 2023 15:33:51 GMT-0400 (Eastern Daylight Time)","227625","","","","","","","","","","","","","","","","",""
"","","","","5f5834134283933a1c3b42d0","bdp_sd","Mon Mar 27 2023 15:33:51 GMT-0400 (Eastern Daylight Time)","227625","pavlovia","0","2","0.0-0.0","","","","","","","","","","","","",""
"","","","","5f5834134283933a1c3b42d0","bdp_sd","Mon Mar 27 2023 15:33:51 GMT-0400 (Eastern Daylight Time)","227625","instructions","1","2714","0.0-1.0","[{""page_index"":0,""viewing_time"":2712}]","2712","","","","","","","","","","",""
"","","","","5f5834134283933a1c3b42d0","bdp_sd","Mon Mar 27 2023 15:33:51 GMT-0400 (Eastern Daylight Time)","227625","survey-text","2","113044","0.0-2.0","","110330","{""Q0"":""James C"",""Q1"":""Amelia B"",""Q2"":""Jacob W"",""Q3"":""Jim E"",""Q4"":""Brian T""}","","","","","","","","","",""
"fullscreenexit","3","114805","fullscreenexit","5f5834134283933a1c3b42d0","bdp_sd","Mon Mar 27 2023 15:33:51 GMT-0400 (Eastern Daylight Time)","227625","","","","","","","","","","","","","","","","",""
"","","","","5f5834134283933a1c3b42d0","bdp_sd","Mon Mar 27 2023 15:33:51 GMT-0400 (Eastern Daylight Time)","227625","fullscreen","3","115601","0.0-3.0","","","","true","","","","","","","","",""
"","","","fullscreenfail","5f5834134283933a1c3b42d0","bdp_sd","Mon Mar 27 2023 15:33:51 GMT-0400 (Eastern Daylight Time)","227625","image-keyboard-response","4","117538","0.0-4.0-0.0","","1937","","","","32","","","","","","",""
"","","","","5f5834134283933a1c3b42d0","bdp_sd","Mon Mar 27 2023 15:33:51 GMT-0400 (Eastern Daylight Time)","227625","instructions","5","160102","0.0-5.0","[{""page_index"":0,""viewing_time"":11023},{""page_index"":1,""viewing_time"":14897},{""page_index"":2,""viewing_time"":16379}]","42299","","","","","","","","","","",""
"","","","FIX","5f5834134283933a1c3b42d0","bdp_sd","Mon Mar 27 2023 15:33:51 GMT-0400 (Eastern Daylight Time)","227625","html-keyboard-response","6","160608","0.0-6.0-1.0","","null","","","<div class='trialBorder'><div class='vertical-center'><img style='vertical-align:center; align:center' src=img/fixation3.jpg></div></div>","null","","","","","","",""
"","","","offer","5f5834134283933a1c3b42d0","bdp_sd","Mon Mar 27 2023 15:33:51 GMT-0400 (Eastern Daylight Time)","227625","html-keyboard-response","7","162774","0.0-6.0-2.0","","2165","","","<div class='trialBorder'><div class='vertical-center'><img style='vertical-align:center; align:center' src=img/fixation3.jpg></div><div class='cl'><div class='vertical-center'>$50<br>for<br>Jim E</div></div><div class='cr'><div class='vertical-center'>$34<br>for<br>yourself</div></div><div class='respDivL'><div class='vertical-center'>(E)</div></div><div class='respDivR'><div class='vertical-center'>(I)</div></div></div>","I","$34<br>for<br>yourself","$50<br>for<br>4","1","34","50","4","SELF"
"","","","offerFB","5f5834134283933a1c3b42d0","bdp_sd","Mon Mar 27 2023 15:33:51 GMT-0400 (Eastern Daylight Time)","227625","html-keyboard-response","8","163039","0.0-6.0-3.0","","null","","","<div class='trialBorder'><div class='vertical-center'><img style='vertical-align:center; align:center' src=img/fixation3.jpg></div><div class='cl'><div class='vertical-center'>$50<br>for<br>Jim E</div></div><div class='cr'><div class='vertical-center'><font style='color:orange'>$34<br>for<br>yourself</font></div></div><div class='respDivL'><div class='vertical-center'>(E)</div></div><div class='respDivR'><div class='vertical-center'><font style='color:orange'>(I)</font></div></div></div>","null","$34<br>for<br>yourself","$50<br>for<br>4","1","34","50","4",""
"","","","FIX","5f5834134283933a1c3b42d0","bdp_sd","Mon Mar 27 2023 15:33:51 GMT-0400 (Eastern Daylight Time)","227625","html-keyboard-response","9","163540","0.0-6.0-1.1","","null","","","<div class='trialBorder'><div class='vertical-center'><img style='vertical-align:center; align:center' src=img/fixation3.jpg></div></div>","null","","","","","","",""
"","","","offer","5f5834134283933a1c3b42d0","bdp_sd","Mon Mar 27 2023 15:33:51 GMT-0400 (Eastern Daylight Time)","227625","html-keyboard-response","10","165458","0.0-6.0-2.1","","1917","","","<div class='trialBorder'><div class='vertical-center'><img style='vertical-align:center; align:center' src=img/fixation3.jpg></div><div class='cl'><div class='vertical-center'>$31<br>for<br>yourself</div></div><div class='cr'><div class='vertical-center'>$85<br>for<br>James C</div></div><div class='respDivL'><div class='vertical-center'>(E)</div></div><div class='respDivR'><div class='vertical-center'>(I)</div></div></div>","I","$31<br>for<br>yourself","$85<br>for<br>1","0","31","85","1","OTHER"
"","","","offerFB","5f5834134283933a1c3b42d0","bdp_sd","Mon Mar 27 2023 15:33:51 GMT-0400 (Eastern Daylight Time)","227625","html-keyboard-response","11","165716","0.0-6.0-3.1","","null","","","<div class='trialBorder'><div class='vertical-center'><img style='vertical-align:center; align:center' src=img/fixation3.jpg></div><div class='cl'><div class='vertical-center'>$31<br>for<br>yourself</div></div><div class='cr'><div class='vertical-center'><font style='color:orange'>$85<br>for<br>James C</font></div></div><div class='respDivL'><div class='vertical-center'>(E)</div></div><div class='respDivR'><div class='vertical-center'><font style='color:orange'>(I)</font></div></div></div>","null","$31<br>for<br>yourself","$85<br>for<br>1","0","31","85","1",""
"","","","FIX","5f5834134283933a1c3b42d0","bdp_sd","Mon Mar 27 2023 15:33:51 GMT-0400 (Eastern Daylight Time)","227625","html-keyboard-response","12","166229","0.0-6.0-1.2","","null","","","<div class='trialBorder'><div class='vertical-center'><img style='vertical-align:center; align:center' src=img/fixation3.jpg></div></div>","null","","","","","","",""
"","","","offer","5f5834134283933a1c3b42d0","bdp_sd","Mon Mar 27 2023 15:33:51 GMT-0400 (Eastern Daylight Time)","227625","html-keyboard-response","13","169115","0.0-6.0-2.2","","2885","","","<div class='trialBorder'><div class='vertical-center'><img style='vertical-align:center; align:center' src=img/fixation3.jpg></div><div class='cl'><div class='vertical-center'>$60<br>for<br>Brian T</div></div><div class='cr'><div class='vertical-center'>$54<br>for<br>yourself</div></div><div class='respDivL'><div class='vertical-center'>(E)</div></div><div class='respDivR'><div class='vertical-center'>(I)</div></div></div>","I","$54<br>for<br>yourself","$60<br>for<br>5","1","54","60","5","SELF"
"","","","offerFB","5f5834134283933a1c3b42d0","bdp_sd","Mon Mar 27 2023 15:33:51 GMT-0400 (Eastern Daylight Time)","227625","html-keyboard-response","14","169369","0.0-6.0-3.2","","null","","","<div class='trialBorder'><div class='vertical-center'><img style='vertical-align:center; align:center' src=img/fixation3.jpg></div><div class='cl'><div class='vertical-center'>$60<br>for<br>Brian T</div></div><div class='cr'><div class='vertical-center'><font style='color:orange'>$54<br>for<br>yourself</font></div></div><div class='respDivL'><div class='vertical-center'>(E)</div></div><div class='respDivR'><div class='vertical-center'><font style='color:orange'>(I)</font></div></div></div>","null","$54<br>for<br>yourself","$60<br>for<br>5","1","54","60","5",""
"","","","FIX","5f5834134283933a1c3b42d0","bdp_sd","Mon Mar 27 2023 15:33:51 GMT-0400 (Eastern Daylight Time)","227625","html-keyboard-response","15","169883","0.0-6.0-1.3","","null","","","<div class='trialBorder'><div class='vertical-center'><img style='vertical-align:center; align:center' src=img/fixation3.jpg></div></div>","null","","","","","","",""
"","","","offer","5f5834134283933a1c3b42d0","bdp_sd","Mon Mar 27 2023 15:33:51 GMT-0400 (Eastern Daylight Time)","227625","html-keyboard-response","16","172652","0.0-6.0-2.3","","2768","","","<div class='trialBorder'><div class='vertical-center'><img style='vertical-align:center; align:center' src=img/fixation3.jpg></div><div class='cl'><div class='vertical-center'>$41<br>for<br>yourself</div></div><div class='cr'><div class='vertical-center'>$75<br>for<br>Jacob W</div></div><div class='respDivL'><div class='vertical-center'>(E)</div></div><div class='respDivR'><div class='vertical-center'>(I)</div></div></div>","I","$41<br>for<br>yourself","$75<br>for<br>3","0","41","75","3","OTHER"
"","","","offerFB","5f5834134283933a1c3b42d0","bdp_sd","Mon Mar 27 2023 15:33:51 GMT-0400 (Eastern Daylight Time)","227625","html-keyboard-response","17","172907","0.0-6.0-3.3","","null","","","<div class='trialBorder'><div class='vertical-center'><img style='vertical-align:center; align:center' src=img/fixation3.jpg></div><div class='cl'><div class='vertical-center'>$41<br>for<br>yourself</div></div><div class='cr'><div class='vertical-center'><font style='color:orange'>$75<br>for<br>Jacob W</font></div></div><div class='respDivL'><div class='vertical-center'>(E)</div></div><div class='respDivR'><div class='vertical-center'><font style='color:orange'>(I)</font></div></div></div>","null","$41<br>for<br>yourself","$75<br>for<br>3","0","41","75","3",""
"","","","FIX","5f5834134283933a1c3b42d0","bdp_sd","Mon Mar 27 2023 15:33:51 GMT-0400 (Eastern Daylight Time)","227625","html-keyboard-response","18","173422","0.0-6.0-1.4","","null","","","<div class='trialBorder'><div class='vertical-center'><img style='vertical-align:center; align:center' src=img/fixation3.jpg></div></div>","null","","","","","","",""
"","","","offer","5f5834134283933a1c3b42d0","bdp_sd","Mon Mar 27 2023 15:33:51 GMT-0400 (Eastern Daylight Time)","227625","html-keyboard-response","19","175212","0.0-6.0-2.4","","1790","","","<div class='trialBorder'><div class='vertical-center'><img style='vertical-align:center; align:center' src=img/fixation3.jpg></div><div class='cl'><div class='vertical-center'>$67<br>for<br>yourself</div></div><div class='cr'><div class='vertical-center'>$75<br>for<br>Brian T</div></div><div class='respDivL'><div class='vertical-center'>(E)</div></div><div class='respDivR'><div class='vertical-center'>(I)</div></div></div>","E","$67<br>for<br>yourself","$75<br>for<br>5","0","67","75","5","SELF"
"","","","offerFB","5f5834134283933a1c3b42d0","bdp_sd","Mon Mar 27 2023 15:33:51 GMT-0400 (Eastern Daylight Time)","227625","html-keyboard-response","20","175470","0.0-6.0-3.4","","null","","","<div class='trialBorder'><div class='vertical-center'><img style='vertical-align:center; align:center' src=img/fixation3.jpg></div><div class='cl'><div class='vertical-center'><font style='color:orange'>$67<br>for<br>yourself</font></div></div><div class='cr'><div class='vertical-center'>$75<br>for<br>Brian T</div></div><div class='respDivL'><div class='vertical-center'><font style='color:orange'>(E)</font></div></div><div class='respDivR'><div class='vertical-center'>(I)</div></div></div>","null","$67<br>for<br>yourself","$75<br>for<br>5","0","67","75","5",""
"","","","FIX","5f5834134283933a1c3b42d0","bdp_sd","Mon Mar 27 2023 15:33:51 GMT-0400 (Eastern Daylight Time)","227625","html-keyboard-response","21","175983","0.0-6.0-1.5","","null","","","<div class='trialBorder'><div class='vertical-center'><img style='vertical-align:center; align:center' src=img/fixation3.jpg></div></div>","null","","","","","","",""
"","","","offer","5f5834134283933a1c3b42d0","bdp_sd","Mon Mar 27 2023 15:33:51 GMT-0400 (Eastern Daylight Time)","227625","html-keyboard-response","22","177705","0.0-6.0-2.5","","1721","","","<div class='trialBorder'><div class='vertical-center'><img style='vertical-align:center; align:center' src=img/fixation3.jpg></div><div class='cl'><div class='vertical-center'>$49<br>for<br>yourself</div></div><div class='cr'><div class='vertical-center'>$60<br>for<br>Jim E</div></div><div class='respDivL'><div class='vertical-center'>(E)</div></div><div class='respDivR'><div class='vertical-center'>(I)</div></div></div>","E","$49<br>for<br>yourself","$60<br>for<br>4","0","49","60","4","SELF"
"","","","offerFB","5f5834134283933a1c3b42d0","bdp_sd","Mon Mar 27 2023 15:33:51 GMT-0400 (Eastern Daylight Time)","227625","html-keyboard-response","23","177965","0.0-6.0-3.5","","null","","","<div class='trialBorder'><div class='vertical-center'><img style='vertical-align:center; align:center' src=img/fixation3.jpg></div><div class='cl'><div class='vertical-center'><font style='color:orange'>$49<br>for<br>yourself</font></div></div><div class='cr'><div class='vertical-center'>$60<br>for<br>Jim E</div></div><div class='respDivL'><div class='vertical-center'><font style='color:orange'>(E)</font></div></div><div class='respDivR'><div class='vertical-center'>(I)</div></div></div>","null","$49<br>for<br>yourself","$60<br>for<br>4","0","49","60","4",""
"","","","FIX","5f5834134283933a1c3b42d0","bdp_sd","Mon Mar 27 2023 15:33:51 GMT-0400 (Eastern Daylight Time)","227625","html-keyboard-response","24","178479","0.0-6.0-1.6","","null","","","<div class='trialBorder'><div class='vertical-center'><img style='vertical-align:center; align:center' src=img/fixation3.jpg></div></div>","null","","","","","","",""
"","","","offer","5f5834134283933a1c3b42d0","bdp_sd","Mon Mar 27 2023 15:33:51 GMT-0400 (Eastern Daylight Time)","227625","html-keyboard-response","25","180587","0.0-6.0-2.6","","2107","","","<div class='trialBorder'><div class='vertical-center'><img style='vertical-align:center; align:center' src=img/fixation3.jpg></div><div class='cl'><div class='vertical-center'>$50<br>for<br>Jacob W</div></div><div class='cr'><div class='vertical-center'>$27<br>for<br>yourself</div></div><div class='respDivL'><div class='vertical-center'>(E)</div></div><div class='respDivR'><div class='vertical-center'>(I)</div></div></div>","E","$27<br>for<br>yourself","$50<br>for<br>3","1","27","50","3","OTHER"
"","","","offerFB","5f5834134283933a1c3b42d0","bdp_sd","Mon Mar 27 2023 15:33:51 GMT-0400 (Eastern Daylight Time)","227625","html-keyboard-response","26","180843","0.0-6.0-3.6","","null","","","<div class='trialBorder'><div class='vertical-center'><img style='vertical-align:center; align:center' src=img/fixation3.jpg></div><div class='cl'><div class='vertical-center'><font style='color:orange'>$50<br>for<br>Jacob W</font></div></div><div class='cr'><div class='vertical-center'>$27<br>for<br>yourself</div></div><div class='respDivL'><div class='vertical-center'><font style='color:orange'>(E)</font></div></div><div class='respDivR'><div class='vertical-center'>(I)</div></div></div>","null","$27<br>for<br>yourself","$50<br>for<br>3","1","27","50","3",""
"","","","FIX","5f5834134283933a1c3b42d0","bdp_sd","Mon Mar 27 2023 15:33:51 GMT-0400 (Eastern Daylight Time)","227625","html-keyboard-response","27","181358","0.0-6.0-1.7","","null","","","<div class='trialBorder'><div class='vertical-center'><img style='vertical-align:center; align:center' src=img/fixation3.jpg></div></div>","null","","","","","","",""
"","","","offer","5f5834134283933a1c3b42d0","bdp_sd","Mon Mar 27 2023 15:33:51 GMT-0400 (Eastern Daylight Time)","227625","html-keyboard-response","28","183246","0.0-6.0-2.7","","1887","","","<div class='trialBorder'><div class='vertical-center'><img style='vertical-align:center; align:center' src=img/fixation3.jpg></div><div class='cl'><div class='vertical-center'>$14<br>for<br>yourself</div></div><div class='cr'><div class='vertical-center'>$25<br>for<br>Jacob W</div></div><div class='respDivL'><div class='vertical-center'>(E)</div></div><div class='respDivR'><div class='vertical-center'>(I)</div></div></div>","E","$14<br>for<br>yourself","$25<br>for<br>3","0","14","25","3","SELF"
"","","","offerFB","5f5834134283933a1c3b42d0","bdp_sd","Mon Mar 27 2023 15:33:51 GMT-0400 (Eastern Daylight Time)","227625","html-keyboard-response","29","183501","0.0-6.0-3.7","","null","","","<div class='trialBorder'><div class='vertical-center'><img style='vertical-align:center; align:center' src=img/fixation3.jpg></div><div class='cl'><div class='vertical-center'><font style='color:orange'>$14<br>for<br>yourself</font></div></div><div class='cr'><div class='vertical-center'>$25<br>for<br>Jacob W</div></div><div class='respDivL'><div class='vertical-center'><font style='color:orange'>(E)</font></div></div><div class='respDivR'><div class='vertical-center'>(I)</div></div></div>","null","$14<br>for<br>yourself","$25<br>for<br>3","0","14","25","3",""
"","","","FIX","5f5834134283933a1c3b42d0","bdp_sd","Mon Mar 27 2023 15:33:51 GMT-0400 (Eastern Daylight Time)","227625","html-keyboard-response","30","184016","0.0-6.0-1.8","","null","","","<div class='trialBorder'><div class='vertical-center'><img style='vertical-align:center; align:center' src=img/fixation3.jpg></div></div>","null","","","","","","",""
"","","","offer","5f5834134283933a1c3b42d0","bdp_sd","Mon Mar 27 2023 15:33:51 GMT-0400 (Eastern Daylight Time)","227625","html-keyboard-response","31","185878","0.0-6.0-2.8","","1860","","","<div class='trialBorder'><div class='vertical-center'><img style='vertical-align:center; align:center' src=img/fixation3.jpg></div><div class='cl'><div class='vertical-center'>$85<br>for<br>Brian T</div></div><div class='cr'><div class='vertical-center'>$80<br>for<br>yourself</div></div><div class='respDivL'><div class='vertical-center'>(E)</div></div><div class='respDivR'><div class='vertical-center'>(I)</div></div></div>","I","$80<br>for<br>yourself","$85<br>for<br>5","1","80","85","5","SELF"
"","","","offerFB","5f5834134283933a1c3b42d0","bdp_sd","Mon Mar 27 2023 15:33:51 GMT-0400 (Eastern Daylight Time)","227625","html-keyboard-response","32","186128","0.0-6.0-3.8","","null","","","<div class='trialBorder'><div class='vertical-center'><img style='vertical-align:center; align:center' src=img/fixation3.jpg></div><div class='cl'><div class='vertical-center'>$85<br>for<br>Brian T</div></div><div class='cr'><div class='vertical-center'><font style='color:orange'>$80<br>for<br>yourself</font></div></div><div class='respDivL'><div class='vertical-center'>(E)</div></div><div class='respDivR'><div class='vertical-center'><font style='color:orange'>(I)</font></div></div></div>","null","$80<br>for<br>yourself","$85<br>for<br>5","1","80","85","5",""
"","","","FIX","5f5834134283933a1c3b42d0","bdp_sd","Mon Mar 27 2023 15:33:51 GMT-0400 (Eastern Daylight Time)","227625","html-keyboard-response","33","186643","0.0-6.0-1.9","","null","","","<div class='trialBorder'><div class='vertical-center'><img style='vertical-align:center; align:center' src=img/fixation3.jpg></div></div>","null","","","","","","",""
"","","","offer","5f5834134283933a1c3b42d0","bdp_sd","Mon Mar 27 2023 15:33:51 GMT-0400 (Eastern Daylight Time)","227625","html-keyboard-response","34","188224","0.0-6.0-2.9","","1579","","","<div class='trialBorder'><div class='vertical-center'><img style='vertical-align:center; align:center' src=img/fixation3.jpg></div><div class='cl'><div class='vertical-center'>$33<br>for<br>yourself</div></div><div class='cr'><div class='vertical-center'>$80<br>for<br>Amelia B</div></div><div class='respDivL'><div class='vertical-center'>(E)</div></div><div class='respDivR'><div class='vertical-center'>(I)</div></div></div>","I","$33<br>for<br>yourself","$80<br>for<br>2","0","33","80","2","OTHER"
"","","","offerFB","5f5834134283933a1c3b42d0","bdp_sd","Mon Mar 27 2023 15:33:51 GMT-0400 (Eastern Daylight Time)","227625","html-keyboard-response","35","188475","0.0-6.0-3.9","","null","","","<div class='trialBorder'><div class='vertical-center'><img style='vertical-align:center; align:center' src=img/fixation3.jpg></div><div class='cl'><div class='vertical-center'>$33<br>for<br>yourself</div></div><div class='cr'><div class='vertical-center'><font style='color:orange'>$80<br>for<br>Amelia B</font></div></div><div class='respDivL'><div class='vertical-center'>(E)</div></div><div class='respDivR'><div class='vertical-center'><font style='color:orange'>(I)</font></div></div></div>","null","$33<br>for<br>yourself","$80<br>for<br>2","0","33","80","2",""
"","","","FIX","5f5834134283933a1c3b42d0","bdp_sd","Mon Mar 27 2023 15:33:51 GMT-0400 (Eastern Daylight Time)","227625","html-keyboard-response","36","188978","0.0-6.0-1.10","","null","","","<div class='trialBorder'><div class='vertical-center'><img style='vertical-align:center; align:center' src=img/fixation3.jpg></div></div>","null","","","","","","",""
"","","","offer","5f5834134283933a1c3b42d0","bdp_sd","Mon Mar 27 2023 15:33:51 GMT-0400 (Eastern Daylight Time)","227625","html-keyboard-response","37","190675","0.0-6.0-2.10","","1696","","","<div class='trialBorder'><div class='vertical-center'><img style='vertical-align:center; align:center' src=img/fixation3.jpg></div><div class='cl'><div class='vertical-center'>$55<br>for<br>Jim E</div></div><div class='cr'><div class='vertical-center'>$40<br>for<br>yourself</div></div><div class='respDivL'><div class='vertical-center'>(E)</div></div><div class='respDivR'><div class='vertical-center'>(I)</div></div></div>","I","$40<br>for<br>yourself","$55<br>for<br>4","1","40","55","4","SELF"
"","","","offerFB","5f5834134283933a1c3b42d0","bdp_sd","Mon Mar 27 2023 15:33:51 GMT-0400 (Eastern Daylight Time)","227625","html-keyboard-response","38","190931","0.0-6.0-3.10","","null","","","<div class='trialBorder'><div class='vertical-center'><img style='vertical-align:center; align:center' src=img/fixation3.jpg></div><div class='cl'><div class='vertical-center'>$55<br>for<br>Jim E</div></div><div class='cr'><div class='vertical-center'><font style='color:orange'>$40<br>for<br>yourself</font></div></div><div class='respDivL'><div class='vertical-center'>(E)</div></div><div class='respDivR'><div class='vertical-center'><font style='color:orange'>(I)</font></div></div></div>","null","$40<br>for<br>yourself","$55<br>for<br>4","1","40","55","4",""
"","","","FIX","5f5834134283933a1c3b42d0","bdp_sd","Mon Mar 27 2023 15:33:51 GMT-0400 (Eastern Daylight Time)","227625","html-keyboard-response","39","191446","0.0-6.0-1.11","","null","","","<div class='trialBorder'><div class='vertical-center'><img style='vertical-align:center; align:center' src=img/fixation3.jpg></div></div>","null","","","","","","",""
"","","","offer","5f5834134283933a1c3b42d0","bdp_sd","Mon Mar 27 2023 15:33:51 GMT-0400 (Eastern Daylight Time)","227625","html-keyboard-response","40","192894","0.0-6.0-2.11","","1447","","","<div class='trialBorder'><div class='vertical-center'><img style='vertical-align:center; align:center' src=img/fixation3.jpg></div><div class='cl'><div class='vertical-center'>$35<br>for<br>Brian T</div></div><div class='cr'><div class='vertical-center'>$34<br>for<br>yourself</div></div><div class='respDivL'><div class='vertical-center'>(E)</div></div><div class='respDivR'><div class='vertical-center'>(I)</div></div></div>","I","$34<br>for<br>yourself","$35<br>for<br>5","1","34","35","5","SELF"
"","","","offerFB","5f5834134283933a1c3b42d0","bdp_sd","Mon Mar 27 2023 15:33:51 GMT-0400 (Eastern Daylight Time)","227625","html-keyboard-response","41","193146","0.0-6.0-3.11","","null","","","<div class='trialBorder'><div class='vertical-center'><img style='vertical-align:center; align:center' src=img/fixation3.jpg></div><div class='cl'><div class='vertical-center'>$35<br>for<br>Brian T</div></div><div class='cr'><div class='vertical-center'><font style='color:orange'>$34<br>for<br>yourself</font></div></div><div class='respDivL'><div class='vertical-center'>(E)</div></div><div class='respDivR'><div class='vertical-center'><font style='color:orange'>(I)</font></div></div></div>","null","$34<br>for<br>yourself","$35<br>for<br>5","1","34","35","5",""
"","","","FIX","5f5834134283933a1c3b42d0","bdp_sd","Mon Mar 27 2023 15:33:51 GMT-0400 (Eastern Daylight Time)","227625","html-keyboard-response","42","193660","0.0-6.0-1.12","","null","","","<div class='trialBorder'><div class='vertical-center'><img style='vertical-align:center; align:center' src=img/fixation3.jpg></div></div>","null","","","","","","",""
"","","","offer","5f5834134283933a1c3b42d0","bdp_sd","Mon Mar 27 2023 15:33:51 GMT-0400 (Eastern Daylight Time)","227625","html-keyboard-response","43","195001","0.0-6.0-2.12","","1340","","","<div class='trialBorder'><div class='vertical-center'><img style='vertical-align:center; align:center' src=img/fixation3.jpg></div><div class='cl'><div class='vertical-center'>$75<br>for<br>Jim E</div></div><div class='cr'><div class='vertical-center'>$55<br>for<br>yourself</div></div><div class='respDivL'><div class='vertical-center'>(E)</div></div><div class='respDivR'><div class='vertical-center'>(I)</div></div></div>","I","$55<br>for<br>yourself","$75<br>for<br>4","1","55","75","4","SELF"
"","","","offerFB","5f5834134283933a1c3b42d0","bdp_sd","Mon Mar 27 2023 15:33:51 GMT-0400 (Eastern Daylight Time)","227625","html-keyboard-response","44","195253","0.0-6.0-3.12","","null","","","<div class='trialBorder'><div class='vertical-center'><img style='vertical-align:center; align:center' src=img/fixation3.jpg></div><div class='cl'><div class='vertical-center'>$75<br>for<br>Jim E</div></div><div class='cr'><div class='vertical-center'><font style='color:orange'>$55<br>for<br>yourself</font></div></div><div class='respDivL'><div class='vertical-center'>(E)</div></div><div class='respDivR'><div class='vertical-center'><font style='color:orange'>(I)</font></div></div></div>","null","$55<br>for<br>yourself","$75<br>for<br>4","1","55","75","4",""
"","","","FIX","5f5834134283933a1c3b42d0","bdp_sd","Mon Mar 27 2023 15:33:51 GMT-0400 (Eastern Daylight Time)","227625","html-keyboard-response","45","195767","0.0-6.0-1.13","","null","","","<div class='trialBorder'><div class='vertical-center'><img style='vertical-align:center; align:center' src=img/fixation3.jpg></div></div>","null","","","","","","",""
"","","","offer","5f5834134283933a1c3b42d0","bdp_sd","Mon Mar 27 2023 15:33:51 GMT-0400 (Eastern Daylight Time)","227625","html-keyboard-response","46","197292","0.0-6.0-2.13","","1525","","","<div class='trialBorder'><div class='vertical-center'><img style='vertical-align:center; align:center' src=img/fixation3.jpg></div><div class='cl'><div class='vertical-center'>$50<br>for<br>Brian T</div></div><div class='cr'><div class='vertical-center'>$47<br>for<br>yourself</div></div><div class='respDivL'><div class='vertical-center'>(E)</div></div><div class='respDivR'><div class='vertical-center'>(I)</div></div></div>","I","$47<br>for<br>yourself","$50<br>for<br>5","1","47","50","5","SELF"
"","","","offerFB","5f5834134283933a1c3b42d0","bdp_sd","Mon Mar 27 2023 15:33:51 GMT-0400 (Eastern Daylight Time)","227625","html-keyboard-response","47","197550","0.0-6.0-3.13","","null","","","<div class='trialBorder'><div class='vertical-center'><img style='vertical-align:center; align:center' src=img/fixation3.jpg></div><div class='cl'><div class='vertical-center'>$50<br>for<br>Brian T</div></div><div class='cr'><div class='vertical-center'><font style='color:orange'>$47<br>for<br>yourself</font></div></div><div class='respDivL'><div class='vertical-center'>(E)</div></div><div class='respDivR'><div class='vertical-center'><font style='color:orange'>(I)</font></div></div></div>","null","$47<br>for<br>yourself","$50<br>for<br>5","1","47","50","5",""
"","","","FIX","5f5834134283933a1c3b42d0","bdp_sd","Mon Mar 27 2023 15:33:51 GMT-0400 (Eastern Daylight Time)","227625","html-keyboard-response","48","198064","0.0-6.0-1.14","","null","","","<div class='trialBorder'><div class='vertical-center'><img style='vertical-align:center; align:center' src=img/fixation3.jpg></div></div>","null","","","","","","",""
"","","","offer","5f5834134283933a1c3b42d0","bdp_sd","Mon Mar 27 2023 15:33:51 GMT-0400 (Eastern Daylight Time)","227625","html-keyboard-response","49","199422","0.0-6.0-2.14","","1357","","","<div class='trialBorder'><div class='vertical-center'><img style='vertical-align:center; align:center' src=img/fixation3.jpg></div><div class='cl'><div class='vertical-center'>$11<br>for<br>yourself</div></div><div class='cr'><div class='vertical-center'>$30<br>for<br>Amelia B</div></div><div class='respDivL'><div class='vertical-center'>(E)</div></div><div class='respDivR'><div class='vertical-center'>(I)</div></div></div>","I","$11<br>for<br>yourself","$30<br>for<br>2","0","11","30","2","OTHER"
"","","","offerFB","5f5834134283933a1c3b42d0","bdp_sd","Mon Mar 27 2023 15:33:51 GMT-0400 (Eastern Daylight Time)","227625","html-keyboard-response","50","199685","0.0-6.0-3.14","","null","","","<div class='trialBorder'><div class='vertical-center'><img style='vertical-align:center; align:center' src=img/fixation3.jpg></div><div class='cl'><div class='vertical-center'>$11<br>for<br>yourself</div></div><div class='cr'><div class='vertical-center'><font style='color:orange'>$30<br>for<br>Amelia B</font></div></div><div class='respDivL'><div class='vertical-center'>(E)</div></div><div class='respDivR'><div class='vertical-center'><font style='color:orange'>(I)</font></div></div></div>","null","$11<br>for<br>yourself","$30<br>for<br>2","0","11","30","2",""
"","","","FIX","5f5834134283933a1c3b42d0","bdp_sd","Mon Mar 27 2023 15:33:51 GMT-0400 (Eastern Daylight Time)","227625","html-keyboard-response","51","200201","0.0-6.0-1.15","","null","","","<div class='trialBorder'><div class='vertical-center'><img style='vertical-align:center; align:center' src=img/fixation3.jpg></div></div>","null","","","","","","",""
"","","","offer","5f5834134283933a1c3b42d0","bdp_sd","Mon Mar 27 2023 15:33:51 GMT-0400 (Eastern Daylight Time)","227625","html-keyboard-response","52","203471","0.0-6.0-2.15","","3270","","","<div class='trialBorder'><div class='vertical-center'><img style='vertical-align:center; align:center' src=img/fixation3.jpg></div><div class='cl'><div class='vertical-center'>$55<br>for<br>Brian T</div></div><div class='cr'><div class='vertical-center'>$54<br>for<br>yourself</div></div><div class='respDivL'><div class='vertical-center'>(E)</div></div><div class='respDivR'><div class='vertical-center'>(I)</div></div></div>","I","$54<br>for<br>yourself","$55<br>for<br>5","1","54","55","5","SELF"
"","","","offerFB","5f5834134283933a1c3b42d0","bdp_sd","Mon Mar 27 2023 15:33:51 GMT-0400 (Eastern Daylight Time)","227625","html-keyboard-response","53","203736","0.0-6.0-3.15","","null","","","<div class='trialBorder'><div class='vertical-center'><img style='vertical-align:center; align:center' src=img/fixation3.jpg></div><div class='cl'><div class='vertical-center'>$55<br>for<br>Brian T</div></div><div class='cr'><div class='vertical-center'><font style='color:orange'>$54<br>for<br>yourself</font></div></div><div class='respDivL'><div class='vertical-center'>(E)</div></div><div class='respDivR'><div class='vertical-center'><font style='color:orange'>(I)</font></div></div></div>","null","$54<br>for<br>yourself","$55<br>for<br>5","1","54","55","5",""
"","","","FIX","5f5834134283933a1c3b42d0","bdp_sd","Mon Mar 27 2023 15:33:51 GMT-0400 (Eastern Daylight Time)","227625","html-keyboard-response","54","204239","0.0-6.0-1.16","","null","","","<div class='trialBorder'><div class='vertical-center'><img style='vertical-align:center; align:center' src=img/fixation3.jpg></div></div>","null","","","","","","",""
"","","","offer","5f5834134283933a1c3b42d0","bdp_sd","Mon Mar 27 2023 15:33:51 GMT-0400 (Eastern Daylight Time)","227625","html-keyboard-response","55","205709","0.0-6.0-2.16","","1469","","","<div class='trialBorder'><div class='vertical-center'><img style='vertical-align:center; align:center' src=img/fixation3.jpg></div><div class='cl'><div class='vertical-center'>$60<br>for<br>Jacob W</div></div><div class='cr'><div class='vertical-center'>$25<br>for<br>yourself</div></div><div class='respDivL'><div class='vertical-center'>(E)</div></div><div class='respDivR'><div class='vertical-center'>(I)</div></div></div>","E","$25<br>for<br>yourself","$60<br>for<br>3","1","25","60","3","OTHER"
"","","","offerFB","5f5834134283933a1c3b42d0","bdp_sd","Mon Mar 27 2023 15:33:51 GMT-0400 (Eastern Daylight Time)","227625","html-keyboard-response","56","205966","0.0-6.0-3.16","","null","","","<div class='trialBorder'><div class='vertical-center'><img style='vertical-align:center; align:center' src=img/fixation3.jpg></div><div class='cl'><div class='vertical-center'><font style='color:orange'>$60<br>for<br>Jacob W</font></div></div><div class='cr'><div class='vertical-center'>$25<br>for<br>yourself</div></div><div class='respDivL'><div class='vertical-center'><font style='color:orange'>(E)</font></div></div><div class='respDivR'><div class='vertical-center'>(I)</div></div></div>","null","$25<br>for<br>yourself","$60<br>for<br>3","1","25","60","3",""
"","","","FIX","5f5834134283933a1c3b42d0","bdp_sd","Mon Mar 27 2023 15:33:51 GMT-0400 (Eastern Daylight Time)","227625","html-keyboard-response","57","206466","0.0-6.0-1.17","","null","","","<div class='trialBorder'><div class='vertical-center'><img style='vertical-align:center; align:center' src=img/fixation3.jpg></div></div>","null","","","","","","",""
"","","","offer","5f5834134283933a1c3b42d0","bdp_sd","Mon Mar 27 2023 15:33:51 GMT-0400 (Eastern Daylight Time)","227625","html-keyboard-response","58","207948","0.0-6.0-2.17","","1481","","","<div class='trialBorder'><div class='vertical-center'><img style='vertical-align:center; align:center' src=img/fixation3.jpg></div><div class='cl'><div class='vertical-center'>$19<br>for<br>yourself</div></div><div class='cr'><div class='vertical-center'>$25<br>for<br>Jim E</div></div><div class='respDivL'><div class='vertical-center'>(E)</div></div><div class='respDivR'><div class='vertical-center'>(I)</div></div></div>","E","$19<br>for<br>yourself","$25<br>for<br>4","0","19","25","4","SELF"
"","","","offerFB","5f5834134283933a1c3b42d0","bdp_sd","Mon Mar 27 2023 15:33:51 GMT-0400 (Eastern Daylight Time)","227625","html-keyboard-response","59","208199","0.0-6.0-3.17","","null","","","<div class='trialBorder'><div class='vertical-center'><img style='vertical-align:center; align:center' src=img/fixation3.jpg></div><div class='cl'><div class='vertical-center'><font style='color:orange'>$19<br>for<br>yourself</font></div></div><div class='cr'><div class='vertical-center'>$25<br>for<br>Jim E</div></div><div class='respDivL'><div class='vertical-center'><font style='color:orange'>(E)</font></div></div><div class='respDivR'><div class='vertical-center'>(I)</div></div></div>","null","$19<br>for<br>yourself","$25<br>for<br>4","0","19","25","4",""
"","","","FIX","5f5834134283933a1c3b42d0","bdp_sd","Mon Mar 27 2023 15:33:51 GMT-0400 (Eastern Daylight Time)","227625","html-keyboard-response","60","208712","0.0-6.0-1.18","","null","","","<div class='trialBorder'><div class='vertical-center'><img style='vertical-align:center; align:center' src=img/fixation3.jpg></div></div>","null","","","","","","",""
"","","","offer","5f5834134283933a1c3b42d0","bdp_sd","Mon Mar 27 2023 15:33:51 GMT-0400 (Eastern Daylight Time)","227625","html-keyboard-response","61","209991","0.0-6.0-2.18","","1279","","","<div class='trialBorder'><div class='vertical-center'><img style='vertical-align:center; align:center' src=img/fixation3.jpg></div><div class='cl'><div class='vertical-center'>$69<br>for<br>yourself</div></div><div class='cr'><div class='vertical-center'>$85<br>for<br>Jim E</div></div><div class='respDivL'><div class='vertical-center'>(E)</div></div><div class='respDivR'><div class='vertical-center'>(I)</div></div></div>","E","$69<br>for<br>yourself","$85<br>for<br>4","0","69","85","4","SELF"
"","","","offerFB","5f5834134283933a1c3b42d0","bdp_sd","Mon Mar 27 2023 15:33:51 GMT-0400 (Eastern Daylight Time)","227625","html-keyboard-response","62","210254","0.0-6.0-3.18","","null","","","<div class='trialBorder'><div class='vertical-center'><img style='vertical-align:center; align:center' src=img/fixation3.jpg></div><div class='cl'><div class='vertical-center'><font style='color:orange'>$69<br>for<br>yourself</font></div></div><div class='cr'><div class='vertical-center'>$85<br>for<br>Jim E</div></div><div class='respDivL'><div class='vertical-center'><font style='color:orange'>(E)</font></div></div><div class='respDivR'><div class='vertical-center'>(I)</div></div></div>","null","$69<br>for<br>yourself","$85<br>for<br>4","0","69","85","4",""
"","","","FIX","5f5834134283933a1c3b42d0","bdp_sd","Mon Mar 27 2023 15:33:51 GMT-0400 (Eastern Daylight Time)","227625","html-keyboard-response","63","210768","0.0-6.0-1.19","","null","","","<div class='trialBorder'><div class='vertical-center'><img style='vertical-align:center; align:center' src=img/fixation3.jpg></div></div>","null","","","","","","",""
"","","","offer","5f5834134283933a1c3b42d0","bdp_sd","Mon Mar 27 2023 15:33:51 GMT-0400 (Eastern Daylight Time)","227625","html-keyboard-response","64","212049","0.0-6.0-2.19","","1280","","","<div class='trialBorder'><div class='vertical-center'><img style='vertical-align:center; align:center' src=img/fixation3.jpg></div><div class='cl'><div class='vertical-center'>$28<br>for<br>yourself</div></div><div class='cr'><div class='vertical-center'>$30<br>for<br>Brian T</div></div><div class='respDivL'><div class='vertical-center'>(E)</div></div><div class='respDivR'><div class='vertical-center'>(I)</div></div></div>","E","$28<br>for<br>yourself","$30<br>for<br>5","0","28","30","5","SELF"
"","","","offerFB","5f5834134283933a1c3b42d0","bdp_sd","Mon Mar 27 2023 15:33:51 GMT-0400 (Eastern Daylight Time)","227625","html-keyboard-response","65","212312","0.0-6.0-3.19","","null","","","<div class='trialBorder'><div class='vertical-center'><img style='vertical-align:center; align:center' src=img/fixation3.jpg></div><div class='cl'><div class='vertical-center'><font style='color:orange'>$28<br>for<br>yourself</font></div></div><div class='cr'><div class='vertical-center'>$30<br>for<br>Brian T</div></div><div class='respDivL'><div class='vertical-center'><font style='color:orange'>(E)</font></div></div><div class='respDivR'><div class='vertical-center'>(I)</div></div></div>","null","$28<br>for<br>yourself","$30<br>for<br>5","0","28","30","5",""
"","","","FIX","5f5834134283933a1c3b42d0","bdp_sd","Mon Mar 27 2023 15:33:51 GMT-0400 (Eastern Daylight Time)","227625","html-keyboard-response","66","212829","0.0-6.0-1.20","","null","","","<div class='trialBorder'><div class='vertical-center'><img style='vertical-align:center; align:center' src=img/fixation3.jpg></div></div>","null","","","","","","",""
"","","","offer","5f5834134283933a1c3b42d0","bdp_sd","Mon Mar 27 2023 15:33:51 GMT-0400 (Eastern Daylight Time)","227625","html-keyboard-response","67","214117","0.0-6.0-2.20","","1288","","","<div class='trialBorder'><div class='vertical-center'><img style='vertical-align:center; align:center' src=img/fixation3.jpg></div><div class='cl'><div class='vertical-center'>$25<br>for<br>yourself</div></div><div class='cr'><div class='vertical-center'>$30<br>for<br>Jim E</div></div><div class='respDivL'><div class='vertical-center'>(E)</div></div><div class='respDivR'><div class='vertical-center'>(I)</div></div></div>","E","$25<br>for<br>yourself","$30<br>for<br>4","0","25","30","4","SELF"
"","","","offerFB","5f5834134283933a1c3b42d0","bdp_sd","Mon Mar 27 2023 15:33:51 GMT-0400 (Eastern Daylight Time)","227625","html-keyboard-response","68","214372","0.0-6.0-3.20","","null","","","<div class='trialBorder'><div class='vertical-center'><img style='vertical-align:center; align:center' src=img/fixation3.jpg></div><div class='cl'><div class='vertical-center'><font style='color:orange'>$25<br>for<br>yourself</font></div></div><div class='cr'><div class='vertical-center'>$30<br>for<br>Jim E</div></div><div class='respDivL'><div class='vertical-center'><font style='color:orange'>(E)</font></div></div><div class='respDivR'><div class='vertical-center'>(I)</div></div></div>","null","$25<br>for<br>yourself","$30<br>for<br>4","0","25","30","4",""
"","","","FIX","5f5834134283933a1c3b42d0","bdp_sd","Mon Mar 27 2023 15:33:51 GMT-0400 (Eastern Daylight Time)","227625","html-keyboard-response","69","214872","0.0-6.0-1.21","","null","","","<div class='trialBorder'><div class='vertical-center'><img style='vertical-align:center; align:center' src=img/fixation3.jpg></div></div>","null","","","","","","",""
"","","","offer","5f5834134283933a1c3b42d0","bdp_sd","Mon Mar 27 2023 15:33:51 GMT-0400 (Eastern Daylight Time)","227625","html-keyboard-response","70","216339","0.0-6.0-2.21","","1467","","","<div class='trialBorder'><div class='vertical-center'><img style='vertical-align:center; align:center' src=img/fixation3.jpg></div><div class='cl'><div class='vertical-center'>$35<br>for<br>Amelia B</div></div><div class='cr'><div class='vertical-center'>$15<br>for<br>yourself</div></div><div class='respDivL'><div class='vertical-center'>(E)</div></div><div class='respDivR'><div class='vertical-center'>(I)</div></div></div>","E","$15<br>for<br>yourself","$35<br>for<br>2","1","15","35","2","OTHER"
"","","","offerFB","5f5834134283933a1c3b42d0","bdp_sd","Mon Mar 27 2023 15:33:51 GMT-0400 (Eastern Daylight Time)","227625","html-keyboard-response","71","216596","0.0-6.0-3.21","","null","","","<div class='trialBorder'><div class='vertical-center'><img style='vertical-align:center; align:center' src=img/fixation3.jpg></div><div class='cl'><div class='vertical-center'><font style='color:orange'>$35<br>for<br>Amelia B</font></div></div><div class='cr'><div class='vertical-center'>$15<br>for<br>yourself</div></div><div class='respDivL'><div class='vertical-center'><font style='color:orange'>(E)</font></div></div><div class='respDivR'><div class='vertical-center'>(I)</div></div></div>","null","$15<br>for<br>yourself","$35<br>for<br>2","1","15","35","2",""
"","","","FIX","5f5834134283933a1c3b42d0","bdp_sd","Mon Mar 27 2023 15:33:51 GMT-0400 (Eastern Daylight Time)","227625","html-keyboard-response","72","217112","0.0-6.0-1.22","","null","","","<div class='trialBorder'><div class='vertical-center'><img style='vertical-align:center; align:center' src=img/fixation3.jpg></div></div>","null","","","","","","",""
"","","","offer","5f5834134283933a1c3b42d0","bdp_sd","Mon Mar 27 2023 15:33:51 GMT-0400 (Eastern Daylight Time)","227625","html-keyboard-response","73","218614","0.0-6.0-2.22","","1502","","","<div class='trialBorder'><div class='vertical-center'><img style='vertical-align:center; align:center' src=img/fixation3.jpg></div><div class='cl'><div class='vertical-center'>$80<br>for<br>Jacob W</div></div><div class='cr'><div class='vertical-center'>$54<br>for<br>yourself</div></div><div class='respDivL'><div class='vertical-center'>(E)</div></div><div class='respDivR'><div class='vertical-center'>(I)</div></div></div>","E","$54<br>for<br>yourself","$80<br>for<br>3","1","54","80","3","OTHER"
"","","","offerFB","5f5834134283933a1c3b42d0","bdp_sd","Mon Mar 27 2023 15:33:51 GMT-0400 (Eastern Daylight Time)","227625","html-keyboard-response","74","218876","0.0-6.0-3.22","","null","","","<div class='trialBorder'><div class='vertical-center'><img style='vertical-align:center; align:center' src=img/fixation3.jpg></div><div class='cl'><div class='vertical-center'><font style='color:orange'>$80<br>for<br>Jacob W</font></div></div><div class='cr'><div class='vertical-center'>$54<br>for<br>yourself</div></div><div class='respDivL'><div class='vertical-center'><font style='color:orange'>(E)</font></div></div><div class='respDivR'><div class='vertical-center'>(I)</div></div></div>","null","$54<br>for<br>yourself","$80<br>for<br>3","1","54","80","3",""
"","","","FIX","5f5834134283933a1c3b42d0","bdp_sd","Mon Mar 27 2023 15:33:51 GMT-0400 (Eastern Daylight Time)","227625","html-keyboard-response","75","219389","0.0-6.0-1.23","","null","","","<div class='trialBorder'><div class='vertical-center'><img style='vertical-align:center; align:center' src=img/fixation3.jpg></div></div>","null","","","","","","",""
"","","","offer","5f5834134283933a1c3b42d0","bdp_sd","Mon Mar 27 2023 15:33:51 GMT-0400 (Eastern Daylight Time)","227625","html-keyboard-response","76","220376","0.0-6.0-2.23","","986","","","<div class='trialBorder'><div class='vertical-center'><img style='vertical-align:center; align:center' src=img/fixation3.jpg></div><div class='cl'><div class='vertical-center'>$25<br>for<br>Brian T</div></div><div class='cr'><div class='vertical-center'>$22<br>for<br>yourself</div></div><div class='respDivL'><div class='vertical-center'>(E)</div></div><div class='respDivR'><div class='vertical-center'>(I)</div></div></div>","I","$22<br>for<br>yourself","$25<br>for<br>5","1","22","25","5","SELF"
"","","","offerFB","5f5834134283933a1c3b42d0","bdp_sd","Mon Mar 27 2023 15:33:51 GMT-0400 (Eastern Daylight Time)","227625","html-keyboard-response","77","220638","0.0-6.0-3.23","","null","","","<div class='trialBorder'><div class='vertical-center'><img style='vertical-align:center; align:center' src=img/fixation3.jpg></div><div class='cl'><div class='vertical-center'>$25<br>for<br>Brian T</div></div><div class='cr'><div class='vertical-center'><font style='color:orange'>$22<br>for<br>yourself</font></div></div><div class='respDivL'><div class='vertical-center'>(E)</div></div><div class='respDivR'><div class='vertical-center'><font style='color:orange'>(I)</font></div></div></div>","null","$22<br>for<br>yourself","$25<br>for<br>5","1","22","25","5",""
"","","","FIX","5f5834134283933a1c3b42d0","bdp_sd","Mon Mar 27 2023 15:33:51 GMT-0400 (Eastern Daylight Time)","227625","html-keyboard-response","78","221140","0.0-6.0-1.24","","null","","","<div class='trialBorder'><div class='vertical-center'><img style='vertical-align:center; align:center' src=img/fixation3.jpg></div></div>","null","","","","","","",""
"","","","offer","5f5834134283933a1c3b42d0","bdp_sd","Mon Mar 27 2023 15:33:51 GMT-0400 (Eastern Daylight Time)","227625","html-keyboard-response","79","222400","0.0-6.0-2.24","","1260","","","<div class='trialBorder'><div class='vertical-center'><img style='vertical-align:center; align:center' src=img/fixation3.jpg></div><div class='cl'><div class='vertical-center'>$35<br>for<br>Jacob W</div></div><div class='cr'><div class='vertical-center'>$24<br>for<br>yourself</div></div><div class='respDivL'><div class='vertical-center'>(E)</div></div><div class='respDivR'><div class='vertical-center'>(I)</div></div></div>","I","$24<br>for<br>yourself","$35<br>for<br>3","1","24","35","3","SELF"
"","","","offerFB","5f5834134283933a1c3b42d0","bdp_sd","Mon Mar 27 2023 15:33:51 GMT-0400 (Eastern Daylight Time)","227625","html-keyboard-response","80","222662","0.0-6.0-3.24","","null","","","<div class='trialBorder'><div class='vertical-center'><img style='vertical-align:center; align:center' src=img/fixation3.jpg></div><div class='cl'><div class='vertical-center'>$35<br>for<br>Jacob W</div></div><div class='cr'><div class='vertical-center'><font style='color:orange'>$24<br>for<br>yourself</font></div></div><div class='respDivL'><div class='vertical-center'>(E)</div></div><div class='respDivR'><div class='vertical-center'><font style='color:orange'>(I)</font></div></div></div>","null","$24<br>for<br>yourself","$35<br>for<br>3","1","24","35","3",""
"","","","FIX","5f5834134283933a1c3b42d0","bdp_sd","Mon Mar 27 2023 15:33:51 GMT-0400 (Eastern Daylight Time)","227625","html-keyboard-response","81","223176","0.0-6.0-1.25","","null","","","<div class='trialBorder'><div class='vertical-center'><img style='vertical-align:center; align:center' src=img/fixation3.jpg></div></div>","null","","","","","","",""
"","","","offer","5f5834134283933a1c3b42d0","bdp_sd","Mon Mar 27 2023 15:33:51 GMT-0400 (Eastern Daylight Time)","227625","html-keyboard-response","82","224377","0.0-6.0-2.25","","1201","","","<div class='trialBorder'><div class='vertical-center'><img style='vertical-align:center; align:center' src=img/fixation3.jpg></div><div class='cl'><div class='vertical-center'>$20<br>for<br>yourself</div></div><div class='cr'><div class='vertical-center'>$55<br>for<br>James C</div></div><div class='respDivL'><div class='vertical-center'>(E)</div></div><div class='respDivR'><div class='vertical-center'>(I)</div></div></div>","I","$20<br>for<br>yourself","$55<br>for<br>1","0","20","55","1","OTHER"
"","","","offerFB","5f5834134283933a1c3b42d0","bdp_sd","Mon Mar 27 2023 15:33:51 GMT-0400 (Eastern Daylight Time)","227625","html-keyboard-response","83","224628","0.0-6.0-3.25","","null","","","<div class='trialBorder'><div class='vertical-center'><img style='vertical-align:center; align:center' src=img/fixation3.jpg></div><div class='cl'><div class='vertical-center'>$20<br>for<br>yourself</div></div><div class='cr'><div class='vertical-center'><font style='color:orange'>$55<br>for<br>James C</font></div></div><div class='respDivL'><div class='vertical-center'>(E)</div></div><div class='respDivR'><div class='vertical-center'><font style='color:orange'>(I)</font></div></div></div>","null","$20<br>for<br>yourself","$55<br>for<br>1","0","20","55","1",""
"","","","FIX","5f5834134283933a1c3b42d0","bdp_sd","Mon Mar 27 2023 15:33:51 GMT-0400 (Eastern Daylight Time)","227625","html-keyboard-response","84","225142","0.0-6.0-1.26","","null","","","<div class='trialBorder'><div class='vertical-center'><img style='vertical-align:center; align:center' src=img/fixation3.jpg></div></div>","null","","","","","","",""
"","","","offer","5f5834134283933a1c3b42d0","bdp_sd","Mon Mar 27 2023 15:33:51 GMT-0400 (Eastern Daylight Time)","227625","html-keyboard-response","85","226356","0.0-6.0-2.26","","1214","","","<div class='trialBorder'><div class='vertical-center'><img style='vertical-align:center; align:center' src=img/fixation3.jpg></div><div class='cl'><div class='vertical-center'>$78<br>for<br>yourself</div></div><div class='cr'><div class='vertical-center'>$80<br>for<br>Brian T</div></div><div class='respDivL'><div class='vertical-center'>(E)</div></div><div class='respDivR'><div class='vertical-center'>(I)</div></div></div>","E","$78<br>for<br>yourself","$80<br>for<br>5","0","78","80","5","SELF"
"","","","offerFB","5f5834134283933a1c3b42d0","bdp_sd","Mon Mar 27 2023 15:33:51 GMT-0400 (Eastern Daylight Time)","227625","html-keyboard-response","86","226612","0.0-6.0-3.26","","null","","","<div class='trialBorder'><div class='vertical-center'><img style='vertical-align:center; align:center' src=img/fixation3.jpg></div><div class='cl'><div class='vertical-center'><font style='color:orange'>$78<br>for<br>yourself</font></div></div><div class='cr'><div class='vertical-center'>$80<br>for<br>Brian T</div></div><div class='respDivL'><div class='vertical-center'><font style='color:orange'>(E)</font></div></div><div class='respDivR'><div class='vertical-center'>(I)</div></div></div>","null","$78<br>for<br>yourself","$80<br>for<br>5","0","78","80","5",""
"fullscreenexit","87","226834","fullscreenexit","5f5834134283933a1c3b42d0","bdp_sd","Mon Mar 27 2023 15:33:51 GMT-0400 (Eastern Daylight Time)","227625","","","","","","","","","","","","","","","","",""
"","","","","5f5834134283933a1c3b42d0","bdp_sd","Mon Mar 27 2023 15:33:51 GMT-0400 (Eastern Daylight Time)","227625","fullscreen","87","227624","0.0-7.0","","","","true","","","","","","","","",""
"","","","","","","","","html-keyboard-response","88","228138","0.0-8.0","","null","","","","null","","","","","","",""
