"trial_type","trial_index","time_elapsed","internal_node_id","subject_id","task","startTime","totalTime","view_history","rt","responses","event","trial","time","trialtype","success","stimulus","key_press","selfOffer","otherOffer","otherLeft","selfAmt","otherAmt","otherDist","chosen"
"pavlovia","0","11","0.0-0.0","5971640e7ec240000170cb69","bdp_sd","Sat Mar 25 2023 23:00:06 GMT-0500 (Central Daylight Time)","181858","","","","","","","","","","","","","","","","",""
"instructions","1","1937","0.0-1.0","5971640e7ec240000170cb69","bdp_sd","Sat Mar 25 2023 23:00:06 GMT-0500 (Central Daylight Time)","181858","[{""page_index"":0,""viewing_time"":1925}]","1925","","","","","","","","","","","","","","",""
"survey-text","2","81032","0.0-2.0","5971640e7ec240000170cb69","bdp_sd","Sat Mar 25 2023 23:00:06 GMT-0500 (Central Daylight Time)","181858","","79091","{""Q0"":""Maribel L"",""Q1"":""Josiah L"",""Q2"":""Hau T"",""Q3"":""Eric N"",""Q4"":""David H""}","","","","","","","","","","","","","",""
"","","","","5971640e7ec240000170cb69","bdp_sd","Sat Mar 25 2023 23:00:06 GMT-0500 (Central Daylight Time)","181858","","","","fullscreenenter","3","83805","fullscreenenter","","","","","","","","","",""
"fullscreen","3","84792","0.0-3.0","5971640e7ec240000170cb69","bdp_sd","Sat Mar 25 2023 23:00:06 GMT-0500 (Central Daylight Time)","181858","","","","","","","","true","","","","","","","","",""
"instructions","4","123892","0.0-5.0","5971640e7ec240000170cb69","bdp_sd","Sat Mar 25 2023 23:00:06 GMT-0500 (Central Daylight Time)","181858","[{""page_index"":0,""viewing_time"":7507},{""page_index"":1,""viewing_time"":23255},{""page_index"":2,""viewing_time"":8336}]","39098","","","","","","","","","","","","","","",""
"html-keyboard-response","5","124396","0.0-6.0-1.0","5971640e7ec240000170cb69","bdp_sd","Sat Mar 25 2023 23:00:06 GMT-0500 (Central Daylight Time)","181858","","null","","","","","FIX","","<div class='trialBorder'><div class='vertical-center'><img style='vertical-align:center; align:center' src=img/fixation3.jpg></div></div>","null","","","","","","",""
"html-keyboard-response","6","125916","0.0-6.0-2.0","5971640e7ec240000170cb69","bdp_sd","Sat Mar 25 2023 23:00:06 GMT-0500 (Central Daylight Time)","181858","","1517","","","","","offer","","<div class='trialBorder'><div class='vertical-center'><img style='vertical-align:center; align:center' src=img/fixation3.jpg></div><div class='cl'><div class='vertical-center'>$85<br>for<br>Maribel L</div></div><div class='cr'><div class='vertical-center'>$31<br>for<br>yourself</div></div><div class='respDivL'><div class='vertical-center'>(E)</div></div><div class='respDivR'><div class='vertical-center'>(I)</div></div></div>","E","$31<br>for<br>yourself","$85<br>for<br>1","1","31","85","1","OTHER"
"html-keyboard-response","7","126170","0.0-6.0-3.0","5971640e7ec240000170cb69","bdp_sd","Sat Mar 25 2023 23:00:06 GMT-0500 (Central Daylight Time)","181858","","null","","","","","offerFB","","<div class='trialBorder'><div class='vertical-center'><img style='vertical-align:center; align:center' src=img/fixation3.jpg></div><div class='cl'><div class='vertical-center'><font style='color:orange'>$85<br>for<br>Maribel L</font></div></div><div class='cr'><div class='vertical-center'>$31<br>for<br>yourself</div></div><div class='respDivL'><div class='vertical-center'><font style='color:orange'>(E)</font></div></div><div class='respDivR'><div class='vertical-center'>(I)</div></div></div>","null","$31<br>for<br>yourself","$85<br>for<br>1","1","31","85","1",""
"html-keyboard-response","8","126672","0.0-6.0-1.1","5971640e7ec240000170cb69","bdp_sd","Sat Mar 25 2023 23:00:06 GMT-0500 (Central Daylight Time)","181858","","null","","","","","FIX","","<div class='trialBorder'><div class='vertical-center'><img style='vertical-align:center; align:center' src=img/fixation3.jpg></div></div>","null","","","","","","",""
"html-keyboard-response","9","127976","0.0-6.0-2.1","5971640e7ec240000170cb69","bdp_sd","Sat Mar 25 2023 23:00:06 GMT-0500 (Central Daylight Time)","181858","","1302","","","","","offer","","<div class='trialBorder'><div class='vertical-center'><img style='vertical-align:center; align:center' src=img/fixation3.jpg></div><div class='cl'><div class='vertical-center'>$54<br>for<br>yourself</div></div><div class='cr'><div class='vertical-center'>$80<br>for<br>Hau T</div></div><div class='respDivL'><div class='vertical-center'>(E)</div></div><div class='respDivR'><div class='vertical-center'>(I)</div></div></div>","I","$54<br>for<br>yourself","$80<br>for<br>3","0","54","80","3","OTHER"
"html-keyboard-response","10","128229","0.0-6.0-3.1","5971640e7ec240000170cb69","bdp_sd","Sat Mar 25 2023 23:00:06 GMT-0500 (Central Daylight Time)","181858","","null","","","","","offerFB","","<div class='trialBorder'><div class='vertical-center'><img style='vertical-align:center; align:center' src=img/fixation3.jpg></div><div class='cl'><div class='vertical-center'>$54<br>for<br>yourself</div></div><div class='cr'><div class='vertical-center'><font style='color:orange'>$80<br>for<br>Hau T</font></div></div><div class='respDivL'><div class='vertical-center'>(E)</div></div><div class='respDivR'><div class='vertical-center'><font style='color:orange'>(I)</font></div></div></div>","null","$54<br>for<br>yourself","$80<br>for<br>3","0","54","80","3",""
"html-keyboard-response","11","128737","0.0-6.0-1.2","5971640e7ec240000170cb69","bdp_sd","Sat Mar 25 2023 23:00:06 GMT-0500 (Central Daylight Time)","181858","","null","","","","","FIX","","<div class='trialBorder'><div class='vertical-center'><img style='vertical-align:center; align:center' src=img/fixation3.jpg></div></div>","null","","","","","","",""
"html-keyboard-response","12","130952","0.0-6.0-2.2","5971640e7ec240000170cb69","bdp_sd","Sat Mar 25 2023 23:00:06 GMT-0500 (Central Daylight Time)","181858","","2214","","","","","offer","","<div class='trialBorder'><div class='vertical-center'><img style='vertical-align:center; align:center' src=img/fixation3.jpg></div><div class='cl'><div class='vertical-center'>$30<br>for<br>Eric N</div></div><div class='cr'><div class='vertical-center'>$25<br>for<br>yourself</div></div><div class='respDivL'><div class='vertical-center'>(E)</div></div><div class='respDivR'><div class='vertical-center'>(I)</div></div></div>","I","$25<br>for<br>yourself","$30<br>for<br>4","1","25","30","4","SELF"
"html-keyboard-response","13","131205","0.0-6.0-3.2","5971640e7ec240000170cb69","bdp_sd","Sat Mar 25 2023 23:00:06 GMT-0500 (Central Daylight Time)","181858","","null","","","","","offerFB","","<div class='trialBorder'><div class='vertical-center'><img style='vertical-align:center; align:center' src=img/fixation3.jpg></div><div class='cl'><div class='vertical-center'>$30<br>for<br>Eric N</div></div><div class='cr'><div class='vertical-center'><font style='color:orange'>$25<br>for<br>yourself</font></div></div><div class='respDivL'><div class='vertical-center'>(E)</div></div><div class='respDivR'><div class='vertical-center'><font style='color:orange'>(I)</font></div></div></div>","null","$25<br>for<br>yourself","$30<br>for<br>4","1","25","30","4",""
"html-keyboard-response","14","131707","0.0-6.0-1.3","5971640e7ec240000170cb69","bdp_sd","Sat Mar 25 2023 23:00:06 GMT-0500 (Central Daylight Time)","181858","","null","","","","","FIX","","<div class='trialBorder'><div class='vertical-center'><img style='vertical-align:center; align:center' src=img/fixation3.jpg></div></div>","null","","","","","","",""
"html-keyboard-response","15","133219","0.0-6.0-2.3","5971640e7ec240000170cb69","bdp_sd","Sat Mar 25 2023 23:00:06 GMT-0500 (Central Daylight Time)","181858","","1510","","","","","offer","","<div class='trialBorder'><div class='vertical-center'><img style='vertical-align:center; align:center' src=img/fixation3.jpg></div><div class='cl'><div class='vertical-center'>$24<br>for<br>yourself</div></div><div class='cr'><div class='vertical-center'>$35<br>for<br>Hau T</div></div><div class='respDivL'><div class='vertical-center'>(E)</div></div><div class='respDivR'><div class='vertical-center'>(I)</div></div></div>","I","$24<br>for<br>yourself","$35<br>for<br>3","0","24","35","3","OTHER"
"html-keyboard-response","16","133472","0.0-6.0-3.3","5971640e7ec240000170cb69","bdp_sd","Sat Mar 25 2023 23:00:06 GMT-0500 (Central Daylight Time)","181858","","null","","","","","offerFB","","<div class='trialBorder'><div class='vertical-center'><img style='vertical-align:center; align:center' src=img/fixation3.jpg></div><div class='cl'><div class='vertical-center'>$24<br>for<br>yourself</div></div><div class='cr'><div class='vertical-center'><font style='color:orange'>$35<br>for<br>Hau T</font></div></div><div class='respDivL'><div class='vertical-center'>(E)</div></div><div class='respDivR'><div class='vertical-center'><font style='color:orange'>(I)</font></div></div></div>","null","$24<br>for<br>yourself","$35<br>for<br>3","0","24","35","3",""
"html-keyboard-response","17","133979","0.0-6.0-1.4","5971640e7ec240000170cb69","bdp_sd","Sat Mar 25 2023 23:00:06 GMT-0500 (Central Daylight Time)","181858","","null","","","","","FIX","","<div class='trialBorder'><div class='vertical-center'><img style='vertical-align:center; align:center' src=img/fixation3.jpg></div></div>","null","","","","","","",""
"html-keyboard-response","18","135535","0.0-6.0-2.4","5971640e7ec240000170cb69","bdp_sd","Sat Mar 25 2023 23:00:06 GMT-0500 (Central Daylight Time)","181858","","1553","","","","","offer","","<div class='trialBorder'><div class='vertical-center'><img style='vertical-align:center; align:center' src=img/fixation3.jpg></div><div class='cl'><div class='vertical-center'>$80<br>for<br>David H</div></div><div class='cr'><div class='vertical-center'>$78<br>for<br>yourself</div></div><div class='respDivL'><div class='vertical-center'>(E)</div></div><div class='respDivR'><div class='vertical-center'>(I)</div></div></div>","I","$78<br>for<br>yourself","$80<br>for<br>5","1","78","80","5","SELF"
"html-keyboard-response","19","135788","0.0-6.0-3.4","5971640e7ec240000170cb69","bdp_sd","Sat Mar 25 2023 23:00:06 GMT-0500 (Central Daylight Time)","181858","","null","","","","","offerFB","","<div class='trialBorder'><div class='vertical-center'><img style='vertical-align:center; align:center' src=img/fixation3.jpg></div><div class='cl'><div class='vertical-center'>$80<br>for<br>David H</div></div><div class='cr'><div class='vertical-center'><font style='color:orange'>$78<br>for<br>yourself</font></div></div><div class='respDivL'><div class='vertical-center'>(E)</div></div><div class='respDivR'><div class='vertical-center'><font style='color:orange'>(I)</font></div></div></div>","null","$78<br>for<br>yourself","$80<br>for<br>5","1","78","80","5",""
"html-keyboard-response","20","136290","0.0-6.0-1.5","5971640e7ec240000170cb69","bdp_sd","Sat Mar 25 2023 23:00:06 GMT-0500 (Central Daylight Time)","181858","","null","","","","","FIX","","<div class='trialBorder'><div class='vertical-center'><img style='vertical-align:center; align:center' src=img/fixation3.jpg></div></div>","null","","","","","","",""
"html-keyboard-response","21","137289","0.0-6.0-2.5","5971640e7ec240000170cb69","bdp_sd","Sat Mar 25 2023 23:00:06 GMT-0500 (Central Daylight Time)","181858","","997","","","","","offer","","<div class='trialBorder'><div class='vertical-center'><img style='vertical-align:center; align:center' src=img/fixation3.jpg></div><div class='cl'><div class='vertical-center'>$80<br>for<br>Josiah L</div></div><div class='cr'><div class='vertical-center'>$33<br>for<br>yourself</div></div><div class='respDivL'><div class='vertical-center'>(E)</div></div><div class='respDivR'><div class='vertical-center'>(I)</div></div></div>","E","$33<br>for<br>yourself","$80<br>for<br>2","1","33","80","2","OTHER"
"html-keyboard-response","22","137541","0.0-6.0-3.5","5971640e7ec240000170cb69","bdp_sd","Sat Mar 25 2023 23:00:06 GMT-0500 (Central Daylight Time)","181858","","null","","","","","offerFB","","<div class='trialBorder'><div class='vertical-center'><img style='vertical-align:center; align:center' src=img/fixation3.jpg></div><div class='cl'><div class='vertical-center'><font style='color:orange'>$80<br>for<br>Josiah L</font></div></div><div class='cr'><div class='vertical-center'>$33<br>for<br>yourself</div></div><div class='respDivL'><div class='vertical-center'><font style='color:orange'>(E)</font></div></div><div class='respDivR'><div class='vertical-center'>(I)</div></div></div>","null","$33<br>for<br>yourself","$80<br>for<br>2","1","33","80","2",""
"html-keyboard-response","23","138044","0.0-6.0-1.6","5971640e7ec240000170cb69","bdp_sd","Sat Mar 25 2023 23:00:06 GMT-0500 (Central Daylight Time)","181858","","null","","","","","FIX","","<div class='trialBorder'><div class='vertical-center'><img style='vertical-align:center; align:center' src=img/fixation3.jpg></div></div>","null","","","","","","",""
"html-keyboard-response","24","139933","0.0-6.0-2.6","5971640e7ec240000170cb69","bdp_sd","Sat Mar 25 2023 23:00:06 GMT-0500 (Central Daylight Time)","181858","","1887","","","","","offer","","<div class='trialBorder'><div class='vertical-center'><img style='vertical-align:center; align:center' src=img/fixation3.jpg></div><div class='cl'><div class='vertical-center'>$30<br>for<br>David H</div></div><div class='cr'><div class='vertical-center'>$28<br>for<br>yourself</div></div><div class='respDivL'><div class='vertical-center'>(E)</div></div><div class='respDivR'><div class='vertical-center'>(I)</div></div></div>","E","$28<br>for<br>yourself","$30<br>for<br>5","1","28","30","5","OTHER"
"html-keyboard-response","25","140186","0.0-6.0-3.6","5971640e7ec240000170cb69","bdp_sd","Sat Mar 25 2023 23:00:06 GMT-0500 (Central Daylight Time)","181858","","null","","","","","offerFB","","<div class='trialBorder'><div class='vertical-center'><img style='vertical-align:center; align:center' src=img/fixation3.jpg></div><div class='cl'><div class='vertical-center'><font style='color:orange'>$30<br>for<br>David H</font></div></div><div class='cr'><div class='vertical-center'>$28<br>for<br>yourself</div></div><div class='respDivL'><div class='vertical-center'><font style='color:orange'>(E)</font></div></div><div class='respDivR'><div class='vertical-center'>(I)</div></div></div>","null","$28<br>for<br>yourself","$30<br>for<br>5","1","28","30","5",""
"html-keyboard-response","26","140688","0.0-6.0-1.7","5971640e7ec240000170cb69","bdp_sd","Sat Mar 25 2023 23:00:06 GMT-0500 (Central Daylight Time)","181858","","null","","","","","FIX","","<div class='trialBorder'><div class='vertical-center'><img style='vertical-align:center; align:center' src=img/fixation3.jpg></div></div>","null","","","","","","",""
"html-keyboard-response","27","141876","0.0-6.0-2.7","5971640e7ec240000170cb69","bdp_sd","Sat Mar 25 2023 23:00:06 GMT-0500 (Central Daylight Time)","181858","","1185","","","","","offer","","<div class='trialBorder'><div class='vertical-center'><img style='vertical-align:center; align:center' src=img/fixation3.jpg></div><div class='cl'><div class='vertical-center'>$25<br>for<br>Hau T</div></div><div class='cr'><div class='vertical-center'>$14<br>for<br>yourself</div></div><div class='respDivL'><div class='vertical-center'>(E)</div></div><div class='respDivR'><div class='vertical-center'>(I)</div></div></div>","E","$14<br>for<br>yourself","$25<br>for<br>3","1","14","25","3","OTHER"
"html-keyboard-response","28","142129","0.0-6.0-3.7","5971640e7ec240000170cb69","bdp_sd","Sat Mar 25 2023 23:00:06 GMT-0500 (Central Daylight Time)","181858","","null","","","","","offerFB","","<div class='trialBorder'><div class='vertical-center'><img style='vertical-align:center; align:center' src=img/fixation3.jpg></div><div class='cl'><div class='vertical-center'><font style='color:orange'>$25<br>for<br>Hau T</font></div></div><div class='cr'><div class='vertical-center'>$14<br>for<br>yourself</div></div><div class='respDivL'><div class='vertical-center'><font style='color:orange'>(E)</font></div></div><div class='respDivR'><div class='vertical-center'>(I)</div></div></div>","null","$14<br>for<br>yourself","$25<br>for<br>3","1","14","25","3",""
"html-keyboard-response","29","142631","0.0-6.0-1.8","5971640e7ec240000170cb69","bdp_sd","Sat Mar 25 2023 23:00:06 GMT-0500 (Central Daylight Time)","181858","","null","","","","","FIX","","<div class='trialBorder'><div class='vertical-center'><img style='vertical-align:center; align:center' src=img/fixation3.jpg></div></div>","null","","","","","","",""
"html-keyboard-response","30","143819","0.0-6.0-2.8","5971640e7ec240000170cb69","bdp_sd","Sat Mar 25 2023 23:00:06 GMT-0500 (Central Daylight Time)","181858","","1186","","","","","offer","","<div class='trialBorder'><div class='vertical-center'><img style='vertical-align:center; align:center' src=img/fixation3.jpg></div><div class='cl'><div class='vertical-center'>$55<br>for<br>David H</div></div><div class='cr'><div class='vertical-center'>$54<br>for<br>yourself</div></div><div class='respDivL'><div class='vertical-center'>(E)</div></div><div class='respDivR'><div class='vertical-center'>(I)</div></div></div>","E","$54<br>for<br>yourself","$55<br>for<br>5","1","54","55","5","OTHER"
"html-keyboard-response","31","144072","0.0-6.0-3.8","5971640e7ec240000170cb69","bdp_sd","Sat Mar 25 2023 23:00:06 GMT-0500 (Central Daylight Time)","181858","","null","","","","","offerFB","","<div class='trialBorder'><div class='vertical-center'><img style='vertical-align:center; align:center' src=img/fixation3.jpg></div><div class='cl'><div class='vertical-center'><font style='color:orange'>$55<br>for<br>David H</font></div></div><div class='cr'><div class='vertical-center'>$54<br>for<br>yourself</div></div><div class='respDivL'><div class='vertical-center'><font style='color:orange'>(E)</font></div></div><div class='respDivR'><div class='vertical-center'>(I)</div></div></div>","null","$54<br>for<br>yourself","$55<br>for<br>5","1","54","55","5",""
"html-keyboard-response","32","144575","0.0-6.0-1.9","5971640e7ec240000170cb69","bdp_sd","Sat Mar 25 2023 23:00:06 GMT-0500 (Central Daylight Time)","181858","","null","","","","","FIX","","<div class='trialBorder'><div class='vertical-center'><img style='vertical-align:center; align:center' src=img/fixation3.jpg></div></div>","null","","","","","","",""
"html-keyboard-response","33","145784","0.0-6.0-2.9","5971640e7ec240000170cb69","bdp_sd","Sat Mar 25 2023 23:00:06 GMT-0500 (Central Daylight Time)","181858","","1208","","","","","offer","","<div class='trialBorder'><div class='vertical-center'><img style='vertical-align:center; align:center' src=img/fixation3.jpg></div><div class='cl'><div class='vertical-center'>$22<br>for<br>yourself</div></div><div class='cr'><div class='vertical-center'>$25<br>for<br>David H</div></div><div class='respDivL'><div class='vertical-center'>(E)</div></div><div class='respDivR'><div class='vertical-center'>(I)</div></div></div>","I","$22<br>for<br>yourself","$25<br>for<br>5","0","22","25","5","OTHER"
"html-keyboard-response","34","146037","0.0-6.0-3.9","5971640e7ec240000170cb69","bdp_sd","Sat Mar 25 2023 23:00:06 GMT-0500 (Central Daylight Time)","181858","","null","","","","","offerFB","","<div class='trialBorder'><div class='vertical-center'><img style='vertical-align:center; align:center' src=img/fixation3.jpg></div><div class='cl'><div class='vertical-center'>$22<br>for<br>yourself</div></div><div class='cr'><div class='vertical-center'><font style='color:orange'>$25<br>for<br>David H</font></div></div><div class='respDivL'><div class='vertical-center'>(E)</div></div><div class='respDivR'><div class='vertical-center'><font style='color:orange'>(I)</font></div></div></div>","null","$22<br>for<br>yourself","$25<br>for<br>5","0","22","25","5",""
"html-keyboard-response","35","146539","0.0-6.0-1.10","5971640e7ec240000170cb69","bdp_sd","Sat Mar 25 2023 23:00:06 GMT-0500 (Central Daylight Time)","181858","","null","","","","","FIX","","<div class='trialBorder'><div class='vertical-center'><img style='vertical-align:center; align:center' src=img/fixation3.jpg></div></div>","null","","","","","","",""
"html-keyboard-response","36","147578","0.0-6.0-2.10","5971640e7ec240000170cb69","bdp_sd","Sat Mar 25 2023 23:00:06 GMT-0500 (Central Daylight Time)","181858","","1036","","","","","offer","","<div class='trialBorder'><div class='vertical-center'><img style='vertical-align:center; align:center' src=img/fixation3.jpg></div><div class='cl'><div class='vertical-center'>$30<br>for<br>Josiah L</div></div><div class='cr'><div class='vertical-center'>$11<br>for<br>yourself</div></div><div class='respDivL'><div class='vertical-center'>(E)</div></div><div class='respDivR'><div class='vertical-center'>(I)</div></div></div>","E","$11<br>for<br>yourself","$30<br>for<br>2","1","11","30","2","OTHER"
"html-keyboard-response","37","147830","0.0-6.0-3.10","5971640e7ec240000170cb69","bdp_sd","Sat Mar 25 2023 23:00:06 GMT-0500 (Central Daylight Time)","181858","","null","","","","","offerFB","","<div class='trialBorder'><div class='vertical-center'><img style='vertical-align:center; align:center' src=img/fixation3.jpg></div><div class='cl'><div class='vertical-center'><font style='color:orange'>$30<br>for<br>Josiah L</font></div></div><div class='cr'><div class='vertical-center'>$11<br>for<br>yourself</div></div><div class='respDivL'><div class='vertical-center'><font style='color:orange'>(E)</font></div></div><div class='respDivR'><div class='vertical-center'>(I)</div></div></div>","null","$11<br>for<br>yourself","$30<br>for<br>2","1","11","30","2",""
"html-keyboard-response","38","148333","0.0-6.0-1.11","5971640e7ec240000170cb69","bdp_sd","Sat Mar 25 2023 23:00:06 GMT-0500 (Central Daylight Time)","181858","","null","","","","","FIX","","<div class='trialBorder'><div class='vertical-center'><img style='vertical-align:center; align:center' src=img/fixation3.jpg></div></div>","null","","","","","","",""
"html-keyboard-response","39","149991","0.0-6.0-2.11","5971640e7ec240000170cb69","bdp_sd","Sat Mar 25 2023 23:00:06 GMT-0500 (Central Daylight Time)","181858","","1657","","","","","offer","","<div class='trialBorder'><div class='vertical-center'><img style='vertical-align:center; align:center' src=img/fixation3.jpg></div><div class='cl'><div class='vertical-center'>$41<br>for<br>yourself</div></div><div class='cr'><div class='vertical-center'>$75<br>for<br>Hau T</div></div><div class='respDivL'><div class='vertical-center'>(E)</div></div><div class='respDivR'><div class='vertical-center'>(I)</div></div></div>","I","$41<br>for<br>yourself","$75<br>for<br>3","0","41","75","3","OTHER"
"html-keyboard-response","40","150244","0.0-6.0-3.11","5971640e7ec240000170cb69","bdp_sd","Sat Mar 25 2023 23:00:06 GMT-0500 (Central Daylight Time)","181858","","null","","","","","offerFB","","<div class='trialBorder'><div class='vertical-center'><img style='vertical-align:center; align:center' src=img/fixation3.jpg></div><div class='cl'><div class='vertical-center'>$41<br>for<br>yourself</div></div><div class='cr'><div class='vertical-center'><font style='color:orange'>$75<br>for<br>Hau T</font></div></div><div class='respDivL'><div class='vertical-center'>(E)</div></div><div class='respDivR'><div class='vertical-center'><font style='color:orange'>(I)</font></div></div></div>","null","$41<br>for<br>yourself","$75<br>for<br>3","0","41","75","3",""
"html-keyboard-response","41","150746","0.0-6.0-1.12","5971640e7ec240000170cb69","bdp_sd","Sat Mar 25 2023 23:00:06 GMT-0500 (Central Daylight Time)","181858","","null","","","","","FIX","","<div class='trialBorder'><div class='vertical-center'><img style='vertical-align:center; align:center' src=img/fixation3.jpg></div></div>","null","","","","","","",""
"html-keyboard-response","42","152034","0.0-6.0-2.12","5971640e7ec240000170cb69","bdp_sd","Sat Mar 25 2023 23:00:06 GMT-0500 (Central Daylight Time)","181858","","1285","","","","","offer","","<div class='trialBorder'><div class='vertical-center'><img style='vertical-align:center; align:center' src=img/fixation3.jpg></div><div class='cl'><div class='vertical-center'>$27<br>for<br>yourself</div></div><div class='cr'><div class='vertical-center'>$50<br>for<br>Hau T</div></div><div class='respDivL'><div class='vertical-center'>(E)</div></div><div class='respDivR'><div class='vertical-center'>(I)</div></div></div>","I","$27<br>for<br>yourself","$50<br>for<br>3","0","27","50","3","OTHER"
"html-keyboard-response","43","152287","0.0-6.0-3.12","5971640e7ec240000170cb69","bdp_sd","Sat Mar 25 2023 23:00:06 GMT-0500 (Central Daylight Time)","181858","","null","","","","","offerFB","","<div class='trialBorder'><div class='vertical-center'><img style='vertical-align:center; align:center' src=img/fixation3.jpg></div><div class='cl'><div class='vertical-center'>$27<br>for<br>yourself</div></div><div class='cr'><div class='vertical-center'><font style='color:orange'>$50<br>for<br>Hau T</font></div></div><div class='respDivL'><div class='vertical-center'>(E)</div></div><div class='respDivR'><div class='vertical-center'><font style='color:orange'>(I)</font></div></div></div>","null","$27<br>for<br>yourself","$50<br>for<br>3","0","27","50","3",""
"html-keyboard-response","44","152788","0.0-6.0-1.13","5971640e7ec240000170cb69","bdp_sd","Sat Mar 25 2023 23:00:06 GMT-0500 (Central Daylight Time)","181858","","null","","","","","FIX","","<div class='trialBorder'><div class='vertical-center'><img style='vertical-align:center; align:center' src=img/fixation3.jpg></div></div>","null","","","","","","",""
"html-keyboard-response","45","153787","0.0-6.0-2.13","5971640e7ec240000170cb69","bdp_sd","Sat Mar 25 2023 23:00:06 GMT-0500 (Central Daylight Time)","181858","","996","","","","","offer","","<div class='trialBorder'><div class='vertical-center'><img style='vertical-align:center; align:center' src=img/fixation3.jpg></div><div class='cl'><div class='vertical-center'>$15<br>for<br>yourself</div></div><div class='cr'><div class='vertical-center'>$35<br>for<br>Josiah L</div></div><div class='respDivL'><div class='vertical-center'>(E)</div></div><div class='respDivR'><div class='vertical-center'>(I)</div></div></div>","I","$15<br>for<br>yourself","$35<br>for<br>2","0","15","35","2","OTHER"
"html-keyboard-response","46","154040","0.0-6.0-3.13","5971640e7ec240000170cb69","bdp_sd","Sat Mar 25 2023 23:00:06 GMT-0500 (Central Daylight Time)","181858","","null","","","","","offerFB","","<div class='trialBorder'><div class='vertical-center'><img style='vertical-align:center; align:center' src=img/fixation3.jpg></div><div class='cl'><div class='vertical-center'>$15<br>for<br>yourself</div></div><div class='cr'><div class='vertical-center'><font style='color:orange'>$35<br>for<br>Josiah L</font></div></div><div class='respDivL'><div class='vertical-center'>(E)</div></div><div class='respDivR'><div class='vertical-center'><font style='color:orange'>(I)</font></div></div></div>","null","$15<br>for<br>yourself","$35<br>for<br>2","0","15","35","2",""
"html-keyboard-response","47","154551","0.0-6.0-1.14","5971640e7ec240000170cb69","bdp_sd","Sat Mar 25 2023 23:00:06 GMT-0500 (Central Daylight Time)","181858","","null","","","","","FIX","","<div class='trialBorder'><div class='vertical-center'><img style='vertical-align:center; align:center' src=img/fixation3.jpg></div></div>","null","","","","","","",""
"html-keyboard-response","48","155354","0.0-6.0-2.14","5971640e7ec240000170cb69","bdp_sd","Sat Mar 25 2023 23:00:06 GMT-0500 (Central Daylight Time)","181858","","800","","","","","offer","","<div class='trialBorder'><div class='vertical-center'><img style='vertical-align:center; align:center' src=img/fixation3.jpg></div><div class='cl'><div class='vertical-center'>$50<br>for<br>David H</div></div><div class='cr'><div class='vertical-center'>$47<br>for<br>yourself</div></div><div class='respDivL'><div class='vertical-center'>(E)</div></div><div class='respDivR'><div class='vertical-center'>(I)</div></div></div>","E","$47<br>for<br>yourself","$50<br>for<br>5","1","47","50","5","OTHER"
"html-keyboard-response","49","155606","0.0-6.0-3.14","5971640e7ec240000170cb69","bdp_sd","Sat Mar 25 2023 23:00:06 GMT-0500 (Central Daylight Time)","181858","","null","","","","","offerFB","","<div class='trialBorder'><div class='vertical-center'><img style='vertical-align:center; align:center' src=img/fixation3.jpg></div><div class='cl'><div class='vertical-center'><font style='color:orange'>$50<br>for<br>David H</font></div></div><div class='cr'><div class='vertical-center'>$47<br>for<br>yourself</div></div><div class='respDivL'><div class='vertical-center'><font style='color:orange'>(E)</font></div></div><div class='respDivR'><div class='vertical-center'>(I)</div></div></div>","null","$47<br>for<br>yourself","$50<br>for<br>5","1","47","50","5",""
"html-keyboard-response","50","156109","0.0-6.0-1.15","5971640e7ec240000170cb69","bdp_sd","Sat Mar 25 2023 23:00:06 GMT-0500 (Central Daylight Time)","181858","","null","","","","","FIX","","<div class='trialBorder'><div class='vertical-center'><img style='vertical-align:center; align:center' src=img/fixation3.jpg></div></div>","null","","","","","","",""
"html-keyboard-response","51","157025","0.0-6.0-2.15","5971640e7ec240000170cb69","bdp_sd","Sat Mar 25 2023 23:00:06 GMT-0500 (Central Daylight Time)","181858","","915","","","","","offer","","<div class='trialBorder'><div class='vertical-center'><img style='vertical-align:center; align:center' src=img/fixation3.jpg></div><div class='cl'><div class='vertical-center'>$20<br>for<br>yourself</div></div><div class='cr'><div class='vertical-center'>$55<br>for<br>Maribel L</div></div><div class='respDivL'><div class='vertical-center'>(E)</div></div><div class='respDivR'><div class='vertical-center'>(I)</div></div></div>","I","$20<br>for<br>yourself","$55<br>for<br>1","0","20","55","1","OTHER"
"html-keyboard-response","52","157279","0.0-6.0-3.15","5971640e7ec240000170cb69","bdp_sd","Sat Mar 25 2023 23:00:06 GMT-0500 (Central Daylight Time)","181858","","null","","","","","offerFB","","<div class='trialBorder'><div class='vertical-center'><img style='vertical-align:center; align:center' src=img/fixation3.jpg></div><div class='cl'><div class='vertical-center'>$20<br>for<br>yourself</div></div><div class='cr'><div class='vertical-center'><font style='color:orange'>$55<br>for<br>Maribel L</font></div></div><div class='respDivL'><div class='vertical-center'>(E)</div></div><div class='respDivR'><div class='vertical-center'><font style='color:orange'>(I)</font></div></div></div>","null","$20<br>for<br>yourself","$55<br>for<br>1","0","20","55","1",""
"html-keyboard-response","53","157780","0.0-6.0-1.16","5971640e7ec240000170cb69","bdp_sd","Sat Mar 25 2023 23:00:06 GMT-0500 (Central Daylight Time)","181858","","null","","","","","FIX","","<div class='trialBorder'><div class='vertical-center'><img style='vertical-align:center; align:center' src=img/fixation3.jpg></div></div>","null","","","","","","",""
"html-keyboard-response","54","160050","0.0-6.0-2.16","5971640e7ec240000170cb69","bdp_sd","Sat Mar 25 2023 23:00:06 GMT-0500 (Central Daylight Time)","181858","","2267","","","","","offer","","<div class='trialBorder'><div class='vertical-center'><img style='vertical-align:center; align:center' src=img/fixation3.jpg></div><div class='cl'><div class='vertical-center'>$25<br>for<br>Eric N</div></div><div class='cr'><div class='vertical-center'>$19<br>for<br>yourself</div></div><div class='respDivL'><div class='vertical-center'>(E)</div></div><div class='respDivR'><div class='vertical-center'>(I)</div></div></div>","I","$19<br>for<br>yourself","$25<br>for<br>4","1","19","25","4","SELF"
"html-keyboard-response","55","160303","0.0-6.0-3.16","5971640e7ec240000170cb69","bdp_sd","Sat Mar 25 2023 23:00:06 GMT-0500 (Central Daylight Time)","181858","","null","","","","","offerFB","","<div class='trialBorder'><div class='vertical-center'><img style='vertical-align:center; align:center' src=img/fixation3.jpg></div><div class='cl'><div class='vertical-center'>$25<br>for<br>Eric N</div></div><div class='cr'><div class='vertical-center'><font style='color:orange'>$19<br>for<br>yourself</font></div></div><div class='respDivL'><div class='vertical-center'>(E)</div></div><div class='respDivR'><div class='vertical-center'><font style='color:orange'>(I)</font></div></div></div>","null","$19<br>for<br>yourself","$25<br>for<br>4","1","19","25","4",""
"html-keyboard-response","56","160805","0.0-6.0-1.17","5971640e7ec240000170cb69","bdp_sd","Sat Mar 25 2023 23:00:06 GMT-0500 (Central Daylight Time)","181858","","null","","","","","FIX","","<div class='trialBorder'><div class='vertical-center'><img style='vertical-align:center; align:center' src=img/fixation3.jpg></div></div>","null","","","","","","",""
"html-keyboard-response","57","162257","0.0-6.0-2.17","5971640e7ec240000170cb69","bdp_sd","Sat Mar 25 2023 23:00:06 GMT-0500 (Central Daylight Time)","181858","","1449","","","","","offer","","<div class='trialBorder'><div class='vertical-center'><img style='vertical-align:center; align:center' src=img/fixation3.jpg></div><div class='cl'><div class='vertical-center'>$75<br>for<br>Eric N</div></div><div class='cr'><div class='vertical-center'>$55<br>for<br>yourself</div></div><div class='respDivL'><div class='vertical-center'>(E)</div></div><div class='respDivR'><div class='vertical-center'>(I)</div></div></div>","I","$55<br>for<br>yourself","$75<br>for<br>4","1","55","75","4","SELF"
"html-keyboard-response","58","162510","0.0-6.0-3.17","5971640e7ec240000170cb69","bdp_sd","Sat Mar 25 2023 23:00:06 GMT-0500 (Central Daylight Time)","181858","","null","","","","","offerFB","","<div class='trialBorder'><div class='vertical-center'><img style='vertical-align:center; align:center' src=img/fixation3.jpg></div><div class='cl'><div class='vertical-center'>$75<br>for<br>Eric N</div></div><div class='cr'><div class='vertical-center'><font style='color:orange'>$55<br>for<br>yourself</font></div></div><div class='respDivL'><div class='vertical-center'>(E)</div></div><div class='respDivR'><div class='vertical-center'><font style='color:orange'>(I)</font></div></div></div>","null","$55<br>for<br>yourself","$75<br>for<br>4","1","55","75","4",""
"html-keyboard-response","59","163013","0.0-6.0-1.18","5971640e7ec240000170cb69","bdp_sd","Sat Mar 25 2023 23:00:06 GMT-0500 (Central Daylight Time)","181858","","null","","","","","FIX","","<div class='trialBorder'><div class='vertical-center'><img style='vertical-align:center; align:center' src=img/fixation3.jpg></div></div>","null","","","","","","",""
"html-keyboard-response","60","164200","0.0-6.0-2.18","5971640e7ec240000170cb69","bdp_sd","Sat Mar 25 2023 23:00:06 GMT-0500 (Central Daylight Time)","181858","","1186","","","","","offer","","<div class='trialBorder'><div class='vertical-center'><img style='vertical-align:center; align:center' src=img/fixation3.jpg></div><div class='cl'><div class='vertical-center'>$67<br>for<br>yourself</div></div><div class='cr'><div class='vertical-center'>$75<br>for<br>David H</div></div><div class='respDivL'><div class='vertical-center'>(E)</div></div><div class='respDivR'><div class='vertical-center'>(I)</div></div></div>","I","$67<br>for<br>yourself","$75<br>for<br>5","0","67","75","5","OTHER"
"html-keyboard-response","61","164452","0.0-6.0-3.18","5971640e7ec240000170cb69","bdp_sd","Sat Mar 25 2023 23:00:06 GMT-0500 (Central Daylight Time)","181858","","null","","","","","offerFB","","<div class='trialBorder'><div class='vertical-center'><img style='vertical-align:center; align:center' src=img/fixation3.jpg></div><div class='cl'><div class='vertical-center'>$67<br>for<br>yourself</div></div><div class='cr'><div class='vertical-center'><font style='color:orange'>$75<br>for<br>David H</font></div></div><div class='respDivL'><div class='vertical-center'>(E)</div></div><div class='respDivR'><div class='vertical-center'><font style='color:orange'>(I)</font></div></div></div>","null","$67<br>for<br>yourself","$75<br>for<br>5","0","67","75","5",""
"html-keyboard-response","62","164955","0.0-6.0-1.19","5971640e7ec240000170cb69","bdp_sd","Sat Mar 25 2023 23:00:06 GMT-0500 (Central Daylight Time)","181858","","null","","","","","FIX","","<div class='trialBorder'><div class='vertical-center'><img style='vertical-align:center; align:center' src=img/fixation3.jpg></div></div>","null","","","","","","",""
"html-keyboard-response","63","166236","0.0-6.0-2.19","5971640e7ec240000170cb69","bdp_sd","Sat Mar 25 2023 23:00:06 GMT-0500 (Central Daylight Time)","181858","","1280","","","","","offer","","<div class='trialBorder'><div class='vertical-center'><img style='vertical-align:center; align:center' src=img/fixation3.jpg></div><div class='cl'><div class='vertical-center'>$55<br>for<br>Eric N</div></div><div class='cr'><div class='vertical-center'>$40<br>for<br>yourself</div></div><div class='respDivL'><div class='vertical-center'>(E)</div></div><div class='respDivR'><div class='vertical-center'>(I)</div></div></div>","I","$40<br>for<br>yourself","$55<br>for<br>4","1","40","55","4","SELF"
"html-keyboard-response","64","166488","0.0-6.0-3.19","5971640e7ec240000170cb69","bdp_sd","Sat Mar 25 2023 23:00:06 GMT-0500 (Central Daylight Time)","181858","","null","","","","","offerFB","","<div class='trialBorder'><div class='vertical-center'><img style='vertical-align:center; align:center' src=img/fixation3.jpg></div><div class='cl'><div class='vertical-center'>$55<br>for<br>Eric N</div></div><div class='cr'><div class='vertical-center'><font style='color:orange'>$40<br>for<br>yourself</font></div></div><div class='respDivL'><div class='vertical-center'>(E)</div></div><div class='respDivR'><div class='vertical-center'><font style='color:orange'>(I)</font></div></div></div>","null","$40<br>for<br>yourself","$55<br>for<br>4","1","40","55","4",""
"html-keyboard-response","65","166991","0.0-6.0-1.20","5971640e7ec240000170cb69","bdp_sd","Sat Mar 25 2023 23:00:06 GMT-0500 (Central Daylight Time)","181858","","null","","","","","FIX","","<div class='trialBorder'><div class='vertical-center'><img style='vertical-align:center; align:center' src=img/fixation3.jpg></div></div>","null","","","","","","",""
"html-keyboard-response","66","167914","0.0-6.0-2.20","5971640e7ec240000170cb69","bdp_sd","Sat Mar 25 2023 23:00:06 GMT-0500 (Central Daylight Time)","181858","","922","","","","","offer","","<div class='trialBorder'><div class='vertical-center'><img style='vertical-align:center; align:center' src=img/fixation3.jpg></div><div class='cl'><div class='vertical-center'>$34<br>for<br>yourself</div></div><div class='cr'><div class='vertical-center'>$50<br>for<br>Eric N</div></div><div class='respDivL'><div class='vertical-center'>(E)</div></div><div class='respDivR'><div class='vertical-center'>(I)</div></div></div>","E","$34<br>for<br>yourself","$50<br>for<br>4","0","34","50","4","SELF"
"html-keyboard-response","67","168166","0.0-6.0-3.20","5971640e7ec240000170cb69","bdp_sd","Sat Mar 25 2023 23:00:06 GMT-0500 (Central Daylight Time)","181858","","null","","","","","offerFB","","<div class='trialBorder'><div class='vertical-center'><img style='vertical-align:center; align:center' src=img/fixation3.jpg></div><div class='cl'><div class='vertical-center'><font style='color:orange'>$34<br>for<br>yourself</font></div></div><div class='cr'><div class='vertical-center'>$50<br>for<br>Eric N</div></div><div class='respDivL'><div class='vertical-center'><font style='color:orange'>(E)</font></div></div><div class='respDivR'><div class='vertical-center'>(I)</div></div></div>","null","$34<br>for<br>yourself","$50<br>for<br>4","0","34","50","4",""
"html-keyboard-response","68","168669","0.0-6.0-1.21","5971640e7ec240000170cb69","bdp_sd","Sat Mar 25 2023 23:00:06 GMT-0500 (Central Daylight Time)","181858","","null","","","","","FIX","","<div class='trialBorder'><div class='vertical-center'><img style='vertical-align:center; align:center' src=img/fixation3.jpg></div></div>","null","","","","","","",""
"html-keyboard-response","69","169895","0.0-6.0-2.21","5971640e7ec240000170cb69","bdp_sd","Sat Mar 25 2023 23:00:06 GMT-0500 (Central Daylight Time)","181858","","1224","","","","","offer","","<div class='trialBorder'><div class='vertical-center'><img style='vertical-align:center; align:center' src=img/fixation3.jpg></div><div class='cl'><div class='vertical-center'>$49<br>for<br>yourself</div></div><div class='cr'><div class='vertical-center'>$60<br>for<br>Eric N</div></div><div class='respDivL'><div class='vertical-center'>(E)</div></div><div class='respDivR'><div class='vertical-center'>(I)</div></div></div>","E","$49<br>for<br>yourself","$60<br>for<br>4","0","49","60","4","SELF"
"html-keyboard-response","70","170147","0.0-6.0-3.21","5971640e7ec240000170cb69","bdp_sd","Sat Mar 25 2023 23:00:06 GMT-0500 (Central Daylight Time)","181858","","null","","","","","offerFB","","<div class='trialBorder'><div class='vertical-center'><img style='vertical-align:center; align:center' src=img/fixation3.jpg></div><div class='cl'><div class='vertical-center'><font style='color:orange'>$49<br>for<br>yourself</font></div></div><div class='cr'><div class='vertical-center'>$60<br>for<br>Eric N</div></div><div class='respDivL'><div class='vertical-center'><font style='color:orange'>(E)</font></div></div><div class='respDivR'><div class='vertical-center'>(I)</div></div></div>","null","$49<br>for<br>yourself","$60<br>for<br>4","0","49","60","4",""
"html-keyboard-response","71","170649","0.0-6.0-1.22","5971640e7ec240000170cb69","bdp_sd","Sat Mar 25 2023 23:00:06 GMT-0500 (Central Daylight Time)","181858","","null","","","","","FIX","","<div class='trialBorder'><div class='vertical-center'><img style='vertical-align:center; align:center' src=img/fixation3.jpg></div></div>","null","","","","","","",""
"html-keyboard-response","72","172170","0.0-6.0-2.22","5971640e7ec240000170cb69","bdp_sd","Sat Mar 25 2023 23:00:06 GMT-0500 (Central Daylight Time)","181858","","1519","","","","","offer","","<div class='trialBorder'><div class='vertical-center'><img style='vertical-align:center; align:center' src=img/fixation3.jpg></div><div class='cl'><div class='vertical-center'>$35<br>for<br>David H</div></div><div class='cr'><div class='vertical-center'>$34<br>for<br>yourself</div></div><div class='respDivL'><div class='vertical-center'>(E)</div></div><div class='respDivR'><div class='vertical-center'>(I)</div></div></div>","E","$34<br>for<br>yourself","$35<br>for<br>5","1","34","35","5","OTHER"
"html-keyboard-response","73","172422","0.0-6.0-3.22","5971640e7ec240000170cb69","bdp_sd","Sat Mar 25 2023 23:00:06 GMT-0500 (Central Daylight Time)","181858","","null","","","","","offerFB","","<div class='trialBorder'><div class='vertical-center'><img style='vertical-align:center; align:center' src=img/fixation3.jpg></div><div class='cl'><div class='vertical-center'><font style='color:orange'>$35<br>for<br>David H</font></div></div><div class='cr'><div class='vertical-center'>$34<br>for<br>yourself</div></div><div class='respDivL'><div class='vertical-center'><font style='color:orange'>(E)</font></div></div><div class='respDivR'><div class='vertical-center'>(I)</div></div></div>","null","$34<br>for<br>yourself","$35<br>for<br>5","1","34","35","5",""
"html-keyboard-response","74","172925","0.0-6.0-1.23","5971640e7ec240000170cb69","bdp_sd","Sat Mar 25 2023 23:00:06 GMT-0500 (Central Daylight Time)","181858","","null","","","","","FIX","","<div class='trialBorder'><div class='vertical-center'><img style='vertical-align:center; align:center' src=img/fixation3.jpg></div></div>","null","","","","","","",""
"html-keyboard-response","75","173923","0.0-6.0-2.23","5971640e7ec240000170cb69","bdp_sd","Sat Mar 25 2023 23:00:06 GMT-0500 (Central Daylight Time)","181858","","996","","","","","offer","","<div class='trialBorder'><div class='vertical-center'><img style='vertical-align:center; align:center' src=img/fixation3.jpg></div><div class='cl'><div class='vertical-center'>$54<br>for<br>yourself</div></div><div class='cr'><div class='vertical-center'>$60<br>for<br>David H</div></div><div class='respDivL'><div class='vertical-center'>(E)</div></div><div class='respDivR'><div class='vertical-center'>(I)</div></div></div>","I","$54<br>for<br>yourself","$60<br>for<br>5","0","54","60","5","OTHER"
"html-keyboard-response","76","174175","0.0-6.0-3.23","5971640e7ec240000170cb69","bdp_sd","Sat Mar 25 2023 23:00:06 GMT-0500 (Central Daylight Time)","181858","","null","","","","","offerFB","","<div class='trialBorder'><div class='vertical-center'><img style='vertical-align:center; align:center' src=img/fixation3.jpg></div><div class='cl'><div class='vertical-center'>$54<br>for<br>yourself</div></div><div class='cr'><div class='vertical-center'><font style='color:orange'>$60<br>for<br>David H</font></div></div><div class='respDivL'><div class='vertical-center'>(E)</div></div><div class='respDivR'><div class='vertical-center'><font style='color:orange'>(I)</font></div></div></div>","null","$54<br>for<br>yourself","$60<br>for<br>5","0","54","60","5",""
"html-keyboard-response","77","174678","0.0-6.0-1.24","5971640e7ec240000170cb69","bdp_sd","Sat Mar 25 2023 23:00:06 GMT-0500 (Central Daylight Time)","181858","","null","","","","","FIX","","<div class='trialBorder'><div class='vertical-center'><img style='vertical-align:center; align:center' src=img/fixation3.jpg></div></div>","null","","","","","","",""
"html-keyboard-response","78","176477","0.0-6.0-2.24","5971640e7ec240000170cb69","bdp_sd","Sat Mar 25 2023 23:00:06 GMT-0500 (Central Daylight Time)","181858","","1797","","","","","offer","","<div class='trialBorder'><div class='vertical-center'><img style='vertical-align:center; align:center' src=img/fixation3.jpg></div><div class='cl'><div class='vertical-center'>$69<br>for<br>yourself</div></div><div class='cr'><div class='vertical-center'>$85<br>for<br>Eric N</div></div><div class='respDivL'><div class='vertical-center'>(E)</div></div><div class='respDivR'><div class='vertical-center'>(I)</div></div></div>","E","$69<br>for<br>yourself","$85<br>for<br>4","0","69","85","4","SELF"
"html-keyboard-response","79","176730","0.0-6.0-3.24","5971640e7ec240000170cb69","bdp_sd","Sat Mar 25 2023 23:00:06 GMT-0500 (Central Daylight Time)","181858","","null","","","","","offerFB","","<div class='trialBorder'><div class='vertical-center'><img style='vertical-align:center; align:center' src=img/fixation3.jpg></div><div class='cl'><div class='vertical-center'><font style='color:orange'>$69<br>for<br>yourself</font></div></div><div class='cr'><div class='vertical-center'>$85<br>for<br>Eric N</div></div><div class='respDivL'><div class='vertical-center'><font style='color:orange'>(E)</font></div></div><div class='respDivR'><div class='vertical-center'>(I)</div></div></div>","null","$69<br>for<br>yourself","$85<br>for<br>4","0","69","85","4",""
"html-keyboard-response","80","177236","0.0-6.0-1.25","5971640e7ec240000170cb69","bdp_sd","Sat Mar 25 2023 23:00:06 GMT-0500 (Central Daylight Time)","181858","","null","","","","","FIX","","<div class='trialBorder'><div class='vertical-center'><img style='vertical-align:center; align:center' src=img/fixation3.jpg></div></div>","null","","","","","","",""
"html-keyboard-response","81","178678","0.0-6.0-2.25","5971640e7ec240000170cb69","bdp_sd","Sat Mar 25 2023 23:00:06 GMT-0500 (Central Daylight Time)","181858","","1441","","","","","offer","","<div class='trialBorder'><div class='vertical-center'><img style='vertical-align:center; align:center' src=img/fixation3.jpg></div><div class='cl'><div class='vertical-center'>$85<br>for<br>David H</div></div><div class='cr'><div class='vertical-center'>$80<br>for<br>yourself</div></div><div class='respDivL'><div class='vertical-center'>(E)</div></div><div class='respDivR'><div class='vertical-center'>(I)</div></div></div>","I","$80<br>for<br>yourself","$85<br>for<br>5","1","80","85","5","SELF"
"html-keyboard-response","82","178931","0.0-6.0-3.25","5971640e7ec240000170cb69","bdp_sd","Sat Mar 25 2023 23:00:06 GMT-0500 (Central Daylight Time)","181858","","null","","","","","offerFB","","<div class='trialBorder'><div class='vertical-center'><img style='vertical-align:center; align:center' src=img/fixation3.jpg></div><div class='cl'><div class='vertical-center'>$85<br>for<br>David H</div></div><div class='cr'><div class='vertical-center'><font style='color:orange'>$80<br>for<br>yourself</font></div></div><div class='respDivL'><div class='vertical-center'>(E)</div></div><div class='respDivR'><div class='vertical-center'><font style='color:orange'>(I)</font></div></div></div>","null","$80<br>for<br>yourself","$85<br>for<br>5","1","80","85","5",""
"html-keyboard-response","83","179434","0.0-6.0-1.26","5971640e7ec240000170cb69","bdp_sd","Sat Mar 25 2023 23:00:06 GMT-0500 (Central Daylight Time)","181858","","null","","","","","FIX","","<div class='trialBorder'><div class='vertical-center'><img style='vertical-align:center; align:center' src=img/fixation3.jpg></div></div>","null","","","","","","",""
"html-keyboard-response","84","180602","0.0-6.0-2.26","5971640e7ec240000170cb69","bdp_sd","Sat Mar 25 2023 23:00:06 GMT-0500 (Central Daylight Time)","181858","","1166","","","","","offer","","<div class='trialBorder'><div class='vertical-center'><img style='vertical-align:center; align:center' src=img/fixation3.jpg></div><div class='cl'><div class='vertical-center'>$25<br>for<br>yourself</div></div><div class='cr'><div class='vertical-center'>$60<br>for<br>Hau T</div></div><div class='respDivL'><div class='vertical-center'>(E)</div></div><div class='respDivR'><div class='vertical-center'>(I)</div></div></div>","I","$25<br>for<br>yourself","$60<br>for<br>3","0","25","60","3","OTHER"
"html-keyboard-response","85","180855","0.0-6.0-3.26","5971640e7ec240000170cb69","bdp_sd","Sat Mar 25 2023 23:00:06 GMT-0500 (Central Daylight Time)","181858","","null","","","","","offerFB","","<div class='trialBorder'><div class='vertical-center'><img style='vertical-align:center; align:center' src=img/fixation3.jpg></div><div class='cl'><div class='vertical-center'>$25<br>for<br>yourself</div></div><div class='cr'><div class='vertical-center'><font style='color:orange'>$60<br>for<br>Hau T</font></div></div><div class='respDivL'><div class='vertical-center'>(E)</div></div><div class='respDivR'><div class='vertical-center'><font style='color:orange'>(I)</font></div></div></div>","null","$25<br>for<br>yourself","$60<br>for<br>3","0","25","60","3",""
"","","","","5971640e7ec240000170cb69","bdp_sd","Sat Mar 25 2023 23:00:06 GMT-0500 (Central Daylight Time)","181858","","","","fullscreenexit","86","180914","fullscreenexit","","","","","","","","","",""
"fullscreen","86","181857","0.0-7.0","5971640e7ec240000170cb69","bdp_sd","Sat Mar 25 2023 23:00:06 GMT-0500 (Central Daylight Time)","181858","","","","","","","","true","","","","","","","","",""
"html-keyboard-response","87","182360","0.0-8.0","","","","","","null","","","","","","","","null","","","","","","",""
