"trial_type","trial_index","time_elapsed","internal_node_id","subject_id","task","startTime","totalTime","view_history","rt","responses","event","trial","time","trialtype","success","stimulus","key_press","selfOffer","otherOffer","otherLeft","selfAmt","otherAmt","otherDist","chosen"
"pavlovia","0","2","0.0-0.0","571144323d47e800096358d9","bdp_sd","Sun Mar 26 2023 14:58:39 GMT-0400 (Eastern Daylight Time)","116728","","","","","","","","","","","","","","","","",""
"instructions","1","1467","0.0-1.0","571144323d47e800096358d9","bdp_sd","Sun Mar 26 2023 14:58:39 GMT-0400 (Eastern Daylight Time)","116728","[{""page_index"":0,""viewing_time"":1465}]","1465","","","","","","","","","","","","","","",""
"survey-text","2","44176","0.0-2.0","571144323d47e800096358d9","bdp_sd","Sun Mar 26 2023 14:58:39 GMT-0400 (Eastern Daylight Time)","116728","","42708","{""Q0"":""Chris R"",""Q1"":""Kara S"",""Q2"":""Connie D"",""Q3"":""Steven C"",""Q4"":""Shannon C""}","","","","","","","","","","","","","",""
"","","","","571144323d47e800096358d9","bdp_sd","Sun Mar 26 2023 14:58:39 GMT-0400 (Eastern Daylight Time)","116728","","","","fullscreenenter","3","45596","fullscreenenter","","","","","","","","","",""
"fullscreen","3","46586","0.0-3.0","571144323d47e800096358d9","bdp_sd","Sun Mar 26 2023 14:58:39 GMT-0400 (Eastern Daylight Time)","116728","","","","","","","","true","","","","","","","","",""
"instructions","4","59834","0.0-5.0","571144323d47e800096358d9","bdp_sd","Sun Mar 26 2023 14:58:39 GMT-0400 (Eastern Daylight Time)","116728","[{""page_index"":0,""viewing_time"":5872},{""page_index"":1,""viewing_time"":6153},{""page_index"":2,""viewing_time"":1223}]","13248","","","","","","","","","","","","","","",""
"html-keyboard-response","5","60336","0.0-6.0-1.0","571144323d47e800096358d9","bdp_sd","Sun Mar 26 2023 14:58:39 GMT-0400 (Eastern Daylight Time)","116728","","null","","","","","FIX","","<div class='trialBorder'><div class='vertical-center'><img style='vertical-align:center; align:center' src=img/fixation3.jpg></div></div>","null","","","","","","",""
"html-keyboard-response","6","63515","0.0-6.0-2.0","571144323d47e800096358d9","bdp_sd","Sun Mar 26 2023 14:58:39 GMT-0400 (Eastern Daylight Time)","116728","","3179","","","","","offer","","<div class='trialBorder'><div class='vertical-center'><img style='vertical-align:center; align:center' src=img/fixation3.jpg></div><div class='cl'><div class='vertical-center'>$55<br>for<br>Shannon C</div></div><div class='cr'><div class='vertical-center'>$54<br>for<br>yourself</div></div><div class='respDivL'><div class='vertical-center'>(E)</div></div><div class='respDivR'><div class='vertical-center'>(I)</div></div></div>","I","$54<br>for<br>yourself","$55<br>for<br>5","1","54","55","5","SELF"
"html-keyboard-response","7","63767","0.0-6.0-3.0","571144323d47e800096358d9","bdp_sd","Sun Mar 26 2023 14:58:39 GMT-0400 (Eastern Daylight Time)","116728","","null","","","","","offerFB","","<div class='trialBorder'><div class='vertical-center'><img style='vertical-align:center; align:center' src=img/fixation3.jpg></div><div class='cl'><div class='vertical-center'>$55<br>for<br>Shannon C</div></div><div class='cr'><div class='vertical-center'><font style='color:orange'>$54<br>for<br>yourself</font></div></div><div class='respDivL'><div class='vertical-center'>(E)</div></div><div class='respDivR'><div class='vertical-center'><font style='color:orange'>(I)</font></div></div></div>","null","$54<br>for<br>yourself","$55<br>for<br>5","1","54","55","5",""
"html-keyboard-response","8","64269","0.0-6.0-1.1","571144323d47e800096358d9","bdp_sd","Sun Mar 26 2023 14:58:39 GMT-0400 (Eastern Daylight Time)","116728","","null","","","","","FIX","","<div class='trialBorder'><div class='vertical-center'><img style='vertical-align:center; align:center' src=img/fixation3.jpg></div></div>","null","","","","","","",""
"html-keyboard-response","9","66066","0.0-6.0-2.1","571144323d47e800096358d9","bdp_sd","Sun Mar 26 2023 14:58:39 GMT-0400 (Eastern Daylight Time)","116728","","1796","","","","","offer","","<div class='trialBorder'><div class='vertical-center'><img style='vertical-align:center; align:center' src=img/fixation3.jpg></div><div class='cl'><div class='vertical-center'>$54<br>for<br>yourself</div></div><div class='cr'><div class='vertical-center'>$80<br>for<br>Connie D</div></div><div class='respDivL'><div class='vertical-center'>(E)</div></div><div class='respDivR'><div class='vertical-center'>(I)</div></div></div>","I","$54<br>for<br>yourself","$80<br>for<br>3","0","54","80","3","OTHER"
"html-keyboard-response","10","66317","0.0-6.0-3.1","571144323d47e800096358d9","bdp_sd","Sun Mar 26 2023 14:58:39 GMT-0400 (Eastern Daylight Time)","116728","","null","","","","","offerFB","","<div class='trialBorder'><div class='vertical-center'><img style='vertical-align:center; align:center' src=img/fixation3.jpg></div><div class='cl'><div class='vertical-center'>$54<br>for<br>yourself</div></div><div class='cr'><div class='vertical-center'><font style='color:orange'>$80<br>for<br>Connie D</font></div></div><div class='respDivL'><div class='vertical-center'>(E)</div></div><div class='respDivR'><div class='vertical-center'><font style='color:orange'>(I)</font></div></div></div>","null","$54<br>for<br>yourself","$80<br>for<br>3","0","54","80","3",""
"html-keyboard-response","11","66818","0.0-6.0-1.2","571144323d47e800096358d9","bdp_sd","Sun Mar 26 2023 14:58:39 GMT-0400 (Eastern Daylight Time)","116728","","null","","","","","FIX","","<div class='trialBorder'><div class='vertical-center'><img style='vertical-align:center; align:center' src=img/fixation3.jpg></div></div>","null","","","","","","",""
"html-keyboard-response","12","68002","0.0-6.0-2.2","571144323d47e800096358d9","bdp_sd","Sun Mar 26 2023 14:58:39 GMT-0400 (Eastern Daylight Time)","116728","","1184","","","","","offer","","<div class='trialBorder'><div class='vertical-center'><img style='vertical-align:center; align:center' src=img/fixation3.jpg></div><div class='cl'><div class='vertical-center'>$54<br>for<br>yourself</div></div><div class='cr'><div class='vertical-center'>$60<br>for<br>Shannon C</div></div><div class='respDivL'><div class='vertical-center'>(E)</div></div><div class='respDivR'><div class='vertical-center'>(I)</div></div></div>","E","$54<br>for<br>yourself","$60<br>for<br>5","0","54","60","5","SELF"
"html-keyboard-response","13","68254","0.0-6.0-3.2","571144323d47e800096358d9","bdp_sd","Sun Mar 26 2023 14:58:39 GMT-0400 (Eastern Daylight Time)","116728","","null","","","","","offerFB","","<div class='trialBorder'><div class='vertical-center'><img style='vertical-align:center; align:center' src=img/fixation3.jpg></div><div class='cl'><div class='vertical-center'><font style='color:orange'>$54<br>for<br>yourself</font></div></div><div class='cr'><div class='vertical-center'>$60<br>for<br>Shannon C</div></div><div class='respDivL'><div class='vertical-center'><font style='color:orange'>(E)</font></div></div><div class='respDivR'><div class='vertical-center'>(I)</div></div></div>","null","$54<br>for<br>yourself","$60<br>for<br>5","0","54","60","5",""
"html-keyboard-response","14","68755","0.0-6.0-1.3","571144323d47e800096358d9","bdp_sd","Sun Mar 26 2023 14:58:39 GMT-0400 (Eastern Daylight Time)","116728","","null","","","","","FIX","","<div class='trialBorder'><div class='vertical-center'><img style='vertical-align:center; align:center' src=img/fixation3.jpg></div></div>","null","","","","","","",""
"html-keyboard-response","15","70291","0.0-6.0-2.3","571144323d47e800096358d9","bdp_sd","Sun Mar 26 2023 14:58:39 GMT-0400 (Eastern Daylight Time)","116728","","1535","","","","","offer","","<div class='trialBorder'><div class='vertical-center'><img style='vertical-align:center; align:center' src=img/fixation3.jpg></div><div class='cl'><div class='vertical-center'>$69<br>for<br>yourself</div></div><div class='cr'><div class='vertical-center'>$85<br>for<br>Steven C</div></div><div class='respDivL'><div class='vertical-center'>(E)</div></div><div class='respDivR'><div class='vertical-center'>(I)</div></div></div>","E","$69<br>for<br>yourself","$85<br>for<br>4","0","69","85","4","SELF"
"html-keyboard-response","16","70542","0.0-6.0-3.3","571144323d47e800096358d9","bdp_sd","Sun Mar 26 2023 14:58:39 GMT-0400 (Eastern Daylight Time)","116728","","null","","","","","offerFB","","<div class='trialBorder'><div class='vertical-center'><img style='vertical-align:center; align:center' src=img/fixation3.jpg></div><div class='cl'><div class='vertical-center'><font style='color:orange'>$69<br>for<br>yourself</font></div></div><div class='cr'><div class='vertical-center'>$85<br>for<br>Steven C</div></div><div class='respDivL'><div class='vertical-center'><font style='color:orange'>(E)</font></div></div><div class='respDivR'><div class='vertical-center'>(I)</div></div></div>","null","$69<br>for<br>yourself","$85<br>for<br>4","0","69","85","4",""
"html-keyboard-response","17","71043","0.0-6.0-1.4","571144323d47e800096358d9","bdp_sd","Sun Mar 26 2023 14:58:39 GMT-0400 (Eastern Daylight Time)","116728","","null","","","","","FIX","","<div class='trialBorder'><div class='vertical-center'><img style='vertical-align:center; align:center' src=img/fixation3.jpg></div></div>","null","","","","","","",""
"html-keyboard-response","18","72298","0.0-6.0-2.4","571144323d47e800096358d9","bdp_sd","Sun Mar 26 2023 14:58:39 GMT-0400 (Eastern Daylight Time)","116728","","1255","","","","","offer","","<div class='trialBorder'><div class='vertical-center'><img style='vertical-align:center; align:center' src=img/fixation3.jpg></div><div class='cl'><div class='vertical-center'>$30<br>for<br>Shannon C</div></div><div class='cr'><div class='vertical-center'>$28<br>for<br>yourself</div></div><div class='respDivL'><div class='vertical-center'>(E)</div></div><div class='respDivR'><div class='vertical-center'>(I)</div></div></div>","I","$28<br>for<br>yourself","$30<br>for<br>5","1","28","30","5","SELF"
"html-keyboard-response","19","72550","0.0-6.0-3.4","571144323d47e800096358d9","bdp_sd","Sun Mar 26 2023 14:58:39 GMT-0400 (Eastern Daylight Time)","116728","","null","","","","","offerFB","","<div class='trialBorder'><div class='vertical-center'><img style='vertical-align:center; align:center' src=img/fixation3.jpg></div><div class='cl'><div class='vertical-center'>$30<br>for<br>Shannon C</div></div><div class='cr'><div class='vertical-center'><font style='color:orange'>$28<br>for<br>yourself</font></div></div><div class='respDivL'><div class='vertical-center'>(E)</div></div><div class='respDivR'><div class='vertical-center'><font style='color:orange'>(I)</font></div></div></div>","null","$28<br>for<br>yourself","$30<br>for<br>5","1","28","30","5",""
"html-keyboard-response","20","73051","0.0-6.0-1.5","571144323d47e800096358d9","bdp_sd","Sun Mar 26 2023 14:58:39 GMT-0400 (Eastern Daylight Time)","116728","","null","","","","","FIX","","<div class='trialBorder'><div class='vertical-center'><img style='vertical-align:center; align:center' src=img/fixation3.jpg></div></div>","null","","","","","","",""
"html-keyboard-response","21","74523","0.0-6.0-2.5","571144323d47e800096358d9","bdp_sd","Sun Mar 26 2023 14:58:39 GMT-0400 (Eastern Daylight Time)","116728","","1470","","","","","offer","","<div class='trialBorder'><div class='vertical-center'><img style='vertical-align:center; align:center' src=img/fixation3.jpg></div><div class='cl'><div class='vertical-center'>$55<br>for<br>Steven C</div></div><div class='cr'><div class='vertical-center'>$40<br>for<br>yourself</div></div><div class='respDivL'><div class='vertical-center'>(E)</div></div><div class='respDivR'><div class='vertical-center'>(I)</div></div></div>","I","$40<br>for<br>yourself","$55<br>for<br>4","1","40","55","4","SELF"
"html-keyboard-response","22","74774","0.0-6.0-3.5","571144323d47e800096358d9","bdp_sd","Sun Mar 26 2023 14:58:39 GMT-0400 (Eastern Daylight Time)","116728","","null","","","","","offerFB","","<div class='trialBorder'><div class='vertical-center'><img style='vertical-align:center; align:center' src=img/fixation3.jpg></div><div class='cl'><div class='vertical-center'>$55<br>for<br>Steven C</div></div><div class='cr'><div class='vertical-center'><font style='color:orange'>$40<br>for<br>yourself</font></div></div><div class='respDivL'><div class='vertical-center'>(E)</div></div><div class='respDivR'><div class='vertical-center'><font style='color:orange'>(I)</font></div></div></div>","null","$40<br>for<br>yourself","$55<br>for<br>4","1","40","55","4",""
"html-keyboard-response","23","75276","0.0-6.0-1.6","571144323d47e800096358d9","bdp_sd","Sun Mar 26 2023 14:58:39 GMT-0400 (Eastern Daylight Time)","116728","","null","","","","","FIX","","<div class='trialBorder'><div class='vertical-center'><img style='vertical-align:center; align:center' src=img/fixation3.jpg></div></div>","null","","","","","","",""
"html-keyboard-response","24","76610","0.0-6.0-2.6","571144323d47e800096358d9","bdp_sd","Sun Mar 26 2023 14:58:39 GMT-0400 (Eastern Daylight Time)","116728","","1334","","","","","offer","","<div class='trialBorder'><div class='vertical-center'><img style='vertical-align:center; align:center' src=img/fixation3.jpg></div><div class='cl'><div class='vertical-center'>$55<br>for<br>yourself</div></div><div class='cr'><div class='vertical-center'>$75<br>for<br>Steven C</div></div><div class='respDivL'><div class='vertical-center'>(E)</div></div><div class='respDivR'><div class='vertical-center'>(I)</div></div></div>","E","$55<br>for<br>yourself","$75<br>for<br>4","0","55","75","4","SELF"
"html-keyboard-response","25","76862","0.0-6.0-3.6","571144323d47e800096358d9","bdp_sd","Sun Mar 26 2023 14:58:39 GMT-0400 (Eastern Daylight Time)","116728","","null","","","","","offerFB","","<div class='trialBorder'><div class='vertical-center'><img style='vertical-align:center; align:center' src=img/fixation3.jpg></div><div class='cl'><div class='vertical-center'><font style='color:orange'>$55<br>for<br>yourself</font></div></div><div class='cr'><div class='vertical-center'>$75<br>for<br>Steven C</div></div><div class='respDivL'><div class='vertical-center'><font style='color:orange'>(E)</font></div></div><div class='respDivR'><div class='vertical-center'>(I)</div></div></div>","null","$55<br>for<br>yourself","$75<br>for<br>4","0","55","75","4",""
"html-keyboard-response","26","77363","0.0-6.0-1.7","571144323d47e800096358d9","bdp_sd","Sun Mar 26 2023 14:58:39 GMT-0400 (Eastern Daylight Time)","116728","","null","","","","","FIX","","<div class='trialBorder'><div class='vertical-center'><img style='vertical-align:center; align:center' src=img/fixation3.jpg></div></div>","null","","","","","","",""
"html-keyboard-response","27","78507","0.0-6.0-2.7","571144323d47e800096358d9","bdp_sd","Sun Mar 26 2023 14:58:39 GMT-0400 (Eastern Daylight Time)","116728","","1142","","","","","offer","","<div class='trialBorder'><div class='vertical-center'><img style='vertical-align:center; align:center' src=img/fixation3.jpg></div><div class='cl'><div class='vertical-center'>$75<br>for<br>Shannon C</div></div><div class='cr'><div class='vertical-center'>$67<br>for<br>yourself</div></div><div class='respDivL'><div class='vertical-center'>(E)</div></div><div class='respDivR'><div class='vertical-center'>(I)</div></div></div>","I","$67<br>for<br>yourself","$75<br>for<br>5","1","67","75","5","SELF"
"html-keyboard-response","28","78758","0.0-6.0-3.7","571144323d47e800096358d9","bdp_sd","Sun Mar 26 2023 14:58:39 GMT-0400 (Eastern Daylight Time)","116728","","null","","","","","offerFB","","<div class='trialBorder'><div class='vertical-center'><img style='vertical-align:center; align:center' src=img/fixation3.jpg></div><div class='cl'><div class='vertical-center'>$75<br>for<br>Shannon C</div></div><div class='cr'><div class='vertical-center'><font style='color:orange'>$67<br>for<br>yourself</font></div></div><div class='respDivL'><div class='vertical-center'>(E)</div></div><div class='respDivR'><div class='vertical-center'><font style='color:orange'>(I)</font></div></div></div>","null","$67<br>for<br>yourself","$75<br>for<br>5","1","67","75","5",""
"html-keyboard-response","29","79260","0.0-6.0-1.8","571144323d47e800096358d9","bdp_sd","Sun Mar 26 2023 14:58:39 GMT-0400 (Eastern Daylight Time)","116728","","null","","","","","FIX","","<div class='trialBorder'><div class='vertical-center'><img style='vertical-align:center; align:center' src=img/fixation3.jpg></div></div>","null","","","","","","",""
"html-keyboard-response","30","80298","0.0-6.0-2.8","571144323d47e800096358d9","bdp_sd","Sun Mar 26 2023 14:58:39 GMT-0400 (Eastern Daylight Time)","116728","","1038","","","","","offer","","<div class='trialBorder'><div class='vertical-center'><img style='vertical-align:center; align:center' src=img/fixation3.jpg></div><div class='cl'><div class='vertical-center'>$80<br>for<br>yourself</div></div><div class='cr'><div class='vertical-center'>$85<br>for<br>Shannon C</div></div><div class='respDivL'><div class='vertical-center'>(E)</div></div><div class='respDivR'><div class='vertical-center'>(I)</div></div></div>","E","$80<br>for<br>yourself","$85<br>for<br>5","0","80","85","5","SELF"
"html-keyboard-response","31","80550","0.0-6.0-3.8","571144323d47e800096358d9","bdp_sd","Sun Mar 26 2023 14:58:39 GMT-0400 (Eastern Daylight Time)","116728","","null","","","","","offerFB","","<div class='trialBorder'><div class='vertical-center'><img style='vertical-align:center; align:center' src=img/fixation3.jpg></div><div class='cl'><div class='vertical-center'><font style='color:orange'>$80<br>for<br>yourself</font></div></div><div class='cr'><div class='vertical-center'>$85<br>for<br>Shannon C</div></div><div class='respDivL'><div class='vertical-center'><font style='color:orange'>(E)</font></div></div><div class='respDivR'><div class='vertical-center'>(I)</div></div></div>","null","$80<br>for<br>yourself","$85<br>for<br>5","0","80","85","5",""
"html-keyboard-response","32","81052","0.0-6.0-1.9","571144323d47e800096358d9","bdp_sd","Sun Mar 26 2023 14:58:39 GMT-0400 (Eastern Daylight Time)","116728","","null","","","","","FIX","","<div class='trialBorder'><div class='vertical-center'><img style='vertical-align:center; align:center' src=img/fixation3.jpg></div></div>","null","","","","","","",""
"html-keyboard-response","33","82979","0.0-6.0-2.9","571144323d47e800096358d9","bdp_sd","Sun Mar 26 2023 14:58:39 GMT-0400 (Eastern Daylight Time)","116728","","1926","","","","","offer","","<div class='trialBorder'><div class='vertical-center'><img style='vertical-align:center; align:center' src=img/fixation3.jpg></div><div class='cl'><div class='vertical-center'>$33<br>for<br>yourself</div></div><div class='cr'><div class='vertical-center'>$80<br>for<br>Kara S</div></div><div class='respDivL'><div class='vertical-center'>(E)</div></div><div class='respDivR'><div class='vertical-center'>(I)</div></div></div>","I","$33<br>for<br>yourself","$80<br>for<br>2","0","33","80","2","OTHER"
"html-keyboard-response","34","83230","0.0-6.0-3.9","571144323d47e800096358d9","bdp_sd","Sun Mar 26 2023 14:58:39 GMT-0400 (Eastern Daylight Time)","116728","","null","","","","","offerFB","","<div class='trialBorder'><div class='vertical-center'><img style='vertical-align:center; align:center' src=img/fixation3.jpg></div><div class='cl'><div class='vertical-center'>$33<br>for<br>yourself</div></div><div class='cr'><div class='vertical-center'><font style='color:orange'>$80<br>for<br>Kara S</font></div></div><div class='respDivL'><div class='vertical-center'>(E)</div></div><div class='respDivR'><div class='vertical-center'><font style='color:orange'>(I)</font></div></div></div>","null","$33<br>for<br>yourself","$80<br>for<br>2","0","33","80","2",""
"html-keyboard-response","35","83732","0.0-6.0-1.10","571144323d47e800096358d9","bdp_sd","Sun Mar 26 2023 14:58:39 GMT-0400 (Eastern Daylight Time)","116728","","null","","","","","FIX","","<div class='trialBorder'><div class='vertical-center'><img style='vertical-align:center; align:center' src=img/fixation3.jpg></div></div>","null","","","","","","",""
"html-keyboard-response","36","85123","0.0-6.0-2.10","571144323d47e800096358d9","bdp_sd","Sun Mar 26 2023 14:58:39 GMT-0400 (Eastern Daylight Time)","116728","","1391","","","","","offer","","<div class='trialBorder'><div class='vertical-center'><img style='vertical-align:center; align:center' src=img/fixation3.jpg></div><div class='cl'><div class='vertical-center'>$30<br>for<br>Kara S</div></div><div class='cr'><div class='vertical-center'>$11<br>for<br>yourself</div></div><div class='respDivL'><div class='vertical-center'>(E)</div></div><div class='respDivR'><div class='vertical-center'>(I)</div></div></div>","E","$11<br>for<br>yourself","$30<br>for<br>2","1","11","30","2","OTHER"
"html-keyboard-response","37","85374","0.0-6.0-3.10","571144323d47e800096358d9","bdp_sd","Sun Mar 26 2023 14:58:39 GMT-0400 (Eastern Daylight Time)","116728","","null","","","","","offerFB","","<div class='trialBorder'><div class='vertical-center'><img style='vertical-align:center; align:center' src=img/fixation3.jpg></div><div class='cl'><div class='vertical-center'><font style='color:orange'>$30<br>for<br>Kara S</font></div></div><div class='cr'><div class='vertical-center'>$11<br>for<br>yourself</div></div><div class='respDivL'><div class='vertical-center'><font style='color:orange'>(E)</font></div></div><div class='respDivR'><div class='vertical-center'>(I)</div></div></div>","null","$11<br>for<br>yourself","$30<br>for<br>2","1","11","30","2",""
"html-keyboard-response","38","85876","0.0-6.0-1.11","571144323d47e800096358d9","bdp_sd","Sun Mar 26 2023 14:58:39 GMT-0400 (Eastern Daylight Time)","116728","","null","","","","","FIX","","<div class='trialBorder'><div class='vertical-center'><img style='vertical-align:center; align:center' src=img/fixation3.jpg></div></div>","null","","","","","","",""
"html-keyboard-response","39","87042","0.0-6.0-2.11","571144323d47e800096358d9","bdp_sd","Sun Mar 26 2023 14:58:39 GMT-0400 (Eastern Daylight Time)","116728","","1166","","","","","offer","","<div class='trialBorder'><div class='vertical-center'><img style='vertical-align:center; align:center' src=img/fixation3.jpg></div><div class='cl'><div class='vertical-center'>$80<br>for<br>Shannon C</div></div><div class='cr'><div class='vertical-center'>$78<br>for<br>yourself</div></div><div class='respDivL'><div class='vertical-center'>(E)</div></div><div class='respDivR'><div class='vertical-center'>(I)</div></div></div>","I","$78<br>for<br>yourself","$80<br>for<br>5","1","78","80","5","SELF"
"html-keyboard-response","40","87294","0.0-6.0-3.11","571144323d47e800096358d9","bdp_sd","Sun Mar 26 2023 14:58:39 GMT-0400 (Eastern Daylight Time)","116728","","null","","","","","offerFB","","<div class='trialBorder'><div class='vertical-center'><img style='vertical-align:center; align:center' src=img/fixation3.jpg></div><div class='cl'><div class='vertical-center'>$80<br>for<br>Shannon C</div></div><div class='cr'><div class='vertical-center'><font style='color:orange'>$78<br>for<br>yourself</font></div></div><div class='respDivL'><div class='vertical-center'>(E)</div></div><div class='respDivR'><div class='vertical-center'><font style='color:orange'>(I)</font></div></div></div>","null","$78<br>for<br>yourself","$80<br>for<br>5","1","78","80","5",""
"html-keyboard-response","41","87796","0.0-6.0-1.12","571144323d47e800096358d9","bdp_sd","Sun Mar 26 2023 14:58:39 GMT-0400 (Eastern Daylight Time)","116728","","null","","","","","FIX","","<div class='trialBorder'><div class='vertical-center'><img style='vertical-align:center; align:center' src=img/fixation3.jpg></div></div>","null","","","","","","",""
"html-keyboard-response","42","88898","0.0-6.0-2.12","571144323d47e800096358d9","bdp_sd","Sun Mar 26 2023 14:58:39 GMT-0400 (Eastern Daylight Time)","116728","","1102","","","","","offer","","<div class='trialBorder'><div class='vertical-center'><img style='vertical-align:center; align:center' src=img/fixation3.jpg></div><div class='cl'><div class='vertical-center'>$22<br>for<br>yourself</div></div><div class='cr'><div class='vertical-center'>$25<br>for<br>Shannon C</div></div><div class='respDivL'><div class='vertical-center'>(E)</div></div><div class='respDivR'><div class='vertical-center'>(I)</div></div></div>","E","$22<br>for<br>yourself","$25<br>for<br>5","0","22","25","5","SELF"
"html-keyboard-response","43","89150","0.0-6.0-3.12","571144323d47e800096358d9","bdp_sd","Sun Mar 26 2023 14:58:39 GMT-0400 (Eastern Daylight Time)","116728","","null","","","","","offerFB","","<div class='trialBorder'><div class='vertical-center'><img style='vertical-align:center; align:center' src=img/fixation3.jpg></div><div class='cl'><div class='vertical-center'><font style='color:orange'>$22<br>for<br>yourself</font></div></div><div class='cr'><div class='vertical-center'>$25<br>for<br>Shannon C</div></div><div class='respDivL'><div class='vertical-center'><font style='color:orange'>(E)</font></div></div><div class='respDivR'><div class='vertical-center'>(I)</div></div></div>","null","$22<br>for<br>yourself","$25<br>for<br>5","0","22","25","5",""
"html-keyboard-response","44","89651","0.0-6.0-1.13","571144323d47e800096358d9","bdp_sd","Sun Mar 26 2023 14:58:39 GMT-0400 (Eastern Daylight Time)","116728","","null","","","","","FIX","","<div class='trialBorder'><div class='vertical-center'><img style='vertical-align:center; align:center' src=img/fixation3.jpg></div></div>","null","","","","","","",""
"html-keyboard-response","45","90706","0.0-6.0-2.13","571144323d47e800096358d9","bdp_sd","Sun Mar 26 2023 14:58:39 GMT-0400 (Eastern Daylight Time)","116728","","1055","","","","","offer","","<div class='trialBorder'><div class='vertical-center'><img style='vertical-align:center; align:center' src=img/fixation3.jpg></div><div class='cl'><div class='vertical-center'>$35<br>for<br>Shannon C</div></div><div class='cr'><div class='vertical-center'>$34<br>for<br>yourself</div></div><div class='respDivL'><div class='vertical-center'>(E)</div></div><div class='respDivR'><div class='vertical-center'>(I)</div></div></div>","I","$34<br>for<br>yourself","$35<br>for<br>5","1","34","35","5","SELF"
"html-keyboard-response","46","90957","0.0-6.0-3.13","571144323d47e800096358d9","bdp_sd","Sun Mar 26 2023 14:58:39 GMT-0400 (Eastern Daylight Time)","116728","","null","","","","","offerFB","","<div class='trialBorder'><div class='vertical-center'><img style='vertical-align:center; align:center' src=img/fixation3.jpg></div><div class='cl'><div class='vertical-center'>$35<br>for<br>Shannon C</div></div><div class='cr'><div class='vertical-center'><font style='color:orange'>$34<br>for<br>yourself</font></div></div><div class='respDivL'><div class='vertical-center'>(E)</div></div><div class='respDivR'><div class='vertical-center'><font style='color:orange'>(I)</font></div></div></div>","null","$34<br>for<br>yourself","$35<br>for<br>5","1","34","35","5",""
"html-keyboard-response","47","91458","0.0-6.0-1.14","571144323d47e800096358d9","bdp_sd","Sun Mar 26 2023 14:58:39 GMT-0400 (Eastern Daylight Time)","116728","","null","","","","","FIX","","<div class='trialBorder'><div class='vertical-center'><img style='vertical-align:center; align:center' src=img/fixation3.jpg></div></div>","null","","","","","","",""
"html-keyboard-response","48","92594","0.0-6.0-2.14","571144323d47e800096358d9","bdp_sd","Sun Mar 26 2023 14:58:39 GMT-0400 (Eastern Daylight Time)","116728","","1135","","","","","offer","","<div class='trialBorder'><div class='vertical-center'><img style='vertical-align:center; align:center' src=img/fixation3.jpg></div><div class='cl'><div class='vertical-center'>$24<br>for<br>yourself</div></div><div class='cr'><div class='vertical-center'>$35<br>for<br>Connie D</div></div><div class='respDivL'><div class='vertical-center'>(E)</div></div><div class='respDivR'><div class='vertical-center'>(I)</div></div></div>","I","$24<br>for<br>yourself","$35<br>for<br>3","0","24","35","3","OTHER"
"html-keyboard-response","49","92846","0.0-6.0-3.14","571144323d47e800096358d9","bdp_sd","Sun Mar 26 2023 14:58:39 GMT-0400 (Eastern Daylight Time)","116728","","null","","","","","offerFB","","<div class='trialBorder'><div class='vertical-center'><img style='vertical-align:center; align:center' src=img/fixation3.jpg></div><div class='cl'><div class='vertical-center'>$24<br>for<br>yourself</div></div><div class='cr'><div class='vertical-center'><font style='color:orange'>$35<br>for<br>Connie D</font></div></div><div class='respDivL'><div class='vertical-center'>(E)</div></div><div class='respDivR'><div class='vertical-center'><font style='color:orange'>(I)</font></div></div></div>","null","$24<br>for<br>yourself","$35<br>for<br>3","0","24","35","3",""
"html-keyboard-response","50","93347","0.0-6.0-1.15","571144323d47e800096358d9","bdp_sd","Sun Mar 26 2023 14:58:39 GMT-0400 (Eastern Daylight Time)","116728","","null","","","","","FIX","","<div class='trialBorder'><div class='vertical-center'><img style='vertical-align:center; align:center' src=img/fixation3.jpg></div></div>","null","","","","","","",""
"html-keyboard-response","51","94379","0.0-6.0-2.15","571144323d47e800096358d9","bdp_sd","Sun Mar 26 2023 14:58:39 GMT-0400 (Eastern Daylight Time)","116728","","1032","","","","","offer","","<div class='trialBorder'><div class='vertical-center'><img style='vertical-align:center; align:center' src=img/fixation3.jpg></div><div class='cl'><div class='vertical-center'>$75<br>for<br>Connie D</div></div><div class='cr'><div class='vertical-center'>$41<br>for<br>yourself</div></div><div class='respDivL'><div class='vertical-center'>(E)</div></div><div class='respDivR'><div class='vertical-center'>(I)</div></div></div>","E","$41<br>for<br>yourself","$75<br>for<br>3","1","41","75","3","OTHER"
"html-keyboard-response","52","94631","0.0-6.0-3.15","571144323d47e800096358d9","bdp_sd","Sun Mar 26 2023 14:58:39 GMT-0400 (Eastern Daylight Time)","116728","","null","","","","","offerFB","","<div class='trialBorder'><div class='vertical-center'><img style='vertical-align:center; align:center' src=img/fixation3.jpg></div><div class='cl'><div class='vertical-center'><font style='color:orange'>$75<br>for<br>Connie D</font></div></div><div class='cr'><div class='vertical-center'>$41<br>for<br>yourself</div></div><div class='respDivL'><div class='vertical-center'><font style='color:orange'>(E)</font></div></div><div class='respDivR'><div class='vertical-center'>(I)</div></div></div>","null","$41<br>for<br>yourself","$75<br>for<br>3","1","41","75","3",""
"html-keyboard-response","53","95132","0.0-6.0-1.16","571144323d47e800096358d9","bdp_sd","Sun Mar 26 2023 14:58:39 GMT-0400 (Eastern Daylight Time)","116728","","null","","","","","FIX","","<div class='trialBorder'><div class='vertical-center'><img style='vertical-align:center; align:center' src=img/fixation3.jpg></div></div>","null","","","","","","",""
"html-keyboard-response","54","96410","0.0-6.0-2.16","571144323d47e800096358d9","bdp_sd","Sun Mar 26 2023 14:58:39 GMT-0400 (Eastern Daylight Time)","116728","","1278","","","","","offer","","<div class='trialBorder'><div class='vertical-center'><img style='vertical-align:center; align:center' src=img/fixation3.jpg></div><div class='cl'><div class='vertical-center'>$25<br>for<br>Steven C</div></div><div class='cr'><div class='vertical-center'>$19<br>for<br>yourself</div></div><div class='respDivL'><div class='vertical-center'>(E)</div></div><div class='respDivR'><div class='vertical-center'>(I)</div></div></div>","I","$19<br>for<br>yourself","$25<br>for<br>4","1","19","25","4","SELF"
"html-keyboard-response","55","96662","0.0-6.0-3.16","571144323d47e800096358d9","bdp_sd","Sun Mar 26 2023 14:58:39 GMT-0400 (Eastern Daylight Time)","116728","","null","","","","","offerFB","","<div class='trialBorder'><div class='vertical-center'><img style='vertical-align:center; align:center' src=img/fixation3.jpg></div><div class='cl'><div class='vertical-center'>$25<br>for<br>Steven C</div></div><div class='cr'><div class='vertical-center'><font style='color:orange'>$19<br>for<br>yourself</font></div></div><div class='respDivL'><div class='vertical-center'>(E)</div></div><div class='respDivR'><div class='vertical-center'><font style='color:orange'>(I)</font></div></div></div>","null","$19<br>for<br>yourself","$25<br>for<br>4","1","19","25","4",""
"html-keyboard-response","56","97164","0.0-6.0-1.17","571144323d47e800096358d9","bdp_sd","Sun Mar 26 2023 14:58:39 GMT-0400 (Eastern Daylight Time)","116728","","null","","","","","FIX","","<div class='trialBorder'><div class='vertical-center'><img style='vertical-align:center; align:center' src=img/fixation3.jpg></div></div>","null","","","","","","",""
"html-keyboard-response","57","98602","0.0-6.0-2.17","571144323d47e800096358d9","bdp_sd","Sun Mar 26 2023 14:58:39 GMT-0400 (Eastern Daylight Time)","116728","","1438","","","","","offer","","<div class='trialBorder'><div class='vertical-center'><img style='vertical-align:center; align:center' src=img/fixation3.jpg></div><div class='cl'><div class='vertical-center'>$49<br>for<br>yourself</div></div><div class='cr'><div class='vertical-center'>$60<br>for<br>Steven C</div></div><div class='respDivL'><div class='vertical-center'>(E)</div></div><div class='respDivR'><div class='vertical-center'>(I)</div></div></div>","E","$49<br>for<br>yourself","$60<br>for<br>4","0","49","60","4","SELF"
"html-keyboard-response","58","98854","0.0-6.0-3.17","571144323d47e800096358d9","bdp_sd","Sun Mar 26 2023 14:58:39 GMT-0400 (Eastern Daylight Time)","116728","","null","","","","","offerFB","","<div class='trialBorder'><div class='vertical-center'><img style='vertical-align:center; align:center' src=img/fixation3.jpg></div><div class='cl'><div class='vertical-center'><font style='color:orange'>$49<br>for<br>yourself</font></div></div><div class='cr'><div class='vertical-center'>$60<br>for<br>Steven C</div></div><div class='respDivL'><div class='vertical-center'><font style='color:orange'>(E)</font></div></div><div class='respDivR'><div class='vertical-center'>(I)</div></div></div>","null","$49<br>for<br>yourself","$60<br>for<br>4","0","49","60","4",""
"html-keyboard-response","59","99356","0.0-6.0-1.18","571144323d47e800096358d9","bdp_sd","Sun Mar 26 2023 14:58:39 GMT-0400 (Eastern Daylight Time)","116728","","null","","","","","FIX","","<div class='trialBorder'><div class='vertical-center'><img style='vertical-align:center; align:center' src=img/fixation3.jpg></div></div>","null","","","","","","",""
"html-keyboard-response","60","100562","0.0-6.0-2.18","571144323d47e800096358d9","bdp_sd","Sun Mar 26 2023 14:58:39 GMT-0400 (Eastern Daylight Time)","116728","","1206","","","","","offer","","<div class='trialBorder'><div class='vertical-center'><img style='vertical-align:center; align:center' src=img/fixation3.jpg></div><div class='cl'><div class='vertical-center'>$25<br>for<br>Connie D</div></div><div class='cr'><div class='vertical-center'>$14<br>for<br>yourself</div></div><div class='respDivL'><div class='vertical-center'>(E)</div></div><div class='respDivR'><div class='vertical-center'>(I)</div></div></div>","E","$14<br>for<br>yourself","$25<br>for<br>3","1","14","25","3","OTHER"
"html-keyboard-response","61","100813","0.0-6.0-3.18","571144323d47e800096358d9","bdp_sd","Sun Mar 26 2023 14:58:39 GMT-0400 (Eastern Daylight Time)","116728","","null","","","","","offerFB","","<div class='trialBorder'><div class='vertical-center'><img style='vertical-align:center; align:center' src=img/fixation3.jpg></div><div class='cl'><div class='vertical-center'><font style='color:orange'>$25<br>for<br>Connie D</font></div></div><div class='cr'><div class='vertical-center'>$14<br>for<br>yourself</div></div><div class='respDivL'><div class='vertical-center'><font style='color:orange'>(E)</font></div></div><div class='respDivR'><div class='vertical-center'>(I)</div></div></div>","null","$14<br>for<br>yourself","$25<br>for<br>3","1","14","25","3",""
"html-keyboard-response","62","101315","0.0-6.0-1.19","571144323d47e800096358d9","bdp_sd","Sun Mar 26 2023 14:58:39 GMT-0400 (Eastern Daylight Time)","116728","","null","","","","","FIX","","<div class='trialBorder'><div class='vertical-center'><img style='vertical-align:center; align:center' src=img/fixation3.jpg></div></div>","null","","","","","","",""
"html-keyboard-response","63","102162","0.0-6.0-2.19","571144323d47e800096358d9","bdp_sd","Sun Mar 26 2023 14:58:39 GMT-0400 (Eastern Daylight Time)","116728","","847","","","","","offer","","<div class='trialBorder'><div class='vertical-center'><img style='vertical-align:center; align:center' src=img/fixation3.jpg></div><div class='cl'><div class='vertical-center'>$25<br>for<br>yourself</div></div><div class='cr'><div class='vertical-center'>$30<br>for<br>Steven C</div></div><div class='respDivL'><div class='vertical-center'>(E)</div></div><div class='respDivR'><div class='vertical-center'>(I)</div></div></div>","E","$25<br>for<br>yourself","$30<br>for<br>4","0","25","30","4","SELF"
"html-keyboard-response","64","102413","0.0-6.0-3.19","571144323d47e800096358d9","bdp_sd","Sun Mar 26 2023 14:58:39 GMT-0400 (Eastern Daylight Time)","116728","","null","","","","","offerFB","","<div class='trialBorder'><div class='vertical-center'><img style='vertical-align:center; align:center' src=img/fixation3.jpg></div><div class='cl'><div class='vertical-center'><font style='color:orange'>$25<br>for<br>yourself</font></div></div><div class='cr'><div class='vertical-center'>$30<br>for<br>Steven C</div></div><div class='respDivL'><div class='vertical-center'><font style='color:orange'>(E)</font></div></div><div class='respDivR'><div class='vertical-center'>(I)</div></div></div>","null","$25<br>for<br>yourself","$30<br>for<br>4","0","25","30","4",""
"html-keyboard-response","65","102914","0.0-6.0-1.20","571144323d47e800096358d9","bdp_sd","Sun Mar 26 2023 14:58:39 GMT-0400 (Eastern Daylight Time)","116728","","null","","","","","FIX","","<div class='trialBorder'><div class='vertical-center'><img style='vertical-align:center; align:center' src=img/fixation3.jpg></div></div>","null","","","","","","",""
"html-keyboard-response","66","104483","0.0-6.0-2.20","571144323d47e800096358d9","bdp_sd","Sun Mar 26 2023 14:58:39 GMT-0400 (Eastern Daylight Time)","116728","","1569","","","","","offer","","<div class='trialBorder'><div class='vertical-center'><img style='vertical-align:center; align:center' src=img/fixation3.jpg></div><div class='cl'><div class='vertical-center'>$85<br>for<br>Chris R</div></div><div class='cr'><div class='vertical-center'>$31<br>for<br>yourself</div></div><div class='respDivL'><div class='vertical-center'>(E)</div></div><div class='respDivR'><div class='vertical-center'>(I)</div></div></div>","E","$31<br>for<br>yourself","$85<br>for<br>1","1","31","85","1","OTHER"
"html-keyboard-response","67","104734","0.0-6.0-3.20","571144323d47e800096358d9","bdp_sd","Sun Mar 26 2023 14:58:39 GMT-0400 (Eastern Daylight Time)","116728","","null","","","","","offerFB","","<div class='trialBorder'><div class='vertical-center'><img style='vertical-align:center; align:center' src=img/fixation3.jpg></div><div class='cl'><div class='vertical-center'><font style='color:orange'>$85<br>for<br>Chris R</font></div></div><div class='cr'><div class='vertical-center'>$31<br>for<br>yourself</div></div><div class='respDivL'><div class='vertical-center'><font style='color:orange'>(E)</font></div></div><div class='respDivR'><div class='vertical-center'>(I)</div></div></div>","null","$31<br>for<br>yourself","$85<br>for<br>1","1","31","85","1",""
"html-keyboard-response","68","105235","0.0-6.0-1.21","571144323d47e800096358d9","bdp_sd","Sun Mar 26 2023 14:58:39 GMT-0400 (Eastern Daylight Time)","116728","","null","","","","","FIX","","<div class='trialBorder'><div class='vertical-center'><img style='vertical-align:center; align:center' src=img/fixation3.jpg></div></div>","null","","","","","","",""
"html-keyboard-response","69","106299","0.0-6.0-2.21","571144323d47e800096358d9","bdp_sd","Sun Mar 26 2023 14:58:39 GMT-0400 (Eastern Daylight Time)","116728","","1063","","","","","offer","","<div class='trialBorder'><div class='vertical-center'><img style='vertical-align:center; align:center' src=img/fixation3.jpg></div><div class='cl'><div class='vertical-center'>$50<br>for<br>Connie D</div></div><div class='cr'><div class='vertical-center'>$27<br>for<br>yourself</div></div><div class='respDivL'><div class='vertical-center'>(E)</div></div><div class='respDivR'><div class='vertical-center'>(I)</div></div></div>","E","$27<br>for<br>yourself","$50<br>for<br>3","1","27","50","3","OTHER"
"html-keyboard-response","70","106550","0.0-6.0-3.21","571144323d47e800096358d9","bdp_sd","Sun Mar 26 2023 14:58:39 GMT-0400 (Eastern Daylight Time)","116728","","null","","","","","offerFB","","<div class='trialBorder'><div class='vertical-center'><img style='vertical-align:center; align:center' src=img/fixation3.jpg></div><div class='cl'><div class='vertical-center'><font style='color:orange'>$50<br>for<br>Connie D</font></div></div><div class='cr'><div class='vertical-center'>$27<br>for<br>yourself</div></div><div class='respDivL'><div class='vertical-center'><font style='color:orange'>(E)</font></div></div><div class='respDivR'><div class='vertical-center'>(I)</div></div></div>","null","$27<br>for<br>yourself","$50<br>for<br>3","1","27","50","3",""
"html-keyboard-response","71","107052","0.0-6.0-1.22","571144323d47e800096358d9","bdp_sd","Sun Mar 26 2023 14:58:39 GMT-0400 (Eastern Daylight Time)","116728","","null","","","","","FIX","","<div class='trialBorder'><div class='vertical-center'><img style='vertical-align:center; align:center' src=img/fixation3.jpg></div></div>","null","","","","","","",""
"html-keyboard-response","72","108066","0.0-6.0-2.22","571144323d47e800096358d9","bdp_sd","Sun Mar 26 2023 14:58:39 GMT-0400 (Eastern Daylight Time)","116728","","1014","","","","","offer","","<div class='trialBorder'><div class='vertical-center'><img style='vertical-align:center; align:center' src=img/fixation3.jpg></div><div class='cl'><div class='vertical-center'>$25<br>for<br>yourself</div></div><div class='cr'><div class='vertical-center'>$60<br>for<br>Connie D</div></div><div class='respDivL'><div class='vertical-center'>(E)</div></div><div class='respDivR'><div class='vertical-center'>(I)</div></div></div>","I","$25<br>for<br>yourself","$60<br>for<br>3","0","25","60","3","OTHER"
"html-keyboard-response","73","108317","0.0-6.0-3.22","571144323d47e800096358d9","bdp_sd","Sun Mar 26 2023 14:58:39 GMT-0400 (Eastern Daylight Time)","116728","","null","","","","","offerFB","","<div class='trialBorder'><div class='vertical-center'><img style='vertical-align:center; align:center' src=img/fixation3.jpg></div><div class='cl'><div class='vertical-center'>$25<br>for<br>yourself</div></div><div class='cr'><div class='vertical-center'><font style='color:orange'>$60<br>for<br>Connie D</font></div></div><div class='respDivL'><div class='vertical-center'>(E)</div></div><div class='respDivR'><div class='vertical-center'><font style='color:orange'>(I)</font></div></div></div>","null","$25<br>for<br>yourself","$60<br>for<br>3","0","25","60","3",""
"html-keyboard-response","74","108818","0.0-6.0-1.23","571144323d47e800096358d9","bdp_sd","Sun Mar 26 2023 14:58:39 GMT-0400 (Eastern Daylight Time)","116728","","null","","","","","FIX","","<div class='trialBorder'><div class='vertical-center'><img style='vertical-align:center; align:center' src=img/fixation3.jpg></div></div>","null","","","","","","",""
"html-keyboard-response","75","110098","0.0-6.0-2.23","571144323d47e800096358d9","bdp_sd","Sun Mar 26 2023 14:58:39 GMT-0400 (Eastern Daylight Time)","116728","","1280","","","","","offer","","<div class='trialBorder'><div class='vertical-center'><img style='vertical-align:center; align:center' src=img/fixation3.jpg></div><div class='cl'><div class='vertical-center'>$34<br>for<br>yourself</div></div><div class='cr'><div class='vertical-center'>$50<br>for<br>Steven C</div></div><div class='respDivL'><div class='vertical-center'>(E)</div></div><div class='respDivR'><div class='vertical-center'>(I)</div></div></div>","E","$34<br>for<br>yourself","$50<br>for<br>4","0","34","50","4","SELF"
"html-keyboard-response","76","110350","0.0-6.0-3.23","571144323d47e800096358d9","bdp_sd","Sun Mar 26 2023 14:58:39 GMT-0400 (Eastern Daylight Time)","116728","","null","","","","","offerFB","","<div class='trialBorder'><div class='vertical-center'><img style='vertical-align:center; align:center' src=img/fixation3.jpg></div><div class='cl'><div class='vertical-center'><font style='color:orange'>$34<br>for<br>yourself</font></div></div><div class='cr'><div class='vertical-center'>$50<br>for<br>Steven C</div></div><div class='respDivL'><div class='vertical-center'><font style='color:orange'>(E)</font></div></div><div class='respDivR'><div class='vertical-center'>(I)</div></div></div>","null","$34<br>for<br>yourself","$50<br>for<br>4","0","34","50","4",""
"html-keyboard-response","77","110852","0.0-6.0-1.24","571144323d47e800096358d9","bdp_sd","Sun Mar 26 2023 14:58:39 GMT-0400 (Eastern Daylight Time)","116728","","null","","","","","FIX","","<div class='trialBorder'><div class='vertical-center'><img style='vertical-align:center; align:center' src=img/fixation3.jpg></div></div>","null","","","","","","",""
"html-keyboard-response","78","111922","0.0-6.0-2.24","571144323d47e800096358d9","bdp_sd","Sun Mar 26 2023 14:58:39 GMT-0400 (Eastern Daylight Time)","116728","","1069","","","","","offer","","<div class='trialBorder'><div class='vertical-center'><img style='vertical-align:center; align:center' src=img/fixation3.jpg></div><div class='cl'><div class='vertical-center'>$35<br>for<br>Kara S</div></div><div class='cr'><div class='vertical-center'>$15<br>for<br>yourself</div></div><div class='respDivL'><div class='vertical-center'>(E)</div></div><div class='respDivR'><div class='vertical-center'>(I)</div></div></div>","E","$15<br>for<br>yourself","$35<br>for<br>2","1","15","35","2","OTHER"
"html-keyboard-response","79","112174","0.0-6.0-3.24","571144323d47e800096358d9","bdp_sd","Sun Mar 26 2023 14:58:39 GMT-0400 (Eastern Daylight Time)","116728","","null","","","","","offerFB","","<div class='trialBorder'><div class='vertical-center'><img style='vertical-align:center; align:center' src=img/fixation3.jpg></div><div class='cl'><div class='vertical-center'><font style='color:orange'>$35<br>for<br>Kara S</font></div></div><div class='cr'><div class='vertical-center'>$15<br>for<br>yourself</div></div><div class='respDivL'><div class='vertical-center'><font style='color:orange'>(E)</font></div></div><div class='respDivR'><div class='vertical-center'>(I)</div></div></div>","null","$15<br>for<br>yourself","$35<br>for<br>2","1","15","35","2",""
"html-keyboard-response","80","112674","0.0-6.0-1.25","571144323d47e800096358d9","bdp_sd","Sun Mar 26 2023 14:58:39 GMT-0400 (Eastern Daylight Time)","116728","","null","","","","","FIX","","<div class='trialBorder'><div class='vertical-center'><img style='vertical-align:center; align:center' src=img/fixation3.jpg></div></div>","null","","","","","","",""
"html-keyboard-response","81","113514","0.0-6.0-2.25","571144323d47e800096358d9","bdp_sd","Sun Mar 26 2023 14:58:39 GMT-0400 (Eastern Daylight Time)","116728","","839","","","","","offer","","<div class='trialBorder'><div class='vertical-center'><img style='vertical-align:center; align:center' src=img/fixation3.jpg></div><div class='cl'><div class='vertical-center'>$50<br>for<br>Shannon C</div></div><div class='cr'><div class='vertical-center'>$47<br>for<br>yourself</div></div><div class='respDivL'><div class='vertical-center'>(E)</div></div><div class='respDivR'><div class='vertical-center'>(I)</div></div></div>","I","$47<br>for<br>yourself","$50<br>for<br>5","1","47","50","5","SELF"
"html-keyboard-response","82","113766","0.0-6.0-3.25","571144323d47e800096358d9","bdp_sd","Sun Mar 26 2023 14:58:39 GMT-0400 (Eastern Daylight Time)","116728","","null","","","","","offerFB","","<div class='trialBorder'><div class='vertical-center'><img style='vertical-align:center; align:center' src=img/fixation3.jpg></div><div class='cl'><div class='vertical-center'>$50<br>for<br>Shannon C</div></div><div class='cr'><div class='vertical-center'><font style='color:orange'>$47<br>for<br>yourself</font></div></div><div class='respDivL'><div class='vertical-center'>(E)</div></div><div class='respDivR'><div class='vertical-center'><font style='color:orange'>(I)</font></div></div></div>","null","$47<br>for<br>yourself","$50<br>for<br>5","1","47","50","5",""
"html-keyboard-response","83","114267","0.0-6.0-1.26","571144323d47e800096358d9","bdp_sd","Sun Mar 26 2023 14:58:39 GMT-0400 (Eastern Daylight Time)","116728","","null","","","","","FIX","","<div class='trialBorder'><div class='vertical-center'><img style='vertical-align:center; align:center' src=img/fixation3.jpg></div></div>","null","","","","","","",""
"html-keyboard-response","84","115475","0.0-6.0-2.26","571144323d47e800096358d9","bdp_sd","Sun Mar 26 2023 14:58:39 GMT-0400 (Eastern Daylight Time)","116728","","1208","","","","","offer","","<div class='trialBorder'><div class='vertical-center'><img style='vertical-align:center; align:center' src=img/fixation3.jpg></div><div class='cl'><div class='vertical-center'>$20<br>for<br>yourself</div></div><div class='cr'><div class='vertical-center'>$55<br>for<br>Chris R</div></div><div class='respDivL'><div class='vertical-center'>(E)</div></div><div class='respDivR'><div class='vertical-center'>(I)</div></div></div>","I","$20<br>for<br>yourself","$55<br>for<br>1","0","20","55","1","OTHER"
"html-keyboard-response","85","115726","0.0-6.0-3.26","571144323d47e800096358d9","bdp_sd","Sun Mar 26 2023 14:58:39 GMT-0400 (Eastern Daylight Time)","116728","","null","","","","","offerFB","","<div class='trialBorder'><div class='vertical-center'><img style='vertical-align:center; align:center' src=img/fixation3.jpg></div><div class='cl'><div class='vertical-center'>$20<br>for<br>yourself</div></div><div class='cr'><div class='vertical-center'><font style='color:orange'>$55<br>for<br>Chris R</font></div></div><div class='respDivL'><div class='vertical-center'>(E)</div></div><div class='respDivR'><div class='vertical-center'><font style='color:orange'>(I)</font></div></div></div>","null","$20<br>for<br>yourself","$55<br>for<br>1","0","20","55","1",""
"","","","","571144323d47e800096358d9","bdp_sd","Sun Mar 26 2023 14:58:39 GMT-0400 (Eastern Daylight Time)","116728","","","","fullscreenexit","86","115742","fullscreenexit","","","","","","","","","",""
"fullscreen","86","116728","0.0-7.0","571144323d47e800096358d9","bdp_sd","Sun Mar 26 2023 14:58:39 GMT-0400 (Eastern Daylight Time)","116728","","","","","","","","true","","","","","","","","",""
"html-keyboard-response","87","117229","0.0-8.0","","","","","","null","","","","","","","","null","","","","","","",""
