"event","trial","time","trialtype","subject_id","task","startTime","totalTime","seed","trial_type","trial_index","time_elapsed","internal_node_id","view_history","rt","success","stimulus","key_press","trialStim","stimRace"
"focus","0","0","focusevent","testing","au_rrmt_pt1","Tue Mar 08 2022 17:35:31 GMT-0500 (Eastern Standard Time)","108346","83495739","","","","","","","","","","",""
"","","","","testing","au_rrmt_pt1","Tue Mar 08 2022 17:35:31 GMT-0500 (Eastern Standard Time)","108346","83495739","pavlovia","0","1","0.0-0.0","","","","","","",""
"","","","","testing","au_rrmt_pt1","Tue Mar 08 2022 17:35:31 GMT-0500 (Eastern Standard Time)","108346","83495739","instructions","1","1299","0.0-1.0","[{""page_index"":0,""viewing_time"":1297}]","1298","","","","",""
"","","","","testing","au_rrmt_pt1","Tue Mar 08 2022 17:35:31 GMT-0500 (Eastern Standard Time)","108346","83495739","fullscreen","2","3312","0.0-2.0","","","true","","","",""
"","","","fullscreenfail","testing","au_rrmt_pt1","Tue Mar 08 2022 17:35:31 GMT-0500 (Eastern Standard Time)","108346","83495739","image-keyboard-response","3","4695","0.0-3.0-0.0","","1381","","","32","",""
"","","","","testing","au_rrmt_pt1","Tue Mar 08 2022 17:35:31 GMT-0500 (Eastern Standard Time)","108346","83495739","instructions","4","7028","0.0-4.0","[{""page_index"":0,""viewing_time"":2080}]","2080","","","","",""
"","","","FIX","testing","au_rrmt_pt1","Tue Mar 08 2022 17:35:31 GMT-0500 (Eastern Standard Time)","108346","83495739","html-keyboard-response","5","7532","0.0-5.0-1.0","","null","","<div class='trialBorder'><div class='vertical-center'><img style='vertical-align:center; align:center' src=img/fixation3.jpg></div></div>","null","",""
"","","","encode","testing","au_rrmt_pt1","Tue Mar 08 2022 17:35:31 GMT-0500 (Eastern Standard Time)","108346","83495739","html-keyboard-response","6","9536","0.0-5.0-2.0","","null","","<div class='trialBorder'><div class='vertical-center'><img class='stimimg' src='img/faces/mw080.jpg'></div></div>","null","mw080.jpg","w"
"","","","FIX","testing","au_rrmt_pt1","Tue Mar 08 2022 17:35:31 GMT-0500 (Eastern Standard Time)","108346","83495739","html-keyboard-response","7","10041","0.0-5.0-1.1","","null","","<div class='trialBorder'><div class='vertical-center'><img style='vertical-align:center; align:center' src=img/fixation3.jpg></div></div>","null","",""
"","","","encode","testing","au_rrmt_pt1","Tue Mar 08 2022 17:35:31 GMT-0500 (Eastern Standard Time)","108346","83495739","html-keyboard-response","8","12044","0.0-5.0-2.1","","null","","<div class='trialBorder'><div class='vertical-center'><img class='stimimg' src='img/faces/mw011.jpg'></div></div>","null","mw011.jpg","w"
"","","","FIX","testing","au_rrmt_pt1","Tue Mar 08 2022 17:35:31 GMT-0500 (Eastern Standard Time)","108346","83495739","html-keyboard-response","9","12549","0.0-5.0-1.2","","null","","<div class='trialBorder'><div class='vertical-center'><img style='vertical-align:center; align:center' src=img/fixation3.jpg></div></div>","null","",""
"","","","encode","testing","au_rrmt_pt1","Tue Mar 08 2022 17:35:31 GMT-0500 (Eastern Standard Time)","108346","83495739","html-keyboard-response","10","14552","0.0-5.0-2.2","","null","","<div class='trialBorder'><div class='vertical-center'><img class='stimimg' src='img/faces/mw047.jpg'></div></div>","null","mw047.jpg","w"
"","","","FIX","testing","au_rrmt_pt1","Tue Mar 08 2022 17:35:31 GMT-0500 (Eastern Standard Time)","108346","83495739","html-keyboard-response","11","15055","0.0-5.0-1.3","","null","","<div class='trialBorder'><div class='vertical-center'><img style='vertical-align:center; align:center' src=img/fixation3.jpg></div></div>","null","",""
"","","","encode","testing","au_rrmt_pt1","Tue Mar 08 2022 17:35:31 GMT-0500 (Eastern Standard Time)","108346","83495739","html-keyboard-response","12","17057","0.0-5.0-2.3","","null","","<div class='trialBorder'><div class='vertical-center'><img class='stimimg' src='img/faces/mw081.jpg'></div></div>","null","mw081.jpg","w"
"","","","FIX","testing","au_rrmt_pt1","Tue Mar 08 2022 17:35:31 GMT-0500 (Eastern Standard Time)","108346","83495739","html-keyboard-response","13","17564","0.0-5.0-1.4","","null","","<div class='trialBorder'><div class='vertical-center'><img style='vertical-align:center; align:center' src=img/fixation3.jpg></div></div>","null","",""
"","","","encode","testing","au_rrmt_pt1","Tue Mar 08 2022 17:35:31 GMT-0500 (Eastern Standard Time)","108346","83495739","html-keyboard-response","14","19566","0.0-5.0-2.4","","null","","<div class='trialBorder'><div class='vertical-center'><img class='stimimg' src='img/faces/mb056.jpg'></div></div>","null","mb056.jpg","b"
"","","","FIX","testing","au_rrmt_pt1","Tue Mar 08 2022 17:35:31 GMT-0500 (Eastern Standard Time)","108346","83495739","html-keyboard-response","15","20070","0.0-5.0-1.5","","null","","<div class='trialBorder'><div class='vertical-center'><img style='vertical-align:center; align:center' src=img/fixation3.jpg></div></div>","null","",""
"","","","encode","testing","au_rrmt_pt1","Tue Mar 08 2022 17:35:31 GMT-0500 (Eastern Standard Time)","108346","83495739","html-keyboard-response","16","22075","0.0-5.0-2.5","","null","","<div class='trialBorder'><div class='vertical-center'><img class='stimimg' src='img/faces/mw039.jpg'></div></div>","null","mw039.jpg","w"
"","","","FIX","testing","au_rrmt_pt1","Tue Mar 08 2022 17:35:31 GMT-0500 (Eastern Standard Time)","108346","83495739","html-keyboard-response","17","22582","0.0-5.0-1.6","","null","","<div class='trialBorder'><div class='vertical-center'><img style='vertical-align:center; align:center' src=img/fixation3.jpg></div></div>","null","",""
"","","","encode","testing","au_rrmt_pt1","Tue Mar 08 2022 17:35:31 GMT-0500 (Eastern Standard Time)","108346","83495739","html-keyboard-response","18","24585","0.0-5.0-2.6","","null","","<div class='trialBorder'><div class='vertical-center'><img class='stimimg' src='img/faces/mw068.jpg'></div></div>","null","mw068.jpg","w"
"","","","FIX","testing","au_rrmt_pt1","Tue Mar 08 2022 17:35:31 GMT-0500 (Eastern Standard Time)","108346","83495739","html-keyboard-response","19","25086","0.0-5.0-1.7","","null","","<div class='trialBorder'><div class='vertical-center'><img style='vertical-align:center; align:center' src=img/fixation3.jpg></div></div>","null","",""
"","","","encode","testing","au_rrmt_pt1","Tue Mar 08 2022 17:35:31 GMT-0500 (Eastern Standard Time)","108346","83495739","html-keyboard-response","20","27091","0.0-5.0-2.7","","null","","<div class='trialBorder'><div class='vertical-center'><img class='stimimg' src='img/faces/mb092.jpg'></div></div>","null","mb092.jpg","b"
"","","","FIX","testing","au_rrmt_pt1","Tue Mar 08 2022 17:35:31 GMT-0500 (Eastern Standard Time)","108346","83495739","html-keyboard-response","21","27596","0.0-5.0-1.8","","null","","<div class='trialBorder'><div class='vertical-center'><img style='vertical-align:center; align:center' src=img/fixation3.jpg></div></div>","null","",""
"","","","encode","testing","au_rrmt_pt1","Tue Mar 08 2022 17:35:31 GMT-0500 (Eastern Standard Time)","108346","83495739","html-keyboard-response","22","29598","0.0-5.0-2.8","","null","","<div class='trialBorder'><div class='vertical-center'><img class='stimimg' src='img/faces/mw031.jpg'></div></div>","null","mw031.jpg","w"
"","","","FIX","testing","au_rrmt_pt1","Tue Mar 08 2022 17:35:31 GMT-0500 (Eastern Standard Time)","108346","83495739","html-keyboard-response","23","30101","0.0-5.0-1.9","","null","","<div class='trialBorder'><div class='vertical-center'><img style='vertical-align:center; align:center' src=img/fixation3.jpg></div></div>","null","",""
"","","","encode","testing","au_rrmt_pt1","Tue Mar 08 2022 17:35:31 GMT-0500 (Eastern Standard Time)","108346","83495739","html-keyboard-response","24","32104","0.0-5.0-2.9","","null","","<div class='trialBorder'><div class='vertical-center'><img class='stimimg' src='img/faces/mb027.jpg'></div></div>","null","mb027.jpg","b"
"","","","FIX","testing","au_rrmt_pt1","Tue Mar 08 2022 17:35:31 GMT-0500 (Eastern Standard Time)","108346","83495739","html-keyboard-response","25","32609","0.0-5.0-1.10","","null","","<div class='trialBorder'><div class='vertical-center'><img style='vertical-align:center; align:center' src=img/fixation3.jpg></div></div>","null","",""
"","","","encode","testing","au_rrmt_pt1","Tue Mar 08 2022 17:35:31 GMT-0500 (Eastern Standard Time)","108346","83495739","html-keyboard-response","26","34614","0.0-5.0-2.10","","null","","<div class='trialBorder'><div class='vertical-center'><img class='stimimg' src='img/faces/mb062.jpg'></div></div>","null","mb062.jpg","b"
"","","","FIX","testing","au_rrmt_pt1","Tue Mar 08 2022 17:35:31 GMT-0500 (Eastern Standard Time)","108346","83495739","html-keyboard-response","27","35119","0.0-5.0-1.11","","null","","<div class='trialBorder'><div class='vertical-center'><img style='vertical-align:center; align:center' src=img/fixation3.jpg></div></div>","null","",""
"","","","encode","testing","au_rrmt_pt1","Tue Mar 08 2022 17:35:31 GMT-0500 (Eastern Standard Time)","108346","83495739","html-keyboard-response","28","37124","0.0-5.0-2.11","","null","","<div class='trialBorder'><div class='vertical-center'><img class='stimimg' src='img/faces/mb037.jpg'></div></div>","null","mb037.jpg","b"
"","","","FIX","testing","au_rrmt_pt1","Tue Mar 08 2022 17:35:31 GMT-0500 (Eastern Standard Time)","108346","83495739","html-keyboard-response","29","37629","0.0-5.0-1.12","","null","","<div class='trialBorder'><div class='vertical-center'><img style='vertical-align:center; align:center' src=img/fixation3.jpg></div></div>","null","",""
"","","","encode","testing","au_rrmt_pt1","Tue Mar 08 2022 17:35:31 GMT-0500 (Eastern Standard Time)","108346","83495739","html-keyboard-response","30","39632","0.0-5.0-2.12","","null","","<div class='trialBorder'><div class='vertical-center'><img class='stimimg' src='img/faces/mw006.jpg'></div></div>","null","mw006.jpg","w"
"","","","FIX","testing","au_rrmt_pt1","Tue Mar 08 2022 17:35:31 GMT-0500 (Eastern Standard Time)","108346","83495739","html-keyboard-response","31","40135","0.0-5.0-1.13","","null","","<div class='trialBorder'><div class='vertical-center'><img style='vertical-align:center; align:center' src=img/fixation3.jpg></div></div>","null","",""
"","","","encode","testing","au_rrmt_pt1","Tue Mar 08 2022 17:35:31 GMT-0500 (Eastern Standard Time)","108346","83495739","html-keyboard-response","32","42136","0.0-5.0-2.13","","null","","<div class='trialBorder'><div class='vertical-center'><img class='stimimg' src='img/faces/mw024.jpg'></div></div>","null","mw024.jpg","w"
"","","","FIX","testing","au_rrmt_pt1","Tue Mar 08 2022 17:35:31 GMT-0500 (Eastern Standard Time)","108346","83495739","html-keyboard-response","33","42640","0.0-5.0-1.14","","null","","<div class='trialBorder'><div class='vertical-center'><img style='vertical-align:center; align:center' src=img/fixation3.jpg></div></div>","null","",""
"","","","encode","testing","au_rrmt_pt1","Tue Mar 08 2022 17:35:31 GMT-0500 (Eastern Standard Time)","108346","83495739","html-keyboard-response","34","44645","0.0-5.0-2.14","","null","","<div class='trialBorder'><div class='vertical-center'><img class='stimimg' src='img/faces/mw099.jpg'></div></div>","null","mw099.jpg","w"
"","","","FIX","testing","au_rrmt_pt1","Tue Mar 08 2022 17:35:31 GMT-0500 (Eastern Standard Time)","108346","83495739","html-keyboard-response","35","45148","0.0-5.0-1.15","","null","","<div class='trialBorder'><div class='vertical-center'><img style='vertical-align:center; align:center' src=img/fixation3.jpg></div></div>","null","",""
"","","","encode","testing","au_rrmt_pt1","Tue Mar 08 2022 17:35:31 GMT-0500 (Eastern Standard Time)","108346","83495739","html-keyboard-response","36","47152","0.0-5.0-2.15","","null","","<div class='trialBorder'><div class='vertical-center'><img class='stimimg' src='img/faces/mb045.jpg'></div></div>","null","mb045.jpg","b"
"","","","FIX","testing","au_rrmt_pt1","Tue Mar 08 2022 17:35:31 GMT-0500 (Eastern Standard Time)","108346","83495739","html-keyboard-response","37","47656","0.0-5.0-1.16","","null","","<div class='trialBorder'><div class='vertical-center'><img style='vertical-align:center; align:center' src=img/fixation3.jpg></div></div>","null","",""
"","","","encode","testing","au_rrmt_pt1","Tue Mar 08 2022 17:35:31 GMT-0500 (Eastern Standard Time)","108346","83495739","html-keyboard-response","38","49658","0.0-5.0-2.16","","null","","<div class='trialBorder'><div class='vertical-center'><img class='stimimg' src='img/faces/mb025.jpg'></div></div>","null","mb025.jpg","b"
"","","","FIX","testing","au_rrmt_pt1","Tue Mar 08 2022 17:35:31 GMT-0500 (Eastern Standard Time)","108346","83495739","html-keyboard-response","39","50164","0.0-5.0-1.17","","null","","<div class='trialBorder'><div class='vertical-center'><img style='vertical-align:center; align:center' src=img/fixation3.jpg></div></div>","null","",""
"","","","encode","testing","au_rrmt_pt1","Tue Mar 08 2022 17:35:31 GMT-0500 (Eastern Standard Time)","108346","83495739","html-keyboard-response","40","52168","0.0-5.0-2.17","","null","","<div class='trialBorder'><div class='vertical-center'><img class='stimimg' src='img/faces/mb058.jpg'></div></div>","null","mb058.jpg","b"
"","","","FIX","testing","au_rrmt_pt1","Tue Mar 08 2022 17:35:31 GMT-0500 (Eastern Standard Time)","108346","83495739","html-keyboard-response","41","52673","0.0-5.0-1.18","","null","","<div class='trialBorder'><div class='vertical-center'><img style='vertical-align:center; align:center' src=img/fixation3.jpg></div></div>","null","",""
"","","","encode","testing","au_rrmt_pt1","Tue Mar 08 2022 17:35:31 GMT-0500 (Eastern Standard Time)","108346","83495739","html-keyboard-response","42","54678","0.0-5.0-2.18","","null","","<div class='trialBorder'><div class='vertical-center'><img class='stimimg' src='img/faces/mb017.jpg'></div></div>","null","mb017.jpg","b"
"","","","FIX","testing","au_rrmt_pt1","Tue Mar 08 2022 17:35:31 GMT-0500 (Eastern Standard Time)","108346","83495739","html-keyboard-response","43","55183","0.0-5.0-1.19","","null","","<div class='trialBorder'><div class='vertical-center'><img style='vertical-align:center; align:center' src=img/fixation3.jpg></div></div>","null","",""
"","","","encode","testing","au_rrmt_pt1","Tue Mar 08 2022 17:35:31 GMT-0500 (Eastern Standard Time)","108346","83495739","html-keyboard-response","44","57185","0.0-5.0-2.19","","null","","<div class='trialBorder'><div class='vertical-center'><img class='stimimg' src='img/faces/mw065.jpg'></div></div>","null","mw065.jpg","w"
"","","","FIX","testing","au_rrmt_pt1","Tue Mar 08 2022 17:35:31 GMT-0500 (Eastern Standard Time)","108346","83495739","html-keyboard-response","45","57687","0.0-5.0-1.20","","null","","<div class='trialBorder'><div class='vertical-center'><img style='vertical-align:center; align:center' src=img/fixation3.jpg></div></div>","null","",""
"","","","encode","testing","au_rrmt_pt1","Tue Mar 08 2022 17:35:31 GMT-0500 (Eastern Standard Time)","108346","83495739","html-keyboard-response","46","59693","0.0-5.0-2.20","","null","","<div class='trialBorder'><div class='vertical-center'><img class='stimimg' src='img/faces/mw052.jpg'></div></div>","null","mw052.jpg","w"
"","","","FIX","testing","au_rrmt_pt1","Tue Mar 08 2022 17:35:31 GMT-0500 (Eastern Standard Time)","108346","83495739","html-keyboard-response","47","60198","0.0-5.0-1.21","","null","","<div class='trialBorder'><div class='vertical-center'><img style='vertical-align:center; align:center' src=img/fixation3.jpg></div></div>","null","",""
"","","","encode","testing","au_rrmt_pt1","Tue Mar 08 2022 17:35:31 GMT-0500 (Eastern Standard Time)","108346","83495739","html-keyboard-response","48","62200","0.0-5.0-2.21","","null","","<div class='trialBorder'><div class='vertical-center'><img class='stimimg' src='img/faces/mb072.jpg'></div></div>","null","mb072.jpg","b"
"","","","FIX","testing","au_rrmt_pt1","Tue Mar 08 2022 17:35:31 GMT-0500 (Eastern Standard Time)","108346","83495739","html-keyboard-response","49","62704","0.0-5.0-1.22","","null","","<div class='trialBorder'><div class='vertical-center'><img style='vertical-align:center; align:center' src=img/fixation3.jpg></div></div>","null","",""
"","","","encode","testing","au_rrmt_pt1","Tue Mar 08 2022 17:35:31 GMT-0500 (Eastern Standard Time)","108346","83495739","html-keyboard-response","50","64709","0.0-5.0-2.22","","null","","<div class='trialBorder'><div class='vertical-center'><img class='stimimg' src='img/faces/mw017.jpg'></div></div>","null","mw017.jpg","w"
"","","","FIX","testing","au_rrmt_pt1","Tue Mar 08 2022 17:35:31 GMT-0500 (Eastern Standard Time)","108346","83495739","html-keyboard-response","51","65213","0.0-5.0-1.23","","null","","<div class='trialBorder'><div class='vertical-center'><img style='vertical-align:center; align:center' src=img/fixation3.jpg></div></div>","null","",""
"","","","encode","testing","au_rrmt_pt1","Tue Mar 08 2022 17:35:31 GMT-0500 (Eastern Standard Time)","108346","83495739","html-keyboard-response","52","67217","0.0-5.0-2.23","","null","","<div class='trialBorder'><div class='vertical-center'><img class='stimimg' src='img/faces/mw098.jpg'></div></div>","null","mw098.jpg","w"
"","","","FIX","testing","au_rrmt_pt1","Tue Mar 08 2022 17:35:31 GMT-0500 (Eastern Standard Time)","108346","83495739","html-keyboard-response","53","67718","0.0-5.0-1.24","","null","","<div class='trialBorder'><div class='vertical-center'><img style='vertical-align:center; align:center' src=img/fixation3.jpg></div></div>","null","",""
"","","","encode","testing","au_rrmt_pt1","Tue Mar 08 2022 17:35:31 GMT-0500 (Eastern Standard Time)","108346","83495739","html-keyboard-response","54","69722","0.0-5.0-2.24","","null","","<div class='trialBorder'><div class='vertical-center'><img class='stimimg' src='img/faces/mb098.jpg'></div></div>","null","mb098.jpg","b"
"","","","FIX","testing","au_rrmt_pt1","Tue Mar 08 2022 17:35:31 GMT-0500 (Eastern Standard Time)","108346","83495739","html-keyboard-response","55","70225","0.0-5.0-1.25","","null","","<div class='trialBorder'><div class='vertical-center'><img style='vertical-align:center; align:center' src=img/fixation3.jpg></div></div>","null","",""
"","","","encode","testing","au_rrmt_pt1","Tue Mar 08 2022 17:35:31 GMT-0500 (Eastern Standard Time)","108346","83495739","html-keyboard-response","56","72226","0.0-5.0-2.25","","null","","<div class='trialBorder'><div class='vertical-center'><img class='stimimg' src='img/faces/mb018.jpg'></div></div>","null","mb018.jpg","b"
"","","","FIX","testing","au_rrmt_pt1","Tue Mar 08 2022 17:35:31 GMT-0500 (Eastern Standard Time)","108346","83495739","html-keyboard-response","57","72728","0.0-5.0-1.26","","null","","<div class='trialBorder'><div class='vertical-center'><img style='vertical-align:center; align:center' src=img/fixation3.jpg></div></div>","null","",""
"","","","encode","testing","au_rrmt_pt1","Tue Mar 08 2022 17:35:31 GMT-0500 (Eastern Standard Time)","108346","83495739","html-keyboard-response","58","74734","0.0-5.0-2.26","","null","","<div class='trialBorder'><div class='vertical-center'><img class='stimimg' src='img/faces/mb081.jpg'></div></div>","null","mb081.jpg","b"
"","","","FIX","testing","au_rrmt_pt1","Tue Mar 08 2022 17:35:31 GMT-0500 (Eastern Standard Time)","108346","83495739","html-keyboard-response","59","75240","0.0-5.0-1.27","","null","","<div class='trialBorder'><div class='vertical-center'><img style='vertical-align:center; align:center' src=img/fixation3.jpg></div></div>","null","",""
"","","","encode","testing","au_rrmt_pt1","Tue Mar 08 2022 17:35:31 GMT-0500 (Eastern Standard Time)","108346","83495739","html-keyboard-response","60","77241","0.0-5.0-2.27","","null","","<div class='trialBorder'><div class='vertical-center'><img class='stimimg' src='img/faces/mb067.jpg'></div></div>","null","mb067.jpg","b"
"","","","FIX","testing","au_rrmt_pt1","Tue Mar 08 2022 17:35:31 GMT-0500 (Eastern Standard Time)","108346","83495739","html-keyboard-response","61","77745","0.0-5.0-1.28","","null","","<div class='trialBorder'><div class='vertical-center'><img style='vertical-align:center; align:center' src=img/fixation3.jpg></div></div>","null","",""
"","","","encode","testing","au_rrmt_pt1","Tue Mar 08 2022 17:35:31 GMT-0500 (Eastern Standard Time)","108346","83495739","html-keyboard-response","62","79751","0.0-5.0-2.28","","null","","<div class='trialBorder'><div class='vertical-center'><img class='stimimg' src='img/faces/mb066.jpg'></div></div>","null","mb066.jpg","b"
"","","","FIX","testing","au_rrmt_pt1","Tue Mar 08 2022 17:35:31 GMT-0500 (Eastern Standard Time)","108346","83495739","html-keyboard-response","63","80254","0.0-5.0-1.29","","null","","<div class='trialBorder'><div class='vertical-center'><img style='vertical-align:center; align:center' src=img/fixation3.jpg></div></div>","null","",""
"","","","encode","testing","au_rrmt_pt1","Tue Mar 08 2022 17:35:31 GMT-0500 (Eastern Standard Time)","108346","83495739","html-keyboard-response","64","82260","0.0-5.0-2.29","","null","","<div class='trialBorder'><div class='vertical-center'><img class='stimimg' src='img/faces/mb070.jpg'></div></div>","null","mb070.jpg","b"
"","","","FIX","testing","au_rrmt_pt1","Tue Mar 08 2022 17:35:31 GMT-0500 (Eastern Standard Time)","108346","83495739","html-keyboard-response","65","82763","0.0-5.0-1.30","","null","","<div class='trialBorder'><div class='vertical-center'><img style='vertical-align:center; align:center' src=img/fixation3.jpg></div></div>","null","",""
"","","","encode","testing","au_rrmt_pt1","Tue Mar 08 2022 17:35:31 GMT-0500 (Eastern Standard Time)","108346","83495739","html-keyboard-response","66","84769","0.0-5.0-2.30","","null","","<div class='trialBorder'><div class='vertical-center'><img class='stimimg' src='img/faces/mb009.jpg'></div></div>","null","mb009.jpg","b"
"","","","FIX","testing","au_rrmt_pt1","Tue Mar 08 2022 17:35:31 GMT-0500 (Eastern Standard Time)","108346","83495739","html-keyboard-response","67","85271","0.0-5.0-1.31","","null","","<div class='trialBorder'><div class='vertical-center'><img style='vertical-align:center; align:center' src=img/fixation3.jpg></div></div>","null","",""
"","","","encode","testing","au_rrmt_pt1","Tue Mar 08 2022 17:35:31 GMT-0500 (Eastern Standard Time)","108346","83495739","html-keyboard-response","68","87277","0.0-5.0-2.31","","null","","<div class='trialBorder'><div class='vertical-center'><img class='stimimg' src='img/faces/mb095.jpg'></div></div>","null","mb095.jpg","b"
"","","","FIX","testing","au_rrmt_pt1","Tue Mar 08 2022 17:35:31 GMT-0500 (Eastern Standard Time)","108346","83495739","html-keyboard-response","69","87779","0.0-5.0-1.32","","null","","<div class='trialBorder'><div class='vertical-center'><img style='vertical-align:center; align:center' src=img/fixation3.jpg></div></div>","null","",""
"","","","encode","testing","au_rrmt_pt1","Tue Mar 08 2022 17:35:31 GMT-0500 (Eastern Standard Time)","108346","83495739","html-keyboard-response","70","89785","0.0-5.0-2.32","","null","","<div class='trialBorder'><div class='vertical-center'><img class='stimimg' src='img/faces/mw016.jpg'></div></div>","null","mw016.jpg","w"
"","","","FIX","testing","au_rrmt_pt1","Tue Mar 08 2022 17:35:31 GMT-0500 (Eastern Standard Time)","108346","83495739","html-keyboard-response","71","90288","0.0-5.0-1.33","","null","","<div class='trialBorder'><div class='vertical-center'><img style='vertical-align:center; align:center' src=img/fixation3.jpg></div></div>","null","",""
"","","","encode","testing","au_rrmt_pt1","Tue Mar 08 2022 17:35:31 GMT-0500 (Eastern Standard Time)","108346","83495739","html-keyboard-response","72","92293","0.0-5.0-2.33","","null","","<div class='trialBorder'><div class='vertical-center'><img class='stimimg' src='img/faces/mw076.jpg'></div></div>","null","mw076.jpg","w"
"","","","FIX","testing","au_rrmt_pt1","Tue Mar 08 2022 17:35:31 GMT-0500 (Eastern Standard Time)","108346","83495739","html-keyboard-response","73","92798","0.0-5.0-1.34","","null","","<div class='trialBorder'><div class='vertical-center'><img style='vertical-align:center; align:center' src=img/fixation3.jpg></div></div>","null","",""
"","","","encode","testing","au_rrmt_pt1","Tue Mar 08 2022 17:35:31 GMT-0500 (Eastern Standard Time)","108346","83495739","html-keyboard-response","74","94803","0.0-5.0-2.34","","null","","<div class='trialBorder'><div class='vertical-center'><img class='stimimg' src='img/faces/mb019.jpg'></div></div>","null","mb019.jpg","b"
"","","","FIX","testing","au_rrmt_pt1","Tue Mar 08 2022 17:35:31 GMT-0500 (Eastern Standard Time)","108346","83495739","html-keyboard-response","75","95309","0.0-5.0-1.35","","null","","<div class='trialBorder'><div class='vertical-center'><img style='vertical-align:center; align:center' src=img/fixation3.jpg></div></div>","null","",""
"","","","encode","testing","au_rrmt_pt1","Tue Mar 08 2022 17:35:31 GMT-0500 (Eastern Standard Time)","108346","83495739","html-keyboard-response","76","97316","0.0-5.0-2.35","","null","","<div class='trialBorder'><div class='vertical-center'><img class='stimimg' src='img/faces/mw091.jpg'></div></div>","null","mw091.jpg","w"
"","","","FIX","testing","au_rrmt_pt1","Tue Mar 08 2022 17:35:31 GMT-0500 (Eastern Standard Time)","108346","83495739","html-keyboard-response","77","97819","0.0-5.0-1.36","","null","","<div class='trialBorder'><div class='vertical-center'><img style='vertical-align:center; align:center' src=img/fixation3.jpg></div></div>","null","",""
"","","","encode","testing","au_rrmt_pt1","Tue Mar 08 2022 17:35:31 GMT-0500 (Eastern Standard Time)","108346","83495739","html-keyboard-response","78","99821","0.0-5.0-2.36","","null","","<div class='trialBorder'><div class='vertical-center'><img class='stimimg' src='img/faces/mw004.jpg'></div></div>","null","mw004.jpg","w"
"","","","FIX","testing","au_rrmt_pt1","Tue Mar 08 2022 17:35:31 GMT-0500 (Eastern Standard Time)","108346","83495739","html-keyboard-response","79","100324","0.0-5.0-1.37","","null","","<div class='trialBorder'><div class='vertical-center'><img style='vertical-align:center; align:center' src=img/fixation3.jpg></div></div>","null","",""
"","","","encode","testing","au_rrmt_pt1","Tue Mar 08 2022 17:35:31 GMT-0500 (Eastern Standard Time)","108346","83495739","html-keyboard-response","80","102328","0.0-5.0-2.37","","null","","<div class='trialBorder'><div class='vertical-center'><img class='stimimg' src='img/faces/mw089.jpg'></div></div>","null","mw089.jpg","w"
"","","","FIX","testing","au_rrmt_pt1","Tue Mar 08 2022 17:35:31 GMT-0500 (Eastern Standard Time)","108346","83495739","html-keyboard-response","81","102833","0.0-5.0-1.38","","null","","<div class='trialBorder'><div class='vertical-center'><img style='vertical-align:center; align:center' src=img/fixation3.jpg></div></div>","null","",""
"","","","encode","testing","au_rrmt_pt1","Tue Mar 08 2022 17:35:31 GMT-0500 (Eastern Standard Time)","108346","83495739","html-keyboard-response","82","104834","0.0-5.0-2.38","","null","","<div class='trialBorder'><div class='vertical-center'><img class='stimimg' src='img/faces/mw002.jpg'></div></div>","null","mw002.jpg","w"
"","","","FIX","testing","au_rrmt_pt1","Tue Mar 08 2022 17:35:31 GMT-0500 (Eastern Standard Time)","108346","83495739","html-keyboard-response","83","105338","0.0-5.0-1.39","","null","","<div class='trialBorder'><div class='vertical-center'><img style='vertical-align:center; align:center' src=img/fixation3.jpg></div></div>","null","",""
"","","","encode","testing","au_rrmt_pt1","Tue Mar 08 2022 17:35:31 GMT-0500 (Eastern Standard Time)","108346","83495739","html-keyboard-response","84","107341","0.0-5.0-2.39","","null","","<div class='trialBorder'><div class='vertical-center'><img class='stimimg' src='img/faces/mb069.jpg'></div></div>","null","mb069.jpg","b"
"","","","","testing","au_rrmt_pt1","Tue Mar 08 2022 17:35:31 GMT-0500 (Eastern Standard Time)","108346","83495739","fullscreen","85","108346","0.0-6.0","","","true","","","",""
"","","","","","","","","","html-keyboard-response","86","108851","0.0-7.0","","null","","","null","",""
