"trial_type","trial_index","time_elapsed","internal_node_id","subject_id","task","startTime","totalTime","view_history","rt","event","trial","time","trialtype","success","stimulus","key_press","sureOffer","riskyOffer","riskyLeft","sureAmt","riskyAmt","chosen"
"pavlovia","0","2","0.0-0.0","5f2f86864fd821374b4367bc","bdp_rd","Mon Mar 27 2023 12:06:37 GMT-0700 (Pacific Daylight Time)","127047","","","","","","","","","","","","","","",""
"instructions","1","2266","0.0-1.0","5f2f86864fd821374b4367bc","bdp_rd","Mon Mar 27 2023 12:06:37 GMT-0700 (Pacific Daylight Time)","127047","[{""page_index"":0,""viewing_time"":2264}]","2264","","","","","","","","","","","","",""
"","","","","5f2f86864fd821374b4367bc","bdp_rd","Mon Mar 27 2023 12:06:37 GMT-0700 (Pacific Daylight Time)","127047","","","fullscreenenter","2","7611","fullscreenenter","","","","","","","","",""
"fullscreen","2","8599","0.0-2.0","5f2f86864fd821374b4367bc","bdp_rd","Mon Mar 27 2023 12:06:37 GMT-0700 (Pacific Daylight Time)","127047","","","","","","","true","","","","","","","",""
"","","","","5f2f86864fd821374b4367bc","bdp_rd","Mon Mar 27 2023 12:06:37 GMT-0700 (Pacific Daylight Time)","127047","","","fullscreenexit","3","8608","fullscreenexit","","","","","","","","",""
"instructions","3","23126","0.0-4.0","5f2f86864fd821374b4367bc","bdp_rd","Mon Mar 27 2023 12:06:37 GMT-0700 (Pacific Daylight Time)","127047","[{""page_index"":0,""viewing_time"":5497},{""page_index"":1,""viewing_time"":4583},{""page_index"":2,""viewing_time"":4446}]","14526","","","","","","","","","","","","",""
"html-keyboard-response","4","23628","0.0-5.0-1.0","5f2f86864fd821374b4367bc","bdp_rd","Mon Mar 27 2023 12:06:37 GMT-0700 (Pacific Daylight Time)","127047","","null","","","","FIX","","<div class='trialBorder'><div class='vertical-center'><img style='vertical-align:center; align:center' src=img/fixation3.jpg></div></div>","null","","","","","",""
"html-keyboard-response","5","27129","0.0-5.0-2.0","5f2f86864fd821374b4367bc","bdp_rd","Mon Mar 27 2023 12:06:37 GMT-0700 (Pacific Daylight Time)","127047","","3499","","","","offer","","<div class='trialBorder'><div class='vertical-center'><img style='vertical-align:center; align:center' src=img/fixation3.jpg></div><div class='cl'><div class='vertical-center'>$24<br>with a<br>50% chance</div></div><div class='cr'><div class='vertical-center'>$13<br>for<br>sure</div></div><div class='respDivL'><div class='vertical-center'>(E)</div></div><div class='respDivR'><div class='vertical-center'>(I)</div></div></div>","I","$13","$24","1","13","24","SURE"
"html-keyboard-response","6","27382","0.0-5.0-3.0","5f2f86864fd821374b4367bc","bdp_rd","Mon Mar 27 2023 12:06:37 GMT-0700 (Pacific Daylight Time)","127047","","null","","","","offerFB","","<div class='trialBorder'><div class='vertical-center'><img style='vertical-align:center; align:center' src=img/fixation3.jpg></div><div class='cl'><div class='vertical-center'>$24<br>with a<br>50% chance</div></div><div class='cr'><div class='vertical-center'><font style='color:orange'>$13<br>for<br>sure</font></div></div><div class='respDivL'><div class='vertical-center'>(E)</div></div><div class='respDivR'><div class='vertical-center'><font style='color:orange'>(I)</font></div></div></div>","null","$13","$24","1","13","24",""
"html-keyboard-response","7","27884","0.0-5.0-1.1","5f2f86864fd821374b4367bc","bdp_rd","Mon Mar 27 2023 12:06:37 GMT-0700 (Pacific Daylight Time)","127047","","null","","","","FIX","","<div class='trialBorder'><div class='vertical-center'><img style='vertical-align:center; align:center' src=img/fixation3.jpg></div></div>","null","","","","","",""
"html-keyboard-response","8","29024","0.0-5.0-2.1","5f2f86864fd821374b4367bc","bdp_rd","Mon Mar 27 2023 12:06:37 GMT-0700 (Pacific Daylight Time)","127047","","1140","","","","offer","","<div class='trialBorder'><div class='vertical-center'><img style='vertical-align:center; align:center' src=img/fixation3.jpg></div><div class='cl'><div class='vertical-center'>$59<br>with a<br>50% chance</div></div><div class='cr'><div class='vertical-center'>$22<br>for<br>sure</div></div><div class='respDivL'><div class='vertical-center'>(E)</div></div><div class='respDivR'><div class='vertical-center'>(I)</div></div></div>","I","$22","$59","1","22","59","SURE"
"html-keyboard-response","9","29276","0.0-5.0-3.1","5f2f86864fd821374b4367bc","bdp_rd","Mon Mar 27 2023 12:06:37 GMT-0700 (Pacific Daylight Time)","127047","","null","","","","offerFB","","<div class='trialBorder'><div class='vertical-center'><img style='vertical-align:center; align:center' src=img/fixation3.jpg></div><div class='cl'><div class='vertical-center'>$59<br>with a<br>50% chance</div></div><div class='cr'><div class='vertical-center'><font style='color:orange'>$22<br>for<br>sure</font></div></div><div class='respDivL'><div class='vertical-center'>(E)</div></div><div class='respDivR'><div class='vertical-center'><font style='color:orange'>(I)</font></div></div></div>","null","$22","$59","1","22","59",""
"html-keyboard-response","10","29777","0.0-5.0-1.2","5f2f86864fd821374b4367bc","bdp_rd","Mon Mar 27 2023 12:06:37 GMT-0700 (Pacific Daylight Time)","127047","","null","","","","FIX","","<div class='trialBorder'><div class='vertical-center'><img style='vertical-align:center; align:center' src=img/fixation3.jpg></div></div>","null","","","","","",""
"html-keyboard-response","11","31551","0.0-5.0-2.2","5f2f86864fd821374b4367bc","bdp_rd","Mon Mar 27 2023 12:06:37 GMT-0700 (Pacific Daylight Time)","127047","","1772","","","","offer","","<div class='trialBorder'><div class='vertical-center'><img style='vertical-align:center; align:center' src=img/fixation3.jpg></div><div class='cl'><div class='vertical-center'>$15<br>for<br>sure</div></div><div class='cr'><div class='vertical-center'>$31<br>with a<br>50% chance</div></div><div class='respDivL'><div class='vertical-center'>(E)</div></div><div class='respDivR'><div class='vertical-center'>(I)</div></div></div>","E","$15","$31","0","15","31","SURE"
"html-keyboard-response","12","31802","0.0-5.0-3.2","5f2f86864fd821374b4367bc","bdp_rd","Mon Mar 27 2023 12:06:37 GMT-0700 (Pacific Daylight Time)","127047","","null","","","","offerFB","","<div class='trialBorder'><div class='vertical-center'><img style='vertical-align:center; align:center' src=img/fixation3.jpg></div><div class='cl'><div class='vertical-center'><font style='color:orange'>$15<br>for<br>sure</font></div></div><div class='cr'><div class='vertical-center'>$31<br>with a<br>50% chance</div></div><div class='respDivL'><div class='vertical-center'><font style='color:orange'>(E)</font></div></div><div class='respDivR'><div class='vertical-center'>(I)</div></div></div>","null","$15","$31","0","15","31",""
"html-keyboard-response","13","32304","0.0-5.0-1.3","5f2f86864fd821374b4367bc","bdp_rd","Mon Mar 27 2023 12:06:37 GMT-0700 (Pacific Daylight Time)","127047","","null","","","","FIX","","<div class='trialBorder'><div class='vertical-center'><img style='vertical-align:center; align:center' src=img/fixation3.jpg></div></div>","null","","","","","",""
"html-keyboard-response","14","33563","0.0-5.0-2.3","5f2f86864fd821374b4367bc","bdp_rd","Mon Mar 27 2023 12:06:37 GMT-0700 (Pacific Daylight Time)","127047","","1256","","","","offer","","<div class='trialBorder'><div class='vertical-center'><img style='vertical-align:center; align:center' src=img/fixation3.jpg></div><div class='cl'><div class='vertical-center'>$64<br>with a<br>50% chance</div></div><div class='cr'><div class='vertical-center'>$2<br>for<br>sure</div></div><div class='respDivL'><div class='vertical-center'>(E)</div></div><div class='respDivR'><div class='vertical-center'>(I)</div></div></div>","I","$2","$64","1","2","64","SURE"
"html-keyboard-response","15","33815","0.0-5.0-3.3","5f2f86864fd821374b4367bc","bdp_rd","Mon Mar 27 2023 12:06:37 GMT-0700 (Pacific Daylight Time)","127047","","null","","","","offerFB","","<div class='trialBorder'><div class='vertical-center'><img style='vertical-align:center; align:center' src=img/fixation3.jpg></div><div class='cl'><div class='vertical-center'>$64<br>with a<br>50% chance</div></div><div class='cr'><div class='vertical-center'><font style='color:orange'>$2<br>for<br>sure</font></div></div><div class='respDivL'><div class='vertical-center'>(E)</div></div><div class='respDivR'><div class='vertical-center'><font style='color:orange'>(I)</font></div></div></div>","null","$2","$64","1","2","64",""
"html-keyboard-response","16","34317","0.0-5.0-1.4","5f2f86864fd821374b4367bc","bdp_rd","Mon Mar 27 2023 12:06:37 GMT-0700 (Pacific Daylight Time)","127047","","null","","","","FIX","","<div class='trialBorder'><div class='vertical-center'><img style='vertical-align:center; align:center' src=img/fixation3.jpg></div></div>","null","","","","","",""
"html-keyboard-response","17","35976","0.0-5.0-2.4","5f2f86864fd821374b4367bc","bdp_rd","Mon Mar 27 2023 12:06:37 GMT-0700 (Pacific Daylight Time)","127047","","1657","","","","offer","","<div class='trialBorder'><div class='vertical-center'><img style='vertical-align:center; align:center' src=img/fixation3.jpg></div><div class='cl'><div class='vertical-center'>$63<br>for<br>sure</div></div><div class='cr'><div class='vertical-center'>$100<br>with a<br>50% chance</div></div><div class='respDivL'><div class='vertical-center'>(E)</div></div><div class='respDivR'><div class='vertical-center'>(I)</div></div></div>","E","$63","$100","0","63","10","SURE"
"html-keyboard-response","18","36228","0.0-5.0-3.4","5f2f86864fd821374b4367bc","bdp_rd","Mon Mar 27 2023 12:06:37 GMT-0700 (Pacific Daylight Time)","127047","","null","","","","offerFB","","<div class='trialBorder'><div class='vertical-center'><img style='vertical-align:center; align:center' src=img/fixation3.jpg></div><div class='cl'><div class='vertical-center'><font style='color:orange'>$63<br>for<br>sure</font></div></div><div class='cr'><div class='vertical-center'>$100<br>with a<br>50% chance</div></div><div class='respDivL'><div class='vertical-center'><font style='color:orange'>(E)</font></div></div><div class='respDivR'><div class='vertical-center'>(I)</div></div></div>","null","$63","$100","0","63","10",""
"html-keyboard-response","19","36731","0.0-5.0-1.5","5f2f86864fd821374b4367bc","bdp_rd","Mon Mar 27 2023 12:06:37 GMT-0700 (Pacific Daylight Time)","127047","","null","","","","FIX","","<div class='trialBorder'><div class='vertical-center'><img style='vertical-align:center; align:center' src=img/fixation3.jpg></div></div>","null","","","","","",""
"html-keyboard-response","20","37671","0.0-5.0-2.5","5f2f86864fd821374b4367bc","bdp_rd","Mon Mar 27 2023 12:06:37 GMT-0700 (Pacific Daylight Time)","127047","","939","","","","offer","","<div class='trialBorder'><div class='vertical-center'><img style='vertical-align:center; align:center' src=img/fixation3.jpg></div><div class='cl'><div class='vertical-center'>$30<br>for<br>sure</div></div><div class='cr'><div class='vertical-center'>$68<br>with a<br>50% chance</div></div><div class='respDivL'><div class='vertical-center'>(E)</div></div><div class='respDivR'><div class='vertical-center'>(I)</div></div></div>","E","$30","$68","0","30","68","SURE"
"html-keyboard-response","21","37923","0.0-5.0-3.5","5f2f86864fd821374b4367bc","bdp_rd","Mon Mar 27 2023 12:06:37 GMT-0700 (Pacific Daylight Time)","127047","","null","","","","offerFB","","<div class='trialBorder'><div class='vertical-center'><img style='vertical-align:center; align:center' src=img/fixation3.jpg></div><div class='cl'><div class='vertical-center'><font style='color:orange'>$30<br>for<br>sure</font></div></div><div class='cr'><div class='vertical-center'>$68<br>with a<br>50% chance</div></div><div class='respDivL'><div class='vertical-center'><font style='color:orange'>(E)</font></div></div><div class='respDivR'><div class='vertical-center'>(I)</div></div></div>","null","$30","$68","0","30","68",""
"html-keyboard-response","22","38424","0.0-5.0-1.6","5f2f86864fd821374b4367bc","bdp_rd","Mon Mar 27 2023 12:06:37 GMT-0700 (Pacific Daylight Time)","127047","","null","","","","FIX","","<div class='trialBorder'><div class='vertical-center'><img style='vertical-align:center; align:center' src=img/fixation3.jpg></div></div>","null","","","","","",""
"html-keyboard-response","23","39631","0.0-5.0-2.6","5f2f86864fd821374b4367bc","bdp_rd","Mon Mar 27 2023 12:06:37 GMT-0700 (Pacific Daylight Time)","127047","","1206","","","","offer","","<div class='trialBorder'><div class='vertical-center'><img style='vertical-align:center; align:center' src=img/fixation3.jpg></div><div class='cl'><div class='vertical-center'>$98<br>with a<br>50% chance</div></div><div class='cr'><div class='vertical-center'>$53<br>for<br>sure</div></div><div class='respDivL'><div class='vertical-center'>(E)</div></div><div class='respDivR'><div class='vertical-center'>(I)</div></div></div>","I","$53","$98","1","53","98","SURE"
"html-keyboard-response","24","39883","0.0-5.0-3.6","5f2f86864fd821374b4367bc","bdp_rd","Mon Mar 27 2023 12:06:37 GMT-0700 (Pacific Daylight Time)","127047","","null","","","","offerFB","","<div class='trialBorder'><div class='vertical-center'><img style='vertical-align:center; align:center' src=img/fixation3.jpg></div><div class='cl'><div class='vertical-center'>$98<br>with a<br>50% chance</div></div><div class='cr'><div class='vertical-center'><font style='color:orange'>$53<br>for<br>sure</font></div></div><div class='respDivL'><div class='vertical-center'>(E)</div></div><div class='respDivR'><div class='vertical-center'><font style='color:orange'>(I)</font></div></div></div>","null","$53","$98","1","53","98",""
"html-keyboard-response","25","40384","0.0-5.0-1.7","5f2f86864fd821374b4367bc","bdp_rd","Mon Mar 27 2023 12:06:37 GMT-0700 (Pacific Daylight Time)","127047","","null","","","","FIX","","<div class='trialBorder'><div class='vertical-center'><img style='vertical-align:center; align:center' src=img/fixation3.jpg></div></div>","null","","","","","",""
"html-keyboard-response","26","41568","0.0-5.0-2.7","5f2f86864fd821374b4367bc","bdp_rd","Mon Mar 27 2023 12:06:37 GMT-0700 (Pacific Daylight Time)","127047","","1183","","","","offer","","<div class='trialBorder'><div class='vertical-center'><img style='vertical-align:center; align:center' src=img/fixation3.jpg></div><div class='cl'><div class='vertical-center'>$80<br>with a<br>50% chance</div></div><div class='cr'><div class='vertical-center'>$20<br>for<br>sure</div></div><div class='respDivL'><div class='vertical-center'>(E)</div></div><div class='respDivR'><div class='vertical-center'>(I)</div></div></div>","I","$20","$80","1","20","80","SURE"
"html-keyboard-response","27","41820","0.0-5.0-3.7","5f2f86864fd821374b4367bc","bdp_rd","Mon Mar 27 2023 12:06:37 GMT-0700 (Pacific Daylight Time)","127047","","null","","","","offerFB","","<div class='trialBorder'><div class='vertical-center'><img style='vertical-align:center; align:center' src=img/fixation3.jpg></div><div class='cl'><div class='vertical-center'>$80<br>with a<br>50% chance</div></div><div class='cr'><div class='vertical-center'><font style='color:orange'>$20<br>for<br>sure</font></div></div><div class='respDivL'><div class='vertical-center'>(E)</div></div><div class='respDivR'><div class='vertical-center'><font style='color:orange'>(I)</font></div></div></div>","null","$20","$80","1","20","80",""
"html-keyboard-response","28","42322","0.0-5.0-1.8","5f2f86864fd821374b4367bc","bdp_rd","Mon Mar 27 2023 12:06:37 GMT-0700 (Pacific Daylight Time)","127047","","null","","","","FIX","","<div class='trialBorder'><div class='vertical-center'><img style='vertical-align:center; align:center' src=img/fixation3.jpg></div></div>","null","","","","","",""
"html-keyboard-response","29","43240","0.0-5.0-2.8","5f2f86864fd821374b4367bc","bdp_rd","Mon Mar 27 2023 12:06:37 GMT-0700 (Pacific Daylight Time)","127047","","918","","","","offer","","<div class='trialBorder'><div class='vertical-center'><img style='vertical-align:center; align:center' src=img/fixation3.jpg></div><div class='cl'><div class='vertical-center'>$62<br>with a<br>50% chance</div></div><div class='cr'><div class='vertical-center'>$11<br>for<br>sure</div></div><div class='respDivL'><div class='vertical-center'>(E)</div></div><div class='respDivR'><div class='vertical-center'>(I)</div></div></div>","I","$11","$62","1","11","62","SURE"
"html-keyboard-response","30","43493","0.0-5.0-3.8","5f2f86864fd821374b4367bc","bdp_rd","Mon Mar 27 2023 12:06:37 GMT-0700 (Pacific Daylight Time)","127047","","null","","","","offerFB","","<div class='trialBorder'><div class='vertical-center'><img style='vertical-align:center; align:center' src=img/fixation3.jpg></div><div class='cl'><div class='vertical-center'>$62<br>with a<br>50% chance</div></div><div class='cr'><div class='vertical-center'><font style='color:orange'>$11<br>for<br>sure</font></div></div><div class='respDivL'><div class='vertical-center'>(E)</div></div><div class='respDivR'><div class='vertical-center'><font style='color:orange'>(I)</font></div></div></div>","null","$11","$62","1","11","62",""
"html-keyboard-response","31","43995","0.0-5.0-1.9","5f2f86864fd821374b4367bc","bdp_rd","Mon Mar 27 2023 12:06:37 GMT-0700 (Pacific Daylight Time)","127047","","null","","","","FIX","","<div class='trialBorder'><div class='vertical-center'><img style='vertical-align:center; align:center' src=img/fixation3.jpg></div></div>","null","","","","","",""
"html-keyboard-response","32","45192","0.0-5.0-2.9","5f2f86864fd821374b4367bc","bdp_rd","Mon Mar 27 2023 12:06:37 GMT-0700 (Pacific Daylight Time)","127047","","1197","","","","offer","","<div class='trialBorder'><div class='vertical-center'><img style='vertical-align:center; align:center' src=img/fixation3.jpg></div><div class='cl'><div class='vertical-center'>$12<br>for<br>sure</div></div><div class='cr'><div class='vertical-center'>$27<br>with a<br>50% chance</div></div><div class='respDivL'><div class='vertical-center'>(E)</div></div><div class='respDivR'><div class='vertical-center'>(I)</div></div></div>","E","$12","$27","0","12","27","SURE"
"html-keyboard-response","33","45444","0.0-5.0-3.9","5f2f86864fd821374b4367bc","bdp_rd","Mon Mar 27 2023 12:06:37 GMT-0700 (Pacific Daylight Time)","127047","","null","","","","offerFB","","<div class='trialBorder'><div class='vertical-center'><img style='vertical-align:center; align:center' src=img/fixation3.jpg></div><div class='cl'><div class='vertical-center'><font style='color:orange'>$12<br>for<br>sure</font></div></div><div class='cr'><div class='vertical-center'>$27<br>with a<br>50% chance</div></div><div class='respDivL'><div class='vertical-center'><font style='color:orange'>(E)</font></div></div><div class='respDivR'><div class='vertical-center'>(I)</div></div></div>","null","$12","$27","0","12","27",""
"html-keyboard-response","34","45945","0.0-5.0-1.10","5f2f86864fd821374b4367bc","bdp_rd","Mon Mar 27 2023 12:06:37 GMT-0700 (Pacific Daylight Time)","127047","","null","","","","FIX","","<div class='trialBorder'><div class='vertical-center'><img style='vertical-align:center; align:center' src=img/fixation3.jpg></div></div>","null","","","","","",""
"html-keyboard-response","35","46959","0.0-5.0-2.10","5f2f86864fd821374b4367bc","bdp_rd","Mon Mar 27 2023 12:06:37 GMT-0700 (Pacific Daylight Time)","127047","","1013","","","","offer","","<div class='trialBorder'><div class='vertical-center'><img style='vertical-align:center; align:center' src=img/fixation3.jpg></div><div class='cl'><div class='vertical-center'>$40<br>for<br>sure</div></div><div class='cr'><div class='vertical-center'>$95<br>with a<br>50% chance</div></div><div class='respDivL'><div class='vertical-center'>(E)</div></div><div class='respDivR'><div class='vertical-center'>(I)</div></div></div>","E","$40","$95","0","40","95","SURE"
"html-keyboard-response","36","47211","0.0-5.0-3.10","5f2f86864fd821374b4367bc","bdp_rd","Mon Mar 27 2023 12:06:37 GMT-0700 (Pacific Daylight Time)","127047","","null","","","","offerFB","","<div class='trialBorder'><div class='vertical-center'><img style='vertical-align:center; align:center' src=img/fixation3.jpg></div><div class='cl'><div class='vertical-center'><font style='color:orange'>$40<br>for<br>sure</font></div></div><div class='cr'><div class='vertical-center'>$95<br>with a<br>50% chance</div></div><div class='respDivL'><div class='vertical-center'><font style='color:orange'>(E)</font></div></div><div class='respDivR'><div class='vertical-center'>(I)</div></div></div>","null","$40","$95","0","40","95",""
"html-keyboard-response","37","47712","0.0-5.0-1.11","5f2f86864fd821374b4367bc","bdp_rd","Mon Mar 27 2023 12:06:37 GMT-0700 (Pacific Daylight Time)","127047","","null","","","","FIX","","<div class='trialBorder'><div class='vertical-center'><img style='vertical-align:center; align:center' src=img/fixation3.jpg></div></div>","null","","","","","",""
"html-keyboard-response","38","48440","0.0-5.0-2.11","5f2f86864fd821374b4367bc","bdp_rd","Mon Mar 27 2023 12:06:37 GMT-0700 (Pacific Daylight Time)","127047","","726","","","","offer","","<div class='trialBorder'><div class='vertical-center'><img style='vertical-align:center; align:center' src=img/fixation3.jpg></div><div class='cl'><div class='vertical-center'>$16<br>with a<br>50% chance</div></div><div class='cr'><div class='vertical-center'>$5<br>for<br>sure</div></div><div class='respDivL'><div class='vertical-center'>(E)</div></div><div class='respDivR'><div class='vertical-center'>(I)</div></div></div>","I","$5","$16","1","5","16","SURE"
"html-keyboard-response","39","48692","0.0-5.0-3.11","5f2f86864fd821374b4367bc","bdp_rd","Mon Mar 27 2023 12:06:37 GMT-0700 (Pacific Daylight Time)","127047","","null","","","","offerFB","","<div class='trialBorder'><div class='vertical-center'><img style='vertical-align:center; align:center' src=img/fixation3.jpg></div><div class='cl'><div class='vertical-center'>$16<br>with a<br>50% chance</div></div><div class='cr'><div class='vertical-center'><font style='color:orange'>$5<br>for<br>sure</font></div></div><div class='respDivL'><div class='vertical-center'>(E)</div></div><div class='respDivR'><div class='vertical-center'><font style='color:orange'>(I)</font></div></div></div>","null","$5","$16","1","5","16",""
"html-keyboard-response","40","49194","0.0-5.0-1.12","5f2f86864fd821374b4367bc","bdp_rd","Mon Mar 27 2023 12:06:37 GMT-0700 (Pacific Daylight Time)","127047","","null","","","","FIX","","<div class='trialBorder'><div class='vertical-center'><img style='vertical-align:center; align:center' src=img/fixation3.jpg></div></div>","null","","","","","",""
"html-keyboard-response","41","49936","0.0-5.0-2.12","5f2f86864fd821374b4367bc","bdp_rd","Mon Mar 27 2023 12:06:37 GMT-0700 (Pacific Daylight Time)","127047","","740","","","","offer","","<div class='trialBorder'><div class='vertical-center'><img style='vertical-align:center; align:center' src=img/fixation3.jpg></div><div class='cl'><div class='vertical-center'>$1<br>for<br>sure</div></div><div class='cr'><div class='vertical-center'>$33<br>with a<br>50% chance</div></div><div class='respDivL'><div class='vertical-center'>(E)</div></div><div class='respDivR'><div class='vertical-center'>(I)</div></div></div>","E","$1","$33","0","1","33","SURE"
"html-keyboard-response","42","50188","0.0-5.0-3.12","5f2f86864fd821374b4367bc","bdp_rd","Mon Mar 27 2023 12:06:37 GMT-0700 (Pacific Daylight Time)","127047","","null","","","","offerFB","","<div class='trialBorder'><div class='vertical-center'><img style='vertical-align:center; align:center' src=img/fixation3.jpg></div><div class='cl'><div class='vertical-center'><font style='color:orange'>$1<br>for<br>sure</font></div></div><div class='cr'><div class='vertical-center'>$33<br>with a<br>50% chance</div></div><div class='respDivL'><div class='vertical-center'><font style='color:orange'>(E)</font></div></div><div class='respDivR'><div class='vertical-center'>(I)</div></div></div>","null","$1","$33","0","1","33",""
"html-keyboard-response","43","50691","0.0-5.0-1.13","5f2f86864fd821374b4367bc","bdp_rd","Mon Mar 27 2023 12:06:37 GMT-0700 (Pacific Daylight Time)","127047","","null","","","","FIX","","<div class='trialBorder'><div class='vertical-center'><img style='vertical-align:center; align:center' src=img/fixation3.jpg></div></div>","null","","","","","",""
"html-keyboard-response","44","51471","0.0-5.0-2.13","5f2f86864fd821374b4367bc","bdp_rd","Mon Mar 27 2023 12:06:37 GMT-0700 (Pacific Daylight Time)","127047","","778","","","","offer","","<div class='trialBorder'><div class='vertical-center'><img style='vertical-align:center; align:center' src=img/fixation3.jpg></div><div class='cl'><div class='vertical-center'>$25<br>for<br>sure</div></div><div class='cr'><div class='vertical-center'>$54<br>with a<br>50% chance</div></div><div class='respDivL'><div class='vertical-center'>(E)</div></div><div class='respDivR'><div class='vertical-center'>(I)</div></div></div>","E","$25","$54","0","25","54","SURE"
"html-keyboard-response","45","51722","0.0-5.0-3.13","5f2f86864fd821374b4367bc","bdp_rd","Mon Mar 27 2023 12:06:37 GMT-0700 (Pacific Daylight Time)","127047","","null","","","","offerFB","","<div class='trialBorder'><div class='vertical-center'><img style='vertical-align:center; align:center' src=img/fixation3.jpg></div><div class='cl'><div class='vertical-center'><font style='color:orange'>$25<br>for<br>sure</font></div></div><div class='cr'><div class='vertical-center'>$54<br>with a<br>50% chance</div></div><div class='respDivL'><div class='vertical-center'><font style='color:orange'>(E)</font></div></div><div class='respDivR'><div class='vertical-center'>(I)</div></div></div>","null","$25","$54","0","25","54",""
"html-keyboard-response","46","52222","0.0-5.0-1.14","5f2f86864fd821374b4367bc","bdp_rd","Mon Mar 27 2023 12:06:37 GMT-0700 (Pacific Daylight Time)","127047","","null","","","","FIX","","<div class='trialBorder'><div class='vertical-center'><img style='vertical-align:center; align:center' src=img/fixation3.jpg></div></div>","null","","","","","",""
"html-keyboard-response","47","53279","0.0-5.0-2.14","5f2f86864fd821374b4367bc","bdp_rd","Mon Mar 27 2023 12:06:37 GMT-0700 (Pacific Daylight Time)","127047","","1056","","","","offer","","<div class='trialBorder'><div class='vertical-center'><img style='vertical-align:center; align:center' src=img/fixation3.jpg></div><div class='cl'><div class='vertical-center'>$35<br>with a<br>50% chance</div></div><div class='cr'><div class='vertical-center'>$12<br>for<br>sure</div></div><div class='respDivL'><div class='vertical-center'>(E)</div></div><div class='respDivR'><div class='vertical-center'>(I)</div></div></div>","I","$12","$35","1","12","35","SURE"
"html-keyboard-response","48","53531","0.0-5.0-3.14","5f2f86864fd821374b4367bc","bdp_rd","Mon Mar 27 2023 12:06:37 GMT-0700 (Pacific Daylight Time)","127047","","null","","","","offerFB","","<div class='trialBorder'><div class='vertical-center'><img style='vertical-align:center; align:center' src=img/fixation3.jpg></div><div class='cl'><div class='vertical-center'>$35<br>with a<br>50% chance</div></div><div class='cr'><div class='vertical-center'><font style='color:orange'>$12<br>for<br>sure</font></div></div><div class='respDivL'><div class='vertical-center'>(E)</div></div><div class='respDivR'><div class='vertical-center'><font style='color:orange'>(I)</font></div></div></div>","null","$12","$35","1","12","35",""
"html-keyboard-response","49","54033","0.0-5.0-1.15","5f2f86864fd821374b4367bc","bdp_rd","Mon Mar 27 2023 12:06:37 GMT-0700 (Pacific Daylight Time)","127047","","null","","","","FIX","","<div class='trialBorder'><div class='vertical-center'><img style='vertical-align:center; align:center' src=img/fixation3.jpg></div></div>","null","","","","","",""
"html-keyboard-response","50","55048","0.0-5.0-2.15","5f2f86864fd821374b4367bc","bdp_rd","Mon Mar 27 2023 12:06:37 GMT-0700 (Pacific Daylight Time)","127047","","1014","","","","offer","","<div class='trialBorder'><div class='vertical-center'><img style='vertical-align:center; align:center' src=img/fixation3.jpg></div><div class='cl'><div class='vertical-center'>$25<br>with a<br>50% chance</div></div><div class='cr'><div class='vertical-center'>$21<br>for<br>sure</div></div><div class='respDivL'><div class='vertical-center'>(E)</div></div><div class='respDivR'><div class='vertical-center'>(I)</div></div></div>","I","$21","$25","1","21","25","SURE"
"html-keyboard-response","51","55301","0.0-5.0-3.15","5f2f86864fd821374b4367bc","bdp_rd","Mon Mar 27 2023 12:06:37 GMT-0700 (Pacific Daylight Time)","127047","","null","","","","offerFB","","<div class='trialBorder'><div class='vertical-center'><img style='vertical-align:center; align:center' src=img/fixation3.jpg></div><div class='cl'><div class='vertical-center'>$25<br>with a<br>50% chance</div></div><div class='cr'><div class='vertical-center'><font style='color:orange'>$21<br>for<br>sure</font></div></div><div class='respDivL'><div class='vertical-center'>(E)</div></div><div class='respDivR'><div class='vertical-center'><font style='color:orange'>(I)</font></div></div></div>","null","$21","$25","1","21","25",""
"html-keyboard-response","52","55803","0.0-5.0-1.16","5f2f86864fd821374b4367bc","bdp_rd","Mon Mar 27 2023 12:06:37 GMT-0700 (Pacific Daylight Time)","127047","","null","","","","FIX","","<div class='trialBorder'><div class='vertical-center'><img style='vertical-align:center; align:center' src=img/fixation3.jpg></div></div>","null","","","","","",""
"html-keyboard-response","53","56642","0.0-5.0-2.16","5f2f86864fd821374b4367bc","bdp_rd","Mon Mar 27 2023 12:06:37 GMT-0700 (Pacific Daylight Time)","127047","","838","","","","offer","","<div class='trialBorder'><div class='vertical-center'><img style='vertical-align:center; align:center' src=img/fixation3.jpg></div><div class='cl'><div class='vertical-center'>$10<br>for<br>sure</div></div><div class='cr'><div class='vertical-center'>$40<br>with a<br>50% chance</div></div><div class='respDivL'><div class='vertical-center'>(E)</div></div><div class='respDivR'><div class='vertical-center'>(I)</div></div></div>","E","$10","$40","0","10","40","SURE"
"html-keyboard-response","54","56894","0.0-5.0-3.16","5f2f86864fd821374b4367bc","bdp_rd","Mon Mar 27 2023 12:06:37 GMT-0700 (Pacific Daylight Time)","127047","","null","","","","offerFB","","<div class='trialBorder'><div class='vertical-center'><img style='vertical-align:center; align:center' src=img/fixation3.jpg></div><div class='cl'><div class='vertical-center'><font style='color:orange'>$10<br>for<br>sure</font></div></div><div class='cr'><div class='vertical-center'>$40<br>with a<br>50% chance</div></div><div class='respDivL'><div class='vertical-center'><font style='color:orange'>(E)</font></div></div><div class='respDivR'><div class='vertical-center'>(I)</div></div></div>","null","$10","$40","0","10","40",""
"html-keyboard-response","55","57395","0.0-5.0-1.17","5f2f86864fd821374b4367bc","bdp_rd","Mon Mar 27 2023 12:06:37 GMT-0700 (Pacific Daylight Time)","127047","","null","","","","FIX","","<div class='trialBorder'><div class='vertical-center'><img style='vertical-align:center; align:center' src=img/fixation3.jpg></div></div>","null","","","","","",""
"html-keyboard-response","56","58249","0.0-5.0-2.17","5f2f86864fd821374b4367bc","bdp_rd","Mon Mar 27 2023 12:06:37 GMT-0700 (Pacific Daylight Time)","127047","","851","","","","offer","","<div class='trialBorder'><div class='vertical-center'><img style='vertical-align:center; align:center' src=img/fixation3.jpg></div><div class='cl'><div class='vertical-center'>$21<br>with a<br>50% chance</div></div><div class='cr'><div class='vertical-center'>$2<br>for<br>sure</div></div><div class='respDivL'><div class='vertical-center'>(E)</div></div><div class='respDivR'><div class='vertical-center'>(I)</div></div></div>","I","$2","$21","1","2","21","SURE"
"html-keyboard-response","57","58501","0.0-5.0-3.17","5f2f86864fd821374b4367bc","bdp_rd","Mon Mar 27 2023 12:06:37 GMT-0700 (Pacific Daylight Time)","127047","","null","","","","offerFB","","<div class='trialBorder'><div class='vertical-center'><img style='vertical-align:center; align:center' src=img/fixation3.jpg></div><div class='cl'><div class='vertical-center'>$21<br>with a<br>50% chance</div></div><div class='cr'><div class='vertical-center'><font style='color:orange'>$2<br>for<br>sure</font></div></div><div class='respDivL'><div class='vertical-center'>(E)</div></div><div class='respDivR'><div class='vertical-center'><font style='color:orange'>(I)</font></div></div></div>","null","$2","$21","1","2","21",""
"html-keyboard-response","58","59002","0.0-5.0-1.18","5f2f86864fd821374b4367bc","bdp_rd","Mon Mar 27 2023 12:06:37 GMT-0700 (Pacific Daylight Time)","127047","","null","","","","FIX","","<div class='trialBorder'><div class='vertical-center'><img style='vertical-align:center; align:center' src=img/fixation3.jpg></div></div>","null","","","","","",""
"html-keyboard-response","59","59682","0.0-5.0-2.18","5f2f86864fd821374b4367bc","bdp_rd","Mon Mar 27 2023 12:06:37 GMT-0700 (Pacific Daylight Time)","127047","","679","","","","offer","","<div class='trialBorder'><div class='vertical-center'><img style='vertical-align:center; align:center' src=img/fixation3.jpg></div><div class='cl'><div class='vertical-center'>$46<br>for<br>sure</div></div><div class='cr'><div class='vertical-center'>$65<br>with a<br>50% chance</div></div><div class='respDivL'><div class='vertical-center'>(E)</div></div><div class='respDivR'><div class='vertical-center'>(I)</div></div></div>","E","$46","$65","0","46","65","SURE"
"html-keyboard-response","60","59935","0.0-5.0-3.18","5f2f86864fd821374b4367bc","bdp_rd","Mon Mar 27 2023 12:06:37 GMT-0700 (Pacific Daylight Time)","127047","","null","","","","offerFB","","<div class='trialBorder'><div class='vertical-center'><img style='vertical-align:center; align:center' src=img/fixation3.jpg></div><div class='cl'><div class='vertical-center'><font style='color:orange'>$46<br>for<br>sure</font></div></div><div class='cr'><div class='vertical-center'>$65<br>with a<br>50% chance</div></div><div class='respDivL'><div class='vertical-center'><font style='color:orange'>(E)</font></div></div><div class='respDivR'><div class='vertical-center'>(I)</div></div></div>","null","$46","$65","0","46","65",""
"html-keyboard-response","61","60436","0.0-5.0-1.19","5f2f86864fd821374b4367bc","bdp_rd","Mon Mar 27 2023 12:06:37 GMT-0700 (Pacific Daylight Time)","127047","","null","","","","FIX","","<div class='trialBorder'><div class='vertical-center'><img style='vertical-align:center; align:center' src=img/fixation3.jpg></div></div>","null","","","","","",""
"html-keyboard-response","62","61216","0.0-5.0-2.19","5f2f86864fd821374b4367bc","bdp_rd","Mon Mar 27 2023 12:06:37 GMT-0700 (Pacific Daylight Time)","127047","","779","","","","offer","","<div class='trialBorder'><div class='vertical-center'><img style='vertical-align:center; align:center' src=img/fixation3.jpg></div><div class='cl'><div class='vertical-center'>$14<br>with a<br>50% chance</div></div><div class='cr'><div class='vertical-center'>$4<br>for<br>sure</div></div><div class='respDivL'><div class='vertical-center'>(E)</div></div><div class='respDivR'><div class='vertical-center'>(I)</div></div></div>","I","$4","$14","1","4","14","SURE"
"html-keyboard-response","63","61468","0.0-5.0-3.19","5f2f86864fd821374b4367bc","bdp_rd","Mon Mar 27 2023 12:06:37 GMT-0700 (Pacific Daylight Time)","127047","","null","","","","offerFB","","<div class='trialBorder'><div class='vertical-center'><img style='vertical-align:center; align:center' src=img/fixation3.jpg></div><div class='cl'><div class='vertical-center'>$14<br>with a<br>50% chance</div></div><div class='cr'><div class='vertical-center'><font style='color:orange'>$4<br>for<br>sure</font></div></div><div class='respDivL'><div class='vertical-center'>(E)</div></div><div class='respDivR'><div class='vertical-center'><font style='color:orange'>(I)</font></div></div></div>","null","$4","$14","1","4","14",""
"html-keyboard-response","64","61969","0.0-5.0-1.20","5f2f86864fd821374b4367bc","bdp_rd","Mon Mar 27 2023 12:06:37 GMT-0700 (Pacific Daylight Time)","127047","","null","","","","FIX","","<div class='trialBorder'><div class='vertical-center'><img style='vertical-align:center; align:center' src=img/fixation3.jpg></div></div>","null","","","","","",""
"html-keyboard-response","65","62640","0.0-5.0-2.20","5f2f86864fd821374b4367bc","bdp_rd","Mon Mar 27 2023 12:06:37 GMT-0700 (Pacific Daylight Time)","127047","","671","","","","offer","","<div class='trialBorder'><div class='vertical-center'><img style='vertical-align:center; align:center' src=img/fixation3.jpg></div><div class='cl'><div class='vertical-center'>$42<br>for<br>sure</div></div><div class='cr'><div class='vertical-center'>$73<br>with a<br>50% chance</div></div><div class='respDivL'><div class='vertical-center'>(E)</div></div><div class='respDivR'><div class='vertical-center'>(I)</div></div></div>","E","$42","$73","0","42","73","SURE"
"html-keyboard-response","66","62892","0.0-5.0-3.20","5f2f86864fd821374b4367bc","bdp_rd","Mon Mar 27 2023 12:06:37 GMT-0700 (Pacific Daylight Time)","127047","","null","","","","offerFB","","<div class='trialBorder'><div class='vertical-center'><img style='vertical-align:center; align:center' src=img/fixation3.jpg></div><div class='cl'><div class='vertical-center'><font style='color:orange'>$42<br>for<br>sure</font></div></div><div class='cr'><div class='vertical-center'>$73<br>with a<br>50% chance</div></div><div class='respDivL'><div class='vertical-center'><font style='color:orange'>(E)</font></div></div><div class='respDivR'><div class='vertical-center'>(I)</div></div></div>","null","$42","$73","0","42","73",""
"html-keyboard-response","67","63395","0.0-5.0-1.21","5f2f86864fd821374b4367bc","bdp_rd","Mon Mar 27 2023 12:06:37 GMT-0700 (Pacific Daylight Time)","127047","","null","","","","FIX","","<div class='trialBorder'><div class='vertical-center'><img style='vertical-align:center; align:center' src=img/fixation3.jpg></div></div>","null","","","","","",""
"html-keyboard-response","68","64049","0.0-5.0-2.21","5f2f86864fd821374b4367bc","bdp_rd","Mon Mar 27 2023 12:06:37 GMT-0700 (Pacific Daylight Time)","127047","","652","","","","offer","","<div class='trialBorder'><div class='vertical-center'><img style='vertical-align:center; align:center' src=img/fixation3.jpg></div><div class='cl'><div class='vertical-center'>$45<br>for<br>sure</div></div><div class='cr'><div class='vertical-center'>$86<br>with a<br>50% chance</div></div><div class='respDivL'><div class='vertical-center'>(E)</div></div><div class='respDivR'><div class='vertical-center'>(I)</div></div></div>","E","$45","$86","0","45","86","SURE"
"html-keyboard-response","69","64301","0.0-5.0-3.21","5f2f86864fd821374b4367bc","bdp_rd","Mon Mar 27 2023 12:06:37 GMT-0700 (Pacific Daylight Time)","127047","","null","","","","offerFB","","<div class='trialBorder'><div class='vertical-center'><img style='vertical-align:center; align:center' src=img/fixation3.jpg></div><div class='cl'><div class='vertical-center'><font style='color:orange'>$45<br>for<br>sure</font></div></div><div class='cr'><div class='vertical-center'>$86<br>with a<br>50% chance</div></div><div class='respDivL'><div class='vertical-center'><font style='color:orange'>(E)</font></div></div><div class='respDivR'><div class='vertical-center'>(I)</div></div></div>","null","$45","$86","0","45","86",""
"html-keyboard-response","70","64802","0.0-5.0-1.22","5f2f86864fd821374b4367bc","bdp_rd","Mon Mar 27 2023 12:06:37 GMT-0700 (Pacific Daylight Time)","127047","","null","","","","FIX","","<div class='trialBorder'><div class='vertical-center'><img style='vertical-align:center; align:center' src=img/fixation3.jpg></div></div>","null","","","","","",""
"html-keyboard-response","71","65591","0.0-5.0-2.22","5f2f86864fd821374b4367bc","bdp_rd","Mon Mar 27 2023 12:06:37 GMT-0700 (Pacific Daylight Time)","127047","","788","","","","offer","","<div class='trialBorder'><div class='vertical-center'><img style='vertical-align:center; align:center' src=img/fixation3.jpg></div><div class='cl'><div class='vertical-center'>$3<br>for<br>sure</div></div><div class='cr'><div class='vertical-center'>$12<br>with a<br>50% chance</div></div><div class='respDivL'><div class='vertical-center'>(E)</div></div><div class='respDivR'><div class='vertical-center'>(I)</div></div></div>","E","$3","$12","0","3","12","SURE"
"html-keyboard-response","72","65843","0.0-5.0-3.22","5f2f86864fd821374b4367bc","bdp_rd","Mon Mar 27 2023 12:06:37 GMT-0700 (Pacific Daylight Time)","127047","","null","","","","offerFB","","<div class='trialBorder'><div class='vertical-center'><img style='vertical-align:center; align:center' src=img/fixation3.jpg></div><div class='cl'><div class='vertical-center'><font style='color:orange'>$3<br>for<br>sure</font></div></div><div class='cr'><div class='vertical-center'>$12<br>with a<br>50% chance</div></div><div class='respDivL'><div class='vertical-center'><font style='color:orange'>(E)</font></div></div><div class='respDivR'><div class='vertical-center'>(I)</div></div></div>","null","$3","$12","0","3","12",""
"html-keyboard-response","73","66345","0.0-5.0-1.23","5f2f86864fd821374b4367bc","bdp_rd","Mon Mar 27 2023 12:06:37 GMT-0700 (Pacific Daylight Time)","127047","","null","","","","FIX","","<div class='trialBorder'><div class='vertical-center'><img style='vertical-align:center; align:center' src=img/fixation3.jpg></div></div>","null","","","","","",""
"html-keyboard-response","74","66961","0.0-5.0-2.23","5f2f86864fd821374b4367bc","bdp_rd","Mon Mar 27 2023 12:06:37 GMT-0700 (Pacific Daylight Time)","127047","","615","","","","offer","","<div class='trialBorder'><div class='vertical-center'><img style='vertical-align:center; align:center' src=img/fixation3.jpg></div><div class='cl'><div class='vertical-center'>$13<br>for<br>sure</div></div><div class='cr'><div class='vertical-center'>$41<br>with a<br>50% chance</div></div><div class='respDivL'><div class='vertical-center'>(E)</div></div><div class='respDivR'><div class='vertical-center'>(I)</div></div></div>","E","$13","$41","0","13","41","SURE"
"html-keyboard-response","75","67213","0.0-5.0-3.23","5f2f86864fd821374b4367bc","bdp_rd","Mon Mar 27 2023 12:06:37 GMT-0700 (Pacific Daylight Time)","127047","","null","","","","offerFB","","<div class='trialBorder'><div class='vertical-center'><img style='vertical-align:center; align:center' src=img/fixation3.jpg></div><div class='cl'><div class='vertical-center'><font style='color:orange'>$13<br>for<br>sure</font></div></div><div class='cr'><div class='vertical-center'>$41<br>with a<br>50% chance</div></div><div class='respDivL'><div class='vertical-center'><font style='color:orange'>(E)</font></div></div><div class='respDivR'><div class='vertical-center'>(I)</div></div></div>","null","$13","$41","0","13","41",""
"html-keyboard-response","76","67716","0.0-5.0-1.24","5f2f86864fd821374b4367bc","bdp_rd","Mon Mar 27 2023 12:06:37 GMT-0700 (Pacific Daylight Time)","127047","","null","","","","FIX","","<div class='trialBorder'><div class='vertical-center'><img style='vertical-align:center; align:center' src=img/fixation3.jpg></div></div>","null","","","","","",""
"html-keyboard-response","77","68472","0.0-5.0-2.24","5f2f86864fd821374b4367bc","bdp_rd","Mon Mar 27 2023 12:06:37 GMT-0700 (Pacific Daylight Time)","127047","","755","","","","offer","","<div class='trialBorder'><div class='vertical-center'><img style='vertical-align:center; align:center' src=img/fixation3.jpg></div><div class='cl'><div class='vertical-center'>$92<br>with a<br>50% chance</div></div><div class='cr'><div class='vertical-center'>$26<br>for<br>sure</div></div><div class='respDivL'><div class='vertical-center'>(E)</div></div><div class='respDivR'><div class='vertical-center'>(I)</div></div></div>","I","$26","$92","1","26","92","SURE"
"html-keyboard-response","78","68724","0.0-5.0-3.24","5f2f86864fd821374b4367bc","bdp_rd","Mon Mar 27 2023 12:06:37 GMT-0700 (Pacific Daylight Time)","127047","","null","","","","offerFB","","<div class='trialBorder'><div class='vertical-center'><img style='vertical-align:center; align:center' src=img/fixation3.jpg></div><div class='cl'><div class='vertical-center'>$92<br>with a<br>50% chance</div></div><div class='cr'><div class='vertical-center'><font style='color:orange'>$26<br>for<br>sure</font></div></div><div class='respDivL'><div class='vertical-center'>(E)</div></div><div class='respDivR'><div class='vertical-center'><font style='color:orange'>(I)</font></div></div></div>","null","$26","$92","1","26","92",""
"html-keyboard-response","79","69225","0.0-5.0-1.25","5f2f86864fd821374b4367bc","bdp_rd","Mon Mar 27 2023 12:06:37 GMT-0700 (Pacific Daylight Time)","127047","","null","","","","FIX","","<div class='trialBorder'><div class='vertical-center'><img style='vertical-align:center; align:center' src=img/fixation3.jpg></div></div>","null","","","","","",""
"html-keyboard-response","80","69808","0.0-5.0-2.25","5f2f86864fd821374b4367bc","bdp_rd","Mon Mar 27 2023 12:06:37 GMT-0700 (Pacific Daylight Time)","127047","","583","","","","offer","","<div class='trialBorder'><div class='vertical-center'><img style='vertical-align:center; align:center' src=img/fixation3.jpg></div><div class='cl'><div class='vertical-center'>$1<br>for<br>sure</div></div><div class='cr'><div class='vertical-center'>$30<br>with a<br>50% chance</div></div><div class='respDivL'><div class='vertical-center'>(E)</div></div><div class='respDivR'><div class='vertical-center'>(I)</div></div></div>","E","$1","$30","0","1","30","SURE"
"html-keyboard-response","81","70061","0.0-5.0-3.25","5f2f86864fd821374b4367bc","bdp_rd","Mon Mar 27 2023 12:06:37 GMT-0700 (Pacific Daylight Time)","127047","","null","","","","offerFB","","<div class='trialBorder'><div class='vertical-center'><img style='vertical-align:center; align:center' src=img/fixation3.jpg></div><div class='cl'><div class='vertical-center'><font style='color:orange'>$1<br>for<br>sure</font></div></div><div class='cr'><div class='vertical-center'>$30<br>with a<br>50% chance</div></div><div class='respDivL'><div class='vertical-center'><font style='color:orange'>(E)</font></div></div><div class='respDivR'><div class='vertical-center'>(I)</div></div></div>","null","$1","$30","0","1","30",""
"html-keyboard-response","82","70562","0.0-5.0-1.26","5f2f86864fd821374b4367bc","bdp_rd","Mon Mar 27 2023 12:06:37 GMT-0700 (Pacific Daylight Time)","127047","","null","","","","FIX","","<div class='trialBorder'><div class='vertical-center'><img style='vertical-align:center; align:center' src=img/fixation3.jpg></div></div>","null","","","","","",""
"html-keyboard-response","83","71361","0.0-5.0-2.26","5f2f86864fd821374b4367bc","bdp_rd","Mon Mar 27 2023 12:06:37 GMT-0700 (Pacific Daylight Time)","127047","","797","","","","offer","","<div class='trialBorder'><div class='vertical-center'><img style='vertical-align:center; align:center' src=img/fixation3.jpg></div><div class='cl'><div class='vertical-center'>$69<br>with a<br>50% chance</div></div><div class='cr'><div class='vertical-center'>$58<br>for<br>sure</div></div><div class='respDivL'><div class='vertical-center'>(E)</div></div><div class='respDivR'><div class='vertical-center'>(I)</div></div></div>","I","$58","$69","1","58","69","SURE"
"html-keyboard-response","84","71612","0.0-5.0-3.26","5f2f86864fd821374b4367bc","bdp_rd","Mon Mar 27 2023 12:06:37 GMT-0700 (Pacific Daylight Time)","127047","","null","","","","offerFB","","<div class='trialBorder'><div class='vertical-center'><img style='vertical-align:center; align:center' src=img/fixation3.jpg></div><div class='cl'><div class='vertical-center'>$69<br>with a<br>50% chance</div></div><div class='cr'><div class='vertical-center'><font style='color:orange'>$58<br>for<br>sure</font></div></div><div class='respDivL'><div class='vertical-center'>(E)</div></div><div class='respDivR'><div class='vertical-center'><font style='color:orange'>(I)</font></div></div></div>","null","$58","$69","1","58","69",""
"html-keyboard-response","85","72114","0.0-5.0-1.27","5f2f86864fd821374b4367bc","bdp_rd","Mon Mar 27 2023 12:06:37 GMT-0700 (Pacific Daylight Time)","127047","","null","","","","FIX","","<div class='trialBorder'><div class='vertical-center'><img style='vertical-align:center; align:center' src=img/fixation3.jpg></div></div>","null","","","","","",""
"html-keyboard-response","86","72731","0.0-5.0-2.27","5f2f86864fd821374b4367bc","bdp_rd","Mon Mar 27 2023 12:06:37 GMT-0700 (Pacific Daylight Time)","127047","","615","","","","offer","","<div class='trialBorder'><div class='vertical-center'><img style='vertical-align:center; align:center' src=img/fixation3.jpg></div><div class='cl'><div class='vertical-center'>$29<br>with a<br>50% chance</div></div><div class='cr'><div class='vertical-center'>$14<br>for<br>sure</div></div><div class='respDivL'><div class='vertical-center'>(E)</div></div><div class='respDivR'><div class='vertical-center'>(I)</div></div></div>","I","$14","$29","1","14","29","SURE"
"html-keyboard-response","87","72983","0.0-5.0-3.27","5f2f86864fd821374b4367bc","bdp_rd","Mon Mar 27 2023 12:06:37 GMT-0700 (Pacific Daylight Time)","127047","","null","","","","offerFB","","<div class='trialBorder'><div class='vertical-center'><img style='vertical-align:center; align:center' src=img/fixation3.jpg></div><div class='cl'><div class='vertical-center'>$29<br>with a<br>50% chance</div></div><div class='cr'><div class='vertical-center'><font style='color:orange'>$14<br>for<br>sure</font></div></div><div class='respDivL'><div class='vertical-center'>(E)</div></div><div class='respDivR'><div class='vertical-center'><font style='color:orange'>(I)</font></div></div></div>","null","$14","$29","1","14","29",""
"html-keyboard-response","88","73485","0.0-5.0-1.28","5f2f86864fd821374b4367bc","bdp_rd","Mon Mar 27 2023 12:06:37 GMT-0700 (Pacific Daylight Time)","127047","","null","","","","FIX","","<div class='trialBorder'><div class='vertical-center'><img style='vertical-align:center; align:center' src=img/fixation3.jpg></div></div>","null","","","","","",""
"html-keyboard-response","89","74079","0.0-5.0-2.28","5f2f86864fd821374b4367bc","bdp_rd","Mon Mar 27 2023 12:06:37 GMT-0700 (Pacific Daylight Time)","127047","","593","","","","offer","","<div class='trialBorder'><div class='vertical-center'><img style='vertical-align:center; align:center' src=img/fixation3.jpg></div><div class='cl'><div class='vertical-center'>$10<br>with a<br>50% chance</div></div><div class='cr'><div class='vertical-center'>$7<br>for<br>sure</div></div><div class='respDivL'><div class='vertical-center'>(E)</div></div><div class='respDivR'><div class='vertical-center'>(I)</div></div></div>","I","$7","$10","1","7","10","SURE"
"html-keyboard-response","90","74331","0.0-5.0-3.28","5f2f86864fd821374b4367bc","bdp_rd","Mon Mar 27 2023 12:06:37 GMT-0700 (Pacific Daylight Time)","127047","","null","","","","offerFB","","<div class='trialBorder'><div class='vertical-center'><img style='vertical-align:center; align:center' src=img/fixation3.jpg></div><div class='cl'><div class='vertical-center'>$10<br>with a<br>50% chance</div></div><div class='cr'><div class='vertical-center'><font style='color:orange'>$7<br>for<br>sure</font></div></div><div class='respDivL'><div class='vertical-center'>(E)</div></div><div class='respDivR'><div class='vertical-center'><font style='color:orange'>(I)</font></div></div></div>","null","$7","$10","1","7","10",""
"html-keyboard-response","91","74833","0.0-5.0-1.29","5f2f86864fd821374b4367bc","bdp_rd","Mon Mar 27 2023 12:06:37 GMT-0700 (Pacific Daylight Time)","127047","","null","","","","FIX","","<div class='trialBorder'><div class='vertical-center'><img style='vertical-align:center; align:center' src=img/fixation3.jpg></div></div>","null","","","","","",""
"html-keyboard-response","92","75655","0.0-5.0-2.29","5f2f86864fd821374b4367bc","bdp_rd","Mon Mar 27 2023 12:06:37 GMT-0700 (Pacific Daylight Time)","127047","","821","","","","offer","","<div class='trialBorder'><div class='vertical-center'><img style='vertical-align:center; align:center' src=img/fixation3.jpg></div><div class='cl'><div class='vertical-center'>$14<br>for<br>sure</div></div><div class='cr'><div class='vertical-center'>$22<br>with a<br>50% chance</div></div><div class='respDivL'><div class='vertical-center'>(E)</div></div><div class='respDivR'><div class='vertical-center'>(I)</div></div></div>","E","$14","$22","0","14","22","SURE"
"html-keyboard-response","93","75907","0.0-5.0-3.29","5f2f86864fd821374b4367bc","bdp_rd","Mon Mar 27 2023 12:06:37 GMT-0700 (Pacific Daylight Time)","127047","","null","","","","offerFB","","<div class='trialBorder'><div class='vertical-center'><img style='vertical-align:center; align:center' src=img/fixation3.jpg></div><div class='cl'><div class='vertical-center'><font style='color:orange'>$14<br>for<br>sure</font></div></div><div class='cr'><div class='vertical-center'>$22<br>with a<br>50% chance</div></div><div class='respDivL'><div class='vertical-center'><font style='color:orange'>(E)</font></div></div><div class='respDivR'><div class='vertical-center'>(I)</div></div></div>","null","$14","$22","0","14","22",""
"html-keyboard-response","94","76408","0.0-5.0-1.30","5f2f86864fd821374b4367bc","bdp_rd","Mon Mar 27 2023 12:06:37 GMT-0700 (Pacific Daylight Time)","127047","","null","","","","FIX","","<div class='trialBorder'><div class='vertical-center'><img style='vertical-align:center; align:center' src=img/fixation3.jpg></div></div>","null","","","","","",""
"html-keyboard-response","95","77704","0.0-5.0-2.30","5f2f86864fd821374b4367bc","bdp_rd","Mon Mar 27 2023 12:06:37 GMT-0700 (Pacific Daylight Time)","127047","","1294","","","","offer","","<div class='trialBorder'><div class='vertical-center'><img style='vertical-align:center; align:center' src=img/fixation3.jpg></div><div class='cl'><div class='vertical-center'>$8<br>for<br>sure</div></div><div class='cr'><div class='vertical-center'>$23<br>with a<br>50% chance</div></div><div class='respDivL'><div class='vertical-center'>(E)</div></div><div class='respDivR'><div class='vertical-center'>(I)</div></div></div>","E","$8","$23","0","8","23","SURE"
"html-keyboard-response","96","77955","0.0-5.0-3.30","5f2f86864fd821374b4367bc","bdp_rd","Mon Mar 27 2023 12:06:37 GMT-0700 (Pacific Daylight Time)","127047","","null","","","","offerFB","","<div class='trialBorder'><div class='vertical-center'><img style='vertical-align:center; align:center' src=img/fixation3.jpg></div><div class='cl'><div class='vertical-center'><font style='color:orange'>$8<br>for<br>sure</font></div></div><div class='cr'><div class='vertical-center'>$23<br>with a<br>50% chance</div></div><div class='respDivL'><div class='vertical-center'><font style='color:orange'>(E)</font></div></div><div class='respDivR'><div class='vertical-center'>(I)</div></div></div>","null","$8","$23","0","8","23",""
"html-keyboard-response","97","78457","0.0-5.0-1.31","5f2f86864fd821374b4367bc","bdp_rd","Mon Mar 27 2023 12:06:37 GMT-0700 (Pacific Daylight Time)","127047","","null","","","","FIX","","<div class='trialBorder'><div class='vertical-center'><img style='vertical-align:center; align:center' src=img/fixation3.jpg></div></div>","null","","","","","",""
"html-keyboard-response","98","79537","0.0-5.0-2.31","5f2f86864fd821374b4367bc","bdp_rd","Mon Mar 27 2023 12:06:37 GMT-0700 (Pacific Daylight Time)","127047","","1079","","","","offer","","<div class='trialBorder'><div class='vertical-center'><img style='vertical-align:center; align:center' src=img/fixation3.jpg></div><div class='cl'><div class='vertical-center'>$13<br>with a<br>50% chance</div></div><div class='cr'><div class='vertical-center'>$6<br>for<br>sure</div></div><div class='respDivL'><div class='vertical-center'>(E)</div></div><div class='respDivR'><div class='vertical-center'>(I)</div></div></div>","I","$6","$13","1","6","13","SURE"
"html-keyboard-response","99","79790","0.0-5.0-3.31","5f2f86864fd821374b4367bc","bdp_rd","Mon Mar 27 2023 12:06:37 GMT-0700 (Pacific Daylight Time)","127047","","null","","","","offerFB","","<div class='trialBorder'><div class='vertical-center'><img style='vertical-align:center; align:center' src=img/fixation3.jpg></div><div class='cl'><div class='vertical-center'>$13<br>with a<br>50% chance</div></div><div class='cr'><div class='vertical-center'><font style='color:orange'>$6<br>for<br>sure</font></div></div><div class='respDivL'><div class='vertical-center'>(E)</div></div><div class='respDivR'><div class='vertical-center'><font style='color:orange'>(I)</font></div></div></div>","null","$6","$13","1","6","13",""
"html-keyboard-response","100","80291","0.0-5.0-1.32","5f2f86864fd821374b4367bc","bdp_rd","Mon Mar 27 2023 12:06:37 GMT-0700 (Pacific Daylight Time)","127047","","null","","","","FIX","","<div class='trialBorder'><div class='vertical-center'><img style='vertical-align:center; align:center' src=img/fixation3.jpg></div></div>","null","","","","","",""
"html-keyboard-response","101","81104","0.0-5.0-2.32","5f2f86864fd821374b4367bc","bdp_rd","Mon Mar 27 2023 12:06:37 GMT-0700 (Pacific Daylight Time)","127047","","812","","","","offer","","<div class='trialBorder'><div class='vertical-center'><img style='vertical-align:center; align:center' src=img/fixation3.jpg></div><div class='cl'><div class='vertical-center'>$8<br>for<br>sure</div></div><div class='cr'><div class='vertical-center'>$45<br>with a<br>50% chance</div></div><div class='respDivL'><div class='vertical-center'>(E)</div></div><div class='respDivR'><div class='vertical-center'>(I)</div></div></div>","E","$8","$45","0","8","45","SURE"
"html-keyboard-response","102","81357","0.0-5.0-3.32","5f2f86864fd821374b4367bc","bdp_rd","Mon Mar 27 2023 12:06:37 GMT-0700 (Pacific Daylight Time)","127047","","null","","","","offerFB","","<div class='trialBorder'><div class='vertical-center'><img style='vertical-align:center; align:center' src=img/fixation3.jpg></div><div class='cl'><div class='vertical-center'><font style='color:orange'>$8<br>for<br>sure</font></div></div><div class='cr'><div class='vertical-center'>$45<br>with a<br>50% chance</div></div><div class='respDivL'><div class='vertical-center'><font style='color:orange'>(E)</font></div></div><div class='respDivR'><div class='vertical-center'>(I)</div></div></div>","null","$8","$45","0","8","45",""
"html-keyboard-response","103","81859","0.0-5.0-1.33","5f2f86864fd821374b4367bc","bdp_rd","Mon Mar 27 2023 12:06:37 GMT-0700 (Pacific Daylight Time)","127047","","null","","","","FIX","","<div class='trialBorder'><div class='vertical-center'><img style='vertical-align:center; align:center' src=img/fixation3.jpg></div></div>","null","","","","","",""
"html-keyboard-response","104","82559","0.0-5.0-2.33","5f2f86864fd821374b4367bc","bdp_rd","Mon Mar 27 2023 12:06:37 GMT-0700 (Pacific Daylight Time)","127047","","699","","","","offer","","<div class='trialBorder'><div class='vertical-center'><img style='vertical-align:center; align:center' src=img/fixation3.jpg></div><div class='cl'><div class='vertical-center'>$37<br>with a<br>50% chance</div></div><div class='cr'><div class='vertical-center'>$20<br>for<br>sure</div></div><div class='respDivL'><div class='vertical-center'>(E)</div></div><div class='respDivR'><div class='vertical-center'>(I)</div></div></div>","I","$20","$37","1","20","37","SURE"
"html-keyboard-response","105","82811","0.0-5.0-3.33","5f2f86864fd821374b4367bc","bdp_rd","Mon Mar 27 2023 12:06:37 GMT-0700 (Pacific Daylight Time)","127047","","null","","","","offerFB","","<div class='trialBorder'><div class='vertical-center'><img style='vertical-align:center; align:center' src=img/fixation3.jpg></div><div class='cl'><div class='vertical-center'>$37<br>with a<br>50% chance</div></div><div class='cr'><div class='vertical-center'><font style='color:orange'>$20<br>for<br>sure</font></div></div><div class='respDivL'><div class='vertical-center'>(E)</div></div><div class='respDivR'><div class='vertical-center'><font style='color:orange'>(I)</font></div></div></div>","null","$20","$37","1","20","37",""
"html-keyboard-response","106","83313","0.0-5.0-1.34","5f2f86864fd821374b4367bc","bdp_rd","Mon Mar 27 2023 12:06:37 GMT-0700 (Pacific Daylight Time)","127047","","null","","","","FIX","","<div class='trialBorder'><div class='vertical-center'><img style='vertical-align:center; align:center' src=img/fixation3.jpg></div></div>","null","","","","","",""
"html-keyboard-response","107","84497","0.0-5.0-2.34","5f2f86864fd821374b4367bc","bdp_rd","Mon Mar 27 2023 12:06:37 GMT-0700 (Pacific Daylight Time)","127047","","1182","","","","offer","","<div class='trialBorder'><div class='vertical-center'><img style='vertical-align:center; align:center' src=img/fixation3.jpg></div><div class='cl'><div class='vertical-center'>$16<br>for<br>sure</div></div><div class='cr'><div class='vertical-center'>$28<br>with a<br>50% chance</div></div><div class='respDivL'><div class='vertical-center'>(E)</div></div><div class='respDivR'><div class='vertical-center'>(I)</div></div></div>","E","$16","$28","0","16","28","SURE"
"html-keyboard-response","108","84749","0.0-5.0-3.34","5f2f86864fd821374b4367bc","bdp_rd","Mon Mar 27 2023 12:06:37 GMT-0700 (Pacific Daylight Time)","127047","","null","","","","offerFB","","<div class='trialBorder'><div class='vertical-center'><img style='vertical-align:center; align:center' src=img/fixation3.jpg></div><div class='cl'><div class='vertical-center'><font style='color:orange'>$16<br>for<br>sure</font></div></div><div class='cr'><div class='vertical-center'>$28<br>with a<br>50% chance</div></div><div class='respDivL'><div class='vertical-center'><font style='color:orange'>(E)</font></div></div><div class='respDivR'><div class='vertical-center'>(I)</div></div></div>","null","$16","$28","0","16","28",""
"html-keyboard-response","109","85250","0.0-5.0-1.35","5f2f86864fd821374b4367bc","bdp_rd","Mon Mar 27 2023 12:06:37 GMT-0700 (Pacific Daylight Time)","127047","","null","","","","FIX","","<div class='trialBorder'><div class='vertical-center'><img style='vertical-align:center; align:center' src=img/fixation3.jpg></div></div>","null","","","","","",""
"html-keyboard-response","110","86512","0.0-5.0-2.35","5f2f86864fd821374b4367bc","bdp_rd","Mon Mar 27 2023 12:06:37 GMT-0700 (Pacific Daylight Time)","127047","","1261","","","","offer","","<div class='trialBorder'><div class='vertical-center'><img style='vertical-align:center; align:center' src=img/fixation3.jpg></div><div class='cl'><div class='vertical-center'>$11<br>with a<br>50% chance</div></div><div class='cr'><div class='vertical-center'>$4<br>for<br>sure</div></div><div class='respDivL'><div class='vertical-center'>(E)</div></div><div class='respDivR'><div class='vertical-center'>(I)</div></div></div>","I","$4","$11","1","4","11","SURE"
"html-keyboard-response","111","86765","0.0-5.0-3.35","5f2f86864fd821374b4367bc","bdp_rd","Mon Mar 27 2023 12:06:37 GMT-0700 (Pacific Daylight Time)","127047","","null","","","","offerFB","","<div class='trialBorder'><div class='vertical-center'><img style='vertical-align:center; align:center' src=img/fixation3.jpg></div><div class='cl'><div class='vertical-center'>$11<br>with a<br>50% chance</div></div><div class='cr'><div class='vertical-center'><font style='color:orange'>$4<br>for<br>sure</font></div></div><div class='respDivL'><div class='vertical-center'>(E)</div></div><div class='respDivR'><div class='vertical-center'><font style='color:orange'>(I)</font></div></div></div>","null","$4","$11","1","4","11",""
"html-keyboard-response","112","87267","0.0-5.0-1.36","5f2f86864fd821374b4367bc","bdp_rd","Mon Mar 27 2023 12:06:37 GMT-0700 (Pacific Daylight Time)","127047","","null","","","","FIX","","<div class='trialBorder'><div class='vertical-center'><img style='vertical-align:center; align:center' src=img/fixation3.jpg></div></div>","null","","","","","",""
"html-keyboard-response","113","87931","0.0-5.0-2.36","5f2f86864fd821374b4367bc","bdp_rd","Mon Mar 27 2023 12:06:37 GMT-0700 (Pacific Daylight Time)","127047","","663","","","","offer","","<div class='trialBorder'><div class='vertical-center'><img style='vertical-align:center; align:center' src=img/fixation3.jpg></div><div class='cl'><div class='vertical-center'>$19<br>with a<br>50% chance</div></div><div class='cr'><div class='vertical-center'>$10<br>for<br>sure</div></div><div class='respDivL'><div class='vertical-center'>(E)</div></div><div class='respDivR'><div class='vertical-center'>(I)</div></div></div>","I","$10","$19","1","10","19","SURE"
"html-keyboard-response","114","88184","0.0-5.0-3.36","5f2f86864fd821374b4367bc","bdp_rd","Mon Mar 27 2023 12:06:37 GMT-0700 (Pacific Daylight Time)","127047","","null","","","","offerFB","","<div class='trialBorder'><div class='vertical-center'><img style='vertical-align:center; align:center' src=img/fixation3.jpg></div><div class='cl'><div class='vertical-center'>$19<br>with a<br>50% chance</div></div><div class='cr'><div class='vertical-center'><font style='color:orange'>$10<br>for<br>sure</font></div></div><div class='respDivL'><div class='vertical-center'>(E)</div></div><div class='respDivR'><div class='vertical-center'><font style='color:orange'>(I)</font></div></div></div>","null","$10","$19","1","10","19",""
"html-keyboard-response","115","88685","0.0-5.0-1.37","5f2f86864fd821374b4367bc","bdp_rd","Mon Mar 27 2023 12:06:37 GMT-0700 (Pacific Daylight Time)","127047","","null","","","","FIX","","<div class='trialBorder'><div class='vertical-center'><img style='vertical-align:center; align:center' src=img/fixation3.jpg></div></div>","null","","","","","",""
"html-keyboard-response","116","89616","0.0-5.0-2.37","5f2f86864fd821374b4367bc","bdp_rd","Mon Mar 27 2023 12:06:37 GMT-0700 (Pacific Daylight Time)","127047","","929","","","","offer","","<div class='trialBorder'><div class='vertical-center'><img style='vertical-align:center; align:center' src=img/fixation3.jpg></div><div class='cl'><div class='vertical-center'>$16<br>for<br>sure</div></div><div class='cr'><div class='vertical-center'>$38<br>with a<br>50% chance</div></div><div class='respDivL'><div class='vertical-center'>(E)</div></div><div class='respDivR'><div class='vertical-center'>(I)</div></div></div>","E","$16","$38","0","16","38","SURE"
"html-keyboard-response","117","89867","0.0-5.0-3.37","5f2f86864fd821374b4367bc","bdp_rd","Mon Mar 27 2023 12:06:37 GMT-0700 (Pacific Daylight Time)","127047","","null","","","","offerFB","","<div class='trialBorder'><div class='vertical-center'><img style='vertical-align:center; align:center' src=img/fixation3.jpg></div><div class='cl'><div class='vertical-center'><font style='color:orange'>$16<br>for<br>sure</font></div></div><div class='cr'><div class='vertical-center'>$38<br>with a<br>50% chance</div></div><div class='respDivL'><div class='vertical-center'><font style='color:orange'>(E)</font></div></div><div class='respDivR'><div class='vertical-center'>(I)</div></div></div>","null","$16","$38","0","16","38",""
"html-keyboard-response","118","90369","0.0-5.0-1.38","5f2f86864fd821374b4367bc","bdp_rd","Mon Mar 27 2023 12:06:37 GMT-0700 (Pacific Daylight Time)","127047","","null","","","","FIX","","<div class='trialBorder'><div class='vertical-center'><img style='vertical-align:center; align:center' src=img/fixation3.jpg></div></div>","null","","","","","",""
"html-keyboard-response","119","91072","0.0-5.0-2.38","5f2f86864fd821374b4367bc","bdp_rd","Mon Mar 27 2023 12:06:37 GMT-0700 (Pacific Daylight Time)","127047","","703","","","","offer","","<div class='trialBorder'><div class='vertical-center'><img style='vertical-align:center; align:center' src=img/fixation3.jpg></div><div class='cl'><div class='vertical-center'>$48<br>with a<br>50% chance</div></div><div class='cr'><div class='vertical-center'>$34<br>for<br>sure</div></div><div class='respDivL'><div class='vertical-center'>(E)</div></div><div class='respDivR'><div class='vertical-center'>(I)</div></div></div>","I","$34","$48","1","34","48","SURE"
"html-keyboard-response","120","91325","0.0-5.0-3.38","5f2f86864fd821374b4367bc","bdp_rd","Mon Mar 27 2023 12:06:37 GMT-0700 (Pacific Daylight Time)","127047","","null","","","","offerFB","","<div class='trialBorder'><div class='vertical-center'><img style='vertical-align:center; align:center' src=img/fixation3.jpg></div><div class='cl'><div class='vertical-center'>$48<br>with a<br>50% chance</div></div><div class='cr'><div class='vertical-center'><font style='color:orange'>$34<br>for<br>sure</font></div></div><div class='respDivL'><div class='vertical-center'>(E)</div></div><div class='respDivR'><div class='vertical-center'><font style='color:orange'>(I)</font></div></div></div>","null","$34","$48","1","34","48",""
"html-keyboard-response","121","91826","0.0-5.0-1.39","5f2f86864fd821374b4367bc","bdp_rd","Mon Mar 27 2023 12:06:37 GMT-0700 (Pacific Daylight Time)","127047","","null","","","","FIX","","<div class='trialBorder'><div class='vertical-center'><img style='vertical-align:center; align:center' src=img/fixation3.jpg></div></div>","null","","","","","",""
"html-keyboard-response","122","92911","0.0-5.0-2.39","5f2f86864fd821374b4367bc","bdp_rd","Mon Mar 27 2023 12:06:37 GMT-0700 (Pacific Daylight Time)","127047","","1085","","","","offer","","<div class='trialBorder'><div class='vertical-center'><img style='vertical-align:center; align:center' src=img/fixation3.jpg></div><div class='cl'><div class='vertical-center'>$39<br>for<br>sure</div></div><div class='cr'><div class='vertical-center'>$81<br>with a<br>50% chance</div></div><div class='respDivL'><div class='vertical-center'>(E)</div></div><div class='respDivR'><div class='vertical-center'>(I)</div></div></div>","E","$39","$81","0","39","81","SURE"
"html-keyboard-response","123","93162","0.0-5.0-3.39","5f2f86864fd821374b4367bc","bdp_rd","Mon Mar 27 2023 12:06:37 GMT-0700 (Pacific Daylight Time)","127047","","null","","","","offerFB","","<div class='trialBorder'><div class='vertical-center'><img style='vertical-align:center; align:center' src=img/fixation3.jpg></div><div class='cl'><div class='vertical-center'><font style='color:orange'>$39<br>for<br>sure</font></div></div><div class='cr'><div class='vertical-center'>$81<br>with a<br>50% chance</div></div><div class='respDivL'><div class='vertical-center'><font style='color:orange'>(E)</font></div></div><div class='respDivR'><div class='vertical-center'>(I)</div></div></div>","null","$39","$81","0","39","81",""
"html-keyboard-response","124","93664","0.0-5.0-1.40","5f2f86864fd821374b4367bc","bdp_rd","Mon Mar 27 2023 12:06:37 GMT-0700 (Pacific Daylight Time)","127047","","null","","","","FIX","","<div class='trialBorder'><div class='vertical-center'><img style='vertical-align:center; align:center' src=img/fixation3.jpg></div></div>","null","","","","","",""
"html-keyboard-response","125","94599","0.0-5.0-2.40","5f2f86864fd821374b4367bc","bdp_rd","Mon Mar 27 2023 12:06:37 GMT-0700 (Pacific Daylight Time)","127047","","934","","","","offer","","<div class='trialBorder'><div class='vertical-center'><img style='vertical-align:center; align:center' src=img/fixation3.jpg></div><div class='cl'><div class='vertical-center'>$66<br>with a<br>50% chance</div></div><div class='cr'><div class='vertical-center'>$33<br>for<br>sure</div></div><div class='respDivL'><div class='vertical-center'>(E)</div></div><div class='respDivR'><div class='vertical-center'>(I)</div></div></div>","I","$33","$66","1","33","66","SURE"
"html-keyboard-response","126","94850","0.0-5.0-3.40","5f2f86864fd821374b4367bc","bdp_rd","Mon Mar 27 2023 12:06:37 GMT-0700 (Pacific Daylight Time)","127047","","null","","","","offerFB","","<div class='trialBorder'><div class='vertical-center'><img style='vertical-align:center; align:center' src=img/fixation3.jpg></div><div class='cl'><div class='vertical-center'>$66<br>with a<br>50% chance</div></div><div class='cr'><div class='vertical-center'><font style='color:orange'>$33<br>for<br>sure</font></div></div><div class='respDivL'><div class='vertical-center'>(E)</div></div><div class='respDivR'><div class='vertical-center'><font style='color:orange'>(I)</font></div></div></div>","null","$33","$66","1","33","66",""
"html-keyboard-response","127","95351","0.0-5.0-1.41","5f2f86864fd821374b4367bc","bdp_rd","Mon Mar 27 2023 12:06:37 GMT-0700 (Pacific Daylight Time)","127047","","null","","","","FIX","","<div class='trialBorder'><div class='vertical-center'><img style='vertical-align:center; align:center' src=img/fixation3.jpg></div></div>","null","","","","","",""
"html-keyboard-response","128","95889","0.0-5.0-2.41","5f2f86864fd821374b4367bc","bdp_rd","Mon Mar 27 2023 12:06:37 GMT-0700 (Pacific Daylight Time)","127047","","537","","","","offer","","<div class='trialBorder'><div class='vertical-center'><img style='vertical-align:center; align:center' src=img/fixation3.jpg></div><div class='cl'><div class='vertical-center'>$51<br>with a<br>50% chance</div></div><div class='cr'><div class='vertical-center'>$19<br>for<br>sure</div></div><div class='respDivL'><div class='vertical-center'>(E)</div></div><div class='respDivR'><div class='vertical-center'>(I)</div></div></div>","I","$19","$51","1","19","51","SURE"
"html-keyboard-response","129","96142","0.0-5.0-3.41","5f2f86864fd821374b4367bc","bdp_rd","Mon Mar 27 2023 12:06:37 GMT-0700 (Pacific Daylight Time)","127047","","null","","","","offerFB","","<div class='trialBorder'><div class='vertical-center'><img style='vertical-align:center; align:center' src=img/fixation3.jpg></div><div class='cl'><div class='vertical-center'>$51<br>with a<br>50% chance</div></div><div class='cr'><div class='vertical-center'><font style='color:orange'>$19<br>for<br>sure</font></div></div><div class='respDivL'><div class='vertical-center'>(E)</div></div><div class='respDivR'><div class='vertical-center'><font style='color:orange'>(I)</font></div></div></div>","null","$19","$51","1","19","51",""
"html-keyboard-response","130","96644","0.0-5.0-1.42","5f2f86864fd821374b4367bc","bdp_rd","Mon Mar 27 2023 12:06:37 GMT-0700 (Pacific Daylight Time)","127047","","null","","","","FIX","","<div class='trialBorder'><div class='vertical-center'><img style='vertical-align:center; align:center' src=img/fixation3.jpg></div></div>","null","","","","","",""
"html-keyboard-response","131","97337","0.0-5.0-2.42","5f2f86864fd821374b4367bc","bdp_rd","Mon Mar 27 2023 12:06:37 GMT-0700 (Pacific Daylight Time)","127047","","691","","","","offer","","<div class='trialBorder'><div class='vertical-center'><img style='vertical-align:center; align:center' src=img/fixation3.jpg></div><div class='cl'><div class='vertical-center'>$18<br>for<br>sure</div></div><div class='cr'><div class='vertical-center'>$39<br>with a<br>50% chance</div></div><div class='respDivL'><div class='vertical-center'>(E)</div></div><div class='respDivR'><div class='vertical-center'>(I)</div></div></div>","E","$18","$39","0","18","39","SURE"
"html-keyboard-response","132","97590","0.0-5.0-3.42","5f2f86864fd821374b4367bc","bdp_rd","Mon Mar 27 2023 12:06:37 GMT-0700 (Pacific Daylight Time)","127047","","null","","","","offerFB","","<div class='trialBorder'><div class='vertical-center'><img style='vertical-align:center; align:center' src=img/fixation3.jpg></div><div class='cl'><div class='vertical-center'><font style='color:orange'>$18<br>for<br>sure</font></div></div><div class='cr'><div class='vertical-center'>$39<br>with a<br>50% chance</div></div><div class='respDivL'><div class='vertical-center'><font style='color:orange'>(E)</font></div></div><div class='respDivR'><div class='vertical-center'>(I)</div></div></div>","null","$18","$39","0","18","39",""
"html-keyboard-response","133","98092","0.0-5.0-1.43","5f2f86864fd821374b4367bc","bdp_rd","Mon Mar 27 2023 12:06:37 GMT-0700 (Pacific Daylight Time)","127047","","null","","","","FIX","","<div class='trialBorder'><div class='vertical-center'><img style='vertical-align:center; align:center' src=img/fixation3.jpg></div></div>","null","","","","","",""
"html-keyboard-response","134","98971","0.0-5.0-2.43","5f2f86864fd821374b4367bc","bdp_rd","Mon Mar 27 2023 12:06:37 GMT-0700 (Pacific Daylight Time)","127047","","879","","","","offer","","<div class='trialBorder'><div class='vertical-center'><img style='vertical-align:center; align:center' src=img/fixation3.jpg></div><div class='cl'><div class='vertical-center'>$18<br>for<br>sure</div></div><div class='cr'><div class='vertical-center'>$36<br>with a<br>50% chance</div></div><div class='respDivL'><div class='vertical-center'>(E)</div></div><div class='respDivR'><div class='vertical-center'>(I)</div></div></div>","E","$18","$36","0","18","36","SURE"
"html-keyboard-response","135","99223","0.0-5.0-3.43","5f2f86864fd821374b4367bc","bdp_rd","Mon Mar 27 2023 12:06:37 GMT-0700 (Pacific Daylight Time)","127047","","null","","","","offerFB","","<div class='trialBorder'><div class='vertical-center'><img style='vertical-align:center; align:center' src=img/fixation3.jpg></div><div class='cl'><div class='vertical-center'><font style='color:orange'>$18<br>for<br>sure</font></div></div><div class='cr'><div class='vertical-center'>$36<br>with a<br>50% chance</div></div><div class='respDivL'><div class='vertical-center'><font style='color:orange'>(E)</font></div></div><div class='respDivR'><div class='vertical-center'>(I)</div></div></div>","null","$18","$36","0","18","36",""
"html-keyboard-response","136","99725","0.0-5.0-1.44","5f2f86864fd821374b4367bc","bdp_rd","Mon Mar 27 2023 12:06:37 GMT-0700 (Pacific Daylight Time)","127047","","null","","","","FIX","","<div class='trialBorder'><div class='vertical-center'><img style='vertical-align:center; align:center' src=img/fixation3.jpg></div></div>","null","","","","","",""
"html-keyboard-response","137","100272","0.0-5.0-2.44","5f2f86864fd821374b4367bc","bdp_rd","Mon Mar 27 2023 12:06:37 GMT-0700 (Pacific Daylight Time)","127047","","546","","","","offer","","<div class='trialBorder'><div class='vertical-center'><img style='vertical-align:center; align:center' src=img/fixation3.jpg></div><div class='cl'><div class='vertical-center'>$5<br>for<br>sure</div></div><div class='cr'><div class='vertical-center'>$50<br>with a<br>50% chance</div></div><div class='respDivL'><div class='vertical-center'>(E)</div></div><div class='respDivR'><div class='vertical-center'>(I)</div></div></div>","E","$5","$50","0","5","50","SURE"
"html-keyboard-response","138","100525","0.0-5.0-3.44","5f2f86864fd821374b4367bc","bdp_rd","Mon Mar 27 2023 12:06:37 GMT-0700 (Pacific Daylight Time)","127047","","null","","","","offerFB","","<div class='trialBorder'><div class='vertical-center'><img style='vertical-align:center; align:center' src=img/fixation3.jpg></div><div class='cl'><div class='vertical-center'><font style='color:orange'>$5<br>for<br>sure</font></div></div><div class='cr'><div class='vertical-center'>$50<br>with a<br>50% chance</div></div><div class='respDivL'><div class='vertical-center'><font style='color:orange'>(E)</font></div></div><div class='respDivR'><div class='vertical-center'>(I)</div></div></div>","null","$5","$50","0","5","50",""
"html-keyboard-response","139","101027","0.0-5.0-1.45","5f2f86864fd821374b4367bc","bdp_rd","Mon Mar 27 2023 12:06:37 GMT-0700 (Pacific Daylight Time)","127047","","null","","","","FIX","","<div class='trialBorder'><div class='vertical-center'><img style='vertical-align:center; align:center' src=img/fixation3.jpg></div></div>","null","","","","","",""
"html-keyboard-response","140","102474","0.0-5.0-2.45","5f2f86864fd821374b4367bc","bdp_rd","Mon Mar 27 2023 12:06:37 GMT-0700 (Pacific Daylight Time)","127047","","1446","","","","offer","","<div class='trialBorder'><div class='vertical-center'><img style='vertical-align:center; align:center' src=img/fixation3.jpg></div><div class='cl'><div class='vertical-center'>$43<br>with a<br>50% chance</div></div><div class='cr'><div class='vertical-center'>$17<br>for<br>sure</div></div><div class='respDivL'><div class='vertical-center'>(E)</div></div><div class='respDivR'><div class='vertical-center'>(I)</div></div></div>","I","$17","$43","1","17","43","SURE"
"html-keyboard-response","141","102727","0.0-5.0-3.45","5f2f86864fd821374b4367bc","bdp_rd","Mon Mar 27 2023 12:06:37 GMT-0700 (Pacific Daylight Time)","127047","","null","","","","offerFB","","<div class='trialBorder'><div class='vertical-center'><img style='vertical-align:center; align:center' src=img/fixation3.jpg></div><div class='cl'><div class='vertical-center'>$43<br>with a<br>50% chance</div></div><div class='cr'><div class='vertical-center'><font style='color:orange'>$17<br>for<br>sure</font></div></div><div class='respDivL'><div class='vertical-center'>(E)</div></div><div class='respDivR'><div class='vertical-center'><font style='color:orange'>(I)</font></div></div></div>","null","$17","$43","1","17","43",""
"html-keyboard-response","142","103228","0.0-5.0-1.46","5f2f86864fd821374b4367bc","bdp_rd","Mon Mar 27 2023 12:06:37 GMT-0700 (Pacific Daylight Time)","127047","","null","","","","FIX","","<div class='trialBorder'><div class='vertical-center'><img style='vertical-align:center; align:center' src=img/fixation3.jpg></div></div>","null","","","","","",""
"html-keyboard-response","143","104207","0.0-5.0-2.46","5f2f86864fd821374b4367bc","bdp_rd","Mon Mar 27 2023 12:06:37 GMT-0700 (Pacific Daylight Time)","127047","","978","","","","offer","","<div class='trialBorder'><div class='vertical-center'><img style='vertical-align:center; align:center' src=img/fixation3.jpg></div><div class='cl'><div class='vertical-center'>$15<br>with a<br>50% chance</div></div><div class='cr'><div class='vertical-center'>$6<br>for<br>sure</div></div><div class='respDivL'><div class='vertical-center'>(E)</div></div><div class='respDivR'><div class='vertical-center'>(I)</div></div></div>","I","$6","$15","1","6","15","SURE"
"html-keyboard-response","144","104459","0.0-5.0-3.46","5f2f86864fd821374b4367bc","bdp_rd","Mon Mar 27 2023 12:06:37 GMT-0700 (Pacific Daylight Time)","127047","","null","","","","offerFB","","<div class='trialBorder'><div class='vertical-center'><img style='vertical-align:center; align:center' src=img/fixation3.jpg></div><div class='cl'><div class='vertical-center'>$15<br>with a<br>50% chance</div></div><div class='cr'><div class='vertical-center'><font style='color:orange'>$6<br>for<br>sure</font></div></div><div class='respDivL'><div class='vertical-center'>(E)</div></div><div class='respDivR'><div class='vertical-center'><font style='color:orange'>(I)</font></div></div></div>","null","$6","$15","1","6","15",""
"html-keyboard-response","145","104960","0.0-5.0-1.47","5f2f86864fd821374b4367bc","bdp_rd","Mon Mar 27 2023 12:06:37 GMT-0700 (Pacific Daylight Time)","127047","","null","","","","FIX","","<div class='trialBorder'><div class='vertical-center'><img style='vertical-align:center; align:center' src=img/fixation3.jpg></div></div>","null","","","","","",""
"html-keyboard-response","146","106000","0.0-5.0-2.47","5f2f86864fd821374b4367bc","bdp_rd","Mon Mar 27 2023 12:06:37 GMT-0700 (Pacific Daylight Time)","127047","","1039","","","","offer","","<div class='trialBorder'><div class='vertical-center'><img style='vertical-align:center; align:center' src=img/fixation3.jpg></div><div class='cl'><div class='vertical-center'>$31<br>for<br>sure</div></div><div class='cr'><div class='vertical-center'>$78<br>with a<br>50% chance</div></div><div class='respDivL'><div class='vertical-center'>(E)</div></div><div class='respDivR'><div class='vertical-center'>(I)</div></div></div>","E","$31","$78","0","31","78","SURE"
"html-keyboard-response","147","106252","0.0-5.0-3.47","5f2f86864fd821374b4367bc","bdp_rd","Mon Mar 27 2023 12:06:37 GMT-0700 (Pacific Daylight Time)","127047","","null","","","","offerFB","","<div class='trialBorder'><div class='vertical-center'><img style='vertical-align:center; align:center' src=img/fixation3.jpg></div><div class='cl'><div class='vertical-center'><font style='color:orange'>$31<br>for<br>sure</font></div></div><div class='cr'><div class='vertical-center'>$78<br>with a<br>50% chance</div></div><div class='respDivL'><div class='vertical-center'><font style='color:orange'>(E)</font></div></div><div class='respDivR'><div class='vertical-center'>(I)</div></div></div>","null","$31","$78","0","31","78",""
"html-keyboard-response","148","106754","0.0-5.0-1.48","5f2f86864fd821374b4367bc","bdp_rd","Mon Mar 27 2023 12:06:37 GMT-0700 (Pacific Daylight Time)","127047","","null","","","","FIX","","<div class='trialBorder'><div class='vertical-center'><img style='vertical-align:center; align:center' src=img/fixation3.jpg></div></div>","null","","","","","",""
"html-keyboard-response","149","108161","0.0-5.0-2.48","5f2f86864fd821374b4367bc","bdp_rd","Mon Mar 27 2023 12:06:37 GMT-0700 (Pacific Daylight Time)","127047","","1405","","","","offer","","<div class='trialBorder'><div class='vertical-center'><img style='vertical-align:center; align:center' src=img/fixation3.jpg></div><div class='cl'><div class='vertical-center'>$15<br>for<br>sure</div></div><div class='cr'><div class='vertical-center'>$34<br>with a<br>50% chance</div></div><div class='respDivL'><div class='vertical-center'>(E)</div></div><div class='respDivR'><div class='vertical-center'>(I)</div></div></div>","E","$15","$34","0","15","34","SURE"
"html-keyboard-response","150","108413","0.0-5.0-3.48","5f2f86864fd821374b4367bc","bdp_rd","Mon Mar 27 2023 12:06:37 GMT-0700 (Pacific Daylight Time)","127047","","null","","","","offerFB","","<div class='trialBorder'><div class='vertical-center'><img style='vertical-align:center; align:center' src=img/fixation3.jpg></div><div class='cl'><div class='vertical-center'><font style='color:orange'>$15<br>for<br>sure</font></div></div><div class='cr'><div class='vertical-center'>$34<br>with a<br>50% chance</div></div><div class='respDivL'><div class='vertical-center'><font style='color:orange'>(E)</font></div></div><div class='respDivR'><div class='vertical-center'>(I)</div></div></div>","null","$15","$34","0","15","34",""
"html-keyboard-response","151","108915","0.0-5.0-1.49","5f2f86864fd821374b4367bc","bdp_rd","Mon Mar 27 2023 12:06:37 GMT-0700 (Pacific Daylight Time)","127047","","null","","","","FIX","","<div class='trialBorder'><div class='vertical-center'><img style='vertical-align:center; align:center' src=img/fixation3.jpg></div></div>","null","","","","","",""
"html-keyboard-response","152","109824","0.0-5.0-2.49","5f2f86864fd821374b4367bc","bdp_rd","Mon Mar 27 2023 12:06:37 GMT-0700 (Pacific Daylight Time)","127047","","908","","","","offer","","<div class='trialBorder'><div class='vertical-center'><img style='vertical-align:center; align:center' src=img/fixation3.jpg></div><div class='cl'><div class='vertical-center'>$71<br>with a<br>50% chance</div></div><div class='cr'><div class='vertical-center'>$7<br>for<br>sure</div></div><div class='respDivL'><div class='vertical-center'>(E)</div></div><div class='respDivR'><div class='vertical-center'>(I)</div></div></div>","I","$7","$71","1","7","71","SURE"
"html-keyboard-response","153","110076","0.0-5.0-3.49","5f2f86864fd821374b4367bc","bdp_rd","Mon Mar 27 2023 12:06:37 GMT-0700 (Pacific Daylight Time)","127047","","null","","","","offerFB","","<div class='trialBorder'><div class='vertical-center'><img style='vertical-align:center; align:center' src=img/fixation3.jpg></div><div class='cl'><div class='vertical-center'>$71<br>with a<br>50% chance</div></div><div class='cr'><div class='vertical-center'><font style='color:orange'>$7<br>for<br>sure</font></div></div><div class='respDivL'><div class='vertical-center'>(E)</div></div><div class='respDivR'><div class='vertical-center'><font style='color:orange'>(I)</font></div></div></div>","null","$7","$71","1","7","71",""
"html-keyboard-response","154","110579","0.0-5.0-1.50","5f2f86864fd821374b4367bc","bdp_rd","Mon Mar 27 2023 12:06:37 GMT-0700 (Pacific Daylight Time)","127047","","null","","","","FIX","","<div class='trialBorder'><div class='vertical-center'><img style='vertical-align:center; align:center' src=img/fixation3.jpg></div></div>","null","","","","","",""
"html-keyboard-response","155","111401","0.0-5.0-2.50","5f2f86864fd821374b4367bc","bdp_rd","Mon Mar 27 2023 12:06:37 GMT-0700 (Pacific Daylight Time)","127047","","820","","","","offer","","<div class='trialBorder'><div class='vertical-center'><img style='vertical-align:center; align:center' src=img/fixation3.jpg></div><div class='cl'><div class='vertical-center'>$26<br>with a<br>50% chance</div></div><div class='cr'><div class='vertical-center'>$11<br>for<br>sure</div></div><div class='respDivL'><div class='vertical-center'>(E)</div></div><div class='respDivR'><div class='vertical-center'>(I)</div></div></div>","I","$11","$26","1","11","26","SURE"
"html-keyboard-response","156","111653","0.0-5.0-3.50","5f2f86864fd821374b4367bc","bdp_rd","Mon Mar 27 2023 12:06:37 GMT-0700 (Pacific Daylight Time)","127047","","null","","","","offerFB","","<div class='trialBorder'><div class='vertical-center'><img style='vertical-align:center; align:center' src=img/fixation3.jpg></div><div class='cl'><div class='vertical-center'>$26<br>with a<br>50% chance</div></div><div class='cr'><div class='vertical-center'><font style='color:orange'>$11<br>for<br>sure</font></div></div><div class='respDivL'><div class='vertical-center'>(E)</div></div><div class='respDivR'><div class='vertical-center'><font style='color:orange'>(I)</font></div></div></div>","null","$11","$26","1","11","26",""
"html-keyboard-response","157","112155","0.0-5.0-1.51","5f2f86864fd821374b4367bc","bdp_rd","Mon Mar 27 2023 12:06:37 GMT-0700 (Pacific Daylight Time)","127047","","null","","","","FIX","","<div class='trialBorder'><div class='vertical-center'><img style='vertical-align:center; align:center' src=img/fixation3.jpg></div></div>","null","","","","","",""
"html-keyboard-response","158","113489","0.0-5.0-2.51","5f2f86864fd821374b4367bc","bdp_rd","Mon Mar 27 2023 12:06:37 GMT-0700 (Pacific Daylight Time)","127047","","1331","","","","offer","","<div class='trialBorder'><div class='vertical-center'><img style='vertical-align:center; align:center' src=img/fixation3.jpg></div><div class='cl'><div class='vertical-center'>$29<br>for<br>sure</div></div><div class='cr'><div class='vertical-center'>$46<br>with a<br>50% chance</div></div><div class='respDivL'><div class='vertical-center'>(E)</div></div><div class='respDivR'><div class='vertical-center'>(I)</div></div></div>","E","$29","$46","0","29","46","SURE"
"html-keyboard-response","159","113741","0.0-5.0-3.51","5f2f86864fd821374b4367bc","bdp_rd","Mon Mar 27 2023 12:06:37 GMT-0700 (Pacific Daylight Time)","127047","","null","","","","offerFB","","<div class='trialBorder'><div class='vertical-center'><img style='vertical-align:center; align:center' src=img/fixation3.jpg></div><div class='cl'><div class='vertical-center'><font style='color:orange'>$29<br>for<br>sure</font></div></div><div class='cr'><div class='vertical-center'>$46<br>with a<br>50% chance</div></div><div class='respDivL'><div class='vertical-center'><font style='color:orange'>(E)</font></div></div><div class='respDivR'><div class='vertical-center'>(I)</div></div></div>","null","$29","$46","0","29","46",""
"html-keyboard-response","160","114243","0.0-5.0-1.52","5f2f86864fd821374b4367bc","bdp_rd","Mon Mar 27 2023 12:06:37 GMT-0700 (Pacific Daylight Time)","127047","","null","","","","FIX","","<div class='trialBorder'><div class='vertical-center'><img style='vertical-align:center; align:center' src=img/fixation3.jpg></div></div>","null","","","","","",""
"html-keyboard-response","161","114695","0.0-5.0-2.52","5f2f86864fd821374b4367bc","bdp_rd","Mon Mar 27 2023 12:06:37 GMT-0700 (Pacific Daylight Time)","127047","","451","","","","offer","","<div class='trialBorder'><div class='vertical-center'><img style='vertical-align:center; align:center' src=img/fixation3.jpg></div><div class='cl'><div class='vertical-center'>$9<br>for<br>sure</div></div><div class='cr'><div class='vertical-center'>$18<br>with a<br>50% chance</div></div><div class='respDivL'><div class='vertical-center'>(E)</div></div><div class='respDivR'><div class='vertical-center'>(I)</div></div></div>","E","$9","$18","0","9","18","SURE"
"html-keyboard-response","162","114947","0.0-5.0-3.52","5f2f86864fd821374b4367bc","bdp_rd","Mon Mar 27 2023 12:06:37 GMT-0700 (Pacific Daylight Time)","127047","","null","","","","offerFB","","<div class='trialBorder'><div class='vertical-center'><img style='vertical-align:center; align:center' src=img/fixation3.jpg></div><div class='cl'><div class='vertical-center'><font style='color:orange'>$9<br>for<br>sure</font></div></div><div class='cr'><div class='vertical-center'>$18<br>with a<br>50% chance</div></div><div class='respDivL'><div class='vertical-center'><font style='color:orange'>(E)</font></div></div><div class='respDivR'><div class='vertical-center'>(I)</div></div></div>","null","$9","$18","0","9","18",""
"html-keyboard-response","163","115449","0.0-5.0-1.53","5f2f86864fd821374b4367bc","bdp_rd","Mon Mar 27 2023 12:06:37 GMT-0700 (Pacific Daylight Time)","127047","","null","","","","FIX","","<div class='trialBorder'><div class='vertical-center'><img style='vertical-align:center; align:center' src=img/fixation3.jpg></div></div>","null","","","","","",""
"html-keyboard-response","164","116120","0.0-5.0-2.53","5f2f86864fd821374b4367bc","bdp_rd","Mon Mar 27 2023 12:06:37 GMT-0700 (Pacific Daylight Time)","127047","","670","","","","offer","","<div class='trialBorder'><div class='vertical-center'><img style='vertical-align:center; align:center' src=img/fixation3.jpg></div><div class='cl'><div class='vertical-center'>$32<br>with a<br>50% chance</div></div><div class='cr'><div class='vertical-center'>$9<br>for<br>sure</div></div><div class='respDivL'><div class='vertical-center'>(E)</div></div><div class='respDivR'><div class='vertical-center'>(I)</div></div></div>","I","$9","$32","1","9","32","SURE"
"html-keyboard-response","165","116371","0.0-5.0-3.53","5f2f86864fd821374b4367bc","bdp_rd","Mon Mar 27 2023 12:06:37 GMT-0700 (Pacific Daylight Time)","127047","","null","","","","offerFB","","<div class='trialBorder'><div class='vertical-center'><img style='vertical-align:center; align:center' src=img/fixation3.jpg></div><div class='cl'><div class='vertical-center'>$32<br>with a<br>50% chance</div></div><div class='cr'><div class='vertical-center'><font style='color:orange'>$9<br>for<br>sure</font></div></div><div class='respDivL'><div class='vertical-center'>(E)</div></div><div class='respDivR'><div class='vertical-center'><font style='color:orange'>(I)</font></div></div></div>","null","$9","$32","1","9","32",""
"html-keyboard-response","166","116873","0.0-5.0-1.54","5f2f86864fd821374b4367bc","bdp_rd","Mon Mar 27 2023 12:06:37 GMT-0700 (Pacific Daylight Time)","127047","","null","","","","FIX","","<div class='trialBorder'><div class='vertical-center'><img style='vertical-align:center; align:center' src=img/fixation3.jpg></div></div>","null","","","","","",""
"html-keyboard-response","167","117913","0.0-5.0-2.54","5f2f86864fd821374b4367bc","bdp_rd","Mon Mar 27 2023 12:06:37 GMT-0700 (Pacific Daylight Time)","127047","","1038","","","","offer","","<div class='trialBorder'><div class='vertical-center'><img style='vertical-align:center; align:center' src=img/fixation3.jpg></div><div class='cl'><div class='vertical-center'>$17<br>with a<br>50% chance</div></div><div class='cr'><div class='vertical-center'>$3<br>for<br>sure</div></div><div class='respDivL'><div class='vertical-center'>(E)</div></div><div class='respDivR'><div class='vertical-center'>(I)</div></div></div>","I","$3","$17","1","3","17","SURE"
"html-keyboard-response","168","118165","0.0-5.0-3.54","5f2f86864fd821374b4367bc","bdp_rd","Mon Mar 27 2023 12:06:37 GMT-0700 (Pacific Daylight Time)","127047","","null","","","","offerFB","","<div class='trialBorder'><div class='vertical-center'><img style='vertical-align:center; align:center' src=img/fixation3.jpg></div><div class='cl'><div class='vertical-center'>$17<br>with a<br>50% chance</div></div><div class='cr'><div class='vertical-center'><font style='color:orange'>$3<br>for<br>sure</font></div></div><div class='respDivL'><div class='vertical-center'>(E)</div></div><div class='respDivR'><div class='vertical-center'><font style='color:orange'>(I)</font></div></div></div>","null","$3","$17","1","3","17",""
"html-keyboard-response","169","118667","0.0-5.0-1.55","5f2f86864fd821374b4367bc","bdp_rd","Mon Mar 27 2023 12:06:37 GMT-0700 (Pacific Daylight Time)","127047","","null","","","","FIX","","<div class='trialBorder'><div class='vertical-center'><img style='vertical-align:center; align:center' src=img/fixation3.jpg></div></div>","null","","","","","",""
"html-keyboard-response","170","119615","0.0-5.0-2.55","5f2f86864fd821374b4367bc","bdp_rd","Mon Mar 27 2023 12:06:37 GMT-0700 (Pacific Daylight Time)","127047","","946","","","","offer","","<div class='trialBorder'><div class='vertical-center'><img style='vertical-align:center; align:center' src=img/fixation3.jpg></div><div class='cl'><div class='vertical-center'>$42<br>with a<br>50% chance</div></div><div class='cr'><div class='vertical-center'>$22<br>for<br>sure</div></div><div class='respDivL'><div class='vertical-center'>(E)</div></div><div class='respDivR'><div class='vertical-center'>(I)</div></div></div>","I","$22","$42","1","22","42","SURE"
"html-keyboard-response","171","119868","0.0-5.0-3.55","5f2f86864fd821374b4367bc","bdp_rd","Mon Mar 27 2023 12:06:37 GMT-0700 (Pacific Daylight Time)","127047","","null","","","","offerFB","","<div class='trialBorder'><div class='vertical-center'><img style='vertical-align:center; align:center' src=img/fixation3.jpg></div><div class='cl'><div class='vertical-center'>$42<br>with a<br>50% chance</div></div><div class='cr'><div class='vertical-center'><font style='color:orange'>$22<br>for<br>sure</font></div></div><div class='respDivL'><div class='vertical-center'>(E)</div></div><div class='respDivR'><div class='vertical-center'><font style='color:orange'>(I)</font></div></div></div>","null","$22","$42","1","22","42",""
"html-keyboard-response","172","120369","0.0-5.0-1.56","5f2f86864fd821374b4367bc","bdp_rd","Mon Mar 27 2023 12:06:37 GMT-0700 (Pacific Daylight Time)","127047","","null","","","","FIX","","<div class='trialBorder'><div class='vertical-center'><img style='vertical-align:center; align:center' src=img/fixation3.jpg></div></div>","null","","","","","",""
"html-keyboard-response","173","121284","0.0-5.0-2.56","5f2f86864fd821374b4367bc","bdp_rd","Mon Mar 27 2023 12:06:37 GMT-0700 (Pacific Daylight Time)","127047","","912","","","","offer","","<div class='trialBorder'><div class='vertical-center'><img style='vertical-align:center; align:center' src=img/fixation3.jpg></div><div class='cl'><div class='vertical-center'>$24<br>for<br>sure</div></div><div class='cr'><div class='vertical-center'>$70<br>with a<br>50% chance</div></div><div class='respDivL'><div class='vertical-center'>(E)</div></div><div class='respDivR'><div class='vertical-center'>(I)</div></div></div>","E","$24","$70","0","24","70","SURE"
