"trial_type","trial_index","time_elapsed","internal_node_id","subject_id","task","startTime","totalTime","view_history","rt","event","trial","time","trialtype","success","stimulus","key_press","sureOffer","riskyOffer","riskyLeft","sureAmt","riskyAmt","chosen"
"pavlovia","0","3","0.0-0.0","63ea79021f0c43def6174042","bdp_rd","Sat Mar 25 2023 19:11:06 GMT-0500 (Central Daylight Time)","130696","","","","","","","","","","","","","","",""
"instructions","1","485","0.0-1.0","63ea79021f0c43def6174042","bdp_rd","Sat Mar 25 2023 19:11:06 GMT-0500 (Central Daylight Time)","130696","[{""page_index"":0,""viewing_time"":482}]","482","","","","","","","","","","","","",""
"","","","","63ea79021f0c43def6174042","bdp_rd","Sat Mar 25 2023 19:11:06 GMT-0500 (Central Daylight Time)","130696","","","fullscreenenter","2","2489","fullscreenenter","","","","","","","","",""
"fullscreen","2","3471","0.0-2.0","63ea79021f0c43def6174042","bdp_rd","Sat Mar 25 2023 19:11:06 GMT-0500 (Central Daylight Time)","130696","","","","","","","true","","","","","","","",""
"instructions","3","22647","0.0-4.0","63ea79021f0c43def6174042","bdp_rd","Sat Mar 25 2023 19:11:06 GMT-0500 (Central Daylight Time)","130696","[{""page_index"":0,""viewing_time"":14139},{""page_index"":1,""viewing_time"":2645},{""page_index"":2,""viewing_time"":2389}]","19173","","","","","","","","","","","","",""
"html-keyboard-response","4","23155","0.0-5.0-1.0","63ea79021f0c43def6174042","bdp_rd","Sat Mar 25 2023 19:11:06 GMT-0500 (Central Daylight Time)","130696","","null","","","","FIX","","<div class='trialBorder'><div class='vertical-center'><img style='vertical-align:center; align:center' src=img/fixation3.jpg></div></div>","null","","","","","",""
"html-keyboard-response","5","27869","0.0-5.0-2.0","63ea79021f0c43def6174042","bdp_rd","Sat Mar 25 2023 19:11:06 GMT-0500 (Central Daylight Time)","130696","","4713","","","","offer","","<div class='trialBorder'><div class='vertical-center'><img style='vertical-align:center; align:center' src=img/fixation3.jpg></div><div class='cl'><div class='vertical-center'>$64<br>with a<br>50% chance</div></div><div class='cr'><div class='vertical-center'>$2<br>for<br>sure</div></div><div class='respDivL'><div class='vertical-center'>(E)</div></div><div class='respDivR'><div class='vertical-center'>(I)</div></div></div>","E","$2","$64","1","2","64","RISKY"
"html-keyboard-response","6","28123","0.0-5.0-3.0","63ea79021f0c43def6174042","bdp_rd","Sat Mar 25 2023 19:11:06 GMT-0500 (Central Daylight Time)","130696","","null","","","","offerFB","","<div class='trialBorder'><div class='vertical-center'><img style='vertical-align:center; align:center' src=img/fixation3.jpg></div><div class='cl'><div class='vertical-center'><font style='color:orange'>$64<br>with a<br>50% chance</font></div></div><div class='cr'><div class='vertical-center'>$2<br>for<br>sure</div></div><div class='respDivL'><div class='vertical-center'><font style='color:orange'>(E)</font></div></div><div class='respDivR'><div class='vertical-center'>(I)</div></div></div>","null","$2","$64","1","2","64",""
"html-keyboard-response","7","28626","0.0-5.0-1.1","63ea79021f0c43def6174042","bdp_rd","Sat Mar 25 2023 19:11:06 GMT-0500 (Central Daylight Time)","130696","","null","","","","FIX","","<div class='trialBorder'><div class='vertical-center'><img style='vertical-align:center; align:center' src=img/fixation3.jpg></div></div>","null","","","","","",""
"html-keyboard-response","8","29816","0.0-5.0-2.1","63ea79021f0c43def6174042","bdp_rd","Sat Mar 25 2023 19:11:06 GMT-0500 (Central Daylight Time)","130696","","1188","","","","offer","","<div class='trialBorder'><div class='vertical-center'><img style='vertical-align:center; align:center' src=img/fixation3.jpg></div><div class='cl'><div class='vertical-center'>$21<br>with a<br>50% chance</div></div><div class='cr'><div class='vertical-center'>$2<br>for<br>sure</div></div><div class='respDivL'><div class='vertical-center'>(E)</div></div><div class='respDivR'><div class='vertical-center'>(I)</div></div></div>","E","$2","$21","1","2","21","RISKY"
"html-keyboard-response","9","30070","0.0-5.0-3.1","63ea79021f0c43def6174042","bdp_rd","Sat Mar 25 2023 19:11:06 GMT-0500 (Central Daylight Time)","130696","","null","","","","offerFB","","<div class='trialBorder'><div class='vertical-center'><img style='vertical-align:center; align:center' src=img/fixation3.jpg></div><div class='cl'><div class='vertical-center'><font style='color:orange'>$21<br>with a<br>50% chance</font></div></div><div class='cr'><div class='vertical-center'>$2<br>for<br>sure</div></div><div class='respDivL'><div class='vertical-center'><font style='color:orange'>(E)</font></div></div><div class='respDivR'><div class='vertical-center'>(I)</div></div></div>","null","$2","$21","1","2","21",""
"html-keyboard-response","10","30573","0.0-5.0-1.2","63ea79021f0c43def6174042","bdp_rd","Sat Mar 25 2023 19:11:06 GMT-0500 (Central Daylight Time)","130696","","null","","","","FIX","","<div class='trialBorder'><div class='vertical-center'><img style='vertical-align:center; align:center' src=img/fixation3.jpg></div></div>","null","","","","","",""
"html-keyboard-response","11","32925","0.0-5.0-2.2","63ea79021f0c43def6174042","bdp_rd","Sat Mar 25 2023 19:11:06 GMT-0500 (Central Daylight Time)","130696","","2350","","","","offer","","<div class='trialBorder'><div class='vertical-center'><img style='vertical-align:center; align:center' src=img/fixation3.jpg></div><div class='cl'><div class='vertical-center'>$10<br>for<br>sure</div></div><div class='cr'><div class='vertical-center'>$19<br>with a<br>50% chance</div></div><div class='respDivL'><div class='vertical-center'>(E)</div></div><div class='respDivR'><div class='vertical-center'>(I)</div></div></div>","I","$10","$19","0","10","19","RISKY"
"html-keyboard-response","12","33180","0.0-5.0-3.2","63ea79021f0c43def6174042","bdp_rd","Sat Mar 25 2023 19:11:06 GMT-0500 (Central Daylight Time)","130696","","null","","","","offerFB","","<div class='trialBorder'><div class='vertical-center'><img style='vertical-align:center; align:center' src=img/fixation3.jpg></div><div class='cl'><div class='vertical-center'>$10<br>for<br>sure</div></div><div class='cr'><div class='vertical-center'><font style='color:orange'>$19<br>with a<br>50% chance</font></div></div><div class='respDivL'><div class='vertical-center'>(E)</div></div><div class='respDivR'><div class='vertical-center'><font style='color:orange'>(I)</font></div></div></div>","null","$10","$19","0","10","19",""
"html-keyboard-response","13","33682","0.0-5.0-1.3","63ea79021f0c43def6174042","bdp_rd","Sat Mar 25 2023 19:11:06 GMT-0500 (Central Daylight Time)","130696","","null","","","","FIX","","<div class='trialBorder'><div class='vertical-center'><img style='vertical-align:center; align:center' src=img/fixation3.jpg></div></div>","null","","","","","",""
"html-keyboard-response","14","34929","0.0-5.0-2.3","63ea79021f0c43def6174042","bdp_rd","Sat Mar 25 2023 19:11:06 GMT-0500 (Central Daylight Time)","130696","","1243","","","","offer","","<div class='trialBorder'><div class='vertical-center'><img style='vertical-align:center; align:center' src=img/fixation3.jpg></div><div class='cl'><div class='vertical-center'>$26<br>with a<br>50% chance</div></div><div class='cr'><div class='vertical-center'>$11<br>for<br>sure</div></div><div class='respDivL'><div class='vertical-center'>(E)</div></div><div class='respDivR'><div class='vertical-center'>(I)</div></div></div>","E","$11","$26","1","11","26","RISKY"
"html-keyboard-response","15","35182","0.0-5.0-3.3","63ea79021f0c43def6174042","bdp_rd","Sat Mar 25 2023 19:11:06 GMT-0500 (Central Daylight Time)","130696","","null","","","","offerFB","","<div class='trialBorder'><div class='vertical-center'><img style='vertical-align:center; align:center' src=img/fixation3.jpg></div><div class='cl'><div class='vertical-center'><font style='color:orange'>$26<br>with a<br>50% chance</font></div></div><div class='cr'><div class='vertical-center'>$11<br>for<br>sure</div></div><div class='respDivL'><div class='vertical-center'><font style='color:orange'>(E)</font></div></div><div class='respDivR'><div class='vertical-center'>(I)</div></div></div>","null","$11","$26","1","11","26",""
"html-keyboard-response","16","35686","0.0-5.0-1.4","63ea79021f0c43def6174042","bdp_rd","Sat Mar 25 2023 19:11:06 GMT-0500 (Central Daylight Time)","130696","","null","","","","FIX","","<div class='trialBorder'><div class='vertical-center'><img style='vertical-align:center; align:center' src=img/fixation3.jpg></div></div>","null","","","","","",""
"html-keyboard-response","17","36439","0.0-5.0-2.4","63ea79021f0c43def6174042","bdp_rd","Sat Mar 25 2023 19:11:06 GMT-0500 (Central Daylight Time)","130696","","751","","","","offer","","<div class='trialBorder'><div class='vertical-center'><img style='vertical-align:center; align:center' src=img/fixation3.jpg></div><div class='cl'><div class='vertical-center'>$17<br>for<br>sure</div></div><div class='cr'><div class='vertical-center'>$43<br>with a<br>50% chance</div></div><div class='respDivL'><div class='vertical-center'>(E)</div></div><div class='respDivR'><div class='vertical-center'>(I)</div></div></div>","I","$17","$43","0","17","43","RISKY"
"html-keyboard-response","18","36692","0.0-5.0-3.4","63ea79021f0c43def6174042","bdp_rd","Sat Mar 25 2023 19:11:06 GMT-0500 (Central Daylight Time)","130696","","null","","","","offerFB","","<div class='trialBorder'><div class='vertical-center'><img style='vertical-align:center; align:center' src=img/fixation3.jpg></div><div class='cl'><div class='vertical-center'>$17<br>for<br>sure</div></div><div class='cr'><div class='vertical-center'><font style='color:orange'>$43<br>with a<br>50% chance</font></div></div><div class='respDivL'><div class='vertical-center'>(E)</div></div><div class='respDivR'><div class='vertical-center'><font style='color:orange'>(I)</font></div></div></div>","null","$17","$43","0","17","43",""
"html-keyboard-response","19","37195","0.0-5.0-1.5","63ea79021f0c43def6174042","bdp_rd","Sat Mar 25 2023 19:11:06 GMT-0500 (Central Daylight Time)","130696","","null","","","","FIX","","<div class='trialBorder'><div class='vertical-center'><img style='vertical-align:center; align:center' src=img/fixation3.jpg></div></div>","null","","","","","",""
"html-keyboard-response","20","37962","0.0-5.0-2.5","63ea79021f0c43def6174042","bdp_rd","Sat Mar 25 2023 19:11:06 GMT-0500 (Central Daylight Time)","130696","","764","","","","offer","","<div class='trialBorder'><div class='vertical-center'><img style='vertical-align:center; align:center' src=img/fixation3.jpg></div><div class='cl'><div class='vertical-center'>$12<br>for<br>sure</div></div><div class='cr'><div class='vertical-center'>$35<br>with a<br>50% chance</div></div><div class='respDivL'><div class='vertical-center'>(E)</div></div><div class='respDivR'><div class='vertical-center'>(I)</div></div></div>","I","$12","$35","0","12","35","RISKY"
"html-keyboard-response","21","38215","0.0-5.0-3.5","63ea79021f0c43def6174042","bdp_rd","Sat Mar 25 2023 19:11:06 GMT-0500 (Central Daylight Time)","130696","","null","","","","offerFB","","<div class='trialBorder'><div class='vertical-center'><img style='vertical-align:center; align:center' src=img/fixation3.jpg></div><div class='cl'><div class='vertical-center'>$12<br>for<br>sure</div></div><div class='cr'><div class='vertical-center'><font style='color:orange'>$35<br>with a<br>50% chance</font></div></div><div class='respDivL'><div class='vertical-center'>(E)</div></div><div class='respDivR'><div class='vertical-center'><font style='color:orange'>(I)</font></div></div></div>","null","$12","$35","0","12","35",""
"html-keyboard-response","22","38719","0.0-5.0-1.6","63ea79021f0c43def6174042","bdp_rd","Sat Mar 25 2023 19:11:06 GMT-0500 (Central Daylight Time)","130696","","null","","","","FIX","","<div class='trialBorder'><div class='vertical-center'><img style='vertical-align:center; align:center' src=img/fixation3.jpg></div></div>","null","","","","","",""
"html-keyboard-response","23","39618","0.0-5.0-2.6","63ea79021f0c43def6174042","bdp_rd","Sat Mar 25 2023 19:11:06 GMT-0500 (Central Daylight Time)","130696","","897","","","","offer","","<div class='trialBorder'><div class='vertical-center'><img style='vertical-align:center; align:center' src=img/fixation3.jpg></div><div class='cl'><div class='vertical-center'>$71<br>with a<br>50% chance</div></div><div class='cr'><div class='vertical-center'>$7<br>for<br>sure</div></div><div class='respDivL'><div class='vertical-center'>(E)</div></div><div class='respDivR'><div class='vertical-center'>(I)</div></div></div>","E","$7","$71","1","7","71","RISKY"
"html-keyboard-response","24","39872","0.0-5.0-3.6","63ea79021f0c43def6174042","bdp_rd","Sat Mar 25 2023 19:11:06 GMT-0500 (Central Daylight Time)","130696","","null","","","","offerFB","","<div class='trialBorder'><div class='vertical-center'><img style='vertical-align:center; align:center' src=img/fixation3.jpg></div><div class='cl'><div class='vertical-center'><font style='color:orange'>$71<br>with a<br>50% chance</font></div></div><div class='cr'><div class='vertical-center'>$7<br>for<br>sure</div></div><div class='respDivL'><div class='vertical-center'><font style='color:orange'>(E)</font></div></div><div class='respDivR'><div class='vertical-center'>(I)</div></div></div>","null","$7","$71","1","7","71",""
"html-keyboard-response","25","40375","0.0-5.0-1.7","63ea79021f0c43def6174042","bdp_rd","Sat Mar 25 2023 19:11:06 GMT-0500 (Central Daylight Time)","130696","","null","","","","FIX","","<div class='trialBorder'><div class='vertical-center'><img style='vertical-align:center; align:center' src=img/fixation3.jpg></div></div>","null","","","","","",""
"html-keyboard-response","26","40955","0.0-5.0-2.7","63ea79021f0c43def6174042","bdp_rd","Sat Mar 25 2023 19:11:06 GMT-0500 (Central Daylight Time)","130696","","576","","","","offer","","<div class='trialBorder'><div class='vertical-center'><img style='vertical-align:center; align:center' src=img/fixation3.jpg></div><div class='cl'><div class='vertical-center'>$18<br>for<br>sure</div></div><div class='cr'><div class='vertical-center'>$39<br>with a<br>50% chance</div></div><div class='respDivL'><div class='vertical-center'>(E)</div></div><div class='respDivR'><div class='vertical-center'>(I)</div></div></div>","I","$18","$39","0","18","39","RISKY"
"html-keyboard-response","27","41208","0.0-5.0-3.7","63ea79021f0c43def6174042","bdp_rd","Sat Mar 25 2023 19:11:06 GMT-0500 (Central Daylight Time)","130696","","null","","","","offerFB","","<div class='trialBorder'><div class='vertical-center'><img style='vertical-align:center; align:center' src=img/fixation3.jpg></div><div class='cl'><div class='vertical-center'>$18<br>for<br>sure</div></div><div class='cr'><div class='vertical-center'><font style='color:orange'>$39<br>with a<br>50% chance</font></div></div><div class='respDivL'><div class='vertical-center'>(E)</div></div><div class='respDivR'><div class='vertical-center'><font style='color:orange'>(I)</font></div></div></div>","null","$18","$39","0","18","39",""
"html-keyboard-response","28","41711","0.0-5.0-1.8","63ea79021f0c43def6174042","bdp_rd","Sat Mar 25 2023 19:11:06 GMT-0500 (Central Daylight Time)","130696","","null","","","","FIX","","<div class='trialBorder'><div class='vertical-center'><img style='vertical-align:center; align:center' src=img/fixation3.jpg></div></div>","null","","","","","",""
"html-keyboard-response","29","42220","0.0-5.0-2.8","63ea79021f0c43def6174042","bdp_rd","Sat Mar 25 2023 19:11:06 GMT-0500 (Central Daylight Time)","130696","","506","","","","offer","","<div class='trialBorder'><div class='vertical-center'><img style='vertical-align:center; align:center' src=img/fixation3.jpg></div><div class='cl'><div class='vertical-center'>$32<br>with a<br>50% chance</div></div><div class='cr'><div class='vertical-center'>$9<br>for<br>sure</div></div><div class='respDivL'><div class='vertical-center'>(E)</div></div><div class='respDivR'><div class='vertical-center'>(I)</div></div></div>","E","$9","$32","1","9","32","RISKY"
"html-keyboard-response","30","42474","0.0-5.0-3.8","63ea79021f0c43def6174042","bdp_rd","Sat Mar 25 2023 19:11:06 GMT-0500 (Central Daylight Time)","130696","","null","","","","offerFB","","<div class='trialBorder'><div class='vertical-center'><img style='vertical-align:center; align:center' src=img/fixation3.jpg></div><div class='cl'><div class='vertical-center'><font style='color:orange'>$32<br>with a<br>50% chance</font></div></div><div class='cr'><div class='vertical-center'>$9<br>for<br>sure</div></div><div class='respDivL'><div class='vertical-center'><font style='color:orange'>(E)</font></div></div><div class='respDivR'><div class='vertical-center'>(I)</div></div></div>","null","$9","$32","1","9","32",""
"html-keyboard-response","31","42977","0.0-5.0-1.9","63ea79021f0c43def6174042","bdp_rd","Sat Mar 25 2023 19:11:06 GMT-0500 (Central Daylight Time)","130696","","null","","","","FIX","","<div class='trialBorder'><div class='vertical-center'><img style='vertical-align:center; align:center' src=img/fixation3.jpg></div></div>","null","","","","","",""
"html-keyboard-response","32","44101","0.0-5.0-2.9","63ea79021f0c43def6174042","bdp_rd","Sat Mar 25 2023 19:11:06 GMT-0500 (Central Daylight Time)","130696","","1122","","","","offer","","<div class='trialBorder'><div class='vertical-center'><img style='vertical-align:center; align:center' src=img/fixation3.jpg></div><div class='cl'><div class='vertical-center'>$30<br>with a<br>50% chance</div></div><div class='cr'><div class='vertical-center'>$1<br>for<br>sure</div></div><div class='respDivL'><div class='vertical-center'>(E)</div></div><div class='respDivR'><div class='vertical-center'>(I)</div></div></div>","E","$1","$30","1","1","30","RISKY"
"html-keyboard-response","33","44354","0.0-5.0-3.9","63ea79021f0c43def6174042","bdp_rd","Sat Mar 25 2023 19:11:06 GMT-0500 (Central Daylight Time)","130696","","null","","","","offerFB","","<div class='trialBorder'><div class='vertical-center'><img style='vertical-align:center; align:center' src=img/fixation3.jpg></div><div class='cl'><div class='vertical-center'><font style='color:orange'>$30<br>with a<br>50% chance</font></div></div><div class='cr'><div class='vertical-center'>$1<br>for<br>sure</div></div><div class='respDivL'><div class='vertical-center'><font style='color:orange'>(E)</font></div></div><div class='respDivR'><div class='vertical-center'>(I)</div></div></div>","null","$1","$30","1","1","30",""
"html-keyboard-response","34","44860","0.0-5.0-1.10","63ea79021f0c43def6174042","bdp_rd","Sat Mar 25 2023 19:11:06 GMT-0500 (Central Daylight Time)","130696","","null","","","","FIX","","<div class='trialBorder'><div class='vertical-center'><img style='vertical-align:center; align:center' src=img/fixation3.jpg></div></div>","null","","","","","",""
"html-keyboard-response","35","46629","0.0-5.0-2.10","63ea79021f0c43def6174042","bdp_rd","Sat Mar 25 2023 19:11:06 GMT-0500 (Central Daylight Time)","130696","","1767","","","","offer","","<div class='trialBorder'><div class='vertical-center'><img style='vertical-align:center; align:center' src=img/fixation3.jpg></div><div class='cl'><div class='vertical-center'>$18<br>for<br>sure</div></div><div class='cr'><div class='vertical-center'>$36<br>with a<br>50% chance</div></div><div class='respDivL'><div class='vertical-center'>(E)</div></div><div class='respDivR'><div class='vertical-center'>(I)</div></div></div>","I","$18","$36","0","18","36","RISKY"
"html-keyboard-response","36","46882","0.0-5.0-3.10","63ea79021f0c43def6174042","bdp_rd","Sat Mar 25 2023 19:11:06 GMT-0500 (Central Daylight Time)","130696","","null","","","","offerFB","","<div class='trialBorder'><div class='vertical-center'><img style='vertical-align:center; align:center' src=img/fixation3.jpg></div><div class='cl'><div class='vertical-center'>$18<br>for<br>sure</div></div><div class='cr'><div class='vertical-center'><font style='color:orange'>$36<br>with a<br>50% chance</font></div></div><div class='respDivL'><div class='vertical-center'>(E)</div></div><div class='respDivR'><div class='vertical-center'><font style='color:orange'>(I)</font></div></div></div>","null","$18","$36","0","18","36",""
"html-keyboard-response","37","47399","0.0-5.0-1.11","63ea79021f0c43def6174042","bdp_rd","Sat Mar 25 2023 19:11:06 GMT-0500 (Central Daylight Time)","130696","","null","","","","FIX","","<div class='trialBorder'><div class='vertical-center'><img style='vertical-align:center; align:center' src=img/fixation3.jpg></div></div>","null","","","","","",""
"html-keyboard-response","38","49939","0.0-5.0-2.11","63ea79021f0c43def6174042","bdp_rd","Sat Mar 25 2023 19:11:06 GMT-0500 (Central Daylight Time)","130696","","2539","","","","offer","","<div class='trialBorder'><div class='vertical-center'><img style='vertical-align:center; align:center' src=img/fixation3.jpg></div><div class='cl'><div class='vertical-center'>$10<br>with a<br>50% chance</div></div><div class='cr'><div class='vertical-center'>$7<br>for<br>sure</div></div><div class='respDivL'><div class='vertical-center'>(E)</div></div><div class='respDivR'><div class='vertical-center'>(I)</div></div></div>","E","$7","$10","1","7","10","RISKY"
"html-keyboard-response","39","50193","0.0-5.0-3.11","63ea79021f0c43def6174042","bdp_rd","Sat Mar 25 2023 19:11:06 GMT-0500 (Central Daylight Time)","130696","","null","","","","offerFB","","<div class='trialBorder'><div class='vertical-center'><img style='vertical-align:center; align:center' src=img/fixation3.jpg></div><div class='cl'><div class='vertical-center'><font style='color:orange'>$10<br>with a<br>50% chance</font></div></div><div class='cr'><div class='vertical-center'>$7<br>for<br>sure</div></div><div class='respDivL'><div class='vertical-center'><font style='color:orange'>(E)</font></div></div><div class='respDivR'><div class='vertical-center'>(I)</div></div></div>","null","$7","$10","1","7","10",""
"html-keyboard-response","40","50697","0.0-5.0-1.12","63ea79021f0c43def6174042","bdp_rd","Sat Mar 25 2023 19:11:06 GMT-0500 (Central Daylight Time)","130696","","null","","","","FIX","","<div class='trialBorder'><div class='vertical-center'><img style='vertical-align:center; align:center' src=img/fixation3.jpg></div></div>","null","","","","","",""
"html-keyboard-response","41","51889","0.0-5.0-2.12","63ea79021f0c43def6174042","bdp_rd","Sat Mar 25 2023 19:11:06 GMT-0500 (Central Daylight Time)","130696","","1188","","","","offer","","<div class='trialBorder'><div class='vertical-center'><img style='vertical-align:center; align:center' src=img/fixation3.jpg></div><div class='cl'><div class='vertical-center'>$16<br>for<br>sure</div></div><div class='cr'><div class='vertical-center'>$28<br>with a<br>50% chance</div></div><div class='respDivL'><div class='vertical-center'>(E)</div></div><div class='respDivR'><div class='vertical-center'>(I)</div></div></div>","I","$16","$28","0","16","28","RISKY"
"html-keyboard-response","42","52143","0.0-5.0-3.12","63ea79021f0c43def6174042","bdp_rd","Sat Mar 25 2023 19:11:06 GMT-0500 (Central Daylight Time)","130696","","null","","","","offerFB","","<div class='trialBorder'><div class='vertical-center'><img style='vertical-align:center; align:center' src=img/fixation3.jpg></div><div class='cl'><div class='vertical-center'>$16<br>for<br>sure</div></div><div class='cr'><div class='vertical-center'><font style='color:orange'>$28<br>with a<br>50% chance</font></div></div><div class='respDivL'><div class='vertical-center'>(E)</div></div><div class='respDivR'><div class='vertical-center'><font style='color:orange'>(I)</font></div></div></div>","null","$16","$28","0","16","28",""
"html-keyboard-response","43","52646","0.0-5.0-1.13","63ea79021f0c43def6174042","bdp_rd","Sat Mar 25 2023 19:11:06 GMT-0500 (Central Daylight Time)","130696","","null","","","","FIX","","<div class='trialBorder'><div class='vertical-center'><img style='vertical-align:center; align:center' src=img/fixation3.jpg></div></div>","null","","","","","",""
"html-keyboard-response","44","53929","0.0-5.0-2.13","63ea79021f0c43def6174042","bdp_rd","Sat Mar 25 2023 19:11:06 GMT-0500 (Central Daylight Time)","130696","","1280","","","","offer","","<div class='trialBorder'><div class='vertical-center'><img style='vertical-align:center; align:center' src=img/fixation3.jpg></div><div class='cl'><div class='vertical-center'>$13<br>with a<br>50% chance</div></div><div class='cr'><div class='vertical-center'>$6<br>for<br>sure</div></div><div class='respDivL'><div class='vertical-center'>(E)</div></div><div class='respDivR'><div class='vertical-center'>(I)</div></div></div>","E","$6","$13","1","6","13","RISKY"
"html-keyboard-response","45","54181","0.0-5.0-3.13","63ea79021f0c43def6174042","bdp_rd","Sat Mar 25 2023 19:11:06 GMT-0500 (Central Daylight Time)","130696","","null","","","","offerFB","","<div class='trialBorder'><div class='vertical-center'><img style='vertical-align:center; align:center' src=img/fixation3.jpg></div><div class='cl'><div class='vertical-center'><font style='color:orange'>$13<br>with a<br>50% chance</font></div></div><div class='cr'><div class='vertical-center'>$6<br>for<br>sure</div></div><div class='respDivL'><div class='vertical-center'><font style='color:orange'>(E)</font></div></div><div class='respDivR'><div class='vertical-center'>(I)</div></div></div>","null","$6","$13","1","6","13",""
"html-keyboard-response","46","54684","0.0-5.0-1.14","63ea79021f0c43def6174042","bdp_rd","Sat Mar 25 2023 19:11:06 GMT-0500 (Central Daylight Time)","130696","","null","","","","FIX","","<div class='trialBorder'><div class='vertical-center'><img style='vertical-align:center; align:center' src=img/fixation3.jpg></div></div>","null","","","","","",""
"html-keyboard-response","47","55913","0.0-5.0-2.14","63ea79021f0c43def6174042","bdp_rd","Sat Mar 25 2023 19:11:06 GMT-0500 (Central Daylight Time)","130696","","1225","","","","offer","","<div class='trialBorder'><div class='vertical-center'><img style='vertical-align:center; align:center' src=img/fixation3.jpg></div><div class='cl'><div class='vertical-center'>$17<br>with a<br>50% chance</div></div><div class='cr'><div class='vertical-center'>$3<br>for<br>sure</div></div><div class='respDivL'><div class='vertical-center'>(E)</div></div><div class='respDivR'><div class='vertical-center'>(I)</div></div></div>","E","$3","$17","1","3","17","RISKY"
"html-keyboard-response","48","56166","0.0-5.0-3.14","63ea79021f0c43def6174042","bdp_rd","Sat Mar 25 2023 19:11:06 GMT-0500 (Central Daylight Time)","130696","","null","","","","offerFB","","<div class='trialBorder'><div class='vertical-center'><img style='vertical-align:center; align:center' src=img/fixation3.jpg></div><div class='cl'><div class='vertical-center'><font style='color:orange'>$17<br>with a<br>50% chance</font></div></div><div class='cr'><div class='vertical-center'>$3<br>for<br>sure</div></div><div class='respDivL'><div class='vertical-center'><font style='color:orange'>(E)</font></div></div><div class='respDivR'><div class='vertical-center'>(I)</div></div></div>","null","$3","$17","1","3","17",""
"html-keyboard-response","49","56669","0.0-5.0-1.15","63ea79021f0c43def6174042","bdp_rd","Sat Mar 25 2023 19:11:06 GMT-0500 (Central Daylight Time)","130696","","null","","","","FIX","","<div class='trialBorder'><div class='vertical-center'><img style='vertical-align:center; align:center' src=img/fixation3.jpg></div></div>","null","","","","","",""
"html-keyboard-response","50","57922","0.0-5.0-2.15","63ea79021f0c43def6174042","bdp_rd","Sat Mar 25 2023 19:11:06 GMT-0500 (Central Daylight Time)","130696","","1250","","","","offer","","<div class='trialBorder'><div class='vertical-center'><img style='vertical-align:center; align:center' src=img/fixation3.jpg></div><div class='cl'><div class='vertical-center'>$40<br>with a<br>50% chance</div></div><div class='cr'><div class='vertical-center'>$10<br>for<br>sure</div></div><div class='respDivL'><div class='vertical-center'>(E)</div></div><div class='respDivR'><div class='vertical-center'>(I)</div></div></div>","E","$10","$40","1","10","40","RISKY"
"html-keyboard-response","51","58175","0.0-5.0-3.15","63ea79021f0c43def6174042","bdp_rd","Sat Mar 25 2023 19:11:06 GMT-0500 (Central Daylight Time)","130696","","null","","","","offerFB","","<div class='trialBorder'><div class='vertical-center'><img style='vertical-align:center; align:center' src=img/fixation3.jpg></div><div class='cl'><div class='vertical-center'><font style='color:orange'>$40<br>with a<br>50% chance</font></div></div><div class='cr'><div class='vertical-center'>$10<br>for<br>sure</div></div><div class='respDivL'><div class='vertical-center'><font style='color:orange'>(E)</font></div></div><div class='respDivR'><div class='vertical-center'>(I)</div></div></div>","null","$10","$40","1","10","40",""
"html-keyboard-response","52","58679","0.0-5.0-1.16","63ea79021f0c43def6174042","bdp_rd","Sat Mar 25 2023 19:11:06 GMT-0500 (Central Daylight Time)","130696","","null","","","","FIX","","<div class='trialBorder'><div class='vertical-center'><img style='vertical-align:center; align:center' src=img/fixation3.jpg></div></div>","null","","","","","",""
"html-keyboard-response","53","60213","0.0-5.0-2.16","63ea79021f0c43def6174042","bdp_rd","Sat Mar 25 2023 19:11:06 GMT-0500 (Central Daylight Time)","130696","","1531","","","","offer","","<div class='trialBorder'><div class='vertical-center'><img style='vertical-align:center; align:center' src=img/fixation3.jpg></div><div class='cl'><div class='vertical-center'>$98<br>with a<br>50% chance</div></div><div class='cr'><div class='vertical-center'>$53<br>for<br>sure</div></div><div class='respDivL'><div class='vertical-center'>(E)</div></div><div class='respDivR'><div class='vertical-center'>(I)</div></div></div>","E","$53","$98","1","53","98","RISKY"
"html-keyboard-response","54","60465","0.0-5.0-3.16","63ea79021f0c43def6174042","bdp_rd","Sat Mar 25 2023 19:11:06 GMT-0500 (Central Daylight Time)","130696","","null","","","","offerFB","","<div class='trialBorder'><div class='vertical-center'><img style='vertical-align:center; align:center' src=img/fixation3.jpg></div><div class='cl'><div class='vertical-center'><font style='color:orange'>$98<br>with a<br>50% chance</font></div></div><div class='cr'><div class='vertical-center'>$53<br>for<br>sure</div></div><div class='respDivL'><div class='vertical-center'><font style='color:orange'>(E)</font></div></div><div class='respDivR'><div class='vertical-center'>(I)</div></div></div>","null","$53","$98","1","53","98",""
"html-keyboard-response","55","60969","0.0-5.0-1.17","63ea79021f0c43def6174042","bdp_rd","Sat Mar 25 2023 19:11:06 GMT-0500 (Central Daylight Time)","130696","","null","","","","FIX","","<div class='trialBorder'><div class='vertical-center'><img style='vertical-align:center; align:center' src=img/fixation3.jpg></div></div>","null","","","","","",""
"html-keyboard-response","56","62680","0.0-5.0-2.17","63ea79021f0c43def6174042","bdp_rd","Sat Mar 25 2023 19:11:06 GMT-0500 (Central Daylight Time)","130696","","1708","","","","offer","","<div class='trialBorder'><div class='vertical-center'><img style='vertical-align:center; align:center' src=img/fixation3.jpg></div><div class='cl'><div class='vertical-center'>$89<br>with a<br>50% chance</div></div><div class='cr'><div class='vertical-center'>$28<br>for<br>sure</div></div><div class='respDivL'><div class='vertical-center'>(E)</div></div><div class='respDivR'><div class='vertical-center'>(I)</div></div></div>","E","$28","$89","1","28","89","RISKY"
"html-keyboard-response","57","62933","0.0-5.0-3.17","63ea79021f0c43def6174042","bdp_rd","Sat Mar 25 2023 19:11:06 GMT-0500 (Central Daylight Time)","130696","","null","","","","offerFB","","<div class='trialBorder'><div class='vertical-center'><img style='vertical-align:center; align:center' src=img/fixation3.jpg></div><div class='cl'><div class='vertical-center'><font style='color:orange'>$89<br>with a<br>50% chance</font></div></div><div class='cr'><div class='vertical-center'>$28<br>for<br>sure</div></div><div class='respDivL'><div class='vertical-center'><font style='color:orange'>(E)</font></div></div><div class='respDivR'><div class='vertical-center'>(I)</div></div></div>","null","$28","$89","1","28","89",""
"html-keyboard-response","58","63436","0.0-5.0-1.18","63ea79021f0c43def6174042","bdp_rd","Sat Mar 25 2023 19:11:06 GMT-0500 (Central Daylight Time)","130696","","null","","","","FIX","","<div class='trialBorder'><div class='vertical-center'><img style='vertical-align:center; align:center' src=img/fixation3.jpg></div></div>","null","","","","","",""
"html-keyboard-response","59","65514","0.0-5.0-2.18","63ea79021f0c43def6174042","bdp_rd","Sat Mar 25 2023 19:11:06 GMT-0500 (Central Daylight Time)","130696","","2075","","","","offer","","<div class='trialBorder'><div class='vertical-center'><img style='vertical-align:center; align:center' src=img/fixation3.jpg></div><div class='cl'><div class='vertical-center'>$8<br>for<br>sure</div></div><div class='cr'><div class='vertical-center'>$23<br>with a<br>50% chance</div></div><div class='respDivL'><div class='vertical-center'>(E)</div></div><div class='respDivR'><div class='vertical-center'>(I)</div></div></div>","I","$8","$23","0","8","23","RISKY"
"html-keyboard-response","60","65767","0.0-5.0-3.18","63ea79021f0c43def6174042","bdp_rd","Sat Mar 25 2023 19:11:06 GMT-0500 (Central Daylight Time)","130696","","null","","","","offerFB","","<div class='trialBorder'><div class='vertical-center'><img style='vertical-align:center; align:center' src=img/fixation3.jpg></div><div class='cl'><div class='vertical-center'>$8<br>for<br>sure</div></div><div class='cr'><div class='vertical-center'><font style='color:orange'>$23<br>with a<br>50% chance</font></div></div><div class='respDivL'><div class='vertical-center'>(E)</div></div><div class='respDivR'><div class='vertical-center'><font style='color:orange'>(I)</font></div></div></div>","null","$8","$23","0","8","23",""
"html-keyboard-response","61","66270","0.0-5.0-1.19","63ea79021f0c43def6174042","bdp_rd","Sat Mar 25 2023 19:11:06 GMT-0500 (Central Daylight Time)","130696","","null","","","","FIX","","<div class='trialBorder'><div class='vertical-center'><img style='vertical-align:center; align:center' src=img/fixation3.jpg></div></div>","null","","","","","",""
"html-keyboard-response","62","67806","0.0-5.0-2.19","63ea79021f0c43def6174042","bdp_rd","Sat Mar 25 2023 19:11:06 GMT-0500 (Central Daylight Time)","130696","","1534","","","","offer","","<div class='trialBorder'><div class='vertical-center'><img style='vertical-align:center; align:center' src=img/fixation3.jpg></div><div class='cl'><div class='vertical-center'>$65<br>with a<br>50% chance</div></div><div class='cr'><div class='vertical-center'>$46<br>for<br>sure</div></div><div class='respDivL'><div class='vertical-center'>(E)</div></div><div class='respDivR'><div class='vertical-center'>(I)</div></div></div>","E","$46","$65","1","46","65","RISKY"
"html-keyboard-response","63","68059","0.0-5.0-3.19","63ea79021f0c43def6174042","bdp_rd","Sat Mar 25 2023 19:11:06 GMT-0500 (Central Daylight Time)","130696","","null","","","","offerFB","","<div class='trialBorder'><div class='vertical-center'><img style='vertical-align:center; align:center' src=img/fixation3.jpg></div><div class='cl'><div class='vertical-center'><font style='color:orange'>$65<br>with a<br>50% chance</font></div></div><div class='cr'><div class='vertical-center'>$46<br>for<br>sure</div></div><div class='respDivL'><div class='vertical-center'><font style='color:orange'>(E)</font></div></div><div class='respDivR'><div class='vertical-center'>(I)</div></div></div>","null","$46","$65","1","46","65",""
"html-keyboard-response","64","68562","0.0-5.0-1.20","63ea79021f0c43def6174042","bdp_rd","Sat Mar 25 2023 19:11:06 GMT-0500 (Central Daylight Time)","130696","","null","","","","FIX","","<div class='trialBorder'><div class='vertical-center'><img style='vertical-align:center; align:center' src=img/fixation3.jpg></div></div>","null","","","","","",""
"html-keyboard-response","65","69520","0.0-5.0-2.20","63ea79021f0c43def6174042","bdp_rd","Sat Mar 25 2023 19:11:06 GMT-0500 (Central Daylight Time)","130696","","956","","","","offer","","<div class='trialBorder'><div class='vertical-center'><img style='vertical-align:center; align:center' src=img/fixation3.jpg></div><div class='cl'><div class='vertical-center'>$45<br>for<br>sure</div></div><div class='cr'><div class='vertical-center'>$86<br>with a<br>50% chance</div></div><div class='respDivL'><div class='vertical-center'>(E)</div></div><div class='respDivR'><div class='vertical-center'>(I)</div></div></div>","I","$45","$86","0","45","86","RISKY"
"html-keyboard-response","66","69773","0.0-5.0-3.20","63ea79021f0c43def6174042","bdp_rd","Sat Mar 25 2023 19:11:06 GMT-0500 (Central Daylight Time)","130696","","null","","","","offerFB","","<div class='trialBorder'><div class='vertical-center'><img style='vertical-align:center; align:center' src=img/fixation3.jpg></div><div class='cl'><div class='vertical-center'>$45<br>for<br>sure</div></div><div class='cr'><div class='vertical-center'><font style='color:orange'>$86<br>with a<br>50% chance</font></div></div><div class='respDivL'><div class='vertical-center'>(E)</div></div><div class='respDivR'><div class='vertical-center'><font style='color:orange'>(I)</font></div></div></div>","null","$45","$86","0","45","86",""
"html-keyboard-response","67","70275","0.0-5.0-1.21","63ea79021f0c43def6174042","bdp_rd","Sat Mar 25 2023 19:11:06 GMT-0500 (Central Daylight Time)","130696","","null","","","","FIX","","<div class='trialBorder'><div class='vertical-center'><img style='vertical-align:center; align:center' src=img/fixation3.jpg></div></div>","null","","","","","",""
"html-keyboard-response","68","70981","0.0-5.0-2.21","63ea79021f0c43def6174042","bdp_rd","Sat Mar 25 2023 19:11:06 GMT-0500 (Central Daylight Time)","130696","","703","","","","offer","","<div class='trialBorder'><div class='vertical-center'><img style='vertical-align:center; align:center' src=img/fixation3.jpg></div><div class='cl'><div class='vertical-center'>$29<br>with a<br>50% chance</div></div><div class='cr'><div class='vertical-center'>$14<br>for<br>sure</div></div><div class='respDivL'><div class='vertical-center'>(E)</div></div><div class='respDivR'><div class='vertical-center'>(I)</div></div></div>","E","$14","$29","1","14","29","RISKY"
"html-keyboard-response","69","71233","0.0-5.0-3.21","63ea79021f0c43def6174042","bdp_rd","Sat Mar 25 2023 19:11:06 GMT-0500 (Central Daylight Time)","130696","","null","","","","offerFB","","<div class='trialBorder'><div class='vertical-center'><img style='vertical-align:center; align:center' src=img/fixation3.jpg></div><div class='cl'><div class='vertical-center'><font style='color:orange'>$29<br>with a<br>50% chance</font></div></div><div class='cr'><div class='vertical-center'>$14<br>for<br>sure</div></div><div class='respDivL'><div class='vertical-center'><font style='color:orange'>(E)</font></div></div><div class='respDivR'><div class='vertical-center'>(I)</div></div></div>","null","$14","$29","1","14","29",""
"html-keyboard-response","70","71736","0.0-5.0-1.22","63ea79021f0c43def6174042","bdp_rd","Sat Mar 25 2023 19:11:06 GMT-0500 (Central Daylight Time)","130696","","null","","","","FIX","","<div class='trialBorder'><div class='vertical-center'><img style='vertical-align:center; align:center' src=img/fixation3.jpg></div></div>","null","","","","","",""
"html-keyboard-response","71","72616","0.0-5.0-2.22","63ea79021f0c43def6174042","bdp_rd","Sat Mar 25 2023 19:11:06 GMT-0500 (Central Daylight Time)","130696","","878","","","","offer","","<div class='trialBorder'><div class='vertical-center'><img style='vertical-align:center; align:center' src=img/fixation3.jpg></div><div class='cl'><div class='vertical-center'>$68<br>with a<br>50% chance</div></div><div class='cr'><div class='vertical-center'>$30<br>for<br>sure</div></div><div class='respDivL'><div class='vertical-center'>(E)</div></div><div class='respDivR'><div class='vertical-center'>(I)</div></div></div>","E","$30","$68","1","30","68","RISKY"
"html-keyboard-response","72","72870","0.0-5.0-3.22","63ea79021f0c43def6174042","bdp_rd","Sat Mar 25 2023 19:11:06 GMT-0500 (Central Daylight Time)","130696","","null","","","","offerFB","","<div class='trialBorder'><div class='vertical-center'><img style='vertical-align:center; align:center' src=img/fixation3.jpg></div><div class='cl'><div class='vertical-center'><font style='color:orange'>$68<br>with a<br>50% chance</font></div></div><div class='cr'><div class='vertical-center'>$30<br>for<br>sure</div></div><div class='respDivL'><div class='vertical-center'><font style='color:orange'>(E)</font></div></div><div class='respDivR'><div class='vertical-center'>(I)</div></div></div>","null","$30","$68","1","30","68",""
"html-keyboard-response","73","73372","0.0-5.0-1.23","63ea79021f0c43def6174042","bdp_rd","Sat Mar 25 2023 19:11:06 GMT-0500 (Central Daylight Time)","130696","","null","","","","FIX","","<div class='trialBorder'><div class='vertical-center'><img style='vertical-align:center; align:center' src=img/fixation3.jpg></div></div>","null","","","","","",""
"html-keyboard-response","74","74542","0.0-5.0-2.23","63ea79021f0c43def6174042","bdp_rd","Sat Mar 25 2023 19:11:06 GMT-0500 (Central Daylight Time)","130696","","1168","","","","offer","","<div class='trialBorder'><div class='vertical-center'><img style='vertical-align:center; align:center' src=img/fixation3.jpg></div><div class='cl'><div class='vertical-center'>$48<br>with a<br>50% chance</div></div><div class='cr'><div class='vertical-center'>$34<br>for<br>sure</div></div><div class='respDivL'><div class='vertical-center'>(E)</div></div><div class='respDivR'><div class='vertical-center'>(I)</div></div></div>","E","$34","$48","1","34","48","RISKY"
"html-keyboard-response","75","74795","0.0-5.0-3.23","63ea79021f0c43def6174042","bdp_rd","Sat Mar 25 2023 19:11:06 GMT-0500 (Central Daylight Time)","130696","","null","","","","offerFB","","<div class='trialBorder'><div class='vertical-center'><img style='vertical-align:center; align:center' src=img/fixation3.jpg></div><div class='cl'><div class='vertical-center'><font style='color:orange'>$48<br>with a<br>50% chance</font></div></div><div class='cr'><div class='vertical-center'>$34<br>for<br>sure</div></div><div class='respDivL'><div class='vertical-center'><font style='color:orange'>(E)</font></div></div><div class='respDivR'><div class='vertical-center'>(I)</div></div></div>","null","$34","$48","1","34","48",""
"html-keyboard-response","76","75298","0.0-5.0-1.24","63ea79021f0c43def6174042","bdp_rd","Sat Mar 25 2023 19:11:06 GMT-0500 (Central Daylight Time)","130696","","null","","","","FIX","","<div class='trialBorder'><div class='vertical-center'><img style='vertical-align:center; align:center' src=img/fixation3.jpg></div></div>","null","","","","","",""
"html-keyboard-response","77","75912","0.0-5.0-2.24","63ea79021f0c43def6174042","bdp_rd","Sat Mar 25 2023 19:11:06 GMT-0500 (Central Daylight Time)","130696","","612","","","","offer","","<div class='trialBorder'><div class='vertical-center'><img style='vertical-align:center; align:center' src=img/fixation3.jpg></div><div class='cl'><div class='vertical-center'>$5<br>for<br>sure</div></div><div class='cr'><div class='vertical-center'>$50<br>with a<br>50% chance</div></div><div class='respDivL'><div class='vertical-center'>(E)</div></div><div class='respDivR'><div class='vertical-center'>(I)</div></div></div>","I","$5","$50","0","5","50","RISKY"
"html-keyboard-response","78","76177","0.0-5.0-3.24","63ea79021f0c43def6174042","bdp_rd","Sat Mar 25 2023 19:11:06 GMT-0500 (Central Daylight Time)","130696","","null","","","","offerFB","","<div class='trialBorder'><div class='vertical-center'><img style='vertical-align:center; align:center' src=img/fixation3.jpg></div><div class='cl'><div class='vertical-center'>$5<br>for<br>sure</div></div><div class='cr'><div class='vertical-center'><font style='color:orange'>$50<br>with a<br>50% chance</font></div></div><div class='respDivL'><div class='vertical-center'>(E)</div></div><div class='respDivR'><div class='vertical-center'><font style='color:orange'>(I)</font></div></div></div>","null","$5","$50","0","5","50",""
"html-keyboard-response","79","76680","0.0-5.0-1.25","63ea79021f0c43def6174042","bdp_rd","Sat Mar 25 2023 19:11:06 GMT-0500 (Central Daylight Time)","130696","","null","","","","FIX","","<div class='trialBorder'><div class='vertical-center'><img style='vertical-align:center; align:center' src=img/fixation3.jpg></div></div>","null","","","","","",""
"html-keyboard-response","80","77171","0.0-5.0-2.25","63ea79021f0c43def6174042","bdp_rd","Sat Mar 25 2023 19:11:06 GMT-0500 (Central Daylight Time)","130696","","488","","","","offer","","<div class='trialBorder'><div class='vertical-center'><img style='vertical-align:center; align:center' src=img/fixation3.jpg></div><div class='cl'><div class='vertical-center'>$81<br>with a<br>50% chance</div></div><div class='cr'><div class='vertical-center'>$39<br>for<br>sure</div></div><div class='respDivL'><div class='vertical-center'>(E)</div></div><div class='respDivR'><div class='vertical-center'>(I)</div></div></div>","E","$39","$81","1","39","81","RISKY"
"html-keyboard-response","81","77423","0.0-5.0-3.25","63ea79021f0c43def6174042","bdp_rd","Sat Mar 25 2023 19:11:06 GMT-0500 (Central Daylight Time)","130696","","null","","","","offerFB","","<div class='trialBorder'><div class='vertical-center'><img style='vertical-align:center; align:center' src=img/fixation3.jpg></div><div class='cl'><div class='vertical-center'><font style='color:orange'>$81<br>with a<br>50% chance</font></div></div><div class='cr'><div class='vertical-center'>$39<br>for<br>sure</div></div><div class='respDivL'><div class='vertical-center'><font style='color:orange'>(E)</font></div></div><div class='respDivR'><div class='vertical-center'>(I)</div></div></div>","null","$39","$81","1","39","81",""
"html-keyboard-response","82","77926","0.0-5.0-1.26","63ea79021f0c43def6174042","bdp_rd","Sat Mar 25 2023 19:11:06 GMT-0500 (Central Daylight Time)","130696","","null","","","","FIX","","<div class='trialBorder'><div class='vertical-center'><img style='vertical-align:center; align:center' src=img/fixation3.jpg></div></div>","null","","","","","",""
"html-keyboard-response","83","78380","0.0-5.0-2.26","63ea79021f0c43def6174042","bdp_rd","Sat Mar 25 2023 19:11:06 GMT-0500 (Central Daylight Time)","130696","","451","","","","offer","","<div class='trialBorder'><div class='vertical-center'><img style='vertical-align:center; align:center' src=img/fixation3.jpg></div><div class='cl'><div class='vertical-center'>$21<br>for<br>sure</div></div><div class='cr'><div class='vertical-center'>$25<br>with a<br>50% chance</div></div><div class='respDivL'><div class='vertical-center'>(E)</div></div><div class='respDivR'><div class='vertical-center'>(I)</div></div></div>","I","$21","$25","0","21","25","RISKY"
"html-keyboard-response","84","78633","0.0-5.0-3.26","63ea79021f0c43def6174042","bdp_rd","Sat Mar 25 2023 19:11:06 GMT-0500 (Central Daylight Time)","130696","","null","","","","offerFB","","<div class='trialBorder'><div class='vertical-center'><img style='vertical-align:center; align:center' src=img/fixation3.jpg></div><div class='cl'><div class='vertical-center'>$21<br>for<br>sure</div></div><div class='cr'><div class='vertical-center'><font style='color:orange'>$25<br>with a<br>50% chance</font></div></div><div class='respDivL'><div class='vertical-center'>(E)</div></div><div class='respDivR'><div class='vertical-center'><font style='color:orange'>(I)</font></div></div></div>","null","$21","$25","0","21","25",""
"html-keyboard-response","85","79136","0.0-5.0-1.27","63ea79021f0c43def6174042","bdp_rd","Sat Mar 25 2023 19:11:06 GMT-0500 (Central Daylight Time)","130696","","null","","","","FIX","","<div class='trialBorder'><div class='vertical-center'><img style='vertical-align:center; align:center' src=img/fixation3.jpg></div></div>","null","","","","","",""
"html-keyboard-response","86","80563","0.0-5.0-2.27","63ea79021f0c43def6174042","bdp_rd","Sat Mar 25 2023 19:11:06 GMT-0500 (Central Daylight Time)","130696","","1426","","","","offer","","<div class='trialBorder'><div class='vertical-center'><img style='vertical-align:center; align:center' src=img/fixation3.jpg></div><div class='cl'><div class='vertical-center'>$69<br>with a<br>50% chance</div></div><div class='cr'><div class='vertical-center'>$58<br>for<br>sure</div></div><div class='respDivL'><div class='vertical-center'>(E)</div></div><div class='respDivR'><div class='vertical-center'>(I)</div></div></div>","E","$58","$69","1","58","69","RISKY"
"html-keyboard-response","87","80816","0.0-5.0-3.27","63ea79021f0c43def6174042","bdp_rd","Sat Mar 25 2023 19:11:06 GMT-0500 (Central Daylight Time)","130696","","null","","","","offerFB","","<div class='trialBorder'><div class='vertical-center'><img style='vertical-align:center; align:center' src=img/fixation3.jpg></div><div class='cl'><div class='vertical-center'><font style='color:orange'>$69<br>with a<br>50% chance</font></div></div><div class='cr'><div class='vertical-center'>$58<br>for<br>sure</div></div><div class='respDivL'><div class='vertical-center'><font style='color:orange'>(E)</font></div></div><div class='respDivR'><div class='vertical-center'>(I)</div></div></div>","null","$58","$69","1","58","69",""
"html-keyboard-response","88","81319","0.0-5.0-1.28","63ea79021f0c43def6174042","bdp_rd","Sat Mar 25 2023 19:11:06 GMT-0500 (Central Daylight Time)","130696","","null","","","","FIX","","<div class='trialBorder'><div class='vertical-center'><img style='vertical-align:center; align:center' src=img/fixation3.jpg></div></div>","null","","","","","",""
"html-keyboard-response","89","83062","0.0-5.0-2.28","63ea79021f0c43def6174042","bdp_rd","Sat Mar 25 2023 19:11:06 GMT-0500 (Central Daylight Time)","130696","","1742","","","","offer","","<div class='trialBorder'><div class='vertical-center'><img style='vertical-align:center; align:center' src=img/fixation3.jpg></div><div class='cl'><div class='vertical-center'>$11<br>with a<br>50% chance</div></div><div class='cr'><div class='vertical-center'>$4<br>for<br>sure</div></div><div class='respDivL'><div class='vertical-center'>(E)</div></div><div class='respDivR'><div class='vertical-center'>(I)</div></div></div>","E","$4","$11","1","4","11","RISKY"
"html-keyboard-response","90","83314","0.0-5.0-3.28","63ea79021f0c43def6174042","bdp_rd","Sat Mar 25 2023 19:11:06 GMT-0500 (Central Daylight Time)","130696","","null","","","","offerFB","","<div class='trialBorder'><div class='vertical-center'><img style='vertical-align:center; align:center' src=img/fixation3.jpg></div><div class='cl'><div class='vertical-center'><font style='color:orange'>$11<br>with a<br>50% chance</font></div></div><div class='cr'><div class='vertical-center'>$4<br>for<br>sure</div></div><div class='respDivL'><div class='vertical-center'><font style='color:orange'>(E)</font></div></div><div class='respDivR'><div class='vertical-center'>(I)</div></div></div>","null","$4","$11","1","4","11",""
"html-keyboard-response","91","83817","0.0-5.0-1.29","63ea79021f0c43def6174042","bdp_rd","Sat Mar 25 2023 19:11:06 GMT-0500 (Central Daylight Time)","130696","","null","","","","FIX","","<div class='trialBorder'><div class='vertical-center'><img style='vertical-align:center; align:center' src=img/fixation3.jpg></div></div>","null","","","","","",""
"html-keyboard-response","92","84630","0.0-5.0-2.29","63ea79021f0c43def6174042","bdp_rd","Sat Mar 25 2023 19:11:06 GMT-0500 (Central Daylight Time)","130696","","811","","","","offer","","<div class='trialBorder'><div class='vertical-center'><img style='vertical-align:center; align:center' src=img/fixation3.jpg></div><div class='cl'><div class='vertical-center'>$11<br>for<br>sure</div></div><div class='cr'><div class='vertical-center'>$62<br>with a<br>50% chance</div></div><div class='respDivL'><div class='vertical-center'>(E)</div></div><div class='respDivR'><div class='vertical-center'>(I)</div></div></div>","I","$11","$62","0","11","62","RISKY"
"html-keyboard-response","93","84882","0.0-5.0-3.29","63ea79021f0c43def6174042","bdp_rd","Sat Mar 25 2023 19:11:06 GMT-0500 (Central Daylight Time)","130696","","null","","","","offerFB","","<div class='trialBorder'><div class='vertical-center'><img style='vertical-align:center; align:center' src=img/fixation3.jpg></div><div class='cl'><div class='vertical-center'>$11<br>for<br>sure</div></div><div class='cr'><div class='vertical-center'><font style='color:orange'>$62<br>with a<br>50% chance</font></div></div><div class='respDivL'><div class='vertical-center'>(E)</div></div><div class='respDivR'><div class='vertical-center'><font style='color:orange'>(I)</font></div></div></div>","null","$11","$62","0","11","62",""
"html-keyboard-response","94","85384","0.0-5.0-1.30","63ea79021f0c43def6174042","bdp_rd","Sat Mar 25 2023 19:11:06 GMT-0500 (Central Daylight Time)","130696","","null","","","","FIX","","<div class='trialBorder'><div class='vertical-center'><img style='vertical-align:center; align:center' src=img/fixation3.jpg></div></div>","null","","","","","",""
"html-keyboard-response","95","86972","0.0-5.0-2.30","63ea79021f0c43def6174042","bdp_rd","Sat Mar 25 2023 19:11:06 GMT-0500 (Central Daylight Time)","130696","","1586","","","","offer","","<div class='trialBorder'><div class='vertical-center'><img style='vertical-align:center; align:center' src=img/fixation3.jpg></div><div class='cl'><div class='vertical-center'>$63<br>for<br>sure</div></div><div class='cr'><div class='vertical-center'>$100<br>with a<br>50% chance</div></div><div class='respDivL'><div class='vertical-center'>(E)</div></div><div class='respDivR'><div class='vertical-center'>(I)</div></div></div>","I","$63","$100","0","63","10","RISKY"
"html-keyboard-response","96","87225","0.0-5.0-3.30","63ea79021f0c43def6174042","bdp_rd","Sat Mar 25 2023 19:11:06 GMT-0500 (Central Daylight Time)","130696","","null","","","","offerFB","","<div class='trialBorder'><div class='vertical-center'><img style='vertical-align:center; align:center' src=img/fixation3.jpg></div><div class='cl'><div class='vertical-center'>$63<br>for<br>sure</div></div><div class='cr'><div class='vertical-center'><font style='color:orange'>$100<br>with a<br>50% chance</font></div></div><div class='respDivL'><div class='vertical-center'>(E)</div></div><div class='respDivR'><div class='vertical-center'><font style='color:orange'>(I)</font></div></div></div>","null","$63","$100","0","63","10",""
"html-keyboard-response","97","87726","0.0-5.0-1.31","63ea79021f0c43def6174042","bdp_rd","Sat Mar 25 2023 19:11:06 GMT-0500 (Central Daylight Time)","130696","","null","","","","FIX","","<div class='trialBorder'><div class='vertical-center'><img style='vertical-align:center; align:center' src=img/fixation3.jpg></div></div>","null","","","","","",""
"html-keyboard-response","98","88720","0.0-5.0-2.31","63ea79021f0c43def6174042","bdp_rd","Sat Mar 25 2023 19:11:06 GMT-0500 (Central Daylight Time)","130696","","993","","","","offer","","<div class='trialBorder'><div class='vertical-center'><img style='vertical-align:center; align:center' src=img/fixation3.jpg></div><div class='cl'><div class='vertical-center'>$12<br>with a<br>50% chance</div></div><div class='cr'><div class='vertical-center'>$3<br>for<br>sure</div></div><div class='respDivL'><div class='vertical-center'>(E)</div></div><div class='respDivR'><div class='vertical-center'>(I)</div></div></div>","E","$3","$12","1","3","12","RISKY"
"html-keyboard-response","99","88973","0.0-5.0-3.31","63ea79021f0c43def6174042","bdp_rd","Sat Mar 25 2023 19:11:06 GMT-0500 (Central Daylight Time)","130696","","null","","","","offerFB","","<div class='trialBorder'><div class='vertical-center'><img style='vertical-align:center; align:center' src=img/fixation3.jpg></div><div class='cl'><div class='vertical-center'><font style='color:orange'>$12<br>with a<br>50% chance</font></div></div><div class='cr'><div class='vertical-center'>$3<br>for<br>sure</div></div><div class='respDivL'><div class='vertical-center'><font style='color:orange'>(E)</font></div></div><div class='respDivR'><div class='vertical-center'>(I)</div></div></div>","null","$3","$12","1","3","12",""
"html-keyboard-response","100","89475","0.0-5.0-1.32","63ea79021f0c43def6174042","bdp_rd","Sat Mar 25 2023 19:11:06 GMT-0500 (Central Daylight Time)","130696","","null","","","","FIX","","<div class='trialBorder'><div class='vertical-center'><img style='vertical-align:center; align:center' src=img/fixation3.jpg></div></div>","null","","","","","",""
"html-keyboard-response","101","89961","0.0-5.0-2.32","63ea79021f0c43def6174042","bdp_rd","Sat Mar 25 2023 19:11:06 GMT-0500 (Central Daylight Time)","130696","","484","","","","offer","","<div class='trialBorder'><div class='vertical-center'><img style='vertical-align:center; align:center' src=img/fixation3.jpg></div><div class='cl'><div class='vertical-center'>$6<br>for<br>sure</div></div><div class='cr'><div class='vertical-center'>$15<br>with a<br>50% chance</div></div><div class='respDivL'><div class='vertical-center'>(E)</div></div><div class='respDivR'><div class='vertical-center'>(I)</div></div></div>","I","$6","$15","0","6","15","RISKY"
"html-keyboard-response","102","90215","0.0-5.0-3.32","63ea79021f0c43def6174042","bdp_rd","Sat Mar 25 2023 19:11:06 GMT-0500 (Central Daylight Time)","130696","","null","","","","offerFB","","<div class='trialBorder'><div class='vertical-center'><img style='vertical-align:center; align:center' src=img/fixation3.jpg></div><div class='cl'><div class='vertical-center'>$6<br>for<br>sure</div></div><div class='cr'><div class='vertical-center'><font style='color:orange'>$15<br>with a<br>50% chance</font></div></div><div class='respDivL'><div class='vertical-center'>(E)</div></div><div class='respDivR'><div class='vertical-center'><font style='color:orange'>(I)</font></div></div></div>","null","$6","$15","0","6","15",""
"html-keyboard-response","103","90719","0.0-5.0-1.33","63ea79021f0c43def6174042","bdp_rd","Sat Mar 25 2023 19:11:06 GMT-0500 (Central Daylight Time)","130696","","null","","","","FIX","","<div class='trialBorder'><div class='vertical-center'><img style='vertical-align:center; align:center' src=img/fixation3.jpg></div></div>","null","","","","","",""
"html-keyboard-response","104","92097","0.0-5.0-2.33","63ea79021f0c43def6174042","bdp_rd","Sat Mar 25 2023 19:11:06 GMT-0500 (Central Daylight Time)","130696","","1376","","","","offer","","<div class='trialBorder'><div class='vertical-center'><img style='vertical-align:center; align:center' src=img/fixation3.jpg></div><div class='cl'><div class='vertical-center'>$22<br>for<br>sure</div></div><div class='cr'><div class='vertical-center'>$59<br>with a<br>50% chance</div></div><div class='respDivL'><div class='vertical-center'>(E)</div></div><div class='respDivR'><div class='vertical-center'>(I)</div></div></div>","I","$22","$59","0","22","59","RISKY"
"html-keyboard-response","105","92349","0.0-5.0-3.33","63ea79021f0c43def6174042","bdp_rd","Sat Mar 25 2023 19:11:06 GMT-0500 (Central Daylight Time)","130696","","null","","","","offerFB","","<div class='trialBorder'><div class='vertical-center'><img style='vertical-align:center; align:center' src=img/fixation3.jpg></div><div class='cl'><div class='vertical-center'>$22<br>for<br>sure</div></div><div class='cr'><div class='vertical-center'><font style='color:orange'>$59<br>with a<br>50% chance</font></div></div><div class='respDivL'><div class='vertical-center'>(E)</div></div><div class='respDivR'><div class='vertical-center'><font style='color:orange'>(I)</font></div></div></div>","null","$22","$59","0","22","59",""
"html-keyboard-response","106","92851","0.0-5.0-1.34","63ea79021f0c43def6174042","bdp_rd","Sat Mar 25 2023 19:11:06 GMT-0500 (Central Daylight Time)","130696","","null","","","","FIX","","<div class='trialBorder'><div class='vertical-center'><img style='vertical-align:center; align:center' src=img/fixation3.jpg></div></div>","null","","","","","",""
"html-keyboard-response","107","94111","0.0-5.0-2.34","63ea79021f0c43def6174042","bdp_rd","Sat Mar 25 2023 19:11:06 GMT-0500 (Central Daylight Time)","130696","","1258","","","","offer","","<div class='trialBorder'><div class='vertical-center'><img style='vertical-align:center; align:center' src=img/fixation3.jpg></div><div class='cl'><div class='vertical-center'>$22<br>for<br>sure</div></div><div class='cr'><div class='vertical-center'>$42<br>with a<br>50% chance</div></div><div class='respDivL'><div class='vertical-center'>(E)</div></div><div class='respDivR'><div class='vertical-center'>(I)</div></div></div>","I","$22","$42","0","22","42","RISKY"
"html-keyboard-response","108","94363","0.0-5.0-3.34","63ea79021f0c43def6174042","bdp_rd","Sat Mar 25 2023 19:11:06 GMT-0500 (Central Daylight Time)","130696","","null","","","","offerFB","","<div class='trialBorder'><div class='vertical-center'><img style='vertical-align:center; align:center' src=img/fixation3.jpg></div><div class='cl'><div class='vertical-center'>$22<br>for<br>sure</div></div><div class='cr'><div class='vertical-center'><font style='color:orange'>$42<br>with a<br>50% chance</font></div></div><div class='respDivL'><div class='vertical-center'>(E)</div></div><div class='respDivR'><div class='vertical-center'><font style='color:orange'>(I)</font></div></div></div>","null","$22","$42","0","22","42",""
"html-keyboard-response","109","94865","0.0-5.0-1.35","63ea79021f0c43def6174042","bdp_rd","Sat Mar 25 2023 19:11:06 GMT-0500 (Central Daylight Time)","130696","","null","","","","FIX","","<div class='trialBorder'><div class='vertical-center'><img style='vertical-align:center; align:center' src=img/fixation3.jpg></div></div>","null","","","","","",""
"html-keyboard-response","110","95707","0.0-5.0-2.35","63ea79021f0c43def6174042","bdp_rd","Sat Mar 25 2023 19:11:06 GMT-0500 (Central Daylight Time)","130696","","840","","","","offer","","<div class='trialBorder'><div class='vertical-center'><img style='vertical-align:center; align:center' src=img/fixation3.jpg></div><div class='cl'><div class='vertical-center'>$5<br>for<br>sure</div></div><div class='cr'><div class='vertical-center'>$16<br>with a<br>50% chance</div></div><div class='respDivL'><div class='vertical-center'>(E)</div></div><div class='respDivR'><div class='vertical-center'>(I)</div></div></div>","I","$5","$16","0","5","16","RISKY"
"html-keyboard-response","111","95960","0.0-5.0-3.35","63ea79021f0c43def6174042","bdp_rd","Sat Mar 25 2023 19:11:06 GMT-0500 (Central Daylight Time)","130696","","null","","","","offerFB","","<div class='trialBorder'><div class='vertical-center'><img style='vertical-align:center; align:center' src=img/fixation3.jpg></div><div class='cl'><div class='vertical-center'>$5<br>for<br>sure</div></div><div class='cr'><div class='vertical-center'><font style='color:orange'>$16<br>with a<br>50% chance</font></div></div><div class='respDivL'><div class='vertical-center'>(E)</div></div><div class='respDivR'><div class='vertical-center'><font style='color:orange'>(I)</font></div></div></div>","null","$5","$16","0","5","16",""
"html-keyboard-response","112","96461","0.0-5.0-1.36","63ea79021f0c43def6174042","bdp_rd","Sat Mar 25 2023 19:11:06 GMT-0500 (Central Daylight Time)","130696","","null","","","","FIX","","<div class='trialBorder'><div class='vertical-center'><img style='vertical-align:center; align:center' src=img/fixation3.jpg></div></div>","null","","","","","",""
"html-keyboard-response","113","97596","0.0-5.0-2.36","63ea79021f0c43def6174042","bdp_rd","Sat Mar 25 2023 19:11:06 GMT-0500 (Central Daylight Time)","130696","","1133","","","","offer","","<div class='trialBorder'><div class='vertical-center'><img style='vertical-align:center; align:center' src=img/fixation3.jpg></div><div class='cl'><div class='vertical-center'>$27<br>for<br>sure</div></div><div class='cr'><div class='vertical-center'>$47<br>with a<br>50% chance</div></div><div class='respDivL'><div class='vertical-center'>(E)</div></div><div class='respDivR'><div class='vertical-center'>(I)</div></div></div>","I","$27","$47","0","27","47","RISKY"
"html-keyboard-response","114","97848","0.0-5.0-3.36","63ea79021f0c43def6174042","bdp_rd","Sat Mar 25 2023 19:11:06 GMT-0500 (Central Daylight Time)","130696","","null","","","","offerFB","","<div class='trialBorder'><div class='vertical-center'><img style='vertical-align:center; align:center' src=img/fixation3.jpg></div><div class='cl'><div class='vertical-center'>$27<br>for<br>sure</div></div><div class='cr'><div class='vertical-center'><font style='color:orange'>$47<br>with a<br>50% chance</font></div></div><div class='respDivL'><div class='vertical-center'>(E)</div></div><div class='respDivR'><div class='vertical-center'><font style='color:orange'>(I)</font></div></div></div>","null","$27","$47","0","27","47",""
"html-keyboard-response","115","98352","0.0-5.0-1.37","63ea79021f0c43def6174042","bdp_rd","Sat Mar 25 2023 19:11:06 GMT-0500 (Central Daylight Time)","130696","","null","","","","FIX","","<div class='trialBorder'><div class='vertical-center'><img style='vertical-align:center; align:center' src=img/fixation3.jpg></div></div>","null","","","","","",""
"html-keyboard-response","116","98960","0.0-5.0-2.37","63ea79021f0c43def6174042","bdp_rd","Sat Mar 25 2023 19:11:06 GMT-0500 (Central Daylight Time)","130696","","607","","","","offer","","<div class='trialBorder'><div class='vertical-center'><img style='vertical-align:center; align:center' src=img/fixation3.jpg></div><div class='cl'><div class='vertical-center'>$24<br>for<br>sure</div></div><div class='cr'><div class='vertical-center'>$70<br>with a<br>50% chance</div></div><div class='respDivL'><div class='vertical-center'>(E)</div></div><div class='respDivR'><div class='vertical-center'>(I)</div></div></div>","I","$24","$70","0","24","70","RISKY"
"html-keyboard-response","117","99214","0.0-5.0-3.37","63ea79021f0c43def6174042","bdp_rd","Sat Mar 25 2023 19:11:06 GMT-0500 (Central Daylight Time)","130696","","null","","","","offerFB","","<div class='trialBorder'><div class='vertical-center'><img style='vertical-align:center; align:center' src=img/fixation3.jpg></div><div class='cl'><div class='vertical-center'>$24<br>for<br>sure</div></div><div class='cr'><div class='vertical-center'><font style='color:orange'>$70<br>with a<br>50% chance</font></div></div><div class='respDivL'><div class='vertical-center'>(E)</div></div><div class='respDivR'><div class='vertical-center'><font style='color:orange'>(I)</font></div></div></div>","null","$24","$70","0","24","70",""
"html-keyboard-response","118","99716","0.0-5.0-1.38","63ea79021f0c43def6174042","bdp_rd","Sat Mar 25 2023 19:11:06 GMT-0500 (Central Daylight Time)","130696","","null","","","","FIX","","<div class='trialBorder'><div class='vertical-center'><img style='vertical-align:center; align:center' src=img/fixation3.jpg></div></div>","null","","","","","",""
"html-keyboard-response","119","100146","0.0-5.0-2.38","63ea79021f0c43def6174042","bdp_rd","Sat Mar 25 2023 19:11:06 GMT-0500 (Central Daylight Time)","130696","","428","","","","offer","","<div class='trialBorder'><div class='vertical-center'><img style='vertical-align:center; align:center' src=img/fixation3.jpg></div><div class='cl'><div class='vertical-center'>$4<br>for<br>sure</div></div><div class='cr'><div class='vertical-center'>$14<br>with a<br>50% chance</div></div><div class='respDivL'><div class='vertical-center'>(E)</div></div><div class='respDivR'><div class='vertical-center'>(I)</div></div></div>","I","$4","$14","0","4","14","RISKY"
"html-keyboard-response","120","100399","0.0-5.0-3.38","63ea79021f0c43def6174042","bdp_rd","Sat Mar 25 2023 19:11:06 GMT-0500 (Central Daylight Time)","130696","","null","","","","offerFB","","<div class='trialBorder'><div class='vertical-center'><img style='vertical-align:center; align:center' src=img/fixation3.jpg></div><div class='cl'><div class='vertical-center'>$4<br>for<br>sure</div></div><div class='cr'><div class='vertical-center'><font style='color:orange'>$14<br>with a<br>50% chance</font></div></div><div class='respDivL'><div class='vertical-center'>(E)</div></div><div class='respDivR'><div class='vertical-center'><font style='color:orange'>(I)</font></div></div></div>","null","$4","$14","0","4","14",""
"html-keyboard-response","121","100902","0.0-5.0-1.39","63ea79021f0c43def6174042","bdp_rd","Sat Mar 25 2023 19:11:06 GMT-0500 (Central Daylight Time)","130696","","null","","","","FIX","","<div class='trialBorder'><div class='vertical-center'><img style='vertical-align:center; align:center' src=img/fixation3.jpg></div></div>","null","","","","","",""
"html-keyboard-response","122","102150","0.0-5.0-2.39","63ea79021f0c43def6174042","bdp_rd","Sat Mar 25 2023 19:11:06 GMT-0500 (Central Daylight Time)","130696","","1247","","","","offer","","<div class='trialBorder'><div class='vertical-center'><img style='vertical-align:center; align:center' src=img/fixation3.jpg></div><div class='cl'><div class='vertical-center'>$45<br>with a<br>50% chance</div></div><div class='cr'><div class='vertical-center'>$8<br>for<br>sure</div></div><div class='respDivL'><div class='vertical-center'>(E)</div></div><div class='respDivR'><div class='vertical-center'>(I)</div></div></div>","E","$8","$45","1","8","45","RISKY"
"html-keyboard-response","123","102403","0.0-5.0-3.39","63ea79021f0c43def6174042","bdp_rd","Sat Mar 25 2023 19:11:06 GMT-0500 (Central Daylight Time)","130696","","null","","","","offerFB","","<div class='trialBorder'><div class='vertical-center'><img style='vertical-align:center; align:center' src=img/fixation3.jpg></div><div class='cl'><div class='vertical-center'><font style='color:orange'>$45<br>with a<br>50% chance</font></div></div><div class='cr'><div class='vertical-center'>$8<br>for<br>sure</div></div><div class='respDivL'><div class='vertical-center'><font style='color:orange'>(E)</font></div></div><div class='respDivR'><div class='vertical-center'>(I)</div></div></div>","null","$8","$45","1","8","45",""
"html-keyboard-response","124","102906","0.0-5.0-1.40","63ea79021f0c43def6174042","bdp_rd","Sat Mar 25 2023 19:11:06 GMT-0500 (Central Daylight Time)","130696","","null","","","","FIX","","<div class='trialBorder'><div class='vertical-center'><img style='vertical-align:center; align:center' src=img/fixation3.jpg></div></div>","null","","","","","",""
"html-keyboard-response","125","103683","0.0-5.0-2.40","63ea79021f0c43def6174042","bdp_rd","Sat Mar 25 2023 19:11:06 GMT-0500 (Central Daylight Time)","130696","","773","","","","offer","","<div class='trialBorder'><div class='vertical-center'><img style='vertical-align:center; align:center' src=img/fixation3.jpg></div><div class='cl'><div class='vertical-center'>$15<br>for<br>sure</div></div><div class='cr'><div class='vertical-center'>$31<br>with a<br>50% chance</div></div><div class='respDivL'><div class='vertical-center'>(E)</div></div><div class='respDivR'><div class='vertical-center'>(I)</div></div></div>","I","$15","$31","0","15","31","RISKY"
"html-keyboard-response","126","103935","0.0-5.0-3.40","63ea79021f0c43def6174042","bdp_rd","Sat Mar 25 2023 19:11:06 GMT-0500 (Central Daylight Time)","130696","","null","","","","offerFB","","<div class='trialBorder'><div class='vertical-center'><img style='vertical-align:center; align:center' src=img/fixation3.jpg></div><div class='cl'><div class='vertical-center'>$15<br>for<br>sure</div></div><div class='cr'><div class='vertical-center'><font style='color:orange'>$31<br>with a<br>50% chance</font></div></div><div class='respDivL'><div class='vertical-center'>(E)</div></div><div class='respDivR'><div class='vertical-center'><font style='color:orange'>(I)</font></div></div></div>","null","$15","$31","0","15","31",""
"html-keyboard-response","127","104438","0.0-5.0-1.41","63ea79021f0c43def6174042","bdp_rd","Sat Mar 25 2023 19:11:06 GMT-0500 (Central Daylight Time)","130696","","null","","","","FIX","","<div class='trialBorder'><div class='vertical-center'><img style='vertical-align:center; align:center' src=img/fixation3.jpg></div></div>","null","","","","","",""
"html-keyboard-response","128","105486","0.0-5.0-2.41","63ea79021f0c43def6174042","bdp_rd","Sat Mar 25 2023 19:11:06 GMT-0500 (Central Daylight Time)","130696","","1046","","","","offer","","<div class='trialBorder'><div class='vertical-center'><img style='vertical-align:center; align:center' src=img/fixation3.jpg></div><div class='cl'><div class='vertical-center'>$37<br>for<br>sure</div></div><div class='cr'><div class='vertical-center'>$44<br>with a<br>50% chance</div></div><div class='respDivL'><div class='vertical-center'>(E)</div></div><div class='respDivR'><div class='vertical-center'>(I)</div></div></div>","I","$37","$44","0","37","44","RISKY"
"html-keyboard-response","129","105739","0.0-5.0-3.41","63ea79021f0c43def6174042","bdp_rd","Sat Mar 25 2023 19:11:06 GMT-0500 (Central Daylight Time)","130696","","null","","","","offerFB","","<div class='trialBorder'><div class='vertical-center'><img style='vertical-align:center; align:center' src=img/fixation3.jpg></div><div class='cl'><div class='vertical-center'>$37<br>for<br>sure</div></div><div class='cr'><div class='vertical-center'><font style='color:orange'>$44<br>with a<br>50% chance</font></div></div><div class='respDivL'><div class='vertical-center'>(E)</div></div><div class='respDivR'><div class='vertical-center'><font style='color:orange'>(I)</font></div></div></div>","null","$37","$44","0","37","44",""
"html-keyboard-response","130","106242","0.0-5.0-1.42","63ea79021f0c43def6174042","bdp_rd","Sat Mar 25 2023 19:11:06 GMT-0500 (Central Daylight Time)","130696","","null","","","","FIX","","<div class='trialBorder'><div class='vertical-center'><img style='vertical-align:center; align:center' src=img/fixation3.jpg></div></div>","null","","","","","",""
"html-keyboard-response","131","107150","0.0-5.0-2.42","63ea79021f0c43def6174042","bdp_rd","Sat Mar 25 2023 19:11:06 GMT-0500 (Central Daylight Time)","130696","","905","","","","offer","","<div class='trialBorder'><div class='vertical-center'><img style='vertical-align:center; align:center' src=img/fixation3.jpg></div><div class='cl'><div class='vertical-center'>$33<br>with a<br>50% chance</div></div><div class='cr'><div class='vertical-center'>$1<br>for<br>sure</div></div><div class='respDivL'><div class='vertical-center'>(E)</div></div><div class='respDivR'><div class='vertical-center'>(I)</div></div></div>","E","$1","$33","1","1","33","RISKY"
"html-keyboard-response","132","107403","0.0-5.0-3.42","63ea79021f0c43def6174042","bdp_rd","Sat Mar 25 2023 19:11:06 GMT-0500 (Central Daylight Time)","130696","","null","","","","offerFB","","<div class='trialBorder'><div class='vertical-center'><img style='vertical-align:center; align:center' src=img/fixation3.jpg></div><div class='cl'><div class='vertical-center'><font style='color:orange'>$33<br>with a<br>50% chance</font></div></div><div class='cr'><div class='vertical-center'>$1<br>for<br>sure</div></div><div class='respDivL'><div class='vertical-center'><font style='color:orange'>(E)</font></div></div><div class='respDivR'><div class='vertical-center'>(I)</div></div></div>","null","$1","$33","1","1","33",""
"html-keyboard-response","133","107906","0.0-5.0-1.43","63ea79021f0c43def6174042","bdp_rd","Sat Mar 25 2023 19:11:06 GMT-0500 (Central Daylight Time)","130696","","null","","","","FIX","","<div class='trialBorder'><div class='vertical-center'><img style='vertical-align:center; align:center' src=img/fixation3.jpg></div></div>","null","","","","","",""
"html-keyboard-response","134","108627","0.0-5.0-2.43","63ea79021f0c43def6174042","bdp_rd","Sat Mar 25 2023 19:11:06 GMT-0500 (Central Daylight Time)","130696","","718","","","","offer","","<div class='trialBorder'><div class='vertical-center'><img style='vertical-align:center; align:center' src=img/fixation3.jpg></div><div class='cl'><div class='vertical-center'>$46<br>with a<br>50% chance</div></div><div class='cr'><div class='vertical-center'>$29<br>for<br>sure</div></div><div class='respDivL'><div class='vertical-center'>(E)</div></div><div class='respDivR'><div class='vertical-center'>(I)</div></div></div>","E","$29","$46","1","29","46","RISKY"
"html-keyboard-response","135","108880","0.0-5.0-3.43","63ea79021f0c43def6174042","bdp_rd","Sat Mar 25 2023 19:11:06 GMT-0500 (Central Daylight Time)","130696","","null","","","","offerFB","","<div class='trialBorder'><div class='vertical-center'><img style='vertical-align:center; align:center' src=img/fixation3.jpg></div><div class='cl'><div class='vertical-center'><font style='color:orange'>$46<br>with a<br>50% chance</font></div></div><div class='cr'><div class='vertical-center'>$29<br>for<br>sure</div></div><div class='respDivL'><div class='vertical-center'><font style='color:orange'>(E)</font></div></div><div class='respDivR'><div class='vertical-center'>(I)</div></div></div>","null","$29","$46","1","29","46",""
"html-keyboard-response","136","109382","0.0-5.0-1.44","63ea79021f0c43def6174042","bdp_rd","Sat Mar 25 2023 19:11:06 GMT-0500 (Central Daylight Time)","130696","","null","","","","FIX","","<div class='trialBorder'><div class='vertical-center'><img style='vertical-align:center; align:center' src=img/fixation3.jpg></div></div>","null","","","","","",""
"html-keyboard-response","137","109802","0.0-5.0-2.44","63ea79021f0c43def6174042","bdp_rd","Sat Mar 25 2023 19:11:06 GMT-0500 (Central Daylight Time)","130696","","419","","","","offer","","<div class='trialBorder'><div class='vertical-center'><img style='vertical-align:center; align:center' src=img/fixation3.jpg></div><div class='cl'><div class='vertical-center'>$16<br>for<br>sure</div></div><div class='cr'><div class='vertical-center'>$38<br>with a<br>50% chance</div></div><div class='respDivL'><div class='vertical-center'>(E)</div></div><div class='respDivR'><div class='vertical-center'>(I)</div></div></div>","I","$16","$38","0","16","38","RISKY"
"html-keyboard-response","138","110054","0.0-5.0-3.44","63ea79021f0c43def6174042","bdp_rd","Sat Mar 25 2023 19:11:06 GMT-0500 (Central Daylight Time)","130696","","null","","","","offerFB","","<div class='trialBorder'><div class='vertical-center'><img style='vertical-align:center; align:center' src=img/fixation3.jpg></div><div class='cl'><div class='vertical-center'>$16<br>for<br>sure</div></div><div class='cr'><div class='vertical-center'><font style='color:orange'>$38<br>with a<br>50% chance</font></div></div><div class='respDivL'><div class='vertical-center'>(E)</div></div><div class='respDivR'><div class='vertical-center'><font style='color:orange'>(I)</font></div></div></div>","null","$16","$38","0","16","38",""
"html-keyboard-response","139","110558","0.0-5.0-1.45","63ea79021f0c43def6174042","bdp_rd","Sat Mar 25 2023 19:11:06 GMT-0500 (Central Daylight Time)","130696","","null","","","","FIX","","<div class='trialBorder'><div class='vertical-center'><img style='vertical-align:center; align:center' src=img/fixation3.jpg></div></div>","null","","","","","",""
"html-keyboard-response","140","110913","0.0-5.0-2.45","63ea79021f0c43def6174042","bdp_rd","Sat Mar 25 2023 19:11:06 GMT-0500 (Central Daylight Time)","130696","","353","","","","offer","","<div class='trialBorder'><div class='vertical-center'><img style='vertical-align:center; align:center' src=img/fixation3.jpg></div><div class='cl'><div class='vertical-center'>$24<br>with a<br>50% chance</div></div><div class='cr'><div class='vertical-center'>$13<br>for<br>sure</div></div><div class='respDivL'><div class='vertical-center'>(E)</div></div><div class='respDivR'><div class='vertical-center'>(I)</div></div></div>","E","$13","$24","1","13","24","RISKY"
"html-keyboard-response","141","111167","0.0-5.0-3.45","63ea79021f0c43def6174042","bdp_rd","Sat Mar 25 2023 19:11:06 GMT-0500 (Central Daylight Time)","130696","","null","","","","offerFB","","<div class='trialBorder'><div class='vertical-center'><img style='vertical-align:center; align:center' src=img/fixation3.jpg></div><div class='cl'><div class='vertical-center'><font style='color:orange'>$24<br>with a<br>50% chance</font></div></div><div class='cr'><div class='vertical-center'>$13<br>for<br>sure</div></div><div class='respDivL'><div class='vertical-center'><font style='color:orange'>(E)</font></div></div><div class='respDivR'><div class='vertical-center'>(I)</div></div></div>","null","$13","$24","1","13","24",""
"html-keyboard-response","142","111670","0.0-5.0-1.46","63ea79021f0c43def6174042","bdp_rd","Sat Mar 25 2023 19:11:06 GMT-0500 (Central Daylight Time)","130696","","null","","","","FIX","","<div class='trialBorder'><div class='vertical-center'><img style='vertical-align:center; align:center' src=img/fixation3.jpg></div></div>","null","","","","","",""
"html-keyboard-response","143","112280","0.0-5.0-2.46","63ea79021f0c43def6174042","bdp_rd","Sat Mar 25 2023 19:11:06 GMT-0500 (Central Daylight Time)","130696","","608","","","","offer","","<div class='trialBorder'><div class='vertical-center'><img style='vertical-align:center; align:center' src=img/fixation3.jpg></div><div class='cl'><div class='vertical-center'>$42<br>for<br>sure</div></div><div class='cr'><div class='vertical-center'>$73<br>with a<br>50% chance</div></div><div class='respDivL'><div class='vertical-center'>(E)</div></div><div class='respDivR'><div class='vertical-center'>(I)</div></div></div>","I","$42","$73","0","42","73","RISKY"
"html-keyboard-response","144","112533","0.0-5.0-3.46","63ea79021f0c43def6174042","bdp_rd","Sat Mar 25 2023 19:11:06 GMT-0500 (Central Daylight Time)","130696","","null","","","","offerFB","","<div class='trialBorder'><div class='vertical-center'><img style='vertical-align:center; align:center' src=img/fixation3.jpg></div><div class='cl'><div class='vertical-center'>$42<br>for<br>sure</div></div><div class='cr'><div class='vertical-center'><font style='color:orange'>$73<br>with a<br>50% chance</font></div></div><div class='respDivL'><div class='vertical-center'>(E)</div></div><div class='respDivR'><div class='vertical-center'><font style='color:orange'>(I)</font></div></div></div>","null","$42","$73","0","42","73",""
"html-keyboard-response","145","113035","0.0-5.0-1.47","63ea79021f0c43def6174042","bdp_rd","Sat Mar 25 2023 19:11:06 GMT-0500 (Central Daylight Time)","130696","","null","","","","FIX","","<div class='trialBorder'><div class='vertical-center'><img style='vertical-align:center; align:center' src=img/fixation3.jpg></div></div>","null","","","","","",""
"html-keyboard-response","146","113422","0.0-5.0-2.47","63ea79021f0c43def6174042","bdp_rd","Sat Mar 25 2023 19:11:06 GMT-0500 (Central Daylight Time)","130696","","385","","","","offer","","<div class='trialBorder'><div class='vertical-center'><img style='vertical-align:center; align:center' src=img/fixation3.jpg></div><div class='cl'><div class='vertical-center'>$34<br>with a<br>50% chance</div></div><div class='cr'><div class='vertical-center'>$15<br>for<br>sure</div></div><div class='respDivL'><div class='vertical-center'>(E)</div></div><div class='respDivR'><div class='vertical-center'>(I)</div></div></div>","E","$15","$34","1","15","34","RISKY"
"html-keyboard-response","147","113675","0.0-5.0-3.47","63ea79021f0c43def6174042","bdp_rd","Sat Mar 25 2023 19:11:06 GMT-0500 (Central Daylight Time)","130696","","null","","","","offerFB","","<div class='trialBorder'><div class='vertical-center'><img style='vertical-align:center; align:center' src=img/fixation3.jpg></div><div class='cl'><div class='vertical-center'><font style='color:orange'>$34<br>with a<br>50% chance</font></div></div><div class='cr'><div class='vertical-center'>$15<br>for<br>sure</div></div><div class='respDivL'><div class='vertical-center'><font style='color:orange'>(E)</font></div></div><div class='respDivR'><div class='vertical-center'>(I)</div></div></div>","null","$15","$34","1","15","34",""
"html-keyboard-response","148","114178","0.0-5.0-1.48","63ea79021f0c43def6174042","bdp_rd","Sat Mar 25 2023 19:11:06 GMT-0500 (Central Daylight Time)","130696","","null","","","","FIX","","<div class='trialBorder'><div class='vertical-center'><img style='vertical-align:center; align:center' src=img/fixation3.jpg></div></div>","null","","","","","",""
"html-keyboard-response","149","114585","0.0-5.0-2.48","63ea79021f0c43def6174042","bdp_rd","Sat Mar 25 2023 19:11:06 GMT-0500 (Central Daylight Time)","130696","","404","","","","offer","","<div class='trialBorder'><div class='vertical-center'><img style='vertical-align:center; align:center' src=img/fixation3.jpg></div><div class='cl'><div class='vertical-center'>$51<br>with a<br>50% chance</div></div><div class='cr'><div class='vertical-center'>$19<br>for<br>sure</div></div><div class='respDivL'><div class='vertical-center'>(E)</div></div><div class='respDivR'><div class='vertical-center'>(I)</div></div></div>","E","$19","$51","1","19","51","RISKY"
"html-keyboard-response","150","114837","0.0-5.0-3.48","63ea79021f0c43def6174042","bdp_rd","Sat Mar 25 2023 19:11:06 GMT-0500 (Central Daylight Time)","130696","","null","","","","offerFB","","<div class='trialBorder'><div class='vertical-center'><img style='vertical-align:center; align:center' src=img/fixation3.jpg></div><div class='cl'><div class='vertical-center'><font style='color:orange'>$51<br>with a<br>50% chance</font></div></div><div class='cr'><div class='vertical-center'>$19<br>for<br>sure</div></div><div class='respDivL'><div class='vertical-center'><font style='color:orange'>(E)</font></div></div><div class='respDivR'><div class='vertical-center'>(I)</div></div></div>","null","$19","$51","1","19","51",""
"html-keyboard-response","151","115340","0.0-5.0-1.49","63ea79021f0c43def6174042","bdp_rd","Sat Mar 25 2023 19:11:06 GMT-0500 (Central Daylight Time)","130696","","null","","","","FIX","","<div class='trialBorder'><div class='vertical-center'><img style='vertical-align:center; align:center' src=img/fixation3.jpg></div></div>","null","","","","","",""
"html-keyboard-response","152","115717","0.0-5.0-2.49","63ea79021f0c43def6174042","bdp_rd","Sat Mar 25 2023 19:11:06 GMT-0500 (Central Daylight Time)","130696","","375","","","","offer","","<div class='trialBorder'><div class='vertical-center'><img style='vertical-align:center; align:center' src=img/fixation3.jpg></div><div class='cl'><div class='vertical-center'>$95<br>with a<br>50% chance</div></div><div class='cr'><div class='vertical-center'>$40<br>for<br>sure</div></div><div class='respDivL'><div class='vertical-center'>(E)</div></div><div class='respDivR'><div class='vertical-center'>(I)</div></div></div>","E","$40","$95","1","40","95","RISKY"
"html-keyboard-response","153","115970","0.0-5.0-3.49","63ea79021f0c43def6174042","bdp_rd","Sat Mar 25 2023 19:11:06 GMT-0500 (Central Daylight Time)","130696","","null","","","","offerFB","","<div class='trialBorder'><div class='vertical-center'><img style='vertical-align:center; align:center' src=img/fixation3.jpg></div><div class='cl'><div class='vertical-center'><font style='color:orange'>$95<br>with a<br>50% chance</font></div></div><div class='cr'><div class='vertical-center'>$40<br>for<br>sure</div></div><div class='respDivL'><div class='vertical-center'><font style='color:orange'>(E)</font></div></div><div class='respDivR'><div class='vertical-center'>(I)</div></div></div>","null","$40","$95","1","40","95",""
"html-keyboard-response","154","116473","0.0-5.0-1.50","63ea79021f0c43def6174042","bdp_rd","Sat Mar 25 2023 19:11:06 GMT-0500 (Central Daylight Time)","130696","","null","","","","FIX","","<div class='trialBorder'><div class='vertical-center'><img style='vertical-align:center; align:center' src=img/fixation3.jpg></div></div>","null","","","","","",""
"html-keyboard-response","155","116868","0.0-5.0-2.50","63ea79021f0c43def6174042","bdp_rd","Sat Mar 25 2023 19:11:06 GMT-0500 (Central Daylight Time)","130696","","393","","","","offer","","<div class='trialBorder'><div class='vertical-center'><img style='vertical-align:center; align:center' src=img/fixation3.jpg></div><div class='cl'><div class='vertical-center'>$26<br>for<br>sure</div></div><div class='cr'><div class='vertical-center'>$92<br>with a<br>50% chance</div></div><div class='respDivL'><div class='vertical-center'>(E)</div></div><div class='respDivR'><div class='vertical-center'>(I)</div></div></div>","I","$26","$92","0","26","92","RISKY"
"html-keyboard-response","156","117121","0.0-5.0-3.50","63ea79021f0c43def6174042","bdp_rd","Sat Mar 25 2023 19:11:06 GMT-0500 (Central Daylight Time)","130696","","null","","","","offerFB","","<div class='trialBorder'><div class='vertical-center'><img style='vertical-align:center; align:center' src=img/fixation3.jpg></div><div class='cl'><div class='vertical-center'>$26<br>for<br>sure</div></div><div class='cr'><div class='vertical-center'><font style='color:orange'>$92<br>with a<br>50% chance</font></div></div><div class='respDivL'><div class='vertical-center'>(E)</div></div><div class='respDivR'><div class='vertical-center'><font style='color:orange'>(I)</font></div></div></div>","null","$26","$92","0","26","92",""
"html-keyboard-response","157","117623","0.0-5.0-1.51","63ea79021f0c43def6174042","bdp_rd","Sat Mar 25 2023 19:11:06 GMT-0500 (Central Daylight Time)","130696","","null","","","","FIX","","<div class='trialBorder'><div class='vertical-center'><img style='vertical-align:center; align:center' src=img/fixation3.jpg></div></div>","null","","","","","",""
"html-keyboard-response","158","118013","0.0-5.0-2.51","63ea79021f0c43def6174042","bdp_rd","Sat Mar 25 2023 19:11:06 GMT-0500 (Central Daylight Time)","130696","","388","","","","offer","","<div class='trialBorder'><div class='vertical-center'><img style='vertical-align:center; align:center' src=img/fixation3.jpg></div><div class='cl'><div class='vertical-center'>$66<br>with a<br>50% chance</div></div><div class='cr'><div class='vertical-center'>$33<br>for<br>sure</div></div><div class='respDivL'><div class='vertical-center'>(E)</div></div><div class='respDivR'><div class='vertical-center'>(I)</div></div></div>","E","$33","$66","1","33","66","RISKY"
"html-keyboard-response","159","118266","0.0-5.0-3.51","63ea79021f0c43def6174042","bdp_rd","Sat Mar 25 2023 19:11:06 GMT-0500 (Central Daylight Time)","130696","","null","","","","offerFB","","<div class='trialBorder'><div class='vertical-center'><img style='vertical-align:center; align:center' src=img/fixation3.jpg></div><div class='cl'><div class='vertical-center'><font style='color:orange'>$66<br>with a<br>50% chance</font></div></div><div class='cr'><div class='vertical-center'>$33<br>for<br>sure</div></div><div class='respDivL'><div class='vertical-center'><font style='color:orange'>(E)</font></div></div><div class='respDivR'><div class='vertical-center'>(I)</div></div></div>","null","$33","$66","1","33","66",""
"html-keyboard-response","160","118768","0.0-5.0-1.52","63ea79021f0c43def6174042","bdp_rd","Sat Mar 25 2023 19:11:06 GMT-0500 (Central Daylight Time)","130696","","null","","","","FIX","","<div class='trialBorder'><div class='vertical-center'><img style='vertical-align:center; align:center' src=img/fixation3.jpg></div></div>","null","","","","","",""
"html-keyboard-response","161","119151","0.0-5.0-2.52","63ea79021f0c43def6174042","bdp_rd","Sat Mar 25 2023 19:11:06 GMT-0500 (Central Daylight Time)","130696","","380","","","","offer","","<div class='trialBorder'><div class='vertical-center'><img style='vertical-align:center; align:center' src=img/fixation3.jpg></div><div class='cl'><div class='vertical-center'>$12<br>for<br>sure</div></div><div class='cr'><div class='vertical-center'>$27<br>with a<br>50% chance</div></div><div class='respDivL'><div class='vertical-center'>(E)</div></div><div class='respDivR'><div class='vertical-center'>(I)</div></div></div>","I","$12","$27","0","12","27","RISKY"
"html-keyboard-response","162","119403","0.0-5.0-3.52","63ea79021f0c43def6174042","bdp_rd","Sat Mar 25 2023 19:11:06 GMT-0500 (Central Daylight Time)","130696","","null","","","","offerFB","","<div class='trialBorder'><div class='vertical-center'><img style='vertical-align:center; align:center' src=img/fixation3.jpg></div><div class='cl'><div class='vertical-center'>$12<br>for<br>sure</div></div><div class='cr'><div class='vertical-center'><font style='color:orange'>$27<br>with a<br>50% chance</font></div></div><div class='respDivL'><div class='vertical-center'>(E)</div></div><div class='respDivR'><div class='vertical-center'><font style='color:orange'>(I)</font></div></div></div>","null","$12","$27","0","12","27",""
"html-keyboard-response","163","119905","0.0-5.0-1.53","63ea79021f0c43def6174042","bdp_rd","Sat Mar 25 2023 19:11:06 GMT-0500 (Central Daylight Time)","130696","","null","","","","FIX","","<div class='trialBorder'><div class='vertical-center'><img style='vertical-align:center; align:center' src=img/fixation3.jpg></div></div>","null","","","","","",""
"html-keyboard-response","164","120372","0.0-5.0-2.53","63ea79021f0c43def6174042","bdp_rd","Sat Mar 25 2023 19:11:06 GMT-0500 (Central Daylight Time)","130696","","464","","","","offer","","<div class='trialBorder'><div class='vertical-center'><img style='vertical-align:center; align:center' src=img/fixation3.jpg></div><div class='cl'><div class='vertical-center'>$20<br>for<br>sure</div></div><div class='cr'><div class='vertical-center'>$80<br>with a<br>50% chance</div></div><div class='respDivL'><div class='vertical-center'>(E)</div></div><div class='respDivR'><div class='vertical-center'>(I)</div></div></div>","I","$20","$80","0","20","80","RISKY"
"html-keyboard-response","165","120624","0.0-5.0-3.53","63ea79021f0c43def6174042","bdp_rd","Sat Mar 25 2023 19:11:06 GMT-0500 (Central Daylight Time)","130696","","null","","","","offerFB","","<div class='trialBorder'><div class='vertical-center'><img style='vertical-align:center; align:center' src=img/fixation3.jpg></div><div class='cl'><div class='vertical-center'>$20<br>for<br>sure</div></div><div class='cr'><div class='vertical-center'><font style='color:orange'>$80<br>with a<br>50% chance</font></div></div><div class='respDivL'><div class='vertical-center'>(E)</div></div><div class='respDivR'><div class='vertical-center'><font style='color:orange'>(I)</font></div></div></div>","null","$20","$80","0","20","80",""
"html-keyboard-response","166","121127","0.0-5.0-1.54","63ea79021f0c43def6174042","bdp_rd","Sat Mar 25 2023 19:11:06 GMT-0500 (Central Daylight Time)","130696","","null","","","","FIX","","<div class='trialBorder'><div class='vertical-center'><img style='vertical-align:center; align:center' src=img/fixation3.jpg></div></div>","null","","","","","",""
"html-keyboard-response","167","121967","0.0-5.0-2.54","63ea79021f0c43def6174042","bdp_rd","Sat Mar 25 2023 19:11:06 GMT-0500 (Central Daylight Time)","130696","","837","","","","offer","","<div class='trialBorder'><div class='vertical-center'><img style='vertical-align:center; align:center' src=img/fixation3.jpg></div><div class='cl'><div class='vertical-center'>$18<br>with a<br>50% chance</div></div><div class='cr'><div class='vertical-center'>$9<br>for<br>sure</div></div><div class='respDivL'><div class='vertical-center'>(E)</div></div><div class='respDivR'><div class='vertical-center'>(I)</div></div></div>","E","$9","$18","1","9","18","RISKY"
"html-keyboard-response","168","122222","0.0-5.0-3.54","63ea79021f0c43def6174042","bdp_rd","Sat Mar 25 2023 19:11:06 GMT-0500 (Central Daylight Time)","130696","","null","","","","offerFB","","<div class='trialBorder'><div class='vertical-center'><img style='vertical-align:center; align:center' src=img/fixation3.jpg></div><div class='cl'><div class='vertical-center'><font style='color:orange'>$18<br>with a<br>50% chance</font></div></div><div class='cr'><div class='vertical-center'>$9<br>for<br>sure</div></div><div class='respDivL'><div class='vertical-center'><font style='color:orange'>(E)</font></div></div><div class='respDivR'><div class='vertical-center'>(I)</div></div></div>","null","$9","$18","1","9","18",""
"html-keyboard-response","169","122724","0.0-5.0-1.55","63ea79021f0c43def6174042","bdp_rd","Sat Mar 25 2023 19:11:06 GMT-0500 (Central Daylight Time)","130696","","null","","","","FIX","","<div class='trialBorder'><div class='vertical-center'><img style='vertical-align:center; align:center' src=img/fixation3.jpg></div></div>","null","","","","","",""
"html-keyboard-response","170","123737","0.0-5.0-2.55","63ea79021f0c43def6174042","bdp_rd","Sat Mar 25 2023 19:11:06 GMT-0500 (Central Daylight Time)","130696","","1012","","","","offer","","<div class='trialBorder'><div class='vertical-center'><img style='vertical-align:center; align:center' src=img/fixation3.jpg></div><div class='cl'><div class='vertical-center'>$78<br>with a<br>50% chance</div></div><div class='cr'><div class='vertical-center'>$31<br>for<br>sure</div></div><div class='respDivL'><div class='vertical-center'>(E)</div></div><div class='respDivR'><div class='vertical-center'>(I)</div></div></div>","E","$31","$78","1","31","78","RISKY"
"html-keyboard-response","171","123990","0.0-5.0-3.55","63ea79021f0c43def6174042","bdp_rd","Sat Mar 25 2023 19:11:06 GMT-0500 (Central Daylight Time)","130696","","null","","","","offerFB","","<div class='trialBorder'><div class='vertical-center'><img style='vertical-align:center; align:center' src=img/fixation3.jpg></div><div class='cl'><div class='vertical-center'><font style='color:orange'>$78<br>with a<br>50% chance</font></div></div><div class='cr'><div class='vertical-center'>$31<br>for<br>sure</div></div><div class='respDivL'><div class='vertical-center'><font style='color:orange'>(E)</font></div></div><div class='respDivR'><div class='vertical-center'>(I)</div></div></div>","null","$31","$78","1","31","78",""
"html-keyboard-response","172","124493","0.0-5.0-1.56","63ea79021f0c43def6174042","bdp_rd","Sat Mar 25 2023 19:11:06 GMT-0500 (Central Daylight Time)","130696","","null","","","","FIX","","<div class='trialBorder'><div class='vertical-center'><img style='vertical-align:center; align:center' src=img/fixation3.jpg></div></div>","null","","","","","",""
"html-keyboard-response","173","125192","0.0-5.0-2.56","63ea79021f0c43def6174042","bdp_rd","Sat Mar 25 2023 19:11:06 GMT-0500 (Central Daylight Time)","130696","","696","","","","offer","","<div class='trialBorder'><div class='vertical-center'><img style='vertical-align:center; align:center' src=img/fixation3.jpg></div><div class='cl'><div class='vertical-center'>$13<br>for<br>sure</div></div><div class='cr'><div class='vertical-center'>$41<br>with a<br>50% chance</div></div><div class='respDivL'><div class='vertical-center'>(E)</div></div><div class='respDivR'><div class='vertical-center'>(I)</div></div></div>","I","$13","$41","0","13","41","RISKY"
