"trial_type","trial_index","time_elapsed","internal_node_id","subject_id","task","startTime","totalTime","view_history","rt","event","trial","time","trialtype","success","stimulus","key_press","sureOffer","riskyOffer","riskyLeft","sureAmt","riskyAmt","chosen"
"pavlovia","0","13","0.0-0.0","63d1819e544fa53e891614ec","bdp_rd","Sun Mar 26 2023 18:18:21 GMT-0700 (Pacific Daylight Time)","269264","","","","","","","","","","","","","","",""
"instructions","1","2153","0.0-1.0","63d1819e544fa53e891614ec","bdp_rd","Sun Mar 26 2023 18:18:21 GMT-0700 (Pacific Daylight Time)","269264","[{""page_index"":0,""viewing_time"":2137}]","2137","","","","","","","","","","","","",""
"","","","","63d1819e544fa53e891614ec","bdp_rd","Sun Mar 26 2023 18:18:21 GMT-0700 (Pacific Daylight Time)","269264","","","fullscreenenter","2","4781","fullscreenenter","","","","","","","","",""
"fullscreen","2","5744","0.0-2.0","63d1819e544fa53e891614ec","bdp_rd","Sun Mar 26 2023 18:18:21 GMT-0700 (Pacific Daylight Time)","269264","","","","","","","true","","","","","","","",""
"instructions","3","110686","0.0-4.0","63d1819e544fa53e891614ec","bdp_rd","Sun Mar 26 2023 18:18:21 GMT-0700 (Pacific Daylight Time)","269264","[{""page_index"":0,""viewing_time"":95460},{""page_index"":1,""viewing_time"":7034},{""page_index"":2,""viewing_time"":2444}]","104939","","","","","","","","","","","","",""
"html-keyboard-response","4","111196","0.0-5.0-1.0","63d1819e544fa53e891614ec","bdp_rd","Sun Mar 26 2023 18:18:21 GMT-0700 (Pacific Daylight Time)","269264","","null","","","","FIX","","<div class='trialBorder'><div class='vertical-center'><img style='vertical-align:center; align:center' src=img/fixation3.jpg></div></div>","null","","","","","",""
"html-keyboard-response","5","113515","0.0-5.0-2.0","63d1819e544fa53e891614ec","bdp_rd","Sun Mar 26 2023 18:18:21 GMT-0700 (Pacific Daylight Time)","269264","","2315","","","","offer","","<div class='trialBorder'><div class='vertical-center'><img style='vertical-align:center; align:center' src=img/fixation3.jpg></div><div class='cl'><div class='vertical-center'>$48<br>with a<br>50% chance</div></div><div class='cr'><div class='vertical-center'>$34<br>for<br>sure</div></div><div class='respDivL'><div class='vertical-center'>(E)</div></div><div class='respDivR'><div class='vertical-center'>(I)</div></div></div>","I","$34","$48","1","34","48","SURE"
"html-keyboard-response","6","113776","0.0-5.0-3.0","63d1819e544fa53e891614ec","bdp_rd","Sun Mar 26 2023 18:18:21 GMT-0700 (Pacific Daylight Time)","269264","","null","","","","offerFB","","<div class='trialBorder'><div class='vertical-center'><img style='vertical-align:center; align:center' src=img/fixation3.jpg></div><div class='cl'><div class='vertical-center'>$48<br>with a<br>50% chance</div></div><div class='cr'><div class='vertical-center'><font style='color:orange'>$34<br>for<br>sure</font></div></div><div class='respDivL'><div class='vertical-center'>(E)</div></div><div class='respDivR'><div class='vertical-center'><font style='color:orange'>(I)</font></div></div></div>","null","$34","$48","1","34","48",""
"html-keyboard-response","7","114292","0.0-5.0-1.1","63d1819e544fa53e891614ec","bdp_rd","Sun Mar 26 2023 18:18:21 GMT-0700 (Pacific Daylight Time)","269264","","null","","","","FIX","","<div class='trialBorder'><div class='vertical-center'><img style='vertical-align:center; align:center' src=img/fixation3.jpg></div></div>","null","","","","","",""
"html-keyboard-response","8","117087","0.0-5.0-2.1","63d1819e544fa53e891614ec","bdp_rd","Sun Mar 26 2023 18:18:21 GMT-0700 (Pacific Daylight Time)","269264","","2792","","","","offer","","<div class='trialBorder'><div class='vertical-center'><img style='vertical-align:center; align:center' src=img/fixation3.jpg></div><div class='cl'><div class='vertical-center'>$68<br>with a<br>50% chance</div></div><div class='cr'><div class='vertical-center'>$30<br>for<br>sure</div></div><div class='respDivL'><div class='vertical-center'>(E)</div></div><div class='respDivR'><div class='vertical-center'>(I)</div></div></div>","E","$30","$68","1","30","68","RISKY"
"html-keyboard-response","9","117356","0.0-5.0-3.1","63d1819e544fa53e891614ec","bdp_rd","Sun Mar 26 2023 18:18:21 GMT-0700 (Pacific Daylight Time)","269264","","null","","","","offerFB","","<div class='trialBorder'><div class='vertical-center'><img style='vertical-align:center; align:center' src=img/fixation3.jpg></div><div class='cl'><div class='vertical-center'><font style='color:orange'>$68<br>with a<br>50% chance</font></div></div><div class='cr'><div class='vertical-center'>$30<br>for<br>sure</div></div><div class='respDivL'><div class='vertical-center'><font style='color:orange'>(E)</font></div></div><div class='respDivR'><div class='vertical-center'>(I)</div></div></div>","null","$30","$68","1","30","68",""
"html-keyboard-response","10","117862","0.0-5.0-1.2","63d1819e544fa53e891614ec","bdp_rd","Sun Mar 26 2023 18:18:21 GMT-0700 (Pacific Daylight Time)","269264","","null","","","","FIX","","<div class='trialBorder'><div class='vertical-center'><img style='vertical-align:center; align:center' src=img/fixation3.jpg></div></div>","null","","","","","",""
"html-keyboard-response","11","120239","0.0-5.0-2.2","63d1819e544fa53e891614ec","bdp_rd","Sun Mar 26 2023 18:18:21 GMT-0700 (Pacific Daylight Time)","269264","","2375","","","","offer","","<div class='trialBorder'><div class='vertical-center'><img style='vertical-align:center; align:center' src=img/fixation3.jpg></div><div class='cl'><div class='vertical-center'>$20<br>for<br>sure</div></div><div class='cr'><div class='vertical-center'>$80<br>with a<br>50% chance</div></div><div class='respDivL'><div class='vertical-center'>(E)</div></div><div class='respDivR'><div class='vertical-center'>(I)</div></div></div>","E","$20","$80","0","20","80","SURE"
"html-keyboard-response","12","120497","0.0-5.0-3.2","63d1819e544fa53e891614ec","bdp_rd","Sun Mar 26 2023 18:18:21 GMT-0700 (Pacific Daylight Time)","269264","","null","","","","offerFB","","<div class='trialBorder'><div class='vertical-center'><img style='vertical-align:center; align:center' src=img/fixation3.jpg></div><div class='cl'><div class='vertical-center'><font style='color:orange'>$20<br>for<br>sure</font></div></div><div class='cr'><div class='vertical-center'>$80<br>with a<br>50% chance</div></div><div class='respDivL'><div class='vertical-center'><font style='color:orange'>(E)</font></div></div><div class='respDivR'><div class='vertical-center'>(I)</div></div></div>","null","$20","$80","0","20","80",""
"html-keyboard-response","13","121005","0.0-5.0-1.3","63d1819e544fa53e891614ec","bdp_rd","Sun Mar 26 2023 18:18:21 GMT-0700 (Pacific Daylight Time)","269264","","null","","","","FIX","","<div class='trialBorder'><div class='vertical-center'><img style='vertical-align:center; align:center' src=img/fixation3.jpg></div></div>","null","","","","","",""
"html-keyboard-response","14","123437","0.0-5.0-2.3","63d1819e544fa53e891614ec","bdp_rd","Sun Mar 26 2023 18:18:21 GMT-0700 (Pacific Daylight Time)","269264","","2430","","","","offer","","<div class='trialBorder'><div class='vertical-center'><img style='vertical-align:center; align:center' src=img/fixation3.jpg></div><div class='cl'><div class='vertical-center'>$64<br>with a<br>50% chance</div></div><div class='cr'><div class='vertical-center'>$2<br>for<br>sure</div></div><div class='respDivL'><div class='vertical-center'>(E)</div></div><div class='respDivR'><div class='vertical-center'>(I)</div></div></div>","E","$2","$64","1","2","64","RISKY"
"html-keyboard-response","15","123705","0.0-5.0-3.3","63d1819e544fa53e891614ec","bdp_rd","Sun Mar 26 2023 18:18:21 GMT-0700 (Pacific Daylight Time)","269264","","null","","","","offerFB","","<div class='trialBorder'><div class='vertical-center'><img style='vertical-align:center; align:center' src=img/fixation3.jpg></div><div class='cl'><div class='vertical-center'><font style='color:orange'>$64<br>with a<br>50% chance</font></div></div><div class='cr'><div class='vertical-center'>$2<br>for<br>sure</div></div><div class='respDivL'><div class='vertical-center'><font style='color:orange'>(E)</font></div></div><div class='respDivR'><div class='vertical-center'>(I)</div></div></div>","null","$2","$64","1","2","64",""
"html-keyboard-response","16","124214","0.0-5.0-1.4","63d1819e544fa53e891614ec","bdp_rd","Sun Mar 26 2023 18:18:21 GMT-0700 (Pacific Daylight Time)","269264","","null","","","","FIX","","<div class='trialBorder'><div class='vertical-center'><img style='vertical-align:center; align:center' src=img/fixation3.jpg></div></div>","null","","","","","",""
"html-keyboard-response","17","125338","0.0-5.0-2.4","63d1819e544fa53e891614ec","bdp_rd","Sun Mar 26 2023 18:18:21 GMT-0700 (Pacific Daylight Time)","269264","","1122","","","","offer","","<div class='trialBorder'><div class='vertical-center'><img style='vertical-align:center; align:center' src=img/fixation3.jpg></div><div class='cl'><div class='vertical-center'>$71<br>with a<br>50% chance</div></div><div class='cr'><div class='vertical-center'>$7<br>for<br>sure</div></div><div class='respDivL'><div class='vertical-center'>(E)</div></div><div class='respDivR'><div class='vertical-center'>(I)</div></div></div>","E","$7","$71","1","7","71","RISKY"
"html-keyboard-response","18","125597","0.0-5.0-3.4","63d1819e544fa53e891614ec","bdp_rd","Sun Mar 26 2023 18:18:21 GMT-0700 (Pacific Daylight Time)","269264","","null","","","","offerFB","","<div class='trialBorder'><div class='vertical-center'><img style='vertical-align:center; align:center' src=img/fixation3.jpg></div><div class='cl'><div class='vertical-center'><font style='color:orange'>$71<br>with a<br>50% chance</font></div></div><div class='cr'><div class='vertical-center'>$7<br>for<br>sure</div></div><div class='respDivL'><div class='vertical-center'><font style='color:orange'>(E)</font></div></div><div class='respDivR'><div class='vertical-center'>(I)</div></div></div>","null","$7","$71","1","7","71",""
"html-keyboard-response","19","126103","0.0-5.0-1.5","63d1819e544fa53e891614ec","bdp_rd","Sun Mar 26 2023 18:18:21 GMT-0700 (Pacific Daylight Time)","269264","","null","","","","FIX","","<div class='trialBorder'><div class='vertical-center'><img style='vertical-align:center; align:center' src=img/fixation3.jpg></div></div>","null","","","","","",""
"html-keyboard-response","20","128476","0.0-5.0-2.5","63d1819e544fa53e891614ec","bdp_rd","Sun Mar 26 2023 18:18:21 GMT-0700 (Pacific Daylight Time)","269264","","2370","","","","offer","","<div class='trialBorder'><div class='vertical-center'><img style='vertical-align:center; align:center' src=img/fixation3.jpg></div><div class='cl'><div class='vertical-center'>$27<br>for<br>sure</div></div><div class='cr'><div class='vertical-center'>$47<br>with a<br>50% chance</div></div><div class='respDivL'><div class='vertical-center'>(E)</div></div><div class='respDivR'><div class='vertical-center'>(I)</div></div></div>","E","$27","$47","0","27","47","SURE"
"html-keyboard-response","21","128740","0.0-5.0-3.5","63d1819e544fa53e891614ec","bdp_rd","Sun Mar 26 2023 18:18:21 GMT-0700 (Pacific Daylight Time)","269264","","null","","","","offerFB","","<div class='trialBorder'><div class='vertical-center'><img style='vertical-align:center; align:center' src=img/fixation3.jpg></div><div class='cl'><div class='vertical-center'><font style='color:orange'>$27<br>for<br>sure</font></div></div><div class='cr'><div class='vertical-center'>$47<br>with a<br>50% chance</div></div><div class='respDivL'><div class='vertical-center'><font style='color:orange'>(E)</font></div></div><div class='respDivR'><div class='vertical-center'>(I)</div></div></div>","null","$27","$47","0","27","47",""
"html-keyboard-response","22","129248","0.0-5.0-1.6","63d1819e544fa53e891614ec","bdp_rd","Sun Mar 26 2023 18:18:21 GMT-0700 (Pacific Daylight Time)","269264","","null","","","","FIX","","<div class='trialBorder'><div class='vertical-center'><img style='vertical-align:center; align:center' src=img/fixation3.jpg></div></div>","null","","","","","",""
"html-keyboard-response","23","130164","0.0-5.0-2.6","63d1819e544fa53e891614ec","bdp_rd","Sun Mar 26 2023 18:18:21 GMT-0700 (Pacific Daylight Time)","269264","","913","","","","offer","","<div class='trialBorder'><div class='vertical-center'><img style='vertical-align:center; align:center' src=img/fixation3.jpg></div><div class='cl'><div class='vertical-center'>$14<br>with a<br>50% chance</div></div><div class='cr'><div class='vertical-center'>$4<br>for<br>sure</div></div><div class='respDivL'><div class='vertical-center'>(E)</div></div><div class='respDivR'><div class='vertical-center'>(I)</div></div></div>","E","$4","$14","1","4","14","RISKY"
"html-keyboard-response","24","130419","0.0-5.0-3.6","63d1819e544fa53e891614ec","bdp_rd","Sun Mar 26 2023 18:18:21 GMT-0700 (Pacific Daylight Time)","269264","","null","","","","offerFB","","<div class='trialBorder'><div class='vertical-center'><img style='vertical-align:center; align:center' src=img/fixation3.jpg></div><div class='cl'><div class='vertical-center'><font style='color:orange'>$14<br>with a<br>50% chance</font></div></div><div class='cr'><div class='vertical-center'>$4<br>for<br>sure</div></div><div class='respDivL'><div class='vertical-center'><font style='color:orange'>(E)</font></div></div><div class='respDivR'><div class='vertical-center'>(I)</div></div></div>","null","$4","$14","1","4","14",""
"html-keyboard-response","25","130928","0.0-5.0-1.7","63d1819e544fa53e891614ec","bdp_rd","Sun Mar 26 2023 18:18:21 GMT-0700 (Pacific Daylight Time)","269264","","null","","","","FIX","","<div class='trialBorder'><div class='vertical-center'><img style='vertical-align:center; align:center' src=img/fixation3.jpg></div></div>","null","","","","","",""
"html-keyboard-response","26","132550","0.0-5.0-2.7","63d1819e544fa53e891614ec","bdp_rd","Sun Mar 26 2023 18:18:21 GMT-0700 (Pacific Daylight Time)","269264","","1619","","","","offer","","<div class='trialBorder'><div class='vertical-center'><img style='vertical-align:center; align:center' src=img/fixation3.jpg></div><div class='cl'><div class='vertical-center'>$18<br>for<br>sure</div></div><div class='cr'><div class='vertical-center'>$39<br>with a<br>50% chance</div></div><div class='respDivL'><div class='vertical-center'>(E)</div></div><div class='respDivR'><div class='vertical-center'>(I)</div></div></div>","I","$18","$39","0","18","39","RISKY"
"html-keyboard-response","27","132810","0.0-5.0-3.7","63d1819e544fa53e891614ec","bdp_rd","Sun Mar 26 2023 18:18:21 GMT-0700 (Pacific Daylight Time)","269264","","null","","","","offerFB","","<div class='trialBorder'><div class='vertical-center'><img style='vertical-align:center; align:center' src=img/fixation3.jpg></div><div class='cl'><div class='vertical-center'>$18<br>for<br>sure</div></div><div class='cr'><div class='vertical-center'><font style='color:orange'>$39<br>with a<br>50% chance</font></div></div><div class='respDivL'><div class='vertical-center'>(E)</div></div><div class='respDivR'><div class='vertical-center'><font style='color:orange'>(I)</font></div></div></div>","null","$18","$39","0","18","39",""
"html-keyboard-response","28","133312","0.0-5.0-1.8","63d1819e544fa53e891614ec","bdp_rd","Sun Mar 26 2023 18:18:21 GMT-0700 (Pacific Daylight Time)","269264","","null","","","","FIX","","<div class='trialBorder'><div class='vertical-center'><img style='vertical-align:center; align:center' src=img/fixation3.jpg></div></div>","null","","","","","",""
"html-keyboard-response","29","136257","0.0-5.0-2.8","63d1819e544fa53e891614ec","bdp_rd","Sun Mar 26 2023 18:18:21 GMT-0700 (Pacific Daylight Time)","269264","","2942","","","","offer","","<div class='trialBorder'><div class='vertical-center'><img style='vertical-align:center; align:center' src=img/fixation3.jpg></div><div class='cl'><div class='vertical-center'>$7<br>for<br>sure</div></div><div class='cr'><div class='vertical-center'>$10<br>with a<br>50% chance</div></div><div class='respDivL'><div class='vertical-center'>(E)</div></div><div class='respDivR'><div class='vertical-center'>(I)</div></div></div>","E","$7","$10","0","7","10","SURE"
"html-keyboard-response","30","136510","0.0-5.0-3.8","63d1819e544fa53e891614ec","bdp_rd","Sun Mar 26 2023 18:18:21 GMT-0700 (Pacific Daylight Time)","269264","","null","","","","offerFB","","<div class='trialBorder'><div class='vertical-center'><img style='vertical-align:center; align:center' src=img/fixation3.jpg></div><div class='cl'><div class='vertical-center'><font style='color:orange'>$7<br>for<br>sure</font></div></div><div class='cr'><div class='vertical-center'>$10<br>with a<br>50% chance</div></div><div class='respDivL'><div class='vertical-center'><font style='color:orange'>(E)</font></div></div><div class='respDivR'><div class='vertical-center'>(I)</div></div></div>","null","$7","$10","0","7","10",""
"html-keyboard-response","31","137018","0.0-5.0-1.9","63d1819e544fa53e891614ec","bdp_rd","Sun Mar 26 2023 18:18:21 GMT-0700 (Pacific Daylight Time)","269264","","null","","","","FIX","","<div class='trialBorder'><div class='vertical-center'><img style='vertical-align:center; align:center' src=img/fixation3.jpg></div></div>","null","","","","","",""
"html-keyboard-response","32","138565","0.0-5.0-2.9","63d1819e544fa53e891614ec","bdp_rd","Sun Mar 26 2023 18:18:21 GMT-0700 (Pacific Daylight Time)","269264","","1544","","","","offer","","<div class='trialBorder'><div class='vertical-center'><img style='vertical-align:center; align:center' src=img/fixation3.jpg></div><div class='cl'><div class='vertical-center'>$33<br>with a<br>50% chance</div></div><div class='cr'><div class='vertical-center'>$1<br>for<br>sure</div></div><div class='respDivL'><div class='vertical-center'>(E)</div></div><div class='respDivR'><div class='vertical-center'>(I)</div></div></div>","E","$1","$33","1","1","33","RISKY"
"html-keyboard-response","33","138819","0.0-5.0-3.9","63d1819e544fa53e891614ec","bdp_rd","Sun Mar 26 2023 18:18:21 GMT-0700 (Pacific Daylight Time)","269264","","null","","","","offerFB","","<div class='trialBorder'><div class='vertical-center'><img style='vertical-align:center; align:center' src=img/fixation3.jpg></div><div class='cl'><div class='vertical-center'><font style='color:orange'>$33<br>with a<br>50% chance</font></div></div><div class='cr'><div class='vertical-center'>$1<br>for<br>sure</div></div><div class='respDivL'><div class='vertical-center'><font style='color:orange'>(E)</font></div></div><div class='respDivR'><div class='vertical-center'>(I)</div></div></div>","null","$1","$33","1","1","33",""
"html-keyboard-response","34","139329","0.0-5.0-1.10","63d1819e544fa53e891614ec","bdp_rd","Sun Mar 26 2023 18:18:21 GMT-0700 (Pacific Daylight Time)","269264","","null","","","","FIX","","<div class='trialBorder'><div class='vertical-center'><img style='vertical-align:center; align:center' src=img/fixation3.jpg></div></div>","null","","","","","",""
"html-keyboard-response","35","141323","0.0-5.0-2.10","63d1819e544fa53e891614ec","bdp_rd","Sun Mar 26 2023 18:18:21 GMT-0700 (Pacific Daylight Time)","269264","","1991","","","","offer","","<div class='trialBorder'><div class='vertical-center'><img style='vertical-align:center; align:center' src=img/fixation3.jpg></div><div class='cl'><div class='vertical-center'>$16<br>with a<br>50% chance</div></div><div class='cr'><div class='vertical-center'>$5<br>for<br>sure</div></div><div class='respDivL'><div class='vertical-center'>(E)</div></div><div class='respDivR'><div class='vertical-center'>(I)</div></div></div>","E","$5","$16","1","5","16","RISKY"
"html-keyboard-response","36","141580","0.0-5.0-3.10","63d1819e544fa53e891614ec","bdp_rd","Sun Mar 26 2023 18:18:21 GMT-0700 (Pacific Daylight Time)","269264","","null","","","","offerFB","","<div class='trialBorder'><div class='vertical-center'><img style='vertical-align:center; align:center' src=img/fixation3.jpg></div><div class='cl'><div class='vertical-center'><font style='color:orange'>$16<br>with a<br>50% chance</font></div></div><div class='cr'><div class='vertical-center'>$5<br>for<br>sure</div></div><div class='respDivL'><div class='vertical-center'><font style='color:orange'>(E)</font></div></div><div class='respDivR'><div class='vertical-center'>(I)</div></div></div>","null","$5","$16","1","5","16",""
"html-keyboard-response","37","142090","0.0-5.0-1.11","63d1819e544fa53e891614ec","bdp_rd","Sun Mar 26 2023 18:18:21 GMT-0700 (Pacific Daylight Time)","269264","","null","","","","FIX","","<div class='trialBorder'><div class='vertical-center'><img style='vertical-align:center; align:center' src=img/fixation3.jpg></div></div>","null","","","","","",""
"html-keyboard-response","38","143691","0.0-5.0-2.11","63d1819e544fa53e891614ec","bdp_rd","Sun Mar 26 2023 18:18:21 GMT-0700 (Pacific Daylight Time)","269264","","1599","","","","offer","","<div class='trialBorder'><div class='vertical-center'><img style='vertical-align:center; align:center' src=img/fixation3.jpg></div><div class='cl'><div class='vertical-center'>$6<br>for<br>sure</div></div><div class='cr'><div class='vertical-center'>$13<br>with a<br>50% chance</div></div><div class='respDivL'><div class='vertical-center'>(E)</div></div><div class='respDivR'><div class='vertical-center'>(I)</div></div></div>","I","$6","$13","0","6","13","RISKY"
"html-keyboard-response","39","143947","0.0-5.0-3.11","63d1819e544fa53e891614ec","bdp_rd","Sun Mar 26 2023 18:18:21 GMT-0700 (Pacific Daylight Time)","269264","","null","","","","offerFB","","<div class='trialBorder'><div class='vertical-center'><img style='vertical-align:center; align:center' src=img/fixation3.jpg></div><div class='cl'><div class='vertical-center'>$6<br>for<br>sure</div></div><div class='cr'><div class='vertical-center'><font style='color:orange'>$13<br>with a<br>50% chance</font></div></div><div class='respDivL'><div class='vertical-center'>(E)</div></div><div class='respDivR'><div class='vertical-center'><font style='color:orange'>(I)</font></div></div></div>","null","$6","$13","0","6","13",""
"html-keyboard-response","40","144455","0.0-5.0-1.12","63d1819e544fa53e891614ec","bdp_rd","Sun Mar 26 2023 18:18:21 GMT-0700 (Pacific Daylight Time)","269264","","null","","","","FIX","","<div class='trialBorder'><div class='vertical-center'><img style='vertical-align:center; align:center' src=img/fixation3.jpg></div></div>","null","","","","","",""
"html-keyboard-response","41","147036","0.0-5.0-2.12","63d1819e544fa53e891614ec","bdp_rd","Sun Mar 26 2023 18:18:21 GMT-0700 (Pacific Daylight Time)","269264","","2579","","","","offer","","<div class='trialBorder'><div class='vertical-center'><img style='vertical-align:center; align:center' src=img/fixation3.jpg></div><div class='cl'><div class='vertical-center'>$95<br>with a<br>50% chance</div></div><div class='cr'><div class='vertical-center'>$40<br>for<br>sure</div></div><div class='respDivL'><div class='vertical-center'>(E)</div></div><div class='respDivR'><div class='vertical-center'>(I)</div></div></div>","I","$40","$95","1","40","95","SURE"
"html-keyboard-response","42","147295","0.0-5.0-3.12","63d1819e544fa53e891614ec","bdp_rd","Sun Mar 26 2023 18:18:21 GMT-0700 (Pacific Daylight Time)","269264","","null","","","","offerFB","","<div class='trialBorder'><div class='vertical-center'><img style='vertical-align:center; align:center' src=img/fixation3.jpg></div><div class='cl'><div class='vertical-center'>$95<br>with a<br>50% chance</div></div><div class='cr'><div class='vertical-center'><font style='color:orange'>$40<br>for<br>sure</font></div></div><div class='respDivL'><div class='vertical-center'>(E)</div></div><div class='respDivR'><div class='vertical-center'><font style='color:orange'>(I)</font></div></div></div>","null","$40","$95","1","40","95",""
"html-keyboard-response","43","147799","0.0-5.0-1.13","63d1819e544fa53e891614ec","bdp_rd","Sun Mar 26 2023 18:18:21 GMT-0700 (Pacific Daylight Time)","269264","","null","","","","FIX","","<div class='trialBorder'><div class='vertical-center'><img style='vertical-align:center; align:center' src=img/fixation3.jpg></div></div>","null","","","","","",""
"html-keyboard-response","44","150672","0.0-5.0-2.13","63d1819e544fa53e891614ec","bdp_rd","Sun Mar 26 2023 18:18:21 GMT-0700 (Pacific Daylight Time)","269264","","2871","","","","offer","","<div class='trialBorder'><div class='vertical-center'><img style='vertical-align:center; align:center' src=img/fixation3.jpg></div><div class='cl'><div class='vertical-center'>$11<br>with a<br>50% chance</div></div><div class='cr'><div class='vertical-center'>$4<br>for<br>sure</div></div><div class='respDivL'><div class='vertical-center'>(E)</div></div><div class='respDivR'><div class='vertical-center'>(I)</div></div></div>","E","$4","$11","1","4","11","RISKY"
"html-keyboard-response","45","150930","0.0-5.0-3.13","63d1819e544fa53e891614ec","bdp_rd","Sun Mar 26 2023 18:18:21 GMT-0700 (Pacific Daylight Time)","269264","","null","","","","offerFB","","<div class='trialBorder'><div class='vertical-center'><img style='vertical-align:center; align:center' src=img/fixation3.jpg></div><div class='cl'><div class='vertical-center'><font style='color:orange'>$11<br>with a<br>50% chance</font></div></div><div class='cr'><div class='vertical-center'>$4<br>for<br>sure</div></div><div class='respDivL'><div class='vertical-center'><font style='color:orange'>(E)</font></div></div><div class='respDivR'><div class='vertical-center'>(I)</div></div></div>","null","$4","$11","1","4","11",""
"html-keyboard-response","46","151439","0.0-5.0-1.14","63d1819e544fa53e891614ec","bdp_rd","Sun Mar 26 2023 18:18:21 GMT-0700 (Pacific Daylight Time)","269264","","null","","","","FIX","","<div class='trialBorder'><div class='vertical-center'><img style='vertical-align:center; align:center' src=img/fixation3.jpg></div></div>","null","","","","","",""
"html-keyboard-response","47","154185","0.0-5.0-2.14","63d1819e544fa53e891614ec","bdp_rd","Sun Mar 26 2023 18:18:21 GMT-0700 (Pacific Daylight Time)","269264","","2744","","","","offer","","<div class='trialBorder'><div class='vertical-center'><img style='vertical-align:center; align:center' src=img/fixation3.jpg></div><div class='cl'><div class='vertical-center'>$78<br>with a<br>50% chance</div></div><div class='cr'><div class='vertical-center'>$31<br>for<br>sure</div></div><div class='respDivL'><div class='vertical-center'>(E)</div></div><div class='respDivR'><div class='vertical-center'>(I)</div></div></div>","E","$31","$78","1","31","78","RISKY"
"html-keyboard-response","48","154452","0.0-5.0-3.14","63d1819e544fa53e891614ec","bdp_rd","Sun Mar 26 2023 18:18:21 GMT-0700 (Pacific Daylight Time)","269264","","null","","","","offerFB","","<div class='trialBorder'><div class='vertical-center'><img style='vertical-align:center; align:center' src=img/fixation3.jpg></div><div class='cl'><div class='vertical-center'><font style='color:orange'>$78<br>with a<br>50% chance</font></div></div><div class='cr'><div class='vertical-center'>$31<br>for<br>sure</div></div><div class='respDivL'><div class='vertical-center'><font style='color:orange'>(E)</font></div></div><div class='respDivR'><div class='vertical-center'>(I)</div></div></div>","null","$31","$78","1","31","78",""
"html-keyboard-response","49","154970","0.0-5.0-1.15","63d1819e544fa53e891614ec","bdp_rd","Sun Mar 26 2023 18:18:21 GMT-0700 (Pacific Daylight Time)","269264","","null","","","","FIX","","<div class='trialBorder'><div class='vertical-center'><img style='vertical-align:center; align:center' src=img/fixation3.jpg></div></div>","null","","","","","",""
"html-keyboard-response","50","157909","0.0-5.0-2.15","63d1819e544fa53e891614ec","bdp_rd","Sun Mar 26 2023 18:18:21 GMT-0700 (Pacific Daylight Time)","269264","","2936","","","","offer","","<div class='trialBorder'><div class='vertical-center'><img style='vertical-align:center; align:center' src=img/fixation3.jpg></div><div class='cl'><div class='vertical-center'>$53<br>for<br>sure</div></div><div class='cr'><div class='vertical-center'>$98<br>with a<br>50% chance</div></div><div class='respDivL'><div class='vertical-center'>(E)</div></div><div class='respDivR'><div class='vertical-center'>(I)</div></div></div>","E","$53","$98","0","53","98","SURE"
"html-keyboard-response","51","158164","0.0-5.0-3.15","63d1819e544fa53e891614ec","bdp_rd","Sun Mar 26 2023 18:18:21 GMT-0700 (Pacific Daylight Time)","269264","","null","","","","offerFB","","<div class='trialBorder'><div class='vertical-center'><img style='vertical-align:center; align:center' src=img/fixation3.jpg></div><div class='cl'><div class='vertical-center'><font style='color:orange'>$53<br>for<br>sure</font></div></div><div class='cr'><div class='vertical-center'>$98<br>with a<br>50% chance</div></div><div class='respDivL'><div class='vertical-center'><font style='color:orange'>(E)</font></div></div><div class='respDivR'><div class='vertical-center'>(I)</div></div></div>","null","$53","$98","0","53","98",""
"html-keyboard-response","52","158671","0.0-5.0-1.16","63d1819e544fa53e891614ec","bdp_rd","Sun Mar 26 2023 18:18:21 GMT-0700 (Pacific Daylight Time)","269264","","null","","","","FIX","","<div class='trialBorder'><div class='vertical-center'><img style='vertical-align:center; align:center' src=img/fixation3.jpg></div></div>","null","","","","","",""
"html-keyboard-response","53","160267","0.0-5.0-2.16","63d1819e544fa53e891614ec","bdp_rd","Sun Mar 26 2023 18:18:21 GMT-0700 (Pacific Daylight Time)","269264","","1593","","","","offer","","<div class='trialBorder'><div class='vertical-center'><img style='vertical-align:center; align:center' src=img/fixation3.jpg></div><div class='cl'><div class='vertical-center'>$14<br>for<br>sure</div></div><div class='cr'><div class='vertical-center'>$29<br>with a<br>50% chance</div></div><div class='respDivL'><div class='vertical-center'>(E)</div></div><div class='respDivR'><div class='vertical-center'>(I)</div></div></div>","E","$14","$29","0","14","29","SURE"
"html-keyboard-response","54","160526","0.0-5.0-3.16","63d1819e544fa53e891614ec","bdp_rd","Sun Mar 26 2023 18:18:21 GMT-0700 (Pacific Daylight Time)","269264","","null","","","","offerFB","","<div class='trialBorder'><div class='vertical-center'><img style='vertical-align:center; align:center' src=img/fixation3.jpg></div><div class='cl'><div class='vertical-center'><font style='color:orange'>$14<br>for<br>sure</font></div></div><div class='cr'><div class='vertical-center'>$29<br>with a<br>50% chance</div></div><div class='respDivL'><div class='vertical-center'><font style='color:orange'>(E)</font></div></div><div class='respDivR'><div class='vertical-center'>(I)</div></div></div>","null","$14","$29","0","14","29",""
"html-keyboard-response","55","161038","0.0-5.0-1.17","63d1819e544fa53e891614ec","bdp_rd","Sun Mar 26 2023 18:18:21 GMT-0700 (Pacific Daylight Time)","269264","","null","","","","FIX","","<div class='trialBorder'><div class='vertical-center'><img style='vertical-align:center; align:center' src=img/fixation3.jpg></div></div>","null","","","","","",""
"html-keyboard-response","56","162639","0.0-5.0-2.17","63d1819e544fa53e891614ec","bdp_rd","Sun Mar 26 2023 18:18:21 GMT-0700 (Pacific Daylight Time)","269264","","1598","","","","offer","","<div class='trialBorder'><div class='vertical-center'><img style='vertical-align:center; align:center' src=img/fixation3.jpg></div><div class='cl'><div class='vertical-center'>$35<br>with a<br>50% chance</div></div><div class='cr'><div class='vertical-center'>$12<br>for<br>sure</div></div><div class='respDivL'><div class='vertical-center'>(E)</div></div><div class='respDivR'><div class='vertical-center'>(I)</div></div></div>","E","$12","$35","1","12","35","RISKY"
"html-keyboard-response","57","162897","0.0-5.0-3.17","63d1819e544fa53e891614ec","bdp_rd","Sun Mar 26 2023 18:18:21 GMT-0700 (Pacific Daylight Time)","269264","","null","","","","offerFB","","<div class='trialBorder'><div class='vertical-center'><img style='vertical-align:center; align:center' src=img/fixation3.jpg></div><div class='cl'><div class='vertical-center'><font style='color:orange'>$35<br>with a<br>50% chance</font></div></div><div class='cr'><div class='vertical-center'>$12<br>for<br>sure</div></div><div class='respDivL'><div class='vertical-center'><font style='color:orange'>(E)</font></div></div><div class='respDivR'><div class='vertical-center'>(I)</div></div></div>","null","$12","$35","1","12","35",""
"html-keyboard-response","58","163402","0.0-5.0-1.18","63d1819e544fa53e891614ec","bdp_rd","Sun Mar 26 2023 18:18:21 GMT-0700 (Pacific Daylight Time)","269264","","null","","","","FIX","","<div class='trialBorder'><div class='vertical-center'><img style='vertical-align:center; align:center' src=img/fixation3.jpg></div></div>","null","","","","","",""
"html-keyboard-response","59","165276","0.0-5.0-2.18","63d1819e544fa53e891614ec","bdp_rd","Sun Mar 26 2023 18:18:21 GMT-0700 (Pacific Daylight Time)","269264","","1872","","","","offer","","<div class='trialBorder'><div class='vertical-center'><img style='vertical-align:center; align:center' src=img/fixation3.jpg></div><div class='cl'><div class='vertical-center'>$46<br>with a<br>50% chance</div></div><div class='cr'><div class='vertical-center'>$29<br>for<br>sure</div></div><div class='respDivL'><div class='vertical-center'>(E)</div></div><div class='respDivR'><div class='vertical-center'>(I)</div></div></div>","I","$29","$46","1","29","46","SURE"
"html-keyboard-response","60","165536","0.0-5.0-3.18","63d1819e544fa53e891614ec","bdp_rd","Sun Mar 26 2023 18:18:21 GMT-0700 (Pacific Daylight Time)","269264","","null","","","","offerFB","","<div class='trialBorder'><div class='vertical-center'><img style='vertical-align:center; align:center' src=img/fixation3.jpg></div><div class='cl'><div class='vertical-center'>$46<br>with a<br>50% chance</div></div><div class='cr'><div class='vertical-center'><font style='color:orange'>$29<br>for<br>sure</font></div></div><div class='respDivL'><div class='vertical-center'>(E)</div></div><div class='respDivR'><div class='vertical-center'><font style='color:orange'>(I)</font></div></div></div>","null","$29","$46","1","29","46",""
"html-keyboard-response","61","166040","0.0-5.0-1.19","63d1819e544fa53e891614ec","bdp_rd","Sun Mar 26 2023 18:18:21 GMT-0700 (Pacific Daylight Time)","269264","","null","","","","FIX","","<div class='trialBorder'><div class='vertical-center'><img style='vertical-align:center; align:center' src=img/fixation3.jpg></div></div>","null","","","","","",""
"html-keyboard-response","62","169290","0.0-5.0-2.19","63d1819e544fa53e891614ec","bdp_rd","Sun Mar 26 2023 18:18:21 GMT-0700 (Pacific Daylight Time)","269264","","3247","","","","offer","","<div class='trialBorder'><div class='vertical-center'><img style='vertical-align:center; align:center' src=img/fixation3.jpg></div><div class='cl'><div class='vertical-center'>$28<br>for<br>sure</div></div><div class='cr'><div class='vertical-center'>$89<br>with a<br>50% chance</div></div><div class='respDivL'><div class='vertical-center'>(E)</div></div><div class='respDivR'><div class='vertical-center'>(I)</div></div></div>","E","$28","$89","0","28","89","SURE"
"html-keyboard-response","63","169551","0.0-5.0-3.19","63d1819e544fa53e891614ec","bdp_rd","Sun Mar 26 2023 18:18:21 GMT-0700 (Pacific Daylight Time)","269264","","null","","","","offerFB","","<div class='trialBorder'><div class='vertical-center'><img style='vertical-align:center; align:center' src=img/fixation3.jpg></div><div class='cl'><div class='vertical-center'><font style='color:orange'>$28<br>for<br>sure</font></div></div><div class='cr'><div class='vertical-center'>$89<br>with a<br>50% chance</div></div><div class='respDivL'><div class='vertical-center'><font style='color:orange'>(E)</font></div></div><div class='respDivR'><div class='vertical-center'>(I)</div></div></div>","null","$28","$89","0","28","89",""
"html-keyboard-response","64","170069","0.0-5.0-1.20","63d1819e544fa53e891614ec","bdp_rd","Sun Mar 26 2023 18:18:21 GMT-0700 (Pacific Daylight Time)","269264","","null","","","","FIX","","<div class='trialBorder'><div class='vertical-center'><img style='vertical-align:center; align:center' src=img/fixation3.jpg></div></div>","null","","","","","",""
"html-keyboard-response","65","172392","0.0-5.0-2.20","63d1819e544fa53e891614ec","bdp_rd","Sun Mar 26 2023 18:18:21 GMT-0700 (Pacific Daylight Time)","269264","","2320","","","","offer","","<div class='trialBorder'><div class='vertical-center'><img style='vertical-align:center; align:center' src=img/fixation3.jpg></div><div class='cl'><div class='vertical-center'>$37<br>with a<br>50% chance</div></div><div class='cr'><div class='vertical-center'>$20<br>for<br>sure</div></div><div class='respDivL'><div class='vertical-center'>(E)</div></div><div class='respDivR'><div class='vertical-center'>(I)</div></div></div>","I","$20","$37","1","20","37","SURE"
"html-keyboard-response","66","172649","0.0-5.0-3.20","63d1819e544fa53e891614ec","bdp_rd","Sun Mar 26 2023 18:18:21 GMT-0700 (Pacific Daylight Time)","269264","","null","","","","offerFB","","<div class='trialBorder'><div class='vertical-center'><img style='vertical-align:center; align:center' src=img/fixation3.jpg></div><div class='cl'><div class='vertical-center'>$37<br>with a<br>50% chance</div></div><div class='cr'><div class='vertical-center'><font style='color:orange'>$20<br>for<br>sure</font></div></div><div class='respDivL'><div class='vertical-center'>(E)</div></div><div class='respDivR'><div class='vertical-center'><font style='color:orange'>(I)</font></div></div></div>","null","$20","$37","1","20","37",""
"html-keyboard-response","67","173168","0.0-5.0-1.21","63d1819e544fa53e891614ec","bdp_rd","Sun Mar 26 2023 18:18:21 GMT-0700 (Pacific Daylight Time)","269264","","null","","","","FIX","","<div class='trialBorder'><div class='vertical-center'><img style='vertical-align:center; align:center' src=img/fixation3.jpg></div></div>","null","","","","","",""
"html-keyboard-response","68","174405","0.0-5.0-2.21","63d1819e544fa53e891614ec","bdp_rd","Sun Mar 26 2023 18:18:21 GMT-0700 (Pacific Daylight Time)","269264","","1236","","","","offer","","<div class='trialBorder'><div class='vertical-center'><img style='vertical-align:center; align:center' src=img/fixation3.jpg></div><div class='cl'><div class='vertical-center'>$59<br>with a<br>50% chance</div></div><div class='cr'><div class='vertical-center'>$22<br>for<br>sure</div></div><div class='respDivL'><div class='vertical-center'>(E)</div></div><div class='respDivR'><div class='vertical-center'>(I)</div></div></div>","I","$22","$59","1","22","59","SURE"
"html-keyboard-response","69","174673","0.0-5.0-3.21","63d1819e544fa53e891614ec","bdp_rd","Sun Mar 26 2023 18:18:21 GMT-0700 (Pacific Daylight Time)","269264","","null","","","","offerFB","","<div class='trialBorder'><div class='vertical-center'><img style='vertical-align:center; align:center' src=img/fixation3.jpg></div><div class='cl'><div class='vertical-center'>$59<br>with a<br>50% chance</div></div><div class='cr'><div class='vertical-center'><font style='color:orange'>$22<br>for<br>sure</font></div></div><div class='respDivL'><div class='vertical-center'>(E)</div></div><div class='respDivR'><div class='vertical-center'><font style='color:orange'>(I)</font></div></div></div>","null","$22","$59","1","22","59",""
"html-keyboard-response","70","175182","0.0-5.0-1.22","63d1819e544fa53e891614ec","bdp_rd","Sun Mar 26 2023 18:18:21 GMT-0700 (Pacific Daylight Time)","269264","","null","","","","FIX","","<div class='trialBorder'><div class='vertical-center'><img style='vertical-align:center; align:center' src=img/fixation3.jpg></div></div>","null","","","","","",""
"html-keyboard-response","71","176565","0.0-5.0-2.22","63d1819e544fa53e891614ec","bdp_rd","Sun Mar 26 2023 18:18:21 GMT-0700 (Pacific Daylight Time)","269264","","1380","","","","offer","","<div class='trialBorder'><div class='vertical-center'><img style='vertical-align:center; align:center' src=img/fixation3.jpg></div><div class='cl'><div class='vertical-center'>$18<br>with a<br>50% chance</div></div><div class='cr'><div class='vertical-center'>$9<br>for<br>sure</div></div><div class='respDivL'><div class='vertical-center'>(E)</div></div><div class='respDivR'><div class='vertical-center'>(I)</div></div></div>","E","$9","$18","1","9","18","RISKY"
"html-keyboard-response","72","176821","0.0-5.0-3.22","63d1819e544fa53e891614ec","bdp_rd","Sun Mar 26 2023 18:18:21 GMT-0700 (Pacific Daylight Time)","269264","","null","","","","offerFB","","<div class='trialBorder'><div class='vertical-center'><img style='vertical-align:center; align:center' src=img/fixation3.jpg></div><div class='cl'><div class='vertical-center'><font style='color:orange'>$18<br>with a<br>50% chance</font></div></div><div class='cr'><div class='vertical-center'>$9<br>for<br>sure</div></div><div class='respDivL'><div class='vertical-center'><font style='color:orange'>(E)</font></div></div><div class='respDivR'><div class='vertical-center'>(I)</div></div></div>","null","$9","$18","1","9","18",""
"html-keyboard-response","73","177339","0.0-5.0-1.23","63d1819e544fa53e891614ec","bdp_rd","Sun Mar 26 2023 18:18:21 GMT-0700 (Pacific Daylight Time)","269264","","null","","","","FIX","","<div class='trialBorder'><div class='vertical-center'><img style='vertical-align:center; align:center' src=img/fixation3.jpg></div></div>","null","","","","","",""
"html-keyboard-response","74","178414","0.0-5.0-2.23","63d1819e544fa53e891614ec","bdp_rd","Sun Mar 26 2023 18:18:21 GMT-0700 (Pacific Daylight Time)","269264","","1072","","","","offer","","<div class='trialBorder'><div class='vertical-center'><img style='vertical-align:center; align:center' src=img/fixation3.jpg></div><div class='cl'><div class='vertical-center'>$58<br>for<br>sure</div></div><div class='cr'><div class='vertical-center'>$69<br>with a<br>50% chance</div></div><div class='respDivL'><div class='vertical-center'>(E)</div></div><div class='respDivR'><div class='vertical-center'>(I)</div></div></div>","I","$58","$69","0","58","69","RISKY"
"html-keyboard-response","75","178668","0.0-5.0-3.23","63d1819e544fa53e891614ec","bdp_rd","Sun Mar 26 2023 18:18:21 GMT-0700 (Pacific Daylight Time)","269264","","null","","","","offerFB","","<div class='trialBorder'><div class='vertical-center'><img style='vertical-align:center; align:center' src=img/fixation3.jpg></div><div class='cl'><div class='vertical-center'>$58<br>for<br>sure</div></div><div class='cr'><div class='vertical-center'><font style='color:orange'>$69<br>with a<br>50% chance</font></div></div><div class='respDivL'><div class='vertical-center'>(E)</div></div><div class='respDivR'><div class='vertical-center'><font style='color:orange'>(I)</font></div></div></div>","null","$58","$69","0","58","69",""
"html-keyboard-response","76","179176","0.0-5.0-1.24","63d1819e544fa53e891614ec","bdp_rd","Sun Mar 26 2023 18:18:21 GMT-0700 (Pacific Daylight Time)","269264","","null","","","","FIX","","<div class='trialBorder'><div class='vertical-center'><img style='vertical-align:center; align:center' src=img/fixation3.jpg></div></div>","null","","","","","",""
"html-keyboard-response","77","180549","0.0-5.0-2.24","63d1819e544fa53e891614ec","bdp_rd","Sun Mar 26 2023 18:18:21 GMT-0700 (Pacific Daylight Time)","269264","","1370","","","","offer","","<div class='trialBorder'><div class='vertical-center'><img style='vertical-align:center; align:center' src=img/fixation3.jpg></div><div class='cl'><div class='vertical-center'>$70<br>with a<br>50% chance</div></div><div class='cr'><div class='vertical-center'>$24<br>for<br>sure</div></div><div class='respDivL'><div class='vertical-center'>(E)</div></div><div class='respDivR'><div class='vertical-center'>(I)</div></div></div>","I","$24","$70","1","24","70","SURE"
"html-keyboard-response","78","180815","0.0-5.0-3.24","63d1819e544fa53e891614ec","bdp_rd","Sun Mar 26 2023 18:18:21 GMT-0700 (Pacific Daylight Time)","269264","","null","","","","offerFB","","<div class='trialBorder'><div class='vertical-center'><img style='vertical-align:center; align:center' src=img/fixation3.jpg></div><div class='cl'><div class='vertical-center'>$70<br>with a<br>50% chance</div></div><div class='cr'><div class='vertical-center'><font style='color:orange'>$24<br>for<br>sure</font></div></div><div class='respDivL'><div class='vertical-center'>(E)</div></div><div class='respDivR'><div class='vertical-center'><font style='color:orange'>(I)</font></div></div></div>","null","$24","$70","1","24","70",""
"html-keyboard-response","79","181325","0.0-5.0-1.25","63d1819e544fa53e891614ec","bdp_rd","Sun Mar 26 2023 18:18:21 GMT-0700 (Pacific Daylight Time)","269264","","null","","","","FIX","","<div class='trialBorder'><div class='vertical-center'><img style='vertical-align:center; align:center' src=img/fixation3.jpg></div></div>","null","","","","","",""
"html-keyboard-response","80","182666","0.0-5.0-2.25","63d1819e544fa53e891614ec","bdp_rd","Sun Mar 26 2023 18:18:21 GMT-0700 (Pacific Daylight Time)","269264","","1338","","","","offer","","<div class='trialBorder'><div class='vertical-center'><img style='vertical-align:center; align:center' src=img/fixation3.jpg></div><div class='cl'><div class='vertical-center'>$16<br>for<br>sure</div></div><div class='cr'><div class='vertical-center'>$28<br>with a<br>50% chance</div></div><div class='respDivL'><div class='vertical-center'>(E)</div></div><div class='respDivR'><div class='vertical-center'>(I)</div></div></div>","E","$16","$28","0","16","28","SURE"
"html-keyboard-response","81","182921","0.0-5.0-3.25","63d1819e544fa53e891614ec","bdp_rd","Sun Mar 26 2023 18:18:21 GMT-0700 (Pacific Daylight Time)","269264","","null","","","","offerFB","","<div class='trialBorder'><div class='vertical-center'><img style='vertical-align:center; align:center' src=img/fixation3.jpg></div><div class='cl'><div class='vertical-center'><font style='color:orange'>$16<br>for<br>sure</font></div></div><div class='cr'><div class='vertical-center'>$28<br>with a<br>50% chance</div></div><div class='respDivL'><div class='vertical-center'><font style='color:orange'>(E)</font></div></div><div class='respDivR'><div class='vertical-center'>(I)</div></div></div>","null","$16","$28","0","16","28",""
"html-keyboard-response","82","183425","0.0-5.0-1.26","63d1819e544fa53e891614ec","bdp_rd","Sun Mar 26 2023 18:18:21 GMT-0700 (Pacific Daylight Time)","269264","","null","","","","FIX","","<div class='trialBorder'><div class='vertical-center'><img style='vertical-align:center; align:center' src=img/fixation3.jpg></div></div>","null","","","","","",""
"html-keyboard-response","83","185175","0.0-5.0-2.26","63d1819e544fa53e891614ec","bdp_rd","Sun Mar 26 2023 18:18:21 GMT-0700 (Pacific Daylight Time)","269264","","1748","","","","offer","","<div class='trialBorder'><div class='vertical-center'><img style='vertical-align:center; align:center' src=img/fixation3.jpg></div><div class='cl'><div class='vertical-center'>$26<br>for<br>sure</div></div><div class='cr'><div class='vertical-center'>$92<br>with a<br>50% chance</div></div><div class='respDivL'><div class='vertical-center'>(E)</div></div><div class='respDivR'><div class='vertical-center'>(I)</div></div></div>","E","$26","$92","0","26","92","SURE"
"html-keyboard-response","84","185429","0.0-5.0-3.26","63d1819e544fa53e891614ec","bdp_rd","Sun Mar 26 2023 18:18:21 GMT-0700 (Pacific Daylight Time)","269264","","null","","","","offerFB","","<div class='trialBorder'><div class='vertical-center'><img style='vertical-align:center; align:center' src=img/fixation3.jpg></div><div class='cl'><div class='vertical-center'><font style='color:orange'>$26<br>for<br>sure</font></div></div><div class='cr'><div class='vertical-center'>$92<br>with a<br>50% chance</div></div><div class='respDivL'><div class='vertical-center'><font style='color:orange'>(E)</font></div></div><div class='respDivR'><div class='vertical-center'>(I)</div></div></div>","null","$26","$92","0","26","92",""
"html-keyboard-response","85","185938","0.0-5.0-1.27","63d1819e544fa53e891614ec","bdp_rd","Sun Mar 26 2023 18:18:21 GMT-0700 (Pacific Daylight Time)","269264","","null","","","","FIX","","<div class='trialBorder'><div class='vertical-center'><img style='vertical-align:center; align:center' src=img/fixation3.jpg></div></div>","null","","","","","",""
"html-keyboard-response","86","187583","0.0-5.0-2.27","63d1819e544fa53e891614ec","bdp_rd","Sun Mar 26 2023 18:18:21 GMT-0700 (Pacific Daylight Time)","269264","","1642","","","","offer","","<div class='trialBorder'><div class='vertical-center'><img style='vertical-align:center; align:center' src=img/fixation3.jpg></div><div class='cl'><div class='vertical-center'>$15<br>for<br>sure</div></div><div class='cr'><div class='vertical-center'>$31<br>with a<br>50% chance</div></div><div class='respDivL'><div class='vertical-center'>(E)</div></div><div class='respDivR'><div class='vertical-center'>(I)</div></div></div>","E","$15","$31","0","15","31","SURE"
"html-keyboard-response","87","187847","0.0-5.0-3.27","63d1819e544fa53e891614ec","bdp_rd","Sun Mar 26 2023 18:18:21 GMT-0700 (Pacific Daylight Time)","269264","","null","","","","offerFB","","<div class='trialBorder'><div class='vertical-center'><img style='vertical-align:center; align:center' src=img/fixation3.jpg></div><div class='cl'><div class='vertical-center'><font style='color:orange'>$15<br>for<br>sure</font></div></div><div class='cr'><div class='vertical-center'>$31<br>with a<br>50% chance</div></div><div class='respDivL'><div class='vertical-center'><font style='color:orange'>(E)</font></div></div><div class='respDivR'><div class='vertical-center'>(I)</div></div></div>","null","$15","$31","0","15","31",""
"html-keyboard-response","88","188357","0.0-5.0-1.28","63d1819e544fa53e891614ec","bdp_rd","Sun Mar 26 2023 18:18:21 GMT-0700 (Pacific Daylight Time)","269264","","null","","","","FIX","","<div class='trialBorder'><div class='vertical-center'><img style='vertical-align:center; align:center' src=img/fixation3.jpg></div></div>","null","","","","","",""
"html-keyboard-response","89","189617","0.0-5.0-2.28","63d1819e544fa53e891614ec","bdp_rd","Sun Mar 26 2023 18:18:21 GMT-0700 (Pacific Daylight Time)","269264","","1258","","","","offer","","<div class='trialBorder'><div class='vertical-center'><img style='vertical-align:center; align:center' src=img/fixation3.jpg></div><div class='cl'><div class='vertical-center'>$3<br>for<br>sure</div></div><div class='cr'><div class='vertical-center'>$17<br>with a<br>50% chance</div></div><div class='respDivL'><div class='vertical-center'>(E)</div></div><div class='respDivR'><div class='vertical-center'>(I)</div></div></div>","I","$3","$17","0","3","17","RISKY"
"html-keyboard-response","90","189886","0.0-5.0-3.28","63d1819e544fa53e891614ec","bdp_rd","Sun Mar 26 2023 18:18:21 GMT-0700 (Pacific Daylight Time)","269264","","null","","","","offerFB","","<div class='trialBorder'><div class='vertical-center'><img style='vertical-align:center; align:center' src=img/fixation3.jpg></div><div class='cl'><div class='vertical-center'>$3<br>for<br>sure</div></div><div class='cr'><div class='vertical-center'><font style='color:orange'>$17<br>with a<br>50% chance</font></div></div><div class='respDivL'><div class='vertical-center'>(E)</div></div><div class='respDivR'><div class='vertical-center'><font style='color:orange'>(I)</font></div></div></div>","null","$3","$17","0","3","17",""
"html-keyboard-response","91","190396","0.0-5.0-1.29","63d1819e544fa53e891614ec","bdp_rd","Sun Mar 26 2023 18:18:21 GMT-0700 (Pacific Daylight Time)","269264","","null","","","","FIX","","<div class='trialBorder'><div class='vertical-center'><img style='vertical-align:center; align:center' src=img/fixation3.jpg></div></div>","null","","","","","",""
"html-keyboard-response","92","191768","0.0-5.0-2.29","63d1819e544fa53e891614ec","bdp_rd","Sun Mar 26 2023 18:18:21 GMT-0700 (Pacific Daylight Time)","269264","","1370","","","","offer","","<div class='trialBorder'><div class='vertical-center'><img style='vertical-align:center; align:center' src=img/fixation3.jpg></div><div class='cl'><div class='vertical-center'>$62<br>with a<br>50% chance</div></div><div class='cr'><div class='vertical-center'>$11<br>for<br>sure</div></div><div class='respDivL'><div class='vertical-center'>(E)</div></div><div class='respDivR'><div class='vertical-center'>(I)</div></div></div>","E","$11","$62","1","11","62","RISKY"
"html-keyboard-response","93","192023","0.0-5.0-3.29","63d1819e544fa53e891614ec","bdp_rd","Sun Mar 26 2023 18:18:21 GMT-0700 (Pacific Daylight Time)","269264","","null","","","","offerFB","","<div class='trialBorder'><div class='vertical-center'><img style='vertical-align:center; align:center' src=img/fixation3.jpg></div><div class='cl'><div class='vertical-center'><font style='color:orange'>$62<br>with a<br>50% chance</font></div></div><div class='cr'><div class='vertical-center'>$11<br>for<br>sure</div></div><div class='respDivL'><div class='vertical-center'><font style='color:orange'>(E)</font></div></div><div class='respDivR'><div class='vertical-center'>(I)</div></div></div>","null","$11","$62","1","11","62",""
"html-keyboard-response","94","192525","0.0-5.0-1.30","63d1819e544fa53e891614ec","bdp_rd","Sun Mar 26 2023 18:18:21 GMT-0700 (Pacific Daylight Time)","269264","","null","","","","FIX","","<div class='trialBorder'><div class='vertical-center'><img style='vertical-align:center; align:center' src=img/fixation3.jpg></div></div>","null","","","","","",""
"html-keyboard-response","95","194594","0.0-5.0-2.30","63d1819e544fa53e891614ec","bdp_rd","Sun Mar 26 2023 18:18:21 GMT-0700 (Pacific Daylight Time)","269264","","2067","","","","offer","","<div class='trialBorder'><div class='vertical-center'><img style='vertical-align:center; align:center' src=img/fixation3.jpg></div><div class='cl'><div class='vertical-center'>$12<br>for<br>sure</div></div><div class='cr'><div class='vertical-center'>$27<br>with a<br>50% chance</div></div><div class='respDivL'><div class='vertical-center'>(E)</div></div><div class='respDivR'><div class='vertical-center'>(I)</div></div></div>","I","$12","$27","0","12","27","RISKY"
"html-keyboard-response","96","194848","0.0-5.0-3.30","63d1819e544fa53e891614ec","bdp_rd","Sun Mar 26 2023 18:18:21 GMT-0700 (Pacific Daylight Time)","269264","","null","","","","offerFB","","<div class='trialBorder'><div class='vertical-center'><img style='vertical-align:center; align:center' src=img/fixation3.jpg></div><div class='cl'><div class='vertical-center'>$12<br>for<br>sure</div></div><div class='cr'><div class='vertical-center'><font style='color:orange'>$27<br>with a<br>50% chance</font></div></div><div class='respDivL'><div class='vertical-center'>(E)</div></div><div class='respDivR'><div class='vertical-center'><font style='color:orange'>(I)</font></div></div></div>","null","$12","$27","0","12","27",""
"html-keyboard-response","97","195351","0.0-5.0-1.31","63d1819e544fa53e891614ec","bdp_rd","Sun Mar 26 2023 18:18:21 GMT-0700 (Pacific Daylight Time)","269264","","null","","","","FIX","","<div class='trialBorder'><div class='vertical-center'><img style='vertical-align:center; align:center' src=img/fixation3.jpg></div></div>","null","","","","","",""
"html-keyboard-response","98","196934","0.0-5.0-2.31","63d1819e544fa53e891614ec","bdp_rd","Sun Mar 26 2023 18:18:21 GMT-0700 (Pacific Daylight Time)","269264","","1580","","","","offer","","<div class='trialBorder'><div class='vertical-center'><img style='vertical-align:center; align:center' src=img/fixation3.jpg></div><div class='cl'><div class='vertical-center'>$73<br>with a<br>50% chance</div></div><div class='cr'><div class='vertical-center'>$42<br>for<br>sure</div></div><div class='respDivL'><div class='vertical-center'>(E)</div></div><div class='respDivR'><div class='vertical-center'>(I)</div></div></div>","I","$42","$73","1","42","73","SURE"
"html-keyboard-response","99","197189","0.0-5.0-3.31","63d1819e544fa53e891614ec","bdp_rd","Sun Mar 26 2023 18:18:21 GMT-0700 (Pacific Daylight Time)","269264","","null","","","","offerFB","","<div class='trialBorder'><div class='vertical-center'><img style='vertical-align:center; align:center' src=img/fixation3.jpg></div><div class='cl'><div class='vertical-center'>$73<br>with a<br>50% chance</div></div><div class='cr'><div class='vertical-center'><font style='color:orange'>$42<br>for<br>sure</font></div></div><div class='respDivL'><div class='vertical-center'>(E)</div></div><div class='respDivR'><div class='vertical-center'><font style='color:orange'>(I)</font></div></div></div>","null","$42","$73","1","42","73",""
"html-keyboard-response","100","197696","0.0-5.0-1.32","63d1819e544fa53e891614ec","bdp_rd","Sun Mar 26 2023 18:18:21 GMT-0700 (Pacific Daylight Time)","269264","","null","","","","FIX","","<div class='trialBorder'><div class='vertical-center'><img style='vertical-align:center; align:center' src=img/fixation3.jpg></div></div>","null","","","","","",""
"html-keyboard-response","101","198921","0.0-5.0-2.32","63d1819e544fa53e891614ec","bdp_rd","Sun Mar 26 2023 18:18:21 GMT-0700 (Pacific Daylight Time)","269264","","1223","","","","offer","","<div class='trialBorder'><div class='vertical-center'><img style='vertical-align:center; align:center' src=img/fixation3.jpg></div><div class='cl'><div class='vertical-center'>$46<br>for<br>sure</div></div><div class='cr'><div class='vertical-center'>$65<br>with a<br>50% chance</div></div><div class='respDivL'><div class='vertical-center'>(E)</div></div><div class='respDivR'><div class='vertical-center'>(I)</div></div></div>","E","$46","$65","0","46","65","SURE"
"html-keyboard-response","102","199177","0.0-5.0-3.32","63d1819e544fa53e891614ec","bdp_rd","Sun Mar 26 2023 18:18:21 GMT-0700 (Pacific Daylight Time)","269264","","null","","","","offerFB","","<div class='trialBorder'><div class='vertical-center'><img style='vertical-align:center; align:center' src=img/fixation3.jpg></div><div class='cl'><div class='vertical-center'><font style='color:orange'>$46<br>for<br>sure</font></div></div><div class='cr'><div class='vertical-center'>$65<br>with a<br>50% chance</div></div><div class='respDivL'><div class='vertical-center'><font style='color:orange'>(E)</font></div></div><div class='respDivR'><div class='vertical-center'>(I)</div></div></div>","null","$46","$65","0","46","65",""
"html-keyboard-response","103","199684","0.0-5.0-1.33","63d1819e544fa53e891614ec","bdp_rd","Sun Mar 26 2023 18:18:21 GMT-0700 (Pacific Daylight Time)","269264","","null","","","","FIX","","<div class='trialBorder'><div class='vertical-center'><img style='vertical-align:center; align:center' src=img/fixation3.jpg></div></div>","null","","","","","",""
"html-keyboard-response","104","200634","0.0-5.0-2.33","63d1819e544fa53e891614ec","bdp_rd","Sun Mar 26 2023 18:18:21 GMT-0700 (Pacific Daylight Time)","269264","","948","","","","offer","","<div class='trialBorder'><div class='vertical-center'><img style='vertical-align:center; align:center' src=img/fixation3.jpg></div><div class='cl'><div class='vertical-center'>$86<br>with a<br>50% chance</div></div><div class='cr'><div class='vertical-center'>$45<br>for<br>sure</div></div><div class='respDivL'><div class='vertical-center'>(E)</div></div><div class='respDivR'><div class='vertical-center'>(I)</div></div></div>","I","$45","$86","1","45","86","SURE"
"html-keyboard-response","105","200890","0.0-5.0-3.33","63d1819e544fa53e891614ec","bdp_rd","Sun Mar 26 2023 18:18:21 GMT-0700 (Pacific Daylight Time)","269264","","null","","","","offerFB","","<div class='trialBorder'><div class='vertical-center'><img style='vertical-align:center; align:center' src=img/fixation3.jpg></div><div class='cl'><div class='vertical-center'>$86<br>with a<br>50% chance</div></div><div class='cr'><div class='vertical-center'><font style='color:orange'>$45<br>for<br>sure</font></div></div><div class='respDivL'><div class='vertical-center'>(E)</div></div><div class='respDivR'><div class='vertical-center'><font style='color:orange'>(I)</font></div></div></div>","null","$45","$86","1","45","86",""
"html-keyboard-response","106","201399","0.0-5.0-1.34","63d1819e544fa53e891614ec","bdp_rd","Sun Mar 26 2023 18:18:21 GMT-0700 (Pacific Daylight Time)","269264","","null","","","","FIX","","<div class='trialBorder'><div class='vertical-center'><img style='vertical-align:center; align:center' src=img/fixation3.jpg></div></div>","null","","","","","",""
"html-keyboard-response","107","202296","0.0-5.0-2.34","63d1819e544fa53e891614ec","bdp_rd","Sun Mar 26 2023 18:18:21 GMT-0700 (Pacific Daylight Time)","269264","","894","","","","offer","","<div class='trialBorder'><div class='vertical-center'><img style='vertical-align:center; align:center' src=img/fixation3.jpg></div><div class='cl'><div class='vertical-center'>$33<br>for<br>sure</div></div><div class='cr'><div class='vertical-center'>$66<br>with a<br>50% chance</div></div><div class='respDivL'><div class='vertical-center'>(E)</div></div><div class='respDivR'><div class='vertical-center'>(I)</div></div></div>","E","$33","$66","0","33","66","SURE"
"html-keyboard-response","108","202555","0.0-5.0-3.34","63d1819e544fa53e891614ec","bdp_rd","Sun Mar 26 2023 18:18:21 GMT-0700 (Pacific Daylight Time)","269264","","null","","","","offerFB","","<div class='trialBorder'><div class='vertical-center'><img style='vertical-align:center; align:center' src=img/fixation3.jpg></div><div class='cl'><div class='vertical-center'><font style='color:orange'>$33<br>for<br>sure</font></div></div><div class='cr'><div class='vertical-center'>$66<br>with a<br>50% chance</div></div><div class='respDivL'><div class='vertical-center'><font style='color:orange'>(E)</font></div></div><div class='respDivR'><div class='vertical-center'>(I)</div></div></div>","null","$33","$66","0","33","66",""
"html-keyboard-response","109","203062","0.0-5.0-1.35","63d1819e544fa53e891614ec","bdp_rd","Sun Mar 26 2023 18:18:21 GMT-0700 (Pacific Daylight Time)","269264","","null","","","","FIX","","<div class='trialBorder'><div class='vertical-center'><img style='vertical-align:center; align:center' src=img/fixation3.jpg></div></div>","null","","","","","",""
"html-keyboard-response","110","205293","0.0-5.0-2.35","63d1819e544fa53e891614ec","bdp_rd","Sun Mar 26 2023 18:18:21 GMT-0700 (Pacific Daylight Time)","269264","","2228","","","","offer","","<div class='trialBorder'><div class='vertical-center'><img style='vertical-align:center; align:center' src=img/fixation3.jpg></div><div class='cl'><div class='vertical-center'>$45<br>with a<br>50% chance</div></div><div class='cr'><div class='vertical-center'>$8<br>for<br>sure</div></div><div class='respDivL'><div class='vertical-center'>(E)</div></div><div class='respDivR'><div class='vertical-center'>(I)</div></div></div>","E","$8","$45","1","8","45","RISKY"
"html-keyboard-response","111","205548","0.0-5.0-3.35","63d1819e544fa53e891614ec","bdp_rd","Sun Mar 26 2023 18:18:21 GMT-0700 (Pacific Daylight Time)","269264","","null","","","","offerFB","","<div class='trialBorder'><div class='vertical-center'><img style='vertical-align:center; align:center' src=img/fixation3.jpg></div><div class='cl'><div class='vertical-center'><font style='color:orange'>$45<br>with a<br>50% chance</font></div></div><div class='cr'><div class='vertical-center'>$8<br>for<br>sure</div></div><div class='respDivL'><div class='vertical-center'><font style='color:orange'>(E)</font></div></div><div class='respDivR'><div class='vertical-center'>(I)</div></div></div>","null","$8","$45","1","8","45",""
"html-keyboard-response","112","206055","0.0-5.0-1.36","63d1819e544fa53e891614ec","bdp_rd","Sun Mar 26 2023 18:18:21 GMT-0700 (Pacific Daylight Time)","269264","","null","","","","FIX","","<div class='trialBorder'><div class='vertical-center'><img style='vertical-align:center; align:center' src=img/fixation3.jpg></div></div>","null","","","","","",""
"html-keyboard-response","113","207211","0.0-5.0-2.36","63d1819e544fa53e891614ec","bdp_rd","Sun Mar 26 2023 18:18:21 GMT-0700 (Pacific Daylight Time)","269264","","1154","","","","offer","","<div class='trialBorder'><div class='vertical-center'><img style='vertical-align:center; align:center' src=img/fixation3.jpg></div><div class='cl'><div class='vertical-center'>$44<br>with a<br>50% chance</div></div><div class='cr'><div class='vertical-center'>$37<br>for<br>sure</div></div><div class='respDivL'><div class='vertical-center'>(E)</div></div><div class='respDivR'><div class='vertical-center'>(I)</div></div></div>","I","$37","$44","1","37","44","SURE"
"html-keyboard-response","114","207479","0.0-5.0-3.36","63d1819e544fa53e891614ec","bdp_rd","Sun Mar 26 2023 18:18:21 GMT-0700 (Pacific Daylight Time)","269264","","null","","","","offerFB","","<div class='trialBorder'><div class='vertical-center'><img style='vertical-align:center; align:center' src=img/fixation3.jpg></div><div class='cl'><div class='vertical-center'>$44<br>with a<br>50% chance</div></div><div class='cr'><div class='vertical-center'><font style='color:orange'>$37<br>for<br>sure</font></div></div><div class='respDivL'><div class='vertical-center'>(E)</div></div><div class='respDivR'><div class='vertical-center'><font style='color:orange'>(I)</font></div></div></div>","null","$37","$44","1","37","44",""
"html-keyboard-response","115","207983","0.0-5.0-1.37","63d1819e544fa53e891614ec","bdp_rd","Sun Mar 26 2023 18:18:21 GMT-0700 (Pacific Daylight Time)","269264","","null","","","","FIX","","<div class='trialBorder'><div class='vertical-center'><img style='vertical-align:center; align:center' src=img/fixation3.jpg></div></div>","null","","","","","",""
"html-keyboard-response","116","209645","0.0-5.0-2.37","63d1819e544fa53e891614ec","bdp_rd","Sun Mar 26 2023 18:18:21 GMT-0700 (Pacific Daylight Time)","269264","","1660","","","","offer","","<div class='trialBorder'><div class='vertical-center'><img style='vertical-align:center; align:center' src=img/fixation3.jpg></div><div class='cl'><div class='vertical-center'>$1<br>for<br>sure</div></div><div class='cr'><div class='vertical-center'>$30<br>with a<br>50% chance</div></div><div class='respDivL'><div class='vertical-center'>(E)</div></div><div class='respDivR'><div class='vertical-center'>(I)</div></div></div>","I","$1","$30","0","1","30","RISKY"
"html-keyboard-response","117","209903","0.0-5.0-3.37","63d1819e544fa53e891614ec","bdp_rd","Sun Mar 26 2023 18:18:21 GMT-0700 (Pacific Daylight Time)","269264","","null","","","","offerFB","","<div class='trialBorder'><div class='vertical-center'><img style='vertical-align:center; align:center' src=img/fixation3.jpg></div><div class='cl'><div class='vertical-center'>$1<br>for<br>sure</div></div><div class='cr'><div class='vertical-center'><font style='color:orange'>$30<br>with a<br>50% chance</font></div></div><div class='respDivL'><div class='vertical-center'>(E)</div></div><div class='respDivR'><div class='vertical-center'><font style='color:orange'>(I)</font></div></div></div>","null","$1","$30","0","1","30",""
"html-keyboard-response","118","210407","0.0-5.0-1.38","63d1819e544fa53e891614ec","bdp_rd","Sun Mar 26 2023 18:18:21 GMT-0700 (Pacific Daylight Time)","269264","","null","","","","FIX","","<div class='trialBorder'><div class='vertical-center'><img style='vertical-align:center; align:center' src=img/fixation3.jpg></div></div>","null","","","","","",""
"html-keyboard-response","119","212189","0.0-5.0-2.38","63d1819e544fa53e891614ec","bdp_rd","Sun Mar 26 2023 18:18:21 GMT-0700 (Pacific Daylight Time)","269264","","1779","","","","offer","","<div class='trialBorder'><div class='vertical-center'><img style='vertical-align:center; align:center' src=img/fixation3.jpg></div><div class='cl'><div class='vertical-center'>$21<br>for<br>sure</div></div><div class='cr'><div class='vertical-center'>$25<br>with a<br>50% chance</div></div><div class='respDivL'><div class='vertical-center'>(E)</div></div><div class='respDivR'><div class='vertical-center'>(I)</div></div></div>","I","$21","$25","0","21","25","RISKY"
"html-keyboard-response","120","212444","0.0-5.0-3.38","63d1819e544fa53e891614ec","bdp_rd","Sun Mar 26 2023 18:18:21 GMT-0700 (Pacific Daylight Time)","269264","","null","","","","offerFB","","<div class='trialBorder'><div class='vertical-center'><img style='vertical-align:center; align:center' src=img/fixation3.jpg></div><div class='cl'><div class='vertical-center'>$21<br>for<br>sure</div></div><div class='cr'><div class='vertical-center'><font style='color:orange'>$25<br>with a<br>50% chance</font></div></div><div class='respDivL'><div class='vertical-center'>(E)</div></div><div class='respDivR'><div class='vertical-center'><font style='color:orange'>(I)</font></div></div></div>","null","$21","$25","0","21","25",""
"html-keyboard-response","121","212954","0.0-5.0-1.39","63d1819e544fa53e891614ec","bdp_rd","Sun Mar 26 2023 18:18:21 GMT-0700 (Pacific Daylight Time)","269264","","null","","","","FIX","","<div class='trialBorder'><div class='vertical-center'><img style='vertical-align:center; align:center' src=img/fixation3.jpg></div></div>","null","","","","","",""
"html-keyboard-response","122","215803","0.0-5.0-2.39","63d1819e544fa53e891614ec","bdp_rd","Sun Mar 26 2023 18:18:21 GMT-0700 (Pacific Daylight Time)","269264","","2846","","","","offer","","<div class='trialBorder'><div class='vertical-center'><img style='vertical-align:center; align:center' src=img/fixation3.jpg></div><div class='cl'><div class='vertical-center'>$3<br>for<br>sure</div></div><div class='cr'><div class='vertical-center'>$12<br>with a<br>50% chance</div></div><div class='respDivL'><div class='vertical-center'>(E)</div></div><div class='respDivR'><div class='vertical-center'>(I)</div></div></div>","I","$3","$12","0","3","12","RISKY"
"html-keyboard-response","123","216058","0.0-5.0-3.39","63d1819e544fa53e891614ec","bdp_rd","Sun Mar 26 2023 18:18:21 GMT-0700 (Pacific Daylight Time)","269264","","null","","","","offerFB","","<div class='trialBorder'><div class='vertical-center'><img style='vertical-align:center; align:center' src=img/fixation3.jpg></div><div class='cl'><div class='vertical-center'>$3<br>for<br>sure</div></div><div class='cr'><div class='vertical-center'><font style='color:orange'>$12<br>with a<br>50% chance</font></div></div><div class='respDivL'><div class='vertical-center'>(E)</div></div><div class='respDivR'><div class='vertical-center'><font style='color:orange'>(I)</font></div></div></div>","null","$3","$12","0","3","12",""
"html-keyboard-response","124","216561","0.0-5.0-1.40","63d1819e544fa53e891614ec","bdp_rd","Sun Mar 26 2023 18:18:21 GMT-0700 (Pacific Daylight Time)","269264","","null","","","","FIX","","<div class='trialBorder'><div class='vertical-center'><img style='vertical-align:center; align:center' src=img/fixation3.jpg></div></div>","null","","","","","",""
"html-keyboard-response","125","218970","0.0-5.0-2.40","63d1819e544fa53e891614ec","bdp_rd","Sun Mar 26 2023 18:18:21 GMT-0700 (Pacific Daylight Time)","269264","","2407","","","","offer","","<div class='trialBorder'><div class='vertical-center'><img style='vertical-align:center; align:center' src=img/fixation3.jpg></div><div class='cl'><div class='vertical-center'>$19<br>for<br>sure</div></div><div class='cr'><div class='vertical-center'>$51<br>with a<br>50% chance</div></div><div class='respDivL'><div class='vertical-center'>(E)</div></div><div class='respDivR'><div class='vertical-center'>(I)</div></div></div>","I","$19","$51","0","19","51","RISKY"
"html-keyboard-response","126","219225","0.0-5.0-3.40","63d1819e544fa53e891614ec","bdp_rd","Sun Mar 26 2023 18:18:21 GMT-0700 (Pacific Daylight Time)","269264","","null","","","","offerFB","","<div class='trialBorder'><div class='vertical-center'><img style='vertical-align:center; align:center' src=img/fixation3.jpg></div><div class='cl'><div class='vertical-center'>$19<br>for<br>sure</div></div><div class='cr'><div class='vertical-center'><font style='color:orange'>$51<br>with a<br>50% chance</font></div></div><div class='respDivL'><div class='vertical-center'>(E)</div></div><div class='respDivR'><div class='vertical-center'><font style='color:orange'>(I)</font></div></div></div>","null","$19","$51","0","19","51",""
"html-keyboard-response","127","219733","0.0-5.0-1.41","63d1819e544fa53e891614ec","bdp_rd","Sun Mar 26 2023 18:18:21 GMT-0700 (Pacific Daylight Time)","269264","","null","","","","FIX","","<div class='trialBorder'><div class='vertical-center'><img style='vertical-align:center; align:center' src=img/fixation3.jpg></div></div>","null","","","","","",""
"html-keyboard-response","128","221209","0.0-5.0-2.41","63d1819e544fa53e891614ec","bdp_rd","Sun Mar 26 2023 18:18:21 GMT-0700 (Pacific Daylight Time)","269264","","1475","","","","offer","","<div class='trialBorder'><div class='vertical-center'><img style='vertical-align:center; align:center' src=img/fixation3.jpg></div><div class='cl'><div class='vertical-center'>$8<br>for<br>sure</div></div><div class='cr'><div class='vertical-center'>$23<br>with a<br>50% chance</div></div><div class='respDivL'><div class='vertical-center'>(E)</div></div><div class='respDivR'><div class='vertical-center'>(I)</div></div></div>","I","$8","$23","0","8","23","RISKY"
"html-keyboard-response","129","221464","0.0-5.0-3.41","63d1819e544fa53e891614ec","bdp_rd","Sun Mar 26 2023 18:18:21 GMT-0700 (Pacific Daylight Time)","269264","","null","","","","offerFB","","<div class='trialBorder'><div class='vertical-center'><img style='vertical-align:center; align:center' src=img/fixation3.jpg></div><div class='cl'><div class='vertical-center'>$8<br>for<br>sure</div></div><div class='cr'><div class='vertical-center'><font style='color:orange'>$23<br>with a<br>50% chance</font></div></div><div class='respDivL'><div class='vertical-center'>(E)</div></div><div class='respDivR'><div class='vertical-center'><font style='color:orange'>(I)</font></div></div></div>","null","$8","$23","0","8","23",""
"html-keyboard-response","130","221971","0.0-5.0-1.42","63d1819e544fa53e891614ec","bdp_rd","Sun Mar 26 2023 18:18:21 GMT-0700 (Pacific Daylight Time)","269264","","null","","","","FIX","","<div class='trialBorder'><div class='vertical-center'><img style='vertical-align:center; align:center' src=img/fixation3.jpg></div></div>","null","","","","","",""
"html-keyboard-response","131","224634","0.0-5.0-2.42","63d1819e544fa53e891614ec","bdp_rd","Sun Mar 26 2023 18:18:21 GMT-0700 (Pacific Daylight Time)","269264","","2660","","","","offer","","<div class='trialBorder'><div class='vertical-center'><img style='vertical-align:center; align:center' src=img/fixation3.jpg></div><div class='cl'><div class='vertical-center'>$40<br>with a<br>50% chance</div></div><div class='cr'><div class='vertical-center'>$10<br>for<br>sure</div></div><div class='respDivL'><div class='vertical-center'>(E)</div></div><div class='respDivR'><div class='vertical-center'>(I)</div></div></div>","E","$10","$40","1","10","40","RISKY"
"html-keyboard-response","132","224893","0.0-5.0-3.42","63d1819e544fa53e891614ec","bdp_rd","Sun Mar 26 2023 18:18:21 GMT-0700 (Pacific Daylight Time)","269264","","null","","","","offerFB","","<div class='trialBorder'><div class='vertical-center'><img style='vertical-align:center; align:center' src=img/fixation3.jpg></div><div class='cl'><div class='vertical-center'><font style='color:orange'>$40<br>with a<br>50% chance</font></div></div><div class='cr'><div class='vertical-center'>$10<br>for<br>sure</div></div><div class='respDivL'><div class='vertical-center'><font style='color:orange'>(E)</font></div></div><div class='respDivR'><div class='vertical-center'>(I)</div></div></div>","null","$10","$40","1","10","40",""
"html-keyboard-response","133","225405","0.0-5.0-1.43","63d1819e544fa53e891614ec","bdp_rd","Sun Mar 26 2023 18:18:21 GMT-0700 (Pacific Daylight Time)","269264","","null","","","","FIX","","<div class='trialBorder'><div class='vertical-center'><img style='vertical-align:center; align:center' src=img/fixation3.jpg></div></div>","null","","","","","",""
"html-keyboard-response","134","227529","0.0-5.0-2.43","63d1819e544fa53e891614ec","bdp_rd","Sun Mar 26 2023 18:18:21 GMT-0700 (Pacific Daylight Time)","269264","","2122","","","","offer","","<div class='trialBorder'><div class='vertical-center'><img style='vertical-align:center; align:center' src=img/fixation3.jpg></div><div class='cl'><div class='vertical-center'>$22<br>with a<br>50% chance</div></div><div class='cr'><div class='vertical-center'>$14<br>for<br>sure</div></div><div class='respDivL'><div class='vertical-center'>(E)</div></div><div class='respDivR'><div class='vertical-center'>(I)</div></div></div>","I","$14","$22","1","14","22","SURE"
"html-keyboard-response","135","227792","0.0-5.0-3.43","63d1819e544fa53e891614ec","bdp_rd","Sun Mar 26 2023 18:18:21 GMT-0700 (Pacific Daylight Time)","269264","","null","","","","offerFB","","<div class='trialBorder'><div class='vertical-center'><img style='vertical-align:center; align:center' src=img/fixation3.jpg></div><div class='cl'><div class='vertical-center'>$22<br>with a<br>50% chance</div></div><div class='cr'><div class='vertical-center'><font style='color:orange'>$14<br>for<br>sure</font></div></div><div class='respDivL'><div class='vertical-center'>(E)</div></div><div class='respDivR'><div class='vertical-center'><font style='color:orange'>(I)</font></div></div></div>","null","$14","$22","1","14","22",""
"html-keyboard-response","136","228305","0.0-5.0-1.44","63d1819e544fa53e891614ec","bdp_rd","Sun Mar 26 2023 18:18:21 GMT-0700 (Pacific Daylight Time)","269264","","null","","","","FIX","","<div class='trialBorder'><div class='vertical-center'><img style='vertical-align:center; align:center' src=img/fixation3.jpg></div></div>","null","","","","","",""
"html-keyboard-response","137","228622","0.0-5.0-2.44","63d1819e544fa53e891614ec","bdp_rd","Sun Mar 26 2023 18:18:21 GMT-0700 (Pacific Daylight Time)","269264","","315","","","","offer","","<div class='trialBorder'><div class='vertical-center'><img style='vertical-align:center; align:center' src=img/fixation3.jpg></div><div class='cl'><div class='vertical-center'>$15<br>with a<br>50% chance</div></div><div class='cr'><div class='vertical-center'>$6<br>for<br>sure</div></div><div class='respDivL'><div class='vertical-center'>(E)</div></div><div class='respDivR'><div class='vertical-center'>(I)</div></div></div>","I","$6","$15","1","6","15","SURE"
"html-keyboard-response","138","228877","0.0-5.0-3.44","63d1819e544fa53e891614ec","bdp_rd","Sun Mar 26 2023 18:18:21 GMT-0700 (Pacific Daylight Time)","269264","","null","","","","offerFB","","<div class='trialBorder'><div class='vertical-center'><img style='vertical-align:center; align:center' src=img/fixation3.jpg></div><div class='cl'><div class='vertical-center'>$15<br>with a<br>50% chance</div></div><div class='cr'><div class='vertical-center'><font style='color:orange'>$6<br>for<br>sure</font></div></div><div class='respDivL'><div class='vertical-center'>(E)</div></div><div class='respDivR'><div class='vertical-center'><font style='color:orange'>(I)</font></div></div></div>","null","$6","$15","1","6","15",""
"html-keyboard-response","139","229393","0.0-5.0-1.45","63d1819e544fa53e891614ec","bdp_rd","Sun Mar 26 2023 18:18:21 GMT-0700 (Pacific Daylight Time)","269264","","null","","","","FIX","","<div class='trialBorder'><div class='vertical-center'><img style='vertical-align:center; align:center' src=img/fixation3.jpg></div></div>","null","","","","","",""
"html-keyboard-response","140","231525","0.0-5.0-2.45","63d1819e544fa53e891614ec","bdp_rd","Sun Mar 26 2023 18:18:21 GMT-0700 (Pacific Daylight Time)","269264","","2130","","","","offer","","<div class='trialBorder'><div class='vertical-center'><img style='vertical-align:center; align:center' src=img/fixation3.jpg></div><div class='cl'><div class='vertical-center'>$17<br>for<br>sure</div></div><div class='cr'><div class='vertical-center'>$43<br>with a<br>50% chance</div></div><div class='respDivL'><div class='vertical-center'>(E)</div></div><div class='respDivR'><div class='vertical-center'>(I)</div></div></div>","I","$17","$43","0","17","43","RISKY"
"html-keyboard-response","141","231786","0.0-5.0-3.45","63d1819e544fa53e891614ec","bdp_rd","Sun Mar 26 2023 18:18:21 GMT-0700 (Pacific Daylight Time)","269264","","null","","","","offerFB","","<div class='trialBorder'><div class='vertical-center'><img style='vertical-align:center; align:center' src=img/fixation3.jpg></div><div class='cl'><div class='vertical-center'>$17<br>for<br>sure</div></div><div class='cr'><div class='vertical-center'><font style='color:orange'>$43<br>with a<br>50% chance</font></div></div><div class='respDivL'><div class='vertical-center'>(E)</div></div><div class='respDivR'><div class='vertical-center'><font style='color:orange'>(I)</font></div></div></div>","null","$17","$43","0","17","43",""
"html-keyboard-response","142","232301","0.0-5.0-1.46","63d1819e544fa53e891614ec","bdp_rd","Sun Mar 26 2023 18:18:21 GMT-0700 (Pacific Daylight Time)","269264","","null","","","","FIX","","<div class='trialBorder'><div class='vertical-center'><img style='vertical-align:center; align:center' src=img/fixation3.jpg></div></div>","null","","","","","",""
"html-keyboard-response","143","233709","0.0-5.0-2.46","63d1819e544fa53e891614ec","bdp_rd","Sun Mar 26 2023 18:18:21 GMT-0700 (Pacific Daylight Time)","269264","","1405","","","","offer","","<div class='trialBorder'><div class='vertical-center'><img style='vertical-align:center; align:center' src=img/fixation3.jpg></div><div class='cl'><div class='vertical-center'>$34<br>with a<br>50% chance</div></div><div class='cr'><div class='vertical-center'>$15<br>for<br>sure</div></div><div class='respDivL'><div class='vertical-center'>(E)</div></div><div class='respDivR'><div class='vertical-center'>(I)</div></div></div>","I","$15","$34","1","15","34","SURE"
"html-keyboard-response","144","233969","0.0-5.0-3.46","63d1819e544fa53e891614ec","bdp_rd","Sun Mar 26 2023 18:18:21 GMT-0700 (Pacific Daylight Time)","269264","","null","","","","offerFB","","<div class='trialBorder'><div class='vertical-center'><img style='vertical-align:center; align:center' src=img/fixation3.jpg></div><div class='cl'><div class='vertical-center'>$34<br>with a<br>50% chance</div></div><div class='cr'><div class='vertical-center'><font style='color:orange'>$15<br>for<br>sure</font></div></div><div class='respDivL'><div class='vertical-center'>(E)</div></div><div class='respDivR'><div class='vertical-center'><font style='color:orange'>(I)</font></div></div></div>","null","$15","$34","1","15","34",""
"html-keyboard-response","145","234477","0.0-5.0-1.47","63d1819e544fa53e891614ec","bdp_rd","Sun Mar 26 2023 18:18:21 GMT-0700 (Pacific Daylight Time)","269264","","null","","","","FIX","","<div class='trialBorder'><div class='vertical-center'><img style='vertical-align:center; align:center' src=img/fixation3.jpg></div></div>","null","","","","","",""
"html-keyboard-response","146","236277","0.0-5.0-2.47","63d1819e544fa53e891614ec","bdp_rd","Sun Mar 26 2023 18:18:21 GMT-0700 (Pacific Daylight Time)","269264","","1798","","","","offer","","<div class='trialBorder'><div class='vertical-center'><img style='vertical-align:center; align:center' src=img/fixation3.jpg></div><div class='cl'><div class='vertical-center'>$32<br>with a<br>50% chance</div></div><div class='cr'><div class='vertical-center'>$9<br>for<br>sure</div></div><div class='respDivL'><div class='vertical-center'>(E)</div></div><div class='respDivR'><div class='vertical-center'>(I)</div></div></div>","E","$9","$32","1","9","32","RISKY"
"html-keyboard-response","147","236535","0.0-5.0-3.47","63d1819e544fa53e891614ec","bdp_rd","Sun Mar 26 2023 18:18:21 GMT-0700 (Pacific Daylight Time)","269264","","null","","","","offerFB","","<div class='trialBorder'><div class='vertical-center'><img style='vertical-align:center; align:center' src=img/fixation3.jpg></div><div class='cl'><div class='vertical-center'><font style='color:orange'>$32<br>with a<br>50% chance</font></div></div><div class='cr'><div class='vertical-center'>$9<br>for<br>sure</div></div><div class='respDivL'><div class='vertical-center'><font style='color:orange'>(E)</font></div></div><div class='respDivR'><div class='vertical-center'>(I)</div></div></div>","null","$9","$32","1","9","32",""
"html-keyboard-response","148","237039","0.0-5.0-1.48","63d1819e544fa53e891614ec","bdp_rd","Sun Mar 26 2023 18:18:21 GMT-0700 (Pacific Daylight Time)","269264","","null","","","","FIX","","<div class='trialBorder'><div class='vertical-center'><img style='vertical-align:center; align:center' src=img/fixation3.jpg></div></div>","null","","","","","",""
"html-keyboard-response","149","239582","0.0-5.0-2.48","63d1819e544fa53e891614ec","bdp_rd","Sun Mar 26 2023 18:18:21 GMT-0700 (Pacific Daylight Time)","269264","","2541","","","","offer","","<div class='trialBorder'><div class='vertical-center'><img style='vertical-align:center; align:center' src=img/fixation3.jpg></div><div class='cl'><div class='vertical-center'>$63<br>for<br>sure</div></div><div class='cr'><div class='vertical-center'>$100<br>with a<br>50% chance</div></div><div class='respDivL'><div class='vertical-center'>(E)</div></div><div class='respDivR'><div class='vertical-center'>(I)</div></div></div>","E","$63","$100","0","63","10","SURE"
"html-keyboard-response","150","239840","0.0-5.0-3.48","63d1819e544fa53e891614ec","bdp_rd","Sun Mar 26 2023 18:18:21 GMT-0700 (Pacific Daylight Time)","269264","","null","","","","offerFB","","<div class='trialBorder'><div class='vertical-center'><img style='vertical-align:center; align:center' src=img/fixation3.jpg></div><div class='cl'><div class='vertical-center'><font style='color:orange'>$63<br>for<br>sure</font></div></div><div class='cr'><div class='vertical-center'>$100<br>with a<br>50% chance</div></div><div class='respDivL'><div class='vertical-center'><font style='color:orange'>(E)</font></div></div><div class='respDivR'><div class='vertical-center'>(I)</div></div></div>","null","$63","$100","0","63","10",""
"html-keyboard-response","151","240347","0.0-5.0-1.49","63d1819e544fa53e891614ec","bdp_rd","Sun Mar 26 2023 18:18:21 GMT-0700 (Pacific Daylight Time)","269264","","null","","","","FIX","","<div class='trialBorder'><div class='vertical-center'><img style='vertical-align:center; align:center' src=img/fixation3.jpg></div></div>","null","","","","","",""
"html-keyboard-response","152","241465","0.0-5.0-2.49","63d1819e544fa53e891614ec","bdp_rd","Sun Mar 26 2023 18:18:21 GMT-0700 (Pacific Daylight Time)","269264","","1115","","","","offer","","<div class='trialBorder'><div class='vertical-center'><img style='vertical-align:center; align:center' src=img/fixation3.jpg></div><div class='cl'><div class='vertical-center'>$39<br>for<br>sure</div></div><div class='cr'><div class='vertical-center'>$81<br>with a<br>50% chance</div></div><div class='respDivL'><div class='vertical-center'>(E)</div></div><div class='respDivR'><div class='vertical-center'>(I)</div></div></div>","E","$39","$81","0","39","81","SURE"
"html-keyboard-response","153","241719","0.0-5.0-3.49","63d1819e544fa53e891614ec","bdp_rd","Sun Mar 26 2023 18:18:21 GMT-0700 (Pacific Daylight Time)","269264","","null","","","","offerFB","","<div class='trialBorder'><div class='vertical-center'><img style='vertical-align:center; align:center' src=img/fixation3.jpg></div><div class='cl'><div class='vertical-center'><font style='color:orange'>$39<br>for<br>sure</font></div></div><div class='cr'><div class='vertical-center'>$81<br>with a<br>50% chance</div></div><div class='respDivL'><div class='vertical-center'><font style='color:orange'>(E)</font></div></div><div class='respDivR'><div class='vertical-center'>(I)</div></div></div>","null","$39","$81","0","39","81",""
"html-keyboard-response","154","242229","0.0-5.0-1.50","63d1819e544fa53e891614ec","bdp_rd","Sun Mar 26 2023 18:18:21 GMT-0700 (Pacific Daylight Time)","269264","","null","","","","FIX","","<div class='trialBorder'><div class='vertical-center'><img style='vertical-align:center; align:center' src=img/fixation3.jpg></div></div>","null","","","","","",""
"html-keyboard-response","155","243788","0.0-5.0-2.50","63d1819e544fa53e891614ec","bdp_rd","Sun Mar 26 2023 18:18:21 GMT-0700 (Pacific Daylight Time)","269264","","1556","","","","offer","","<div class='trialBorder'><div class='vertical-center'><img style='vertical-align:center; align:center' src=img/fixation3.jpg></div><div class='cl'><div class='vertical-center'>$24<br>with a<br>50% chance</div></div><div class='cr'><div class='vertical-center'>$13<br>for<br>sure</div></div><div class='respDivL'><div class='vertical-center'>(E)</div></div><div class='respDivR'><div class='vertical-center'>(I)</div></div></div>","E","$13","$24","1","13","24","RISKY"
"html-keyboard-response","156","244049","0.0-5.0-3.50","63d1819e544fa53e891614ec","bdp_rd","Sun Mar 26 2023 18:18:21 GMT-0700 (Pacific Daylight Time)","269264","","null","","","","offerFB","","<div class='trialBorder'><div class='vertical-center'><img style='vertical-align:center; align:center' src=img/fixation3.jpg></div><div class='cl'><div class='vertical-center'><font style='color:orange'>$24<br>with a<br>50% chance</font></div></div><div class='cr'><div class='vertical-center'>$13<br>for<br>sure</div></div><div class='respDivL'><div class='vertical-center'><font style='color:orange'>(E)</font></div></div><div class='respDivR'><div class='vertical-center'>(I)</div></div></div>","null","$13","$24","1","13","24",""
"html-keyboard-response","157","244557","0.0-5.0-1.51","63d1819e544fa53e891614ec","bdp_rd","Sun Mar 26 2023 18:18:21 GMT-0700 (Pacific Daylight Time)","269264","","null","","","","FIX","","<div class='trialBorder'><div class='vertical-center'><img style='vertical-align:center; align:center' src=img/fixation3.jpg></div></div>","null","","","","","",""
"html-keyboard-response","158","246692","0.0-5.0-2.51","63d1819e544fa53e891614ec","bdp_rd","Sun Mar 26 2023 18:18:21 GMT-0700 (Pacific Daylight Time)","269264","","2132","","","","offer","","<div class='trialBorder'><div class='vertical-center'><img style='vertical-align:center; align:center' src=img/fixation3.jpg></div><div class='cl'><div class='vertical-center'>$22<br>for<br>sure</div></div><div class='cr'><div class='vertical-center'>$42<br>with a<br>50% chance</div></div><div class='respDivL'><div class='vertical-center'>(E)</div></div><div class='respDivR'><div class='vertical-center'>(I)</div></div></div>","E","$22","$42","0","22","42","SURE"
"html-keyboard-response","159","246948","0.0-5.0-3.51","63d1819e544fa53e891614ec","bdp_rd","Sun Mar 26 2023 18:18:21 GMT-0700 (Pacific Daylight Time)","269264","","null","","","","offerFB","","<div class='trialBorder'><div class='vertical-center'><img style='vertical-align:center; align:center' src=img/fixation3.jpg></div><div class='cl'><div class='vertical-center'><font style='color:orange'>$22<br>for<br>sure</font></div></div><div class='cr'><div class='vertical-center'>$42<br>with a<br>50% chance</div></div><div class='respDivL'><div class='vertical-center'><font style='color:orange'>(E)</font></div></div><div class='respDivR'><div class='vertical-center'>(I)</div></div></div>","null","$22","$42","0","22","42",""
"html-keyboard-response","160","247458","0.0-5.0-1.52","63d1819e544fa53e891614ec","bdp_rd","Sun Mar 26 2023 18:18:21 GMT-0700 (Pacific Daylight Time)","269264","","null","","","","FIX","","<div class='trialBorder'><div class='vertical-center'><img style='vertical-align:center; align:center' src=img/fixation3.jpg></div></div>","null","","","","","",""
"html-keyboard-response","161","249300","0.0-5.0-2.52","63d1819e544fa53e891614ec","bdp_rd","Sun Mar 26 2023 18:18:21 GMT-0700 (Pacific Daylight Time)","269264","","1840","","","","offer","","<div class='trialBorder'><div class='vertical-center'><img style='vertical-align:center; align:center' src=img/fixation3.jpg></div><div class='cl'><div class='vertical-center'>$2<br>for<br>sure</div></div><div class='cr'><div class='vertical-center'>$21<br>with a<br>50% chance</div></div><div class='respDivL'><div class='vertical-center'>(E)</div></div><div class='respDivR'><div class='vertical-center'>(I)</div></div></div>","I","$2","$21","0","2","21","RISKY"
"html-keyboard-response","162","249569","0.0-5.0-3.52","63d1819e544fa53e891614ec","bdp_rd","Sun Mar 26 2023 18:18:21 GMT-0700 (Pacific Daylight Time)","269264","","null","","","","offerFB","","<div class='trialBorder'><div class='vertical-center'><img style='vertical-align:center; align:center' src=img/fixation3.jpg></div><div class='cl'><div class='vertical-center'>$2<br>for<br>sure</div></div><div class='cr'><div class='vertical-center'><font style='color:orange'>$21<br>with a<br>50% chance</font></div></div><div class='respDivL'><div class='vertical-center'>(E)</div></div><div class='respDivR'><div class='vertical-center'><font style='color:orange'>(I)</font></div></div></div>","null","$2","$21","0","2","21",""
"html-keyboard-response","163","250079","0.0-5.0-1.53","63d1819e544fa53e891614ec","bdp_rd","Sun Mar 26 2023 18:18:21 GMT-0700 (Pacific Daylight Time)","269264","","null","","","","FIX","","<div class='trialBorder'><div class='vertical-center'><img style='vertical-align:center; align:center' src=img/fixation3.jpg></div></div>","null","","","","","",""
"html-keyboard-response","164","251166","0.0-5.0-2.53","63d1819e544fa53e891614ec","bdp_rd","Sun Mar 26 2023 18:18:21 GMT-0700 (Pacific Daylight Time)","269264","","1084","","","","offer","","<div class='trialBorder'><div class='vertical-center'><img style='vertical-align:center; align:center' src=img/fixation3.jpg></div><div class='cl'><div class='vertical-center'>$54<br>with a<br>50% chance</div></div><div class='cr'><div class='vertical-center'>$25<br>for<br>sure</div></div><div class='respDivL'><div class='vertical-center'>(E)</div></div><div class='respDivR'><div class='vertical-center'>(I)</div></div></div>","I","$25","$54","1","25","54","SURE"
"html-keyboard-response","165","251421","0.0-5.0-3.53","63d1819e544fa53e891614ec","bdp_rd","Sun Mar 26 2023 18:18:21 GMT-0700 (Pacific Daylight Time)","269264","","null","","","","offerFB","","<div class='trialBorder'><div class='vertical-center'><img style='vertical-align:center; align:center' src=img/fixation3.jpg></div><div class='cl'><div class='vertical-center'>$54<br>with a<br>50% chance</div></div><div class='cr'><div class='vertical-center'><font style='color:orange'>$25<br>for<br>sure</font></div></div><div class='respDivL'><div class='vertical-center'>(E)</div></div><div class='respDivR'><div class='vertical-center'><font style='color:orange'>(I)</font></div></div></div>","null","$25","$54","1","25","54",""
"html-keyboard-response","166","251931","0.0-5.0-1.54","63d1819e544fa53e891614ec","bdp_rd","Sun Mar 26 2023 18:18:21 GMT-0700 (Pacific Daylight Time)","269264","","null","","","","FIX","","<div class='trialBorder'><div class='vertical-center'><img style='vertical-align:center; align:center' src=img/fixation3.jpg></div></div>","null","","","","","",""
"html-keyboard-response","167","253269","0.0-5.0-2.54","63d1819e544fa53e891614ec","bdp_rd","Sun Mar 26 2023 18:18:21 GMT-0700 (Pacific Daylight Time)","269264","","1336","","","","offer","","<div class='trialBorder'><div class='vertical-center'><img style='vertical-align:center; align:center' src=img/fixation3.jpg></div><div class='cl'><div class='vertical-center'>$41<br>with a<br>50% chance</div></div><div class='cr'><div class='vertical-center'>$13<br>for<br>sure</div></div><div class='respDivL'><div class='vertical-center'>(E)</div></div><div class='respDivR'><div class='vertical-center'>(I)</div></div></div>","E","$13","$41","1","13","41","RISKY"
"html-keyboard-response","168","253529","0.0-5.0-3.54","63d1819e544fa53e891614ec","bdp_rd","Sun Mar 26 2023 18:18:21 GMT-0700 (Pacific Daylight Time)","269264","","null","","","","offerFB","","<div class='trialBorder'><div class='vertical-center'><img style='vertical-align:center; align:center' src=img/fixation3.jpg></div><div class='cl'><div class='vertical-center'><font style='color:orange'>$41<br>with a<br>50% chance</font></div></div><div class='cr'><div class='vertical-center'>$13<br>for<br>sure</div></div><div class='respDivL'><div class='vertical-center'><font style='color:orange'>(E)</font></div></div><div class='respDivR'><div class='vertical-center'>(I)</div></div></div>","null","$13","$41","1","13","41",""
"html-keyboard-response","169","254040","0.0-5.0-1.55","63d1819e544fa53e891614ec","bdp_rd","Sun Mar 26 2023 18:18:21 GMT-0700 (Pacific Daylight Time)","269264","","null","","","","FIX","","<div class='trialBorder'><div class='vertical-center'><img style='vertical-align:center; align:center' src=img/fixation3.jpg></div></div>","null","","","","","",""
"html-keyboard-response","170","256386","0.0-5.0-2.55","63d1819e544fa53e891614ec","bdp_rd","Sun Mar 26 2023 18:18:21 GMT-0700 (Pacific Daylight Time)","269264","","2344","","","","offer","","<div class='trialBorder'><div class='vertical-center'><img style='vertical-align:center; align:center' src=img/fixation3.jpg></div><div class='cl'><div class='vertical-center'>$38<br>with a<br>50% chance</div></div><div class='cr'><div class='vertical-center'>$16<br>for<br>sure</div></div><div class='respDivL'><div class='vertical-center'>(E)</div></div><div class='respDivR'><div class='vertical-center'>(I)</div></div></div>","E","$16","$38","1","16","38","RISKY"
"html-keyboard-response","171","256651","0.0-5.0-3.55","63d1819e544fa53e891614ec","bdp_rd","Sun Mar 26 2023 18:18:21 GMT-0700 (Pacific Daylight Time)","269264","","null","","","","offerFB","","<div class='trialBorder'><div class='vertical-center'><img style='vertical-align:center; align:center' src=img/fixation3.jpg></div><div class='cl'><div class='vertical-center'><font style='color:orange'>$38<br>with a<br>50% chance</font></div></div><div class='cr'><div class='vertical-center'>$16<br>for<br>sure</div></div><div class='respDivL'><div class='vertical-center'><font style='color:orange'>(E)</font></div></div><div class='respDivR'><div class='vertical-center'>(I)</div></div></div>","null","$16","$38","1","16","38",""
"html-keyboard-response","172","257169","0.0-5.0-1.56","63d1819e544fa53e891614ec","bdp_rd","Sun Mar 26 2023 18:18:21 GMT-0700 (Pacific Daylight Time)","269264","","null","","","","FIX","","<div class='trialBorder'><div class='vertical-center'><img style='vertical-align:center; align:center' src=img/fixation3.jpg></div></div>","null","","","","","",""
"html-keyboard-response","173","259362","0.0-5.0-2.56","63d1819e544fa53e891614ec","bdp_rd","Sun Mar 26 2023 18:18:21 GMT-0700 (Pacific Daylight Time)","269264","","2190","","","","offer","","<div class='trialBorder'><div class='vertical-center'><img style='vertical-align:center; align:center' src=img/fixation3.jpg></div><div class='cl'><div class='vertical-center'>$5<br>for<br>sure</div></div><div class='cr'><div class='vertical-center'>$50<br>with a<br>50% chance</div></div><div class='respDivL'><div class='vertical-center'>(E)</div></div><div class='respDivR'><div class='vertical-center'>(I)</div></div></div>","I","$5","$50","0","5","50","RISKY"
