"trial_type","trial_index","time_elapsed","internal_node_id","subject_id","task","startTime","totalTime","view_history","rt","event","trial","time","trialtype","success","stimulus","key_press","sureOffer","riskyOffer","riskyLeft","sureAmt","riskyAmt","chosen"
"pavlovia","0","2","0.0-0.0","5f9873550513db147c9d2958","bdp_rd","Sat Mar 25 2023 22:09:42 GMT-0400 (Eastern Daylight Time)","200542","","","","","","","","","","","","","","",""
"instructions","1","1994","0.0-1.0","5f9873550513db147c9d2958","bdp_rd","Sat Mar 25 2023 22:09:42 GMT-0400 (Eastern Daylight Time)","200542","[{""page_index"":0,""viewing_time"":1992}]","1992","","","","","","","","","","","","",""
"","","","","5f9873550513db147c9d2958","bdp_rd","Sat Mar 25 2023 22:09:42 GMT-0400 (Eastern Daylight Time)","200542","","","fullscreenenter","2","3931","fullscreenenter","","","","","","","","",""
"","","","","5f9873550513db147c9d2958","bdp_rd","Sat Mar 25 2023 22:09:42 GMT-0400 (Eastern Daylight Time)","200542","","","fullscreenenter","2","3931","fullscreenenter","","","","","","","","",""
"fullscreen","2","4880","0.0-2.0","5f9873550513db147c9d2958","bdp_rd","Sat Mar 25 2023 22:09:42 GMT-0400 (Eastern Daylight Time)","200542","","","","","","","true","","","","","","","",""
"instructions","3","34794","0.0-4.0","5f9873550513db147c9d2958","bdp_rd","Sat Mar 25 2023 22:09:42 GMT-0400 (Eastern Daylight Time)","200542","[{""page_index"":0,""viewing_time"":18273},{""page_index"":1,""viewing_time"":6596},{""page_index"":2,""viewing_time"":5044}]","29913","","","","","","","","","","","","",""
"html-keyboard-response","4","35296","0.0-5.0-1.0","5f9873550513db147c9d2958","bdp_rd","Sat Mar 25 2023 22:09:42 GMT-0400 (Eastern Daylight Time)","200542","","null","","","","FIX","","<div class='trialBorder'><div class='vertical-center'><img style='vertical-align:center; align:center' src=img/fixation3.jpg></div></div>","null","","","","","",""
"html-keyboard-response","5","36927","0.0-5.0-2.0","5f9873550513db147c9d2958","bdp_rd","Sat Mar 25 2023 22:09:42 GMT-0400 (Eastern Daylight Time)","200542","","1629","","","","offer","","<div class='trialBorder'><div class='vertical-center'><img style='vertical-align:center; align:center' src=img/fixation3.jpg></div><div class='cl'><div class='vertical-center'>$8<br>for<br>sure</div></div><div class='cr'><div class='vertical-center'>$45<br>with a<br>50% chance</div></div><div class='respDivL'><div class='vertical-center'>(E)</div></div><div class='respDivR'><div class='vertical-center'>(I)</div></div></div>","I","$8","$45","0","8","45","RISKY"
"html-keyboard-response","6","37179","0.0-5.0-3.0","5f9873550513db147c9d2958","bdp_rd","Sat Mar 25 2023 22:09:42 GMT-0400 (Eastern Daylight Time)","200542","","null","","","","offerFB","","<div class='trialBorder'><div class='vertical-center'><img style='vertical-align:center; align:center' src=img/fixation3.jpg></div><div class='cl'><div class='vertical-center'>$8<br>for<br>sure</div></div><div class='cr'><div class='vertical-center'><font style='color:orange'>$45<br>with a<br>50% chance</font></div></div><div class='respDivL'><div class='vertical-center'>(E)</div></div><div class='respDivR'><div class='vertical-center'><font style='color:orange'>(I)</font></div></div></div>","null","$8","$45","0","8","45",""
"html-keyboard-response","7","37681","0.0-5.0-1.1","5f9873550513db147c9d2958","bdp_rd","Sat Mar 25 2023 22:09:42 GMT-0400 (Eastern Daylight Time)","200542","","null","","","","FIX","","<div class='trialBorder'><div class='vertical-center'><img style='vertical-align:center; align:center' src=img/fixation3.jpg></div></div>","null","","","","","",""
"html-keyboard-response","8","39219","0.0-5.0-2.1","5f9873550513db147c9d2958","bdp_rd","Sat Mar 25 2023 22:09:42 GMT-0400 (Eastern Daylight Time)","200542","","1537","","","","offer","","<div class='trialBorder'><div class='vertical-center'><img style='vertical-align:center; align:center' src=img/fixation3.jpg></div><div class='cl'><div class='vertical-center'>$16<br>for<br>sure</div></div><div class='cr'><div class='vertical-center'>$28<br>with a<br>50% chance</div></div><div class='respDivL'><div class='vertical-center'>(E)</div></div><div class='respDivR'><div class='vertical-center'>(I)</div></div></div>","E","$16","$28","0","16","28","SURE"
"html-keyboard-response","9","39471","0.0-5.0-3.1","5f9873550513db147c9d2958","bdp_rd","Sat Mar 25 2023 22:09:42 GMT-0400 (Eastern Daylight Time)","200542","","null","","","","offerFB","","<div class='trialBorder'><div class='vertical-center'><img style='vertical-align:center; align:center' src=img/fixation3.jpg></div><div class='cl'><div class='vertical-center'><font style='color:orange'>$16<br>for<br>sure</font></div></div><div class='cr'><div class='vertical-center'>$28<br>with a<br>50% chance</div></div><div class='respDivL'><div class='vertical-center'><font style='color:orange'>(E)</font></div></div><div class='respDivR'><div class='vertical-center'>(I)</div></div></div>","null","$16","$28","0","16","28",""
"html-keyboard-response","10","39972","0.0-5.0-1.2","5f9873550513db147c9d2958","bdp_rd","Sat Mar 25 2023 22:09:42 GMT-0400 (Eastern Daylight Time)","200542","","null","","","","FIX","","<div class='trialBorder'><div class='vertical-center'><img style='vertical-align:center; align:center' src=img/fixation3.jpg></div></div>","null","","","","","",""
"html-keyboard-response","11","41803","0.0-5.0-2.2","5f9873550513db147c9d2958","bdp_rd","Sat Mar 25 2023 22:09:42 GMT-0400 (Eastern Daylight Time)","200542","","1830","","","","offer","","<div class='trialBorder'><div class='vertical-center'><img style='vertical-align:center; align:center' src=img/fixation3.jpg></div><div class='cl'><div class='vertical-center'>$26<br>with a<br>50% chance</div></div><div class='cr'><div class='vertical-center'>$11<br>for<br>sure</div></div><div class='respDivL'><div class='vertical-center'>(E)</div></div><div class='respDivR'><div class='vertical-center'>(I)</div></div></div>","I","$11","$26","1","11","26","SURE"
"html-keyboard-response","12","42055","0.0-5.0-3.2","5f9873550513db147c9d2958","bdp_rd","Sat Mar 25 2023 22:09:42 GMT-0400 (Eastern Daylight Time)","200542","","null","","","","offerFB","","<div class='trialBorder'><div class='vertical-center'><img style='vertical-align:center; align:center' src=img/fixation3.jpg></div><div class='cl'><div class='vertical-center'>$26<br>with a<br>50% chance</div></div><div class='cr'><div class='vertical-center'><font style='color:orange'>$11<br>for<br>sure</font></div></div><div class='respDivL'><div class='vertical-center'>(E)</div></div><div class='respDivR'><div class='vertical-center'><font style='color:orange'>(I)</font></div></div></div>","null","$11","$26","1","11","26",""
"html-keyboard-response","13","42556","0.0-5.0-1.3","5f9873550513db147c9d2958","bdp_rd","Sat Mar 25 2023 22:09:42 GMT-0400 (Eastern Daylight Time)","200542","","null","","","","FIX","","<div class='trialBorder'><div class='vertical-center'><img style='vertical-align:center; align:center' src=img/fixation3.jpg></div></div>","null","","","","","",""
"html-keyboard-response","14","48970","0.0-5.0-2.3","5f9873550513db147c9d2958","bdp_rd","Sat Mar 25 2023 22:09:42 GMT-0400 (Eastern Daylight Time)","200542","","6413","","","","offer","","<div class='trialBorder'><div class='vertical-center'><img style='vertical-align:center; align:center' src=img/fixation3.jpg></div><div class='cl'><div class='vertical-center'>$18<br>for<br>sure</div></div><div class='cr'><div class='vertical-center'>$36<br>with a<br>50% chance</div></div><div class='respDivL'><div class='vertical-center'>(E)</div></div><div class='respDivR'><div class='vertical-center'>(I)</div></div></div>","I","$18","$36","0","18","36","RISKY"
"html-keyboard-response","15","49222","0.0-5.0-3.3","5f9873550513db147c9d2958","bdp_rd","Sat Mar 25 2023 22:09:42 GMT-0400 (Eastern Daylight Time)","200542","","null","","","","offerFB","","<div class='trialBorder'><div class='vertical-center'><img style='vertical-align:center; align:center' src=img/fixation3.jpg></div><div class='cl'><div class='vertical-center'>$18<br>for<br>sure</div></div><div class='cr'><div class='vertical-center'><font style='color:orange'>$36<br>with a<br>50% chance</font></div></div><div class='respDivL'><div class='vertical-center'>(E)</div></div><div class='respDivR'><div class='vertical-center'><font style='color:orange'>(I)</font></div></div></div>","null","$18","$36","0","18","36",""
"html-keyboard-response","16","49724","0.0-5.0-1.4","5f9873550513db147c9d2958","bdp_rd","Sat Mar 25 2023 22:09:42 GMT-0400 (Eastern Daylight Time)","200542","","null","","","","FIX","","<div class='trialBorder'><div class='vertical-center'><img style='vertical-align:center; align:center' src=img/fixation3.jpg></div></div>","null","","","","","",""
"html-keyboard-response","17","51681","0.0-5.0-2.4","5f9873550513db147c9d2958","bdp_rd","Sat Mar 25 2023 22:09:42 GMT-0400 (Eastern Daylight Time)","200542","","1956","","","","offer","","<div class='trialBorder'><div class='vertical-center'><img style='vertical-align:center; align:center' src=img/fixation3.jpg></div><div class='cl'><div class='vertical-center'>$46<br>with a<br>50% chance</div></div><div class='cr'><div class='vertical-center'>$29<br>for<br>sure</div></div><div class='respDivL'><div class='vertical-center'>(E)</div></div><div class='respDivR'><div class='vertical-center'>(I)</div></div></div>","I","$29","$46","1","29","46","SURE"
"html-keyboard-response","18","51933","0.0-5.0-3.4","5f9873550513db147c9d2958","bdp_rd","Sat Mar 25 2023 22:09:42 GMT-0400 (Eastern Daylight Time)","200542","","null","","","","offerFB","","<div class='trialBorder'><div class='vertical-center'><img style='vertical-align:center; align:center' src=img/fixation3.jpg></div><div class='cl'><div class='vertical-center'>$46<br>with a<br>50% chance</div></div><div class='cr'><div class='vertical-center'><font style='color:orange'>$29<br>for<br>sure</font></div></div><div class='respDivL'><div class='vertical-center'>(E)</div></div><div class='respDivR'><div class='vertical-center'><font style='color:orange'>(I)</font></div></div></div>","null","$29","$46","1","29","46",""
"html-keyboard-response","19","52434","0.0-5.0-1.5","5f9873550513db147c9d2958","bdp_rd","Sat Mar 25 2023 22:09:42 GMT-0400 (Eastern Daylight Time)","200542","","null","","","","FIX","","<div class='trialBorder'><div class='vertical-center'><img style='vertical-align:center; align:center' src=img/fixation3.jpg></div></div>","null","","","","","",""
"html-keyboard-response","20","53586","0.0-5.0-2.5","5f9873550513db147c9d2958","bdp_rd","Sat Mar 25 2023 22:09:42 GMT-0400 (Eastern Daylight Time)","200542","","1152","","","","offer","","<div class='trialBorder'><div class='vertical-center'><img style='vertical-align:center; align:center' src=img/fixation3.jpg></div><div class='cl'><div class='vertical-center'>$3<br>for<br>sure</div></div><div class='cr'><div class='vertical-center'>$17<br>with a<br>50% chance</div></div><div class='respDivL'><div class='vertical-center'>(E)</div></div><div class='respDivR'><div class='vertical-center'>(I)</div></div></div>","I","$3","$17","0","3","17","RISKY"
"html-keyboard-response","21","53838","0.0-5.0-3.5","5f9873550513db147c9d2958","bdp_rd","Sat Mar 25 2023 22:09:42 GMT-0400 (Eastern Daylight Time)","200542","","null","","","","offerFB","","<div class='trialBorder'><div class='vertical-center'><img style='vertical-align:center; align:center' src=img/fixation3.jpg></div><div class='cl'><div class='vertical-center'>$3<br>for<br>sure</div></div><div class='cr'><div class='vertical-center'><font style='color:orange'>$17<br>with a<br>50% chance</font></div></div><div class='respDivL'><div class='vertical-center'>(E)</div></div><div class='respDivR'><div class='vertical-center'><font style='color:orange'>(I)</font></div></div></div>","null","$3","$17","0","3","17",""
"html-keyboard-response","22","54340","0.0-5.0-1.6","5f9873550513db147c9d2958","bdp_rd","Sat Mar 25 2023 22:09:42 GMT-0400 (Eastern Daylight Time)","200542","","null","","","","FIX","","<div class='trialBorder'><div class='vertical-center'><img style='vertical-align:center; align:center' src=img/fixation3.jpg></div></div>","null","","","","","",""
"html-keyboard-response","23","56426","0.0-5.0-2.6","5f9873550513db147c9d2958","bdp_rd","Sat Mar 25 2023 22:09:42 GMT-0400 (Eastern Daylight Time)","200542","","2085","","","","offer","","<div class='trialBorder'><div class='vertical-center'><img style='vertical-align:center; align:center' src=img/fixation3.jpg></div><div class='cl'><div class='vertical-center'>$12<br>for<br>sure</div></div><div class='cr'><div class='vertical-center'>$27<br>with a<br>50% chance</div></div><div class='respDivL'><div class='vertical-center'>(E)</div></div><div class='respDivR'><div class='vertical-center'>(I)</div></div></div>","I","$12","$27","0","12","27","RISKY"
"html-keyboard-response","24","56678","0.0-5.0-3.6","5f9873550513db147c9d2958","bdp_rd","Sat Mar 25 2023 22:09:42 GMT-0400 (Eastern Daylight Time)","200542","","null","","","","offerFB","","<div class='trialBorder'><div class='vertical-center'><img style='vertical-align:center; align:center' src=img/fixation3.jpg></div><div class='cl'><div class='vertical-center'>$12<br>for<br>sure</div></div><div class='cr'><div class='vertical-center'><font style='color:orange'>$27<br>with a<br>50% chance</font></div></div><div class='respDivL'><div class='vertical-center'>(E)</div></div><div class='respDivR'><div class='vertical-center'><font style='color:orange'>(I)</font></div></div></div>","null","$12","$27","0","12","27",""
"html-keyboard-response","25","57180","0.0-5.0-1.7","5f9873550513db147c9d2958","bdp_rd","Sat Mar 25 2023 22:09:42 GMT-0400 (Eastern Daylight Time)","200542","","null","","","","FIX","","<div class='trialBorder'><div class='vertical-center'><img style='vertical-align:center; align:center' src=img/fixation3.jpg></div></div>","null","","","","","",""
"html-keyboard-response","26","59834","0.0-5.0-2.7","5f9873550513db147c9d2958","bdp_rd","Sat Mar 25 2023 22:09:42 GMT-0400 (Eastern Daylight Time)","200542","","2652","","","","offer","","<div class='trialBorder'><div class='vertical-center'><img style='vertical-align:center; align:center' src=img/fixation3.jpg></div><div class='cl'><div class='vertical-center'>$54<br>with a<br>50% chance</div></div><div class='cr'><div class='vertical-center'>$25<br>for<br>sure</div></div><div class='respDivL'><div class='vertical-center'>(E)</div></div><div class='respDivR'><div class='vertical-center'>(I)</div></div></div>","I","$25","$54","1","25","54","SURE"
"html-keyboard-response","27","60087","0.0-5.0-3.7","5f9873550513db147c9d2958","bdp_rd","Sat Mar 25 2023 22:09:42 GMT-0400 (Eastern Daylight Time)","200542","","null","","","","offerFB","","<div class='trialBorder'><div class='vertical-center'><img style='vertical-align:center; align:center' src=img/fixation3.jpg></div><div class='cl'><div class='vertical-center'>$54<br>with a<br>50% chance</div></div><div class='cr'><div class='vertical-center'><font style='color:orange'>$25<br>for<br>sure</font></div></div><div class='respDivL'><div class='vertical-center'>(E)</div></div><div class='respDivR'><div class='vertical-center'><font style='color:orange'>(I)</font></div></div></div>","null","$25","$54","1","25","54",""
"html-keyboard-response","28","60589","0.0-5.0-1.8","5f9873550513db147c9d2958","bdp_rd","Sat Mar 25 2023 22:09:42 GMT-0400 (Eastern Daylight Time)","200542","","null","","","","FIX","","<div class='trialBorder'><div class='vertical-center'><img style='vertical-align:center; align:center' src=img/fixation3.jpg></div></div>","null","","","","","",""
"html-keyboard-response","29","62851","0.0-5.0-2.8","5f9873550513db147c9d2958","bdp_rd","Sat Mar 25 2023 22:09:42 GMT-0400 (Eastern Daylight Time)","200542","","2261","","","","offer","","<div class='trialBorder'><div class='vertical-center'><img style='vertical-align:center; align:center' src=img/fixation3.jpg></div><div class='cl'><div class='vertical-center'>$58<br>for<br>sure</div></div><div class='cr'><div class='vertical-center'>$69<br>with a<br>50% chance</div></div><div class='respDivL'><div class='vertical-center'>(E)</div></div><div class='respDivR'><div class='vertical-center'>(I)</div></div></div>","E","$58","$69","0","58","69","SURE"
"html-keyboard-response","30","63103","0.0-5.0-3.8","5f9873550513db147c9d2958","bdp_rd","Sat Mar 25 2023 22:09:42 GMT-0400 (Eastern Daylight Time)","200542","","null","","","","offerFB","","<div class='trialBorder'><div class='vertical-center'><img style='vertical-align:center; align:center' src=img/fixation3.jpg></div><div class='cl'><div class='vertical-center'><font style='color:orange'>$58<br>for<br>sure</font></div></div><div class='cr'><div class='vertical-center'>$69<br>with a<br>50% chance</div></div><div class='respDivL'><div class='vertical-center'><font style='color:orange'>(E)</font></div></div><div class='respDivR'><div class='vertical-center'>(I)</div></div></div>","null","$58","$69","0","58","69",""
"html-keyboard-response","31","63605","0.0-5.0-1.9","5f9873550513db147c9d2958","bdp_rd","Sat Mar 25 2023 22:09:42 GMT-0400 (Eastern Daylight Time)","200542","","null","","","","FIX","","<div class='trialBorder'><div class='vertical-center'><img style='vertical-align:center; align:center' src=img/fixation3.jpg></div></div>","null","","","","","",""
"html-keyboard-response","32","64848","0.0-5.0-2.9","5f9873550513db147c9d2958","bdp_rd","Sat Mar 25 2023 22:09:42 GMT-0400 (Eastern Daylight Time)","200542","","1243","","","","offer","","<div class='trialBorder'><div class='vertical-center'><img style='vertical-align:center; align:center' src=img/fixation3.jpg></div><div class='cl'><div class='vertical-center'>$5<br>for<br>sure</div></div><div class='cr'><div class='vertical-center'>$50<br>with a<br>50% chance</div></div><div class='respDivL'><div class='vertical-center'>(E)</div></div><div class='respDivR'><div class='vertical-center'>(I)</div></div></div>","I","$5","$50","0","5","50","RISKY"
"html-keyboard-response","33","65101","0.0-5.0-3.9","5f9873550513db147c9d2958","bdp_rd","Sat Mar 25 2023 22:09:42 GMT-0400 (Eastern Daylight Time)","200542","","null","","","","offerFB","","<div class='trialBorder'><div class='vertical-center'><img style='vertical-align:center; align:center' src=img/fixation3.jpg></div><div class='cl'><div class='vertical-center'>$5<br>for<br>sure</div></div><div class='cr'><div class='vertical-center'><font style='color:orange'>$50<br>with a<br>50% chance</font></div></div><div class='respDivL'><div class='vertical-center'>(E)</div></div><div class='respDivR'><div class='vertical-center'><font style='color:orange'>(I)</font></div></div></div>","null","$5","$50","0","5","50",""
"html-keyboard-response","34","65602","0.0-5.0-1.10","5f9873550513db147c9d2958","bdp_rd","Sat Mar 25 2023 22:09:42 GMT-0400 (Eastern Daylight Time)","200542","","null","","","","FIX","","<div class='trialBorder'><div class='vertical-center'><img style='vertical-align:center; align:center' src=img/fixation3.jpg></div></div>","null","","","","","",""
"html-keyboard-response","35","66872","0.0-5.0-2.10","5f9873550513db147c9d2958","bdp_rd","Sat Mar 25 2023 22:09:42 GMT-0400 (Eastern Daylight Time)","200542","","1269","","","","offer","","<div class='trialBorder'><div class='vertical-center'><img style='vertical-align:center; align:center' src=img/fixation3.jpg></div><div class='cl'><div class='vertical-center'>$2<br>for<br>sure</div></div><div class='cr'><div class='vertical-center'>$21<br>with a<br>50% chance</div></div><div class='respDivL'><div class='vertical-center'>(E)</div></div><div class='respDivR'><div class='vertical-center'>(I)</div></div></div>","I","$2","$21","0","2","21","RISKY"
"html-keyboard-response","36","67124","0.0-5.0-3.10","5f9873550513db147c9d2958","bdp_rd","Sat Mar 25 2023 22:09:42 GMT-0400 (Eastern Daylight Time)","200542","","null","","","","offerFB","","<div class='trialBorder'><div class='vertical-center'><img style='vertical-align:center; align:center' src=img/fixation3.jpg></div><div class='cl'><div class='vertical-center'>$2<br>for<br>sure</div></div><div class='cr'><div class='vertical-center'><font style='color:orange'>$21<br>with a<br>50% chance</font></div></div><div class='respDivL'><div class='vertical-center'>(E)</div></div><div class='respDivR'><div class='vertical-center'><font style='color:orange'>(I)</font></div></div></div>","null","$2","$21","0","2","21",""
"html-keyboard-response","37","67626","0.0-5.0-1.11","5f9873550513db147c9d2958","bdp_rd","Sat Mar 25 2023 22:09:42 GMT-0400 (Eastern Daylight Time)","200542","","null","","","","FIX","","<div class='trialBorder'><div class='vertical-center'><img style='vertical-align:center; align:center' src=img/fixation3.jpg></div></div>","null","","","","","",""
"html-keyboard-response","38","69514","0.0-5.0-2.11","5f9873550513db147c9d2958","bdp_rd","Sat Mar 25 2023 22:09:42 GMT-0400 (Eastern Daylight Time)","200542","","1887","","","","offer","","<div class='trialBorder'><div class='vertical-center'><img style='vertical-align:center; align:center' src=img/fixation3.jpg></div><div class='cl'><div class='vertical-center'>$64<br>with a<br>50% chance</div></div><div class='cr'><div class='vertical-center'>$2<br>for<br>sure</div></div><div class='respDivL'><div class='vertical-center'>(E)</div></div><div class='respDivR'><div class='vertical-center'>(I)</div></div></div>","E","$2","$64","1","2","64","RISKY"
"html-keyboard-response","39","69765","0.0-5.0-3.11","5f9873550513db147c9d2958","bdp_rd","Sat Mar 25 2023 22:09:42 GMT-0400 (Eastern Daylight Time)","200542","","null","","","","offerFB","","<div class='trialBorder'><div class='vertical-center'><img style='vertical-align:center; align:center' src=img/fixation3.jpg></div><div class='cl'><div class='vertical-center'><font style='color:orange'>$64<br>with a<br>50% chance</font></div></div><div class='cr'><div class='vertical-center'>$2<br>for<br>sure</div></div><div class='respDivL'><div class='vertical-center'><font style='color:orange'>(E)</font></div></div><div class='respDivR'><div class='vertical-center'>(I)</div></div></div>","null","$2","$64","1","2","64",""
"html-keyboard-response","40","70266","0.0-5.0-1.12","5f9873550513db147c9d2958","bdp_rd","Sat Mar 25 2023 22:09:42 GMT-0400 (Eastern Daylight Time)","200542","","null","","","","FIX","","<div class='trialBorder'><div class='vertical-center'><img style='vertical-align:center; align:center' src=img/fixation3.jpg></div></div>","null","","","","","",""
"html-keyboard-response","41","71543","0.0-5.0-2.12","5f9873550513db147c9d2958","bdp_rd","Sat Mar 25 2023 22:09:42 GMT-0400 (Eastern Daylight Time)","200542","","1276","","","","offer","","<div class='trialBorder'><div class='vertical-center'><img style='vertical-align:center; align:center' src=img/fixation3.jpg></div><div class='cl'><div class='vertical-center'>$26<br>for<br>sure</div></div><div class='cr'><div class='vertical-center'>$92<br>with a<br>50% chance</div></div><div class='respDivL'><div class='vertical-center'>(E)</div></div><div class='respDivR'><div class='vertical-center'>(I)</div></div></div>","I","$26","$92","0","26","92","RISKY"
"html-keyboard-response","42","71794","0.0-5.0-3.12","5f9873550513db147c9d2958","bdp_rd","Sat Mar 25 2023 22:09:42 GMT-0400 (Eastern Daylight Time)","200542","","null","","","","offerFB","","<div class='trialBorder'><div class='vertical-center'><img style='vertical-align:center; align:center' src=img/fixation3.jpg></div><div class='cl'><div class='vertical-center'>$26<br>for<br>sure</div></div><div class='cr'><div class='vertical-center'><font style='color:orange'>$92<br>with a<br>50% chance</font></div></div><div class='respDivL'><div class='vertical-center'>(E)</div></div><div class='respDivR'><div class='vertical-center'><font style='color:orange'>(I)</font></div></div></div>","null","$26","$92","0","26","92",""
"html-keyboard-response","43","72295","0.0-5.0-1.13","5f9873550513db147c9d2958","bdp_rd","Sat Mar 25 2023 22:09:42 GMT-0400 (Eastern Daylight Time)","200542","","null","","","","FIX","","<div class='trialBorder'><div class='vertical-center'><img style='vertical-align:center; align:center' src=img/fixation3.jpg></div></div>","null","","","","","",""
"html-keyboard-response","44","73725","0.0-5.0-2.13","5f9873550513db147c9d2958","bdp_rd","Sat Mar 25 2023 22:09:42 GMT-0400 (Eastern Daylight Time)","200542","","1429","","","","offer","","<div class='trialBorder'><div class='vertical-center'><img style='vertical-align:center; align:center' src=img/fixation3.jpg></div><div class='cl'><div class='vertical-center'>$17<br>for<br>sure</div></div><div class='cr'><div class='vertical-center'>$43<br>with a<br>50% chance</div></div><div class='respDivL'><div class='vertical-center'>(E)</div></div><div class='respDivR'><div class='vertical-center'>(I)</div></div></div>","I","$17","$43","0","17","43","RISKY"
"html-keyboard-response","45","73977","0.0-5.0-3.13","5f9873550513db147c9d2958","bdp_rd","Sat Mar 25 2023 22:09:42 GMT-0400 (Eastern Daylight Time)","200542","","null","","","","offerFB","","<div class='trialBorder'><div class='vertical-center'><img style='vertical-align:center; align:center' src=img/fixation3.jpg></div><div class='cl'><div class='vertical-center'>$17<br>for<br>sure</div></div><div class='cr'><div class='vertical-center'><font style='color:orange'>$43<br>with a<br>50% chance</font></div></div><div class='respDivL'><div class='vertical-center'>(E)</div></div><div class='respDivR'><div class='vertical-center'><font style='color:orange'>(I)</font></div></div></div>","null","$17","$43","0","17","43",""
"html-keyboard-response","46","74479","0.0-5.0-1.14","5f9873550513db147c9d2958","bdp_rd","Sat Mar 25 2023 22:09:42 GMT-0400 (Eastern Daylight Time)","200542","","null","","","","FIX","","<div class='trialBorder'><div class='vertical-center'><img style='vertical-align:center; align:center' src=img/fixation3.jpg></div></div>","null","","","","","",""
"html-keyboard-response","47","76607","0.0-5.0-2.14","5f9873550513db147c9d2958","bdp_rd","Sat Mar 25 2023 22:09:42 GMT-0400 (Eastern Daylight Time)","200542","","2127","","","","offer","","<div class='trialBorder'><div class='vertical-center'><img style='vertical-align:center; align:center' src=img/fixation3.jpg></div><div class='cl'><div class='vertical-center'>$41<br>with a<br>50% chance</div></div><div class='cr'><div class='vertical-center'>$13<br>for<br>sure</div></div><div class='respDivL'><div class='vertical-center'>(E)</div></div><div class='respDivR'><div class='vertical-center'>(I)</div></div></div>","E","$13","$41","1","13","41","RISKY"
"html-keyboard-response","48","76859","0.0-5.0-3.14","5f9873550513db147c9d2958","bdp_rd","Sat Mar 25 2023 22:09:42 GMT-0400 (Eastern Daylight Time)","200542","","null","","","","offerFB","","<div class='trialBorder'><div class='vertical-center'><img style='vertical-align:center; align:center' src=img/fixation3.jpg></div><div class='cl'><div class='vertical-center'><font style='color:orange'>$41<br>with a<br>50% chance</font></div></div><div class='cr'><div class='vertical-center'>$13<br>for<br>sure</div></div><div class='respDivL'><div class='vertical-center'><font style='color:orange'>(E)</font></div></div><div class='respDivR'><div class='vertical-center'>(I)</div></div></div>","null","$13","$41","1","13","41",""
"html-keyboard-response","49","77362","0.0-5.0-1.15","5f9873550513db147c9d2958","bdp_rd","Sat Mar 25 2023 22:09:42 GMT-0400 (Eastern Daylight Time)","200542","","null","","","","FIX","","<div class='trialBorder'><div class='vertical-center'><img style='vertical-align:center; align:center' src=img/fixation3.jpg></div></div>","null","","","","","",""
"html-keyboard-response","50","80757","0.0-5.0-2.15","5f9873550513db147c9d2958","bdp_rd","Sat Mar 25 2023 22:09:42 GMT-0400 (Eastern Daylight Time)","200542","","3395","","","","offer","","<div class='trialBorder'><div class='vertical-center'><img style='vertical-align:center; align:center' src=img/fixation3.jpg></div><div class='cl'><div class='vertical-center'>$23<br>with a<br>50% chance</div></div><div class='cr'><div class='vertical-center'>$8<br>for<br>sure</div></div><div class='respDivL'><div class='vertical-center'>(E)</div></div><div class='respDivR'><div class='vertical-center'>(I)</div></div></div>","I","$8","$23","1","8","23","SURE"
"html-keyboard-response","51","81009","0.0-5.0-3.15","5f9873550513db147c9d2958","bdp_rd","Sat Mar 25 2023 22:09:42 GMT-0400 (Eastern Daylight Time)","200542","","null","","","","offerFB","","<div class='trialBorder'><div class='vertical-center'><img style='vertical-align:center; align:center' src=img/fixation3.jpg></div><div class='cl'><div class='vertical-center'>$23<br>with a<br>50% chance</div></div><div class='cr'><div class='vertical-center'><font style='color:orange'>$8<br>for<br>sure</font></div></div><div class='respDivL'><div class='vertical-center'>(E)</div></div><div class='respDivR'><div class='vertical-center'><font style='color:orange'>(I)</font></div></div></div>","null","$8","$23","1","8","23",""
"html-keyboard-response","52","81511","0.0-5.0-1.16","5f9873550513db147c9d2958","bdp_rd","Sat Mar 25 2023 22:09:42 GMT-0400 (Eastern Daylight Time)","200542","","null","","","","FIX","","<div class='trialBorder'><div class='vertical-center'><img style='vertical-align:center; align:center' src=img/fixation3.jpg></div></div>","null","","","","","",""
"html-keyboard-response","53","85388","0.0-5.0-2.16","5f9873550513db147c9d2958","bdp_rd","Sat Mar 25 2023 22:09:42 GMT-0400 (Eastern Daylight Time)","200542","","3876","","","","offer","","<div class='trialBorder'><div class='vertical-center'><img style='vertical-align:center; align:center' src=img/fixation3.jpg></div><div class='cl'><div class='vertical-center'>$3<br>for<br>sure</div></div><div class='cr'><div class='vertical-center'>$12<br>with a<br>50% chance</div></div><div class='respDivL'><div class='vertical-center'>(E)</div></div><div class='respDivR'><div class='vertical-center'>(I)</div></div></div>","I","$3","$12","0","3","12","RISKY"
"html-keyboard-response","54","85639","0.0-5.0-3.16","5f9873550513db147c9d2958","bdp_rd","Sat Mar 25 2023 22:09:42 GMT-0400 (Eastern Daylight Time)","200542","","null","","","","offerFB","","<div class='trialBorder'><div class='vertical-center'><img style='vertical-align:center; align:center' src=img/fixation3.jpg></div><div class='cl'><div class='vertical-center'>$3<br>for<br>sure</div></div><div class='cr'><div class='vertical-center'><font style='color:orange'>$12<br>with a<br>50% chance</font></div></div><div class='respDivL'><div class='vertical-center'>(E)</div></div><div class='respDivR'><div class='vertical-center'><font style='color:orange'>(I)</font></div></div></div>","null","$3","$12","0","3","12",""
"html-keyboard-response","55","86141","0.0-5.0-1.17","5f9873550513db147c9d2958","bdp_rd","Sat Mar 25 2023 22:09:42 GMT-0400 (Eastern Daylight Time)","200542","","null","","","","FIX","","<div class='trialBorder'><div class='vertical-center'><img style='vertical-align:center; align:center' src=img/fixation3.jpg></div></div>","null","","","","","",""
"html-keyboard-response","56","88870","0.0-5.0-2.17","5f9873550513db147c9d2958","bdp_rd","Sat Mar 25 2023 22:09:42 GMT-0400 (Eastern Daylight Time)","200542","","2728","","","","offer","","<div class='trialBorder'><div class='vertical-center'><img style='vertical-align:center; align:center' src=img/fixation3.jpg></div><div class='cl'><div class='vertical-center'>$42<br>with a<br>50% chance</div></div><div class='cr'><div class='vertical-center'>$22<br>for<br>sure</div></div><div class='respDivL'><div class='vertical-center'>(E)</div></div><div class='respDivR'><div class='vertical-center'>(I)</div></div></div>","I","$22","$42","1","22","42","SURE"
"html-keyboard-response","57","89121","0.0-5.0-3.17","5f9873550513db147c9d2958","bdp_rd","Sat Mar 25 2023 22:09:42 GMT-0400 (Eastern Daylight Time)","200542","","null","","","","offerFB","","<div class='trialBorder'><div class='vertical-center'><img style='vertical-align:center; align:center' src=img/fixation3.jpg></div><div class='cl'><div class='vertical-center'>$42<br>with a<br>50% chance</div></div><div class='cr'><div class='vertical-center'><font style='color:orange'>$22<br>for<br>sure</font></div></div><div class='respDivL'><div class='vertical-center'>(E)</div></div><div class='respDivR'><div class='vertical-center'><font style='color:orange'>(I)</font></div></div></div>","null","$22","$42","1","22","42",""
"html-keyboard-response","58","89623","0.0-5.0-1.18","5f9873550513db147c9d2958","bdp_rd","Sat Mar 25 2023 22:09:42 GMT-0400 (Eastern Daylight Time)","200542","","null","","","","FIX","","<div class='trialBorder'><div class='vertical-center'><img style='vertical-align:center; align:center' src=img/fixation3.jpg></div></div>","null","","","","","",""
"html-keyboard-response","59","90991","0.0-5.0-2.18","5f9873550513db147c9d2958","bdp_rd","Sat Mar 25 2023 22:09:42 GMT-0400 (Eastern Daylight Time)","200542","","1367","","","","offer","","<div class='trialBorder'><div class='vertical-center'><img style='vertical-align:center; align:center' src=img/fixation3.jpg></div><div class='cl'><div class='vertical-center'>$63<br>for<br>sure</div></div><div class='cr'><div class='vertical-center'>$100<br>with a<br>50% chance</div></div><div class='respDivL'><div class='vertical-center'>(E)</div></div><div class='respDivR'><div class='vertical-center'>(I)</div></div></div>","I","$63","$100","0","63","10","RISKY"
"html-keyboard-response","60","91243","0.0-5.0-3.18","5f9873550513db147c9d2958","bdp_rd","Sat Mar 25 2023 22:09:42 GMT-0400 (Eastern Daylight Time)","200542","","null","","","","offerFB","","<div class='trialBorder'><div class='vertical-center'><img style='vertical-align:center; align:center' src=img/fixation3.jpg></div><div class='cl'><div class='vertical-center'>$63<br>for<br>sure</div></div><div class='cr'><div class='vertical-center'><font style='color:orange'>$100<br>with a<br>50% chance</font></div></div><div class='respDivL'><div class='vertical-center'>(E)</div></div><div class='respDivR'><div class='vertical-center'><font style='color:orange'>(I)</font></div></div></div>","null","$63","$100","0","63","10",""
"html-keyboard-response","61","91745","0.0-5.0-1.19","5f9873550513db147c9d2958","bdp_rd","Sat Mar 25 2023 22:09:42 GMT-0400 (Eastern Daylight Time)","200542","","null","","","","FIX","","<div class='trialBorder'><div class='vertical-center'><img style='vertical-align:center; align:center' src=img/fixation3.jpg></div></div>","null","","","","","",""
"html-keyboard-response","62","93182","0.0-5.0-2.19","5f9873550513db147c9d2958","bdp_rd","Sat Mar 25 2023 22:09:42 GMT-0400 (Eastern Daylight Time)","200542","","1436","","","","offer","","<div class='trialBorder'><div class='vertical-center'><img style='vertical-align:center; align:center' src=img/fixation3.jpg></div><div class='cl'><div class='vertical-center'>$9<br>for<br>sure</div></div><div class='cr'><div class='vertical-center'>$32<br>with a<br>50% chance</div></div><div class='respDivL'><div class='vertical-center'>(E)</div></div><div class='respDivR'><div class='vertical-center'>(I)</div></div></div>","I","$9","$32","0","9","32","RISKY"
"html-keyboard-response","63","93433","0.0-5.0-3.19","5f9873550513db147c9d2958","bdp_rd","Sat Mar 25 2023 22:09:42 GMT-0400 (Eastern Daylight Time)","200542","","null","","","","offerFB","","<div class='trialBorder'><div class='vertical-center'><img style='vertical-align:center; align:center' src=img/fixation3.jpg></div><div class='cl'><div class='vertical-center'>$9<br>for<br>sure</div></div><div class='cr'><div class='vertical-center'><font style='color:orange'>$32<br>with a<br>50% chance</font></div></div><div class='respDivL'><div class='vertical-center'>(E)</div></div><div class='respDivR'><div class='vertical-center'><font style='color:orange'>(I)</font></div></div></div>","null","$9","$32","0","9","32",""
"html-keyboard-response","64","93935","0.0-5.0-1.20","5f9873550513db147c9d2958","bdp_rd","Sat Mar 25 2023 22:09:42 GMT-0400 (Eastern Daylight Time)","200542","","null","","","","FIX","","<div class='trialBorder'><div class='vertical-center'><img style='vertical-align:center; align:center' src=img/fixation3.jpg></div></div>","null","","","","","",""
"html-keyboard-response","65","95343","0.0-5.0-2.20","5f9873550513db147c9d2958","bdp_rd","Sat Mar 25 2023 22:09:42 GMT-0400 (Eastern Daylight Time)","200542","","1406","","","","offer","","<div class='trialBorder'><div class='vertical-center'><img style='vertical-align:center; align:center' src=img/fixation3.jpg></div><div class='cl'><div class='vertical-center'>$44<br>with a<br>50% chance</div></div><div class='cr'><div class='vertical-center'>$37<br>for<br>sure</div></div><div class='respDivL'><div class='vertical-center'>(E)</div></div><div class='respDivR'><div class='vertical-center'>(I)</div></div></div>","I","$37","$44","1","37","44","SURE"
"html-keyboard-response","66","95594","0.0-5.0-3.20","5f9873550513db147c9d2958","bdp_rd","Sat Mar 25 2023 22:09:42 GMT-0400 (Eastern Daylight Time)","200542","","null","","","","offerFB","","<div class='trialBorder'><div class='vertical-center'><img style='vertical-align:center; align:center' src=img/fixation3.jpg></div><div class='cl'><div class='vertical-center'>$44<br>with a<br>50% chance</div></div><div class='cr'><div class='vertical-center'><font style='color:orange'>$37<br>for<br>sure</font></div></div><div class='respDivL'><div class='vertical-center'>(E)</div></div><div class='respDivR'><div class='vertical-center'><font style='color:orange'>(I)</font></div></div></div>","null","$37","$44","1","37","44",""
"html-keyboard-response","67","96095","0.0-5.0-1.21","5f9873550513db147c9d2958","bdp_rd","Sat Mar 25 2023 22:09:42 GMT-0400 (Eastern Daylight Time)","200542","","null","","","","FIX","","<div class='trialBorder'><div class='vertical-center'><img style='vertical-align:center; align:center' src=img/fixation3.jpg></div></div>","null","","","","","",""
"html-keyboard-response","68","98187","0.0-5.0-2.21","5f9873550513db147c9d2958","bdp_rd","Sat Mar 25 2023 22:09:42 GMT-0400 (Eastern Daylight Time)","200542","","2091","","","","offer","","<div class='trialBorder'><div class='vertical-center'><img style='vertical-align:center; align:center' src=img/fixation3.jpg></div><div class='cl'><div class='vertical-center'>$10<br>for<br>sure</div></div><div class='cr'><div class='vertical-center'>$19<br>with a<br>50% chance</div></div><div class='respDivL'><div class='vertical-center'>(E)</div></div><div class='respDivR'><div class='vertical-center'>(I)</div></div></div>","E","$10","$19","0","10","19","SURE"
"html-keyboard-response","69","98439","0.0-5.0-3.21","5f9873550513db147c9d2958","bdp_rd","Sat Mar 25 2023 22:09:42 GMT-0400 (Eastern Daylight Time)","200542","","null","","","","offerFB","","<div class='trialBorder'><div class='vertical-center'><img style='vertical-align:center; align:center' src=img/fixation3.jpg></div><div class='cl'><div class='vertical-center'><font style='color:orange'>$10<br>for<br>sure</font></div></div><div class='cr'><div class='vertical-center'>$19<br>with a<br>50% chance</div></div><div class='respDivL'><div class='vertical-center'><font style='color:orange'>(E)</font></div></div><div class='respDivR'><div class='vertical-center'>(I)</div></div></div>","null","$10","$19","0","10","19",""
"html-keyboard-response","70","98941","0.0-5.0-1.22","5f9873550513db147c9d2958","bdp_rd","Sat Mar 25 2023 22:09:42 GMT-0400 (Eastern Daylight Time)","200542","","null","","","","FIX","","<div class='trialBorder'><div class='vertical-center'><img style='vertical-align:center; align:center' src=img/fixation3.jpg></div></div>","null","","","","","",""
"html-keyboard-response","71","100562","0.0-5.0-2.22","5f9873550513db147c9d2958","bdp_rd","Sat Mar 25 2023 22:09:42 GMT-0400 (Eastern Daylight Time)","200542","","1620","","","","offer","","<div class='trialBorder'><div class='vertical-center'><img style='vertical-align:center; align:center' src=img/fixation3.jpg></div><div class='cl'><div class='vertical-center'>$9<br>for<br>sure</div></div><div class='cr'><div class='vertical-center'>$18<br>with a<br>50% chance</div></div><div class='respDivL'><div class='vertical-center'>(E)</div></div><div class='respDivR'><div class='vertical-center'>(I)</div></div></div>","E","$9","$18","0","9","18","SURE"
"html-keyboard-response","72","100813","0.0-5.0-3.22","5f9873550513db147c9d2958","bdp_rd","Sat Mar 25 2023 22:09:42 GMT-0400 (Eastern Daylight Time)","200542","","null","","","","offerFB","","<div class='trialBorder'><div class='vertical-center'><img style='vertical-align:center; align:center' src=img/fixation3.jpg></div><div class='cl'><div class='vertical-center'><font style='color:orange'>$9<br>for<br>sure</font></div></div><div class='cr'><div class='vertical-center'>$18<br>with a<br>50% chance</div></div><div class='respDivL'><div class='vertical-center'><font style='color:orange'>(E)</font></div></div><div class='respDivR'><div class='vertical-center'>(I)</div></div></div>","null","$9","$18","0","9","18",""
"html-keyboard-response","73","101314","0.0-5.0-1.23","5f9873550513db147c9d2958","bdp_rd","Sat Mar 25 2023 22:09:42 GMT-0400 (Eastern Daylight Time)","200542","","null","","","","FIX","","<div class='trialBorder'><div class='vertical-center'><img style='vertical-align:center; align:center' src=img/fixation3.jpg></div></div>","null","","","","","",""
"html-keyboard-response","74","103028","0.0-5.0-2.23","5f9873550513db147c9d2958","bdp_rd","Sat Mar 25 2023 22:09:42 GMT-0400 (Eastern Daylight Time)","200542","","1712","","","","offer","","<div class='trialBorder'><div class='vertical-center'><img style='vertical-align:center; align:center' src=img/fixation3.jpg></div><div class='cl'><div class='vertical-center'>$42<br>for<br>sure</div></div><div class='cr'><div class='vertical-center'>$73<br>with a<br>50% chance</div></div><div class='respDivL'><div class='vertical-center'>(E)</div></div><div class='respDivR'><div class='vertical-center'>(I)</div></div></div>","I","$42","$73","0","42","73","RISKY"
"html-keyboard-response","75","103279","0.0-5.0-3.23","5f9873550513db147c9d2958","bdp_rd","Sat Mar 25 2023 22:09:42 GMT-0400 (Eastern Daylight Time)","200542","","null","","","","offerFB","","<div class='trialBorder'><div class='vertical-center'><img style='vertical-align:center; align:center' src=img/fixation3.jpg></div><div class='cl'><div class='vertical-center'>$42<br>for<br>sure</div></div><div class='cr'><div class='vertical-center'><font style='color:orange'>$73<br>with a<br>50% chance</font></div></div><div class='respDivL'><div class='vertical-center'>(E)</div></div><div class='respDivR'><div class='vertical-center'><font style='color:orange'>(I)</font></div></div></div>","null","$42","$73","0","42","73",""
"html-keyboard-response","76","103780","0.0-5.0-1.24","5f9873550513db147c9d2958","bdp_rd","Sat Mar 25 2023 22:09:42 GMT-0400 (Eastern Daylight Time)","200542","","null","","","","FIX","","<div class='trialBorder'><div class='vertical-center'><img style='vertical-align:center; align:center' src=img/fixation3.jpg></div></div>","null","","","","","",""
"html-keyboard-response","77","107417","0.0-5.0-2.24","5f9873550513db147c9d2958","bdp_rd","Sat Mar 25 2023 22:09:42 GMT-0400 (Eastern Daylight Time)","200542","","3636","","","","offer","","<div class='trialBorder'><div class='vertical-center'><img style='vertical-align:center; align:center' src=img/fixation3.jpg></div><div class='cl'><div class='vertical-center'>$29<br>with a<br>50% chance</div></div><div class='cr'><div class='vertical-center'>$14<br>for<br>sure</div></div><div class='respDivL'><div class='vertical-center'>(E)</div></div><div class='respDivR'><div class='vertical-center'>(I)</div></div></div>","I","$14","$29","1","14","29","SURE"
"html-keyboard-response","78","107669","0.0-5.0-3.24","5f9873550513db147c9d2958","bdp_rd","Sat Mar 25 2023 22:09:42 GMT-0400 (Eastern Daylight Time)","200542","","null","","","","offerFB","","<div class='trialBorder'><div class='vertical-center'><img style='vertical-align:center; align:center' src=img/fixation3.jpg></div><div class='cl'><div class='vertical-center'>$29<br>with a<br>50% chance</div></div><div class='cr'><div class='vertical-center'><font style='color:orange'>$14<br>for<br>sure</font></div></div><div class='respDivL'><div class='vertical-center'>(E)</div></div><div class='respDivR'><div class='vertical-center'><font style='color:orange'>(I)</font></div></div></div>","null","$14","$29","1","14","29",""
"html-keyboard-response","79","108170","0.0-5.0-1.25","5f9873550513db147c9d2958","bdp_rd","Sat Mar 25 2023 22:09:42 GMT-0400 (Eastern Daylight Time)","200542","","null","","","","FIX","","<div class='trialBorder'><div class='vertical-center'><img style='vertical-align:center; align:center' src=img/fixation3.jpg></div></div>","null","","","","","",""
"html-keyboard-response","80","109499","0.0-5.0-2.25","5f9873550513db147c9d2958","bdp_rd","Sat Mar 25 2023 22:09:42 GMT-0400 (Eastern Daylight Time)","200542","","1328","","","","offer","","<div class='trialBorder'><div class='vertical-center'><img style='vertical-align:center; align:center' src=img/fixation3.jpg></div><div class='cl'><div class='vertical-center'>$11<br>with a<br>50% chance</div></div><div class='cr'><div class='vertical-center'>$4<br>for<br>sure</div></div><div class='respDivL'><div class='vertical-center'>(E)</div></div><div class='respDivR'><div class='vertical-center'>(I)</div></div></div>","E","$4","$11","1","4","11","RISKY"
"html-keyboard-response","81","109751","0.0-5.0-3.25","5f9873550513db147c9d2958","bdp_rd","Sat Mar 25 2023 22:09:42 GMT-0400 (Eastern Daylight Time)","200542","","null","","","","offerFB","","<div class='trialBorder'><div class='vertical-center'><img style='vertical-align:center; align:center' src=img/fixation3.jpg></div><div class='cl'><div class='vertical-center'><font style='color:orange'>$11<br>with a<br>50% chance</font></div></div><div class='cr'><div class='vertical-center'>$4<br>for<br>sure</div></div><div class='respDivL'><div class='vertical-center'><font style='color:orange'>(E)</font></div></div><div class='respDivR'><div class='vertical-center'>(I)</div></div></div>","null","$4","$11","1","4","11",""
"html-keyboard-response","82","110253","0.0-5.0-1.26","5f9873550513db147c9d2958","bdp_rd","Sat Mar 25 2023 22:09:42 GMT-0400 (Eastern Daylight Time)","200542","","null","","","","FIX","","<div class='trialBorder'><div class='vertical-center'><img style='vertical-align:center; align:center' src=img/fixation3.jpg></div></div>","null","","","","","",""
"html-keyboard-response","83","111805","0.0-5.0-2.26","5f9873550513db147c9d2958","bdp_rd","Sat Mar 25 2023 22:09:42 GMT-0400 (Eastern Daylight Time)","200542","","1551","","","","offer","","<div class='trialBorder'><div class='vertical-center'><img style='vertical-align:center; align:center' src=img/fixation3.jpg></div><div class='cl'><div class='vertical-center'>$15<br>with a<br>50% chance</div></div><div class='cr'><div class='vertical-center'>$6<br>for<br>sure</div></div><div class='respDivL'><div class='vertical-center'>(E)</div></div><div class='respDivR'><div class='vertical-center'>(I)</div></div></div>","E","$6","$15","1","6","15","RISKY"
"html-keyboard-response","84","112057","0.0-5.0-3.26","5f9873550513db147c9d2958","bdp_rd","Sat Mar 25 2023 22:09:42 GMT-0400 (Eastern Daylight Time)","200542","","null","","","","offerFB","","<div class='trialBorder'><div class='vertical-center'><img style='vertical-align:center; align:center' src=img/fixation3.jpg></div><div class='cl'><div class='vertical-center'><font style='color:orange'>$15<br>with a<br>50% chance</font></div></div><div class='cr'><div class='vertical-center'>$6<br>for<br>sure</div></div><div class='respDivL'><div class='vertical-center'><font style='color:orange'>(E)</font></div></div><div class='respDivR'><div class='vertical-center'>(I)</div></div></div>","null","$6","$15","1","6","15",""
"html-keyboard-response","85","112558","0.0-5.0-1.27","5f9873550513db147c9d2958","bdp_rd","Sat Mar 25 2023 22:09:42 GMT-0400 (Eastern Daylight Time)","200542","","null","","","","FIX","","<div class='trialBorder'><div class='vertical-center'><img style='vertical-align:center; align:center' src=img/fixation3.jpg></div></div>","null","","","","","",""
"html-keyboard-response","86","114158","0.0-5.0-2.27","5f9873550513db147c9d2958","bdp_rd","Sat Mar 25 2023 22:09:42 GMT-0400 (Eastern Daylight Time)","200542","","1599","","","","offer","","<div class='trialBorder'><div class='vertical-center'><img style='vertical-align:center; align:center' src=img/fixation3.jpg></div><div class='cl'><div class='vertical-center'>$80<br>with a<br>50% chance</div></div><div class='cr'><div class='vertical-center'>$20<br>for<br>sure</div></div><div class='respDivL'><div class='vertical-center'>(E)</div></div><div class='respDivR'><div class='vertical-center'>(I)</div></div></div>","E","$20","$80","1","20","80","RISKY"
"html-keyboard-response","87","114410","0.0-5.0-3.27","5f9873550513db147c9d2958","bdp_rd","Sat Mar 25 2023 22:09:42 GMT-0400 (Eastern Daylight Time)","200542","","null","","","","offerFB","","<div class='trialBorder'><div class='vertical-center'><img style='vertical-align:center; align:center' src=img/fixation3.jpg></div><div class='cl'><div class='vertical-center'><font style='color:orange'>$80<br>with a<br>50% chance</font></div></div><div class='cr'><div class='vertical-center'>$20<br>for<br>sure</div></div><div class='respDivL'><div class='vertical-center'><font style='color:orange'>(E)</font></div></div><div class='respDivR'><div class='vertical-center'>(I)</div></div></div>","null","$20","$80","1","20","80",""
"html-keyboard-response","88","114912","0.0-5.0-1.28","5f9873550513db147c9d2958","bdp_rd","Sat Mar 25 2023 22:09:42 GMT-0400 (Eastern Daylight Time)","200542","","null","","","","FIX","","<div class='trialBorder'><div class='vertical-center'><img style='vertical-align:center; align:center' src=img/fixation3.jpg></div></div>","null","","","","","",""
"html-keyboard-response","89","116514","0.0-5.0-2.28","5f9873550513db147c9d2958","bdp_rd","Sat Mar 25 2023 22:09:42 GMT-0400 (Eastern Daylight Time)","200542","","1602","","","","offer","","<div class='trialBorder'><div class='vertical-center'><img style='vertical-align:center; align:center' src=img/fixation3.jpg></div><div class='cl'><div class='vertical-center'>$35<br>with a<br>50% chance</div></div><div class='cr'><div class='vertical-center'>$12<br>for<br>sure</div></div><div class='respDivL'><div class='vertical-center'>(E)</div></div><div class='respDivR'><div class='vertical-center'>(I)</div></div></div>","E","$12","$35","1","12","35","RISKY"
"html-keyboard-response","90","116766","0.0-5.0-3.28","5f9873550513db147c9d2958","bdp_rd","Sat Mar 25 2023 22:09:42 GMT-0400 (Eastern Daylight Time)","200542","","null","","","","offerFB","","<div class='trialBorder'><div class='vertical-center'><img style='vertical-align:center; align:center' src=img/fixation3.jpg></div><div class='cl'><div class='vertical-center'><font style='color:orange'>$35<br>with a<br>50% chance</font></div></div><div class='cr'><div class='vertical-center'>$12<br>for<br>sure</div></div><div class='respDivL'><div class='vertical-center'><font style='color:orange'>(E)</font></div></div><div class='respDivR'><div class='vertical-center'>(I)</div></div></div>","null","$12","$35","1","12","35",""
"html-keyboard-response","91","117268","0.0-5.0-1.29","5f9873550513db147c9d2958","bdp_rd","Sat Mar 25 2023 22:09:42 GMT-0400 (Eastern Daylight Time)","200542","","null","","","","FIX","","<div class='trialBorder'><div class='vertical-center'><img style='vertical-align:center; align:center' src=img/fixation3.jpg></div></div>","null","","","","","",""
"html-keyboard-response","92","118714","0.0-5.0-2.29","5f9873550513db147c9d2958","bdp_rd","Sat Mar 25 2023 22:09:42 GMT-0400 (Eastern Daylight Time)","200542","","1445","","","","offer","","<div class='trialBorder'><div class='vertical-center'><img style='vertical-align:center; align:center' src=img/fixation3.jpg></div><div class='cl'><div class='vertical-center'>$18<br>for<br>sure</div></div><div class='cr'><div class='vertical-center'>$39<br>with a<br>50% chance</div></div><div class='respDivL'><div class='vertical-center'>(E)</div></div><div class='respDivR'><div class='vertical-center'>(I)</div></div></div>","I","$18","$39","0","18","39","RISKY"
"html-keyboard-response","93","118966","0.0-5.0-3.29","5f9873550513db147c9d2958","bdp_rd","Sat Mar 25 2023 22:09:42 GMT-0400 (Eastern Daylight Time)","200542","","null","","","","offerFB","","<div class='trialBorder'><div class='vertical-center'><img style='vertical-align:center; align:center' src=img/fixation3.jpg></div><div class='cl'><div class='vertical-center'>$18<br>for<br>sure</div></div><div class='cr'><div class='vertical-center'><font style='color:orange'>$39<br>with a<br>50% chance</font></div></div><div class='respDivL'><div class='vertical-center'>(E)</div></div><div class='respDivR'><div class='vertical-center'><font style='color:orange'>(I)</font></div></div></div>","null","$18","$39","0","18","39",""
"html-keyboard-response","94","119468","0.0-5.0-1.30","5f9873550513db147c9d2958","bdp_rd","Sat Mar 25 2023 22:09:42 GMT-0400 (Eastern Daylight Time)","200542","","null","","","","FIX","","<div class='trialBorder'><div class='vertical-center'><img style='vertical-align:center; align:center' src=img/fixation3.jpg></div></div>","null","","","","","",""
"html-keyboard-response","95","123441","0.0-5.0-2.30","5f9873550513db147c9d2958","bdp_rd","Sat Mar 25 2023 22:09:42 GMT-0400 (Eastern Daylight Time)","200542","","3972","","","","offer","","<div class='trialBorder'><div class='vertical-center'><img style='vertical-align:center; align:center' src=img/fixation3.jpg></div><div class='cl'><div class='vertical-center'>$15<br>for<br>sure</div></div><div class='cr'><div class='vertical-center'>$34<br>with a<br>50% chance</div></div><div class='respDivL'><div class='vertical-center'>(E)</div></div><div class='respDivR'><div class='vertical-center'>(I)</div></div></div>","I","$15","$34","0","15","34","RISKY"
"html-keyboard-response","96","123692","0.0-5.0-3.30","5f9873550513db147c9d2958","bdp_rd","Sat Mar 25 2023 22:09:42 GMT-0400 (Eastern Daylight Time)","200542","","null","","","","offerFB","","<div class='trialBorder'><div class='vertical-center'><img style='vertical-align:center; align:center' src=img/fixation3.jpg></div><div class='cl'><div class='vertical-center'>$15<br>for<br>sure</div></div><div class='cr'><div class='vertical-center'><font style='color:orange'>$34<br>with a<br>50% chance</font></div></div><div class='respDivL'><div class='vertical-center'>(E)</div></div><div class='respDivR'><div class='vertical-center'><font style='color:orange'>(I)</font></div></div></div>","null","$15","$34","0","15","34",""
"html-keyboard-response","97","124194","0.0-5.0-1.31","5f9873550513db147c9d2958","bdp_rd","Sat Mar 25 2023 22:09:42 GMT-0400 (Eastern Daylight Time)","200542","","null","","","","FIX","","<div class='trialBorder'><div class='vertical-center'><img style='vertical-align:center; align:center' src=img/fixation3.jpg></div></div>","null","","","","","",""
"html-keyboard-response","98","125593","0.0-5.0-2.31","5f9873550513db147c9d2958","bdp_rd","Sat Mar 25 2023 22:09:42 GMT-0400 (Eastern Daylight Time)","200542","","1398","","","","offer","","<div class='trialBorder'><div class='vertical-center'><img style='vertical-align:center; align:center' src=img/fixation3.jpg></div><div class='cl'><div class='vertical-center'>$68<br>with a<br>50% chance</div></div><div class='cr'><div class='vertical-center'>$30<br>for<br>sure</div></div><div class='respDivL'><div class='vertical-center'>(E)</div></div><div class='respDivR'><div class='vertical-center'>(I)</div></div></div>","E","$30","$68","1","30","68","RISKY"
"html-keyboard-response","99","125845","0.0-5.0-3.31","5f9873550513db147c9d2958","bdp_rd","Sat Mar 25 2023 22:09:42 GMT-0400 (Eastern Daylight Time)","200542","","null","","","","offerFB","","<div class='trialBorder'><div class='vertical-center'><img style='vertical-align:center; align:center' src=img/fixation3.jpg></div><div class='cl'><div class='vertical-center'><font style='color:orange'>$68<br>with a<br>50% chance</font></div></div><div class='cr'><div class='vertical-center'>$30<br>for<br>sure</div></div><div class='respDivL'><div class='vertical-center'><font style='color:orange'>(E)</font></div></div><div class='respDivR'><div class='vertical-center'>(I)</div></div></div>","null","$30","$68","1","30","68",""
"html-keyboard-response","100","126346","0.0-5.0-1.32","5f9873550513db147c9d2958","bdp_rd","Sat Mar 25 2023 22:09:42 GMT-0400 (Eastern Daylight Time)","200542","","null","","","","FIX","","<div class='trialBorder'><div class='vertical-center'><img style='vertical-align:center; align:center' src=img/fixation3.jpg></div></div>","null","","","","","",""
"html-keyboard-response","101","127698","0.0-5.0-2.32","5f9873550513db147c9d2958","bdp_rd","Sat Mar 25 2023 22:09:42 GMT-0400 (Eastern Daylight Time)","200542","","1351","","","","offer","","<div class='trialBorder'><div class='vertical-center'><img style='vertical-align:center; align:center' src=img/fixation3.jpg></div><div class='cl'><div class='vertical-center'>$81<br>with a<br>50% chance</div></div><div class='cr'><div class='vertical-center'>$39<br>for<br>sure</div></div><div class='respDivL'><div class='vertical-center'>(E)</div></div><div class='respDivR'><div class='vertical-center'>(I)</div></div></div>","E","$39","$81","1","39","81","RISKY"
"html-keyboard-response","102","127950","0.0-5.0-3.32","5f9873550513db147c9d2958","bdp_rd","Sat Mar 25 2023 22:09:42 GMT-0400 (Eastern Daylight Time)","200542","","null","","","","offerFB","","<div class='trialBorder'><div class='vertical-center'><img style='vertical-align:center; align:center' src=img/fixation3.jpg></div><div class='cl'><div class='vertical-center'><font style='color:orange'>$81<br>with a<br>50% chance</font></div></div><div class='cr'><div class='vertical-center'>$39<br>for<br>sure</div></div><div class='respDivL'><div class='vertical-center'><font style='color:orange'>(E)</font></div></div><div class='respDivR'><div class='vertical-center'>(I)</div></div></div>","null","$39","$81","1","39","81",""
"html-keyboard-response","103","128453","0.0-5.0-1.33","5f9873550513db147c9d2958","bdp_rd","Sat Mar 25 2023 22:09:42 GMT-0400 (Eastern Daylight Time)","200542","","null","","","","FIX","","<div class='trialBorder'><div class='vertical-center'><img style='vertical-align:center; align:center' src=img/fixation3.jpg></div></div>","null","","","","","",""
"html-keyboard-response","104","131667","0.0-5.0-2.33","5f9873550513db147c9d2958","bdp_rd","Sat Mar 25 2023 22:09:42 GMT-0400 (Eastern Daylight Time)","200542","","3213","","","","offer","","<div class='trialBorder'><div class='vertical-center'><img style='vertical-align:center; align:center' src=img/fixation3.jpg></div><div class='cl'><div class='vertical-center'>$27<br>for<br>sure</div></div><div class='cr'><div class='vertical-center'>$47<br>with a<br>50% chance</div></div><div class='respDivL'><div class='vertical-center'>(E)</div></div><div class='respDivR'><div class='vertical-center'>(I)</div></div></div>","I","$27","$47","0","27","47","RISKY"
"html-keyboard-response","105","131919","0.0-5.0-3.33","5f9873550513db147c9d2958","bdp_rd","Sat Mar 25 2023 22:09:42 GMT-0400 (Eastern Daylight Time)","200542","","null","","","","offerFB","","<div class='trialBorder'><div class='vertical-center'><img style='vertical-align:center; align:center' src=img/fixation3.jpg></div><div class='cl'><div class='vertical-center'>$27<br>for<br>sure</div></div><div class='cr'><div class='vertical-center'><font style='color:orange'>$47<br>with a<br>50% chance</font></div></div><div class='respDivL'><div class='vertical-center'>(E)</div></div><div class='respDivR'><div class='vertical-center'><font style='color:orange'>(I)</font></div></div></div>","null","$27","$47","0","27","47",""
"html-keyboard-response","106","132421","0.0-5.0-1.34","5f9873550513db147c9d2958","bdp_rd","Sat Mar 25 2023 22:09:42 GMT-0400 (Eastern Daylight Time)","200542","","null","","","","FIX","","<div class='trialBorder'><div class='vertical-center'><img style='vertical-align:center; align:center' src=img/fixation3.jpg></div></div>","null","","","","","",""
"html-keyboard-response","107","134007","0.0-5.0-2.34","5f9873550513db147c9d2958","bdp_rd","Sat Mar 25 2023 22:09:42 GMT-0400 (Eastern Daylight Time)","200542","","1584","","","","offer","","<div class='trialBorder'><div class='vertical-center'><img style='vertical-align:center; align:center' src=img/fixation3.jpg></div><div class='cl'><div class='vertical-center'>$37<br>with a<br>50% chance</div></div><div class='cr'><div class='vertical-center'>$20<br>for<br>sure</div></div><div class='respDivL'><div class='vertical-center'>(E)</div></div><div class='respDivR'><div class='vertical-center'>(I)</div></div></div>","I","$20","$37","1","20","37","SURE"
"html-keyboard-response","108","134258","0.0-5.0-3.34","5f9873550513db147c9d2958","bdp_rd","Sat Mar 25 2023 22:09:42 GMT-0400 (Eastern Daylight Time)","200542","","null","","","","offerFB","","<div class='trialBorder'><div class='vertical-center'><img style='vertical-align:center; align:center' src=img/fixation3.jpg></div><div class='cl'><div class='vertical-center'>$37<br>with a<br>50% chance</div></div><div class='cr'><div class='vertical-center'><font style='color:orange'>$20<br>for<br>sure</font></div></div><div class='respDivL'><div class='vertical-center'>(E)</div></div><div class='respDivR'><div class='vertical-center'><font style='color:orange'>(I)</font></div></div></div>","null","$20","$37","1","20","37",""
"html-keyboard-response","109","134760","0.0-5.0-1.35","5f9873550513db147c9d2958","bdp_rd","Sat Mar 25 2023 22:09:42 GMT-0400 (Eastern Daylight Time)","200542","","null","","","","FIX","","<div class='trialBorder'><div class='vertical-center'><img style='vertical-align:center; align:center' src=img/fixation3.jpg></div></div>","null","","","","","",""
"html-keyboard-response","110","136084","0.0-5.0-2.35","5f9873550513db147c9d2958","bdp_rd","Sat Mar 25 2023 22:09:42 GMT-0400 (Eastern Daylight Time)","200542","","1323","","","","offer","","<div class='trialBorder'><div class='vertical-center'><img style='vertical-align:center; align:center' src=img/fixation3.jpg></div><div class='cl'><div class='vertical-center'>$33<br>with a<br>50% chance</div></div><div class='cr'><div class='vertical-center'>$1<br>for<br>sure</div></div><div class='respDivL'><div class='vertical-center'>(E)</div></div><div class='respDivR'><div class='vertical-center'>(I)</div></div></div>","E","$1","$33","1","1","33","RISKY"
"html-keyboard-response","111","136336","0.0-5.0-3.35","5f9873550513db147c9d2958","bdp_rd","Sat Mar 25 2023 22:09:42 GMT-0400 (Eastern Daylight Time)","200542","","null","","","","offerFB","","<div class='trialBorder'><div class='vertical-center'><img style='vertical-align:center; align:center' src=img/fixation3.jpg></div><div class='cl'><div class='vertical-center'><font style='color:orange'>$33<br>with a<br>50% chance</font></div></div><div class='cr'><div class='vertical-center'>$1<br>for<br>sure</div></div><div class='respDivL'><div class='vertical-center'><font style='color:orange'>(E)</font></div></div><div class='respDivR'><div class='vertical-center'>(I)</div></div></div>","null","$1","$33","1","1","33",""
"html-keyboard-response","112","136837","0.0-5.0-1.36","5f9873550513db147c9d2958","bdp_rd","Sat Mar 25 2023 22:09:42 GMT-0400 (Eastern Daylight Time)","200542","","null","","","","FIX","","<div class='trialBorder'><div class='vertical-center'><img style='vertical-align:center; align:center' src=img/fixation3.jpg></div></div>","null","","","","","",""
"html-keyboard-response","113","138980","0.0-5.0-2.36","5f9873550513db147c9d2958","bdp_rd","Sat Mar 25 2023 22:09:42 GMT-0400 (Eastern Daylight Time)","200542","","2142","","","","offer","","<div class='trialBorder'><div class='vertical-center'><img style='vertical-align:center; align:center' src=img/fixation3.jpg></div><div class='cl'><div class='vertical-center'>$1<br>for<br>sure</div></div><div class='cr'><div class='vertical-center'>$30<br>with a<br>50% chance</div></div><div class='respDivL'><div class='vertical-center'>(E)</div></div><div class='respDivR'><div class='vertical-center'>(I)</div></div></div>","I","$1","$30","0","1","30","RISKY"
"html-keyboard-response","114","139232","0.0-5.0-3.36","5f9873550513db147c9d2958","bdp_rd","Sat Mar 25 2023 22:09:42 GMT-0400 (Eastern Daylight Time)","200542","","null","","","","offerFB","","<div class='trialBorder'><div class='vertical-center'><img style='vertical-align:center; align:center' src=img/fixation3.jpg></div><div class='cl'><div class='vertical-center'>$1<br>for<br>sure</div></div><div class='cr'><div class='vertical-center'><font style='color:orange'>$30<br>with a<br>50% chance</font></div></div><div class='respDivL'><div class='vertical-center'>(E)</div></div><div class='respDivR'><div class='vertical-center'><font style='color:orange'>(I)</font></div></div></div>","null","$1","$30","0","1","30",""
"html-keyboard-response","115","139733","0.0-5.0-1.37","5f9873550513db147c9d2958","bdp_rd","Sat Mar 25 2023 22:09:42 GMT-0400 (Eastern Daylight Time)","200542","","null","","","","FIX","","<div class='trialBorder'><div class='vertical-center'><img style='vertical-align:center; align:center' src=img/fixation3.jpg></div></div>","null","","","","","",""
"html-keyboard-response","116","141466","0.0-5.0-2.37","5f9873550513db147c9d2958","bdp_rd","Sat Mar 25 2023 22:09:42 GMT-0400 (Eastern Daylight Time)","200542","","1732","","","","offer","","<div class='trialBorder'><div class='vertical-center'><img style='vertical-align:center; align:center' src=img/fixation3.jpg></div><div class='cl'><div class='vertical-center'>$22<br>for<br>sure</div></div><div class='cr'><div class='vertical-center'>$59<br>with a<br>50% chance</div></div><div class='respDivL'><div class='vertical-center'>(E)</div></div><div class='respDivR'><div class='vertical-center'>(I)</div></div></div>","E","$22","$59","0","22","59","SURE"
"html-keyboard-response","117","141717","0.0-5.0-3.37","5f9873550513db147c9d2958","bdp_rd","Sat Mar 25 2023 22:09:42 GMT-0400 (Eastern Daylight Time)","200542","","null","","","","offerFB","","<div class='trialBorder'><div class='vertical-center'><img style='vertical-align:center; align:center' src=img/fixation3.jpg></div><div class='cl'><div class='vertical-center'><font style='color:orange'>$22<br>for<br>sure</font></div></div><div class='cr'><div class='vertical-center'>$59<br>with a<br>50% chance</div></div><div class='respDivL'><div class='vertical-center'><font style='color:orange'>(E)</font></div></div><div class='respDivR'><div class='vertical-center'>(I)</div></div></div>","null","$22","$59","0","22","59",""
"html-keyboard-response","118","142218","0.0-5.0-1.38","5f9873550513db147c9d2958","bdp_rd","Sat Mar 25 2023 22:09:42 GMT-0400 (Eastern Daylight Time)","200542","","null","","","","FIX","","<div class='trialBorder'><div class='vertical-center'><img style='vertical-align:center; align:center' src=img/fixation3.jpg></div></div>","null","","","","","",""
"html-keyboard-response","119","144350","0.0-5.0-2.38","5f9873550513db147c9d2958","bdp_rd","Sat Mar 25 2023 22:09:42 GMT-0400 (Eastern Daylight Time)","200542","","2131","","","","offer","","<div class='trialBorder'><div class='vertical-center'><img style='vertical-align:center; align:center' src=img/fixation3.jpg></div><div class='cl'><div class='vertical-center'>$45<br>for<br>sure</div></div><div class='cr'><div class='vertical-center'>$86<br>with a<br>50% chance</div></div><div class='respDivL'><div class='vertical-center'>(E)</div></div><div class='respDivR'><div class='vertical-center'>(I)</div></div></div>","I","$45","$86","0","45","86","RISKY"
"html-keyboard-response","120","144602","0.0-5.0-3.38","5f9873550513db147c9d2958","bdp_rd","Sat Mar 25 2023 22:09:42 GMT-0400 (Eastern Daylight Time)","200542","","null","","","","offerFB","","<div class='trialBorder'><div class='vertical-center'><img style='vertical-align:center; align:center' src=img/fixation3.jpg></div><div class='cl'><div class='vertical-center'>$45<br>for<br>sure</div></div><div class='cr'><div class='vertical-center'><font style='color:orange'>$86<br>with a<br>50% chance</font></div></div><div class='respDivL'><div class='vertical-center'>(E)</div></div><div class='respDivR'><div class='vertical-center'><font style='color:orange'>(I)</font></div></div></div>","null","$45","$86","0","45","86",""
"html-keyboard-response","121","145104","0.0-5.0-1.39","5f9873550513db147c9d2958","bdp_rd","Sat Mar 25 2023 22:09:42 GMT-0400 (Eastern Daylight Time)","200542","","null","","","","FIX","","<div class='trialBorder'><div class='vertical-center'><img style='vertical-align:center; align:center' src=img/fixation3.jpg></div></div>","null","","","","","",""
"html-keyboard-response","122","148907","0.0-5.0-2.39","5f9873550513db147c9d2958","bdp_rd","Sat Mar 25 2023 22:09:42 GMT-0400 (Eastern Daylight Time)","200542","","3803","","","","offer","","<div class='trialBorder'><div class='vertical-center'><img style='vertical-align:center; align:center' src=img/fixation3.jpg></div><div class='cl'><div class='vertical-center'>$51<br>with a<br>50% chance</div></div><div class='cr'><div class='vertical-center'>$19<br>for<br>sure</div></div><div class='respDivL'><div class='vertical-center'>(E)</div></div><div class='respDivR'><div class='vertical-center'>(I)</div></div></div>","E","$19","$51","1","19","51","RISKY"
"html-keyboard-response","123","149159","0.0-5.0-3.39","5f9873550513db147c9d2958","bdp_rd","Sat Mar 25 2023 22:09:42 GMT-0400 (Eastern Daylight Time)","200542","","null","","","","offerFB","","<div class='trialBorder'><div class='vertical-center'><img style='vertical-align:center; align:center' src=img/fixation3.jpg></div><div class='cl'><div class='vertical-center'><font style='color:orange'>$51<br>with a<br>50% chance</font></div></div><div class='cr'><div class='vertical-center'>$19<br>for<br>sure</div></div><div class='respDivL'><div class='vertical-center'><font style='color:orange'>(E)</font></div></div><div class='respDivR'><div class='vertical-center'>(I)</div></div></div>","null","$19","$51","1","19","51",""
"html-keyboard-response","124","149661","0.0-5.0-1.40","5f9873550513db147c9d2958","bdp_rd","Sat Mar 25 2023 22:09:42 GMT-0400 (Eastern Daylight Time)","200542","","null","","","","FIX","","<div class='trialBorder'><div class='vertical-center'><img style='vertical-align:center; align:center' src=img/fixation3.jpg></div></div>","null","","","","","",""
"html-keyboard-response","125","151531","0.0-5.0-2.40","5f9873550513db147c9d2958","bdp_rd","Sat Mar 25 2023 22:09:42 GMT-0400 (Eastern Daylight Time)","200542","","1870","","","","offer","","<div class='trialBorder'><div class='vertical-center'><img style='vertical-align:center; align:center' src=img/fixation3.jpg></div><div class='cl'><div class='vertical-center'>$24<br>for<br>sure</div></div><div class='cr'><div class='vertical-center'>$70<br>with a<br>50% chance</div></div><div class='respDivL'><div class='vertical-center'>(E)</div></div><div class='respDivR'><div class='vertical-center'>(I)</div></div></div>","I","$24","$70","0","24","70","RISKY"
"html-keyboard-response","126","151783","0.0-5.0-3.40","5f9873550513db147c9d2958","bdp_rd","Sat Mar 25 2023 22:09:42 GMT-0400 (Eastern Daylight Time)","200542","","null","","","","offerFB","","<div class='trialBorder'><div class='vertical-center'><img style='vertical-align:center; align:center' src=img/fixation3.jpg></div><div class='cl'><div class='vertical-center'>$24<br>for<br>sure</div></div><div class='cr'><div class='vertical-center'><font style='color:orange'>$70<br>with a<br>50% chance</font></div></div><div class='respDivL'><div class='vertical-center'>(E)</div></div><div class='respDivR'><div class='vertical-center'><font style='color:orange'>(I)</font></div></div></div>","null","$24","$70","0","24","70",""
"html-keyboard-response","127","152285","0.0-5.0-1.41","5f9873550513db147c9d2958","bdp_rd","Sat Mar 25 2023 22:09:42 GMT-0400 (Eastern Daylight Time)","200542","","null","","","","FIX","","<div class='trialBorder'><div class='vertical-center'><img style='vertical-align:center; align:center' src=img/fixation3.jpg></div></div>","null","","","","","",""
"html-keyboard-response","128","154874","0.0-5.0-2.41","5f9873550513db147c9d2958","bdp_rd","Sat Mar 25 2023 22:09:42 GMT-0400 (Eastern Daylight Time)","200542","","2588","","","","offer","","<div class='trialBorder'><div class='vertical-center'><img style='vertical-align:center; align:center' src=img/fixation3.jpg></div><div class='cl'><div class='vertical-center'>$16<br>with a<br>50% chance</div></div><div class='cr'><div class='vertical-center'>$5<br>for<br>sure</div></div><div class='respDivL'><div class='vertical-center'>(E)</div></div><div class='respDivR'><div class='vertical-center'>(I)</div></div></div>","I","$5","$16","1","5","16","SURE"
"html-keyboard-response","129","155126","0.0-5.0-3.41","5f9873550513db147c9d2958","bdp_rd","Sat Mar 25 2023 22:09:42 GMT-0400 (Eastern Daylight Time)","200542","","null","","","","offerFB","","<div class='trialBorder'><div class='vertical-center'><img style='vertical-align:center; align:center' src=img/fixation3.jpg></div><div class='cl'><div class='vertical-center'>$16<br>with a<br>50% chance</div></div><div class='cr'><div class='vertical-center'><font style='color:orange'>$5<br>for<br>sure</font></div></div><div class='respDivL'><div class='vertical-center'>(E)</div></div><div class='respDivR'><div class='vertical-center'><font style='color:orange'>(I)</font></div></div></div>","null","$5","$16","1","5","16",""
"html-keyboard-response","130","155628","0.0-5.0-1.42","5f9873550513db147c9d2958","bdp_rd","Sat Mar 25 2023 22:09:42 GMT-0400 (Eastern Daylight Time)","200542","","null","","","","FIX","","<div class='trialBorder'><div class='vertical-center'><img style='vertical-align:center; align:center' src=img/fixation3.jpg></div></div>","null","","","","","",""
"html-keyboard-response","131","157063","0.0-5.0-2.42","5f9873550513db147c9d2958","bdp_rd","Sat Mar 25 2023 22:09:42 GMT-0400 (Eastern Daylight Time)","200542","","1433","","","","offer","","<div class='trialBorder'><div class='vertical-center'><img style='vertical-align:center; align:center' src=img/fixation3.jpg></div><div class='cl'><div class='vertical-center'>$31<br>with a<br>50% chance</div></div><div class='cr'><div class='vertical-center'>$15<br>for<br>sure</div></div><div class='respDivL'><div class='vertical-center'>(E)</div></div><div class='respDivR'><div class='vertical-center'>(I)</div></div></div>","I","$15","$31","1","15","31","SURE"
"html-keyboard-response","132","157314","0.0-5.0-3.42","5f9873550513db147c9d2958","bdp_rd","Sat Mar 25 2023 22:09:42 GMT-0400 (Eastern Daylight Time)","200542","","null","","","","offerFB","","<div class='trialBorder'><div class='vertical-center'><img style='vertical-align:center; align:center' src=img/fixation3.jpg></div><div class='cl'><div class='vertical-center'>$31<br>with a<br>50% chance</div></div><div class='cr'><div class='vertical-center'><font style='color:orange'>$15<br>for<br>sure</font></div></div><div class='respDivL'><div class='vertical-center'>(E)</div></div><div class='respDivR'><div class='vertical-center'><font style='color:orange'>(I)</font></div></div></div>","null","$15","$31","1","15","31",""
"html-keyboard-response","133","157816","0.0-5.0-1.43","5f9873550513db147c9d2958","bdp_rd","Sat Mar 25 2023 22:09:42 GMT-0400 (Eastern Daylight Time)","200542","","null","","","","FIX","","<div class='trialBorder'><div class='vertical-center'><img style='vertical-align:center; align:center' src=img/fixation3.jpg></div></div>","null","","","","","",""
"html-keyboard-response","134","159383","0.0-5.0-2.43","5f9873550513db147c9d2958","bdp_rd","Sat Mar 25 2023 22:09:42 GMT-0400 (Eastern Daylight Time)","200542","","1566","","","","offer","","<div class='trialBorder'><div class='vertical-center'><img style='vertical-align:center; align:center' src=img/fixation3.jpg></div><div class='cl'><div class='vertical-center'>$7<br>for<br>sure</div></div><div class='cr'><div class='vertical-center'>$71<br>with a<br>50% chance</div></div><div class='respDivL'><div class='vertical-center'>(E)</div></div><div class='respDivR'><div class='vertical-center'>(I)</div></div></div>","I","$7","$71","0","7","71","RISKY"
"html-keyboard-response","135","159635","0.0-5.0-3.43","5f9873550513db147c9d2958","bdp_rd","Sat Mar 25 2023 22:09:42 GMT-0400 (Eastern Daylight Time)","200542","","null","","","","offerFB","","<div class='trialBorder'><div class='vertical-center'><img style='vertical-align:center; align:center' src=img/fixation3.jpg></div><div class='cl'><div class='vertical-center'>$7<br>for<br>sure</div></div><div class='cr'><div class='vertical-center'><font style='color:orange'>$71<br>with a<br>50% chance</font></div></div><div class='respDivL'><div class='vertical-center'>(E)</div></div><div class='respDivR'><div class='vertical-center'><font style='color:orange'>(I)</font></div></div></div>","null","$7","$71","0","7","71",""
"html-keyboard-response","136","160136","0.0-5.0-1.44","5f9873550513db147c9d2958","bdp_rd","Sat Mar 25 2023 22:09:42 GMT-0400 (Eastern Daylight Time)","200542","","null","","","","FIX","","<div class='trialBorder'><div class='vertical-center'><img style='vertical-align:center; align:center' src=img/fixation3.jpg></div></div>","null","","","","","",""
"html-keyboard-response","137","161510","0.0-5.0-2.44","5f9873550513db147c9d2958","bdp_rd","Sat Mar 25 2023 22:09:42 GMT-0400 (Eastern Daylight Time)","200542","","1374","","","","offer","","<div class='trialBorder'><div class='vertical-center'><img style='vertical-align:center; align:center' src=img/fixation3.jpg></div><div class='cl'><div class='vertical-center'>$6<br>for<br>sure</div></div><div class='cr'><div class='vertical-center'>$13<br>with a<br>50% chance</div></div><div class='respDivL'><div class='vertical-center'>(E)</div></div><div class='respDivR'><div class='vertical-center'>(I)</div></div></div>","E","$6","$13","0","6","13","SURE"
"html-keyboard-response","138","161762","0.0-5.0-3.44","5f9873550513db147c9d2958","bdp_rd","Sat Mar 25 2023 22:09:42 GMT-0400 (Eastern Daylight Time)","200542","","null","","","","offerFB","","<div class='trialBorder'><div class='vertical-center'><img style='vertical-align:center; align:center' src=img/fixation3.jpg></div><div class='cl'><div class='vertical-center'><font style='color:orange'>$6<br>for<br>sure</font></div></div><div class='cr'><div class='vertical-center'>$13<br>with a<br>50% chance</div></div><div class='respDivL'><div class='vertical-center'><font style='color:orange'>(E)</font></div></div><div class='respDivR'><div class='vertical-center'>(I)</div></div></div>","null","$6","$13","0","6","13",""
"html-keyboard-response","139","162264","0.0-5.0-1.45","5f9873550513db147c9d2958","bdp_rd","Sat Mar 25 2023 22:09:42 GMT-0400 (Eastern Daylight Time)","200542","","null","","","","FIX","","<div class='trialBorder'><div class='vertical-center'><img style='vertical-align:center; align:center' src=img/fixation3.jpg></div></div>","null","","","","","",""
"html-keyboard-response","140","164064","0.0-5.0-2.45","5f9873550513db147c9d2958","bdp_rd","Sat Mar 25 2023 22:09:42 GMT-0400 (Eastern Daylight Time)","200542","","1800","","","","offer","","<div class='trialBorder'><div class='vertical-center'><img style='vertical-align:center; align:center' src=img/fixation3.jpg></div><div class='cl'><div class='vertical-center'>$65<br>with a<br>50% chance</div></div><div class='cr'><div class='vertical-center'>$46<br>for<br>sure</div></div><div class='respDivL'><div class='vertical-center'>(E)</div></div><div class='respDivR'><div class='vertical-center'>(I)</div></div></div>","I","$46","$65","1","46","65","SURE"
"html-keyboard-response","141","164316","0.0-5.0-3.45","5f9873550513db147c9d2958","bdp_rd","Sat Mar 25 2023 22:09:42 GMT-0400 (Eastern Daylight Time)","200542","","null","","","","offerFB","","<div class='trialBorder'><div class='vertical-center'><img style='vertical-align:center; align:center' src=img/fixation3.jpg></div><div class='cl'><div class='vertical-center'>$65<br>with a<br>50% chance</div></div><div class='cr'><div class='vertical-center'><font style='color:orange'>$46<br>for<br>sure</font></div></div><div class='respDivL'><div class='vertical-center'>(E)</div></div><div class='respDivR'><div class='vertical-center'><font style='color:orange'>(I)</font></div></div></div>","null","$46","$65","1","46","65",""
"html-keyboard-response","142","164818","0.0-5.0-1.46","5f9873550513db147c9d2958","bdp_rd","Sat Mar 25 2023 22:09:42 GMT-0400 (Eastern Daylight Time)","200542","","null","","","","FIX","","<div class='trialBorder'><div class='vertical-center'><img style='vertical-align:center; align:center' src=img/fixation3.jpg></div></div>","null","","","","","",""
"html-keyboard-response","143","166948","0.0-5.0-2.46","5f9873550513db147c9d2958","bdp_rd","Sat Mar 25 2023 22:09:42 GMT-0400 (Eastern Daylight Time)","200542","","2129","","","","offer","","<div class='trialBorder'><div class='vertical-center'><img style='vertical-align:center; align:center' src=img/fixation3.jpg></div><div class='cl'><div class='vertical-center'>$24<br>with a<br>50% chance</div></div><div class='cr'><div class='vertical-center'>$13<br>for<br>sure</div></div><div class='respDivL'><div class='vertical-center'>(E)</div></div><div class='respDivR'><div class='vertical-center'>(I)</div></div></div>","I","$13","$24","1","13","24","SURE"
"html-keyboard-response","144","167200","0.0-5.0-3.46","5f9873550513db147c9d2958","bdp_rd","Sat Mar 25 2023 22:09:42 GMT-0400 (Eastern Daylight Time)","200542","","null","","","","offerFB","","<div class='trialBorder'><div class='vertical-center'><img style='vertical-align:center; align:center' src=img/fixation3.jpg></div><div class='cl'><div class='vertical-center'>$24<br>with a<br>50% chance</div></div><div class='cr'><div class='vertical-center'><font style='color:orange'>$13<br>for<br>sure</font></div></div><div class='respDivL'><div class='vertical-center'>(E)</div></div><div class='respDivR'><div class='vertical-center'><font style='color:orange'>(I)</font></div></div></div>","null","$13","$24","1","13","24",""
"html-keyboard-response","145","167701","0.0-5.0-1.47","5f9873550513db147c9d2958","bdp_rd","Sat Mar 25 2023 22:09:42 GMT-0400 (Eastern Daylight Time)","200542","","null","","","","FIX","","<div class='trialBorder'><div class='vertical-center'><img style='vertical-align:center; align:center' src=img/fixation3.jpg></div></div>","null","","","","","",""
"html-keyboard-response","146","168882","0.0-5.0-2.47","5f9873550513db147c9d2958","bdp_rd","Sat Mar 25 2023 22:09:42 GMT-0400 (Eastern Daylight Time)","200542","","1180","","","","offer","","<div class='trialBorder'><div class='vertical-center'><img style='vertical-align:center; align:center' src=img/fixation3.jpg></div><div class='cl'><div class='vertical-center'>$14<br>with a<br>50% chance</div></div><div class='cr'><div class='vertical-center'>$4<br>for<br>sure</div></div><div class='respDivL'><div class='vertical-center'>(E)</div></div><div class='respDivR'><div class='vertical-center'>(I)</div></div></div>","E","$4","$14","1","4","14","RISKY"
"html-keyboard-response","147","169134","0.0-5.0-3.47","5f9873550513db147c9d2958","bdp_rd","Sat Mar 25 2023 22:09:42 GMT-0400 (Eastern Daylight Time)","200542","","null","","","","offerFB","","<div class='trialBorder'><div class='vertical-center'><img style='vertical-align:center; align:center' src=img/fixation3.jpg></div><div class='cl'><div class='vertical-center'><font style='color:orange'>$14<br>with a<br>50% chance</font></div></div><div class='cr'><div class='vertical-center'>$4<br>for<br>sure</div></div><div class='respDivL'><div class='vertical-center'><font style='color:orange'>(E)</font></div></div><div class='respDivR'><div class='vertical-center'>(I)</div></div></div>","null","$4","$14","1","4","14",""
"html-keyboard-response","148","169637","0.0-5.0-1.48","5f9873550513db147c9d2958","bdp_rd","Sat Mar 25 2023 22:09:42 GMT-0400 (Eastern Daylight Time)","200542","","null","","","","FIX","","<div class='trialBorder'><div class='vertical-center'><img style='vertical-align:center; align:center' src=img/fixation3.jpg></div></div>","null","","","","","",""
"html-keyboard-response","149","171590","0.0-5.0-2.48","5f9873550513db147c9d2958","bdp_rd","Sat Mar 25 2023 22:09:42 GMT-0400 (Eastern Daylight Time)","200542","","1953","","","","offer","","<div class='trialBorder'><div class='vertical-center'><img style='vertical-align:center; align:center' src=img/fixation3.jpg></div><div class='cl'><div class='vertical-center'>$40<br>with a<br>50% chance</div></div><div class='cr'><div class='vertical-center'>$10<br>for<br>sure</div></div><div class='respDivL'><div class='vertical-center'>(E)</div></div><div class='respDivR'><div class='vertical-center'>(I)</div></div></div>","E","$10","$40","1","10","40","RISKY"
"html-keyboard-response","150","171842","0.0-5.0-3.48","5f9873550513db147c9d2958","bdp_rd","Sat Mar 25 2023 22:09:42 GMT-0400 (Eastern Daylight Time)","200542","","null","","","","offerFB","","<div class='trialBorder'><div class='vertical-center'><img style='vertical-align:center; align:center' src=img/fixation3.jpg></div><div class='cl'><div class='vertical-center'><font style='color:orange'>$40<br>with a<br>50% chance</font></div></div><div class='cr'><div class='vertical-center'>$10<br>for<br>sure</div></div><div class='respDivL'><div class='vertical-center'><font style='color:orange'>(E)</font></div></div><div class='respDivR'><div class='vertical-center'>(I)</div></div></div>","null","$10","$40","1","10","40",""
"html-keyboard-response","151","172344","0.0-5.0-1.49","5f9873550513db147c9d2958","bdp_rd","Sat Mar 25 2023 22:09:42 GMT-0400 (Eastern Daylight Time)","200542","","null","","","","FIX","","<div class='trialBorder'><div class='vertical-center'><img style='vertical-align:center; align:center' src=img/fixation3.jpg></div></div>","null","","","","","",""
"html-keyboard-response","152","174159","0.0-5.0-2.49","5f9873550513db147c9d2958","bdp_rd","Sat Mar 25 2023 22:09:42 GMT-0400 (Eastern Daylight Time)","200542","","1814","","","","offer","","<div class='trialBorder'><div class='vertical-center'><img style='vertical-align:center; align:center' src=img/fixation3.jpg></div><div class='cl'><div class='vertical-center'>$62<br>with a<br>50% chance</div></div><div class='cr'><div class='vertical-center'>$11<br>for<br>sure</div></div><div class='respDivL'><div class='vertical-center'>(E)</div></div><div class='respDivR'><div class='vertical-center'>(I)</div></div></div>","E","$11","$62","1","11","62","RISKY"
"html-keyboard-response","153","174411","0.0-5.0-3.49","5f9873550513db147c9d2958","bdp_rd","Sat Mar 25 2023 22:09:42 GMT-0400 (Eastern Daylight Time)","200542","","null","","","","offerFB","","<div class='trialBorder'><div class='vertical-center'><img style='vertical-align:center; align:center' src=img/fixation3.jpg></div><div class='cl'><div class='vertical-center'><font style='color:orange'>$62<br>with a<br>50% chance</font></div></div><div class='cr'><div class='vertical-center'>$11<br>for<br>sure</div></div><div class='respDivL'><div class='vertical-center'><font style='color:orange'>(E)</font></div></div><div class='respDivR'><div class='vertical-center'>(I)</div></div></div>","null","$11","$62","1","11","62",""
"html-keyboard-response","154","174912","0.0-5.0-1.50","5f9873550513db147c9d2958","bdp_rd","Sat Mar 25 2023 22:09:42 GMT-0400 (Eastern Daylight Time)","200542","","null","","","","FIX","","<div class='trialBorder'><div class='vertical-center'><img style='vertical-align:center; align:center' src=img/fixation3.jpg></div></div>","null","","","","","",""
"html-keyboard-response","155","176904","0.0-5.0-2.50","5f9873550513db147c9d2958","bdp_rd","Sat Mar 25 2023 22:09:42 GMT-0400 (Eastern Daylight Time)","200542","","1991","","","","offer","","<div class='trialBorder'><div class='vertical-center'><img style='vertical-align:center; align:center' src=img/fixation3.jpg></div><div class='cl'><div class='vertical-center'>$66<br>with a<br>50% chance</div></div><div class='cr'><div class='vertical-center'>$33<br>for<br>sure</div></div><div class='respDivL'><div class='vertical-center'>(E)</div></div><div class='respDivR'><div class='vertical-center'>(I)</div></div></div>","I","$33","$66","1","33","66","SURE"
"html-keyboard-response","156","177156","0.0-5.0-3.50","5f9873550513db147c9d2958","bdp_rd","Sat Mar 25 2023 22:09:42 GMT-0400 (Eastern Daylight Time)","200542","","null","","","","offerFB","","<div class='trialBorder'><div class='vertical-center'><img style='vertical-align:center; align:center' src=img/fixation3.jpg></div><div class='cl'><div class='vertical-center'>$66<br>with a<br>50% chance</div></div><div class='cr'><div class='vertical-center'><font style='color:orange'>$33<br>for<br>sure</font></div></div><div class='respDivL'><div class='vertical-center'>(E)</div></div><div class='respDivR'><div class='vertical-center'><font style='color:orange'>(I)</font></div></div></div>","null","$33","$66","1","33","66",""
"html-keyboard-response","157","177658","0.0-5.0-1.51","5f9873550513db147c9d2958","bdp_rd","Sat Mar 25 2023 22:09:42 GMT-0400 (Eastern Daylight Time)","200542","","null","","","","FIX","","<div class='trialBorder'><div class='vertical-center'><img style='vertical-align:center; align:center' src=img/fixation3.jpg></div></div>","null","","","","","",""
"html-keyboard-response","158","179110","0.0-5.0-2.51","5f9873550513db147c9d2958","bdp_rd","Sat Mar 25 2023 22:09:42 GMT-0400 (Eastern Daylight Time)","200542","","1450","","","","offer","","<div class='trialBorder'><div class='vertical-center'><img style='vertical-align:center; align:center' src=img/fixation3.jpg></div><div class='cl'><div class='vertical-center'>$89<br>with a<br>50% chance</div></div><div class='cr'><div class='vertical-center'>$28<br>for<br>sure</div></div><div class='respDivL'><div class='vertical-center'>(E)</div></div><div class='respDivR'><div class='vertical-center'>(I)</div></div></div>","E","$28","$89","1","28","89","RISKY"
"html-keyboard-response","159","179362","0.0-5.0-3.51","5f9873550513db147c9d2958","bdp_rd","Sat Mar 25 2023 22:09:42 GMT-0400 (Eastern Daylight Time)","200542","","null","","","","offerFB","","<div class='trialBorder'><div class='vertical-center'><img style='vertical-align:center; align:center' src=img/fixation3.jpg></div><div class='cl'><div class='vertical-center'><font style='color:orange'>$89<br>with a<br>50% chance</font></div></div><div class='cr'><div class='vertical-center'>$28<br>for<br>sure</div></div><div class='respDivL'><div class='vertical-center'><font style='color:orange'>(E)</font></div></div><div class='respDivR'><div class='vertical-center'>(I)</div></div></div>","null","$28","$89","1","28","89",""
"html-keyboard-response","160","179864","0.0-5.0-1.52","5f9873550513db147c9d2958","bdp_rd","Sat Mar 25 2023 22:09:42 GMT-0400 (Eastern Daylight Time)","200542","","null","","","","FIX","","<div class='trialBorder'><div class='vertical-center'><img style='vertical-align:center; align:center' src=img/fixation3.jpg></div></div>","null","","","","","",""
"html-keyboard-response","161","180915","0.0-5.0-2.52","5f9873550513db147c9d2958","bdp_rd","Sat Mar 25 2023 22:09:42 GMT-0400 (Eastern Daylight Time)","200542","","1051","","","","offer","","<div class='trialBorder'><div class='vertical-center'><img style='vertical-align:center; align:center' src=img/fixation3.jpg></div><div class='cl'><div class='vertical-center'>$53<br>for<br>sure</div></div><div class='cr'><div class='vertical-center'>$98<br>with a<br>50% chance</div></div><div class='respDivL'><div class='vertical-center'>(E)</div></div><div class='respDivR'><div class='vertical-center'>(I)</div></div></div>","I","$53","$98","0","53","98","RISKY"
"html-keyboard-response","162","181167","0.0-5.0-3.52","5f9873550513db147c9d2958","bdp_rd","Sat Mar 25 2023 22:09:42 GMT-0400 (Eastern Daylight Time)","200542","","null","","","","offerFB","","<div class='trialBorder'><div class='vertical-center'><img style='vertical-align:center; align:center' src=img/fixation3.jpg></div><div class='cl'><div class='vertical-center'>$53<br>for<br>sure</div></div><div class='cr'><div class='vertical-center'><font style='color:orange'>$98<br>with a<br>50% chance</font></div></div><div class='respDivL'><div class='vertical-center'>(E)</div></div><div class='respDivR'><div class='vertical-center'><font style='color:orange'>(I)</font></div></div></div>","null","$53","$98","0","53","98",""
"html-keyboard-response","163","181669","0.0-5.0-1.53","5f9873550513db147c9d2958","bdp_rd","Sat Mar 25 2023 22:09:42 GMT-0400 (Eastern Daylight Time)","200542","","null","","","","FIX","","<div class='trialBorder'><div class='vertical-center'><img style='vertical-align:center; align:center' src=img/fixation3.jpg></div></div>","null","","","","","",""
"html-keyboard-response","164","184097","0.0-5.0-2.53","5f9873550513db147c9d2958","bdp_rd","Sat Mar 25 2023 22:09:42 GMT-0400 (Eastern Daylight Time)","200542","","2427","","","","offer","","<div class='trialBorder'><div class='vertical-center'><img style='vertical-align:center; align:center' src=img/fixation3.jpg></div><div class='cl'><div class='vertical-center'>$48<br>with a<br>50% chance</div></div><div class='cr'><div class='vertical-center'>$34<br>for<br>sure</div></div><div class='respDivL'><div class='vertical-center'>(E)</div></div><div class='respDivR'><div class='vertical-center'>(I)</div></div></div>","I","$34","$48","1","34","48","SURE"
"html-keyboard-response","165","184349","0.0-5.0-3.53","5f9873550513db147c9d2958","bdp_rd","Sat Mar 25 2023 22:09:42 GMT-0400 (Eastern Daylight Time)","200542","","null","","","","offerFB","","<div class='trialBorder'><div class='vertical-center'><img style='vertical-align:center; align:center' src=img/fixation3.jpg></div><div class='cl'><div class='vertical-center'>$48<br>with a<br>50% chance</div></div><div class='cr'><div class='vertical-center'><font style='color:orange'>$34<br>for<br>sure</font></div></div><div class='respDivL'><div class='vertical-center'>(E)</div></div><div class='respDivR'><div class='vertical-center'><font style='color:orange'>(I)</font></div></div></div>","null","$34","$48","1","34","48",""
"html-keyboard-response","166","184851","0.0-5.0-1.54","5f9873550513db147c9d2958","bdp_rd","Sat Mar 25 2023 22:09:42 GMT-0400 (Eastern Daylight Time)","200542","","null","","","","FIX","","<div class='trialBorder'><div class='vertical-center'><img style='vertical-align:center; align:center' src=img/fixation3.jpg></div></div>","null","","","","","",""
"html-keyboard-response","167","186928","0.0-5.0-2.54","5f9873550513db147c9d2958","bdp_rd","Sat Mar 25 2023 22:09:42 GMT-0400 (Eastern Daylight Time)","200542","","2077","","","","offer","","<div class='trialBorder'><div class='vertical-center'><img style='vertical-align:center; align:center' src=img/fixation3.jpg></div><div class='cl'><div class='vertical-center'>$7<br>for<br>sure</div></div><div class='cr'><div class='vertical-center'>$10<br>with a<br>50% chance</div></div><div class='respDivL'><div class='vertical-center'>(E)</div></div><div class='respDivR'><div class='vertical-center'>(I)</div></div></div>","E","$7","$10","0","7","10","SURE"
"html-keyboard-response","168","187180","0.0-5.0-3.54","5f9873550513db147c9d2958","bdp_rd","Sat Mar 25 2023 22:09:42 GMT-0400 (Eastern Daylight Time)","200542","","null","","","","offerFB","","<div class='trialBorder'><div class='vertical-center'><img style='vertical-align:center; align:center' src=img/fixation3.jpg></div><div class='cl'><div class='vertical-center'><font style='color:orange'>$7<br>for<br>sure</font></div></div><div class='cr'><div class='vertical-center'>$10<br>with a<br>50% chance</div></div><div class='respDivL'><div class='vertical-center'><font style='color:orange'>(E)</font></div></div><div class='respDivR'><div class='vertical-center'>(I)</div></div></div>","null","$7","$10","0","7","10",""
"html-keyboard-response","169","187681","0.0-5.0-1.55","5f9873550513db147c9d2958","bdp_rd","Sat Mar 25 2023 22:09:42 GMT-0400 (Eastern Daylight Time)","200542","","null","","","","FIX","","<div class='trialBorder'><div class='vertical-center'><img style='vertical-align:center; align:center' src=img/fixation3.jpg></div></div>","null","","","","","",""
"html-keyboard-response","170","189063","0.0-5.0-2.55","5f9873550513db147c9d2958","bdp_rd","Sat Mar 25 2023 22:09:42 GMT-0400 (Eastern Daylight Time)","200542","","1380","","","","offer","","<div class='trialBorder'><div class='vertical-center'><img style='vertical-align:center; align:center' src=img/fixation3.jpg></div><div class='cl'><div class='vertical-center'>$40<br>for<br>sure</div></div><div class='cr'><div class='vertical-center'>$95<br>with a<br>50% chance</div></div><div class='respDivL'><div class='vertical-center'>(E)</div></div><div class='respDivR'><div class='vertical-center'>(I)</div></div></div>","I","$40","$95","0","40","95","RISKY"
"html-keyboard-response","171","189315","0.0-5.0-3.55","5f9873550513db147c9d2958","bdp_rd","Sat Mar 25 2023 22:09:42 GMT-0400 (Eastern Daylight Time)","200542","","null","","","","offerFB","","<div class='trialBorder'><div class='vertical-center'><img style='vertical-align:center; align:center' src=img/fixation3.jpg></div><div class='cl'><div class='vertical-center'>$40<br>for<br>sure</div></div><div class='cr'><div class='vertical-center'><font style='color:orange'>$95<br>with a<br>50% chance</font></div></div><div class='respDivL'><div class='vertical-center'>(E)</div></div><div class='respDivR'><div class='vertical-center'><font style='color:orange'>(I)</font></div></div></div>","null","$40","$95","0","40","95",""
"html-keyboard-response","172","189816","0.0-5.0-1.56","5f9873550513db147c9d2958","bdp_rd","Sat Mar 25 2023 22:09:42 GMT-0400 (Eastern Daylight Time)","200542","","null","","","","FIX","","<div class='trialBorder'><div class='vertical-center'><img style='vertical-align:center; align:center' src=img/fixation3.jpg></div></div>","null","","","","","",""
"html-keyboard-response","173","191947","0.0-5.0-2.56","5f9873550513db147c9d2958","bdp_rd","Sat Mar 25 2023 22:09:42 GMT-0400 (Eastern Daylight Time)","200542","","2130","","","","offer","","<div class='trialBorder'><div class='vertical-center'><img style='vertical-align:center; align:center' src=img/fixation3.jpg></div><div class='cl'><div class='vertical-center'>$38<br>with a<br>50% chance</div></div><div class='cr'><div class='vertical-center'>$16<br>for<br>sure</div></div><div class='respDivL'><div class='vertical-center'>(E)</div></div><div class='respDivR'><div class='vertical-center'>(I)</div></div></div>","I","$16","$38","1","16","38","SURE"
