"trial_type","trial_index","time_elapsed","internal_node_id","subject_id","task","startTime","totalTime","view_history","rt","event","trial","time","trialtype","success","stimulus","key_press","sureOffer","riskyOffer","riskyLeft","sureAmt","riskyAmt","chosen"
"pavlovia","0","9","0.0-0.0","6400ed09421b2727c2f7c553","bdp_rd","Sat Mar 25 2023 22:20:20 GMT-0400 (Eastern Daylight Time)","263922","","","","","","","","","","","","","","",""
"instructions","1","3130","0.0-1.0","6400ed09421b2727c2f7c553","bdp_rd","Sat Mar 25 2023 22:20:20 GMT-0400 (Eastern Daylight Time)","263922","[{""page_index"":0,""viewing_time"":3120}]","3120","","","","","","","","","","","","",""
"","","","","6400ed09421b2727c2f7c553","bdp_rd","Sat Mar 25 2023 22:20:20 GMT-0400 (Eastern Daylight Time)","263922","","","fullscreenenter","2","5193","fullscreenenter","","","","","","","","",""
"fullscreen","2","6168","0.0-2.0","6400ed09421b2727c2f7c553","bdp_rd","Sat Mar 25 2023 22:20:20 GMT-0400 (Eastern Daylight Time)","263922","","","","","","","true","","","","","","","",""
"instructions","3","34142","0.0-4.0","6400ed09421b2727c2f7c553","bdp_rd","Sat Mar 25 2023 22:20:20 GMT-0400 (Eastern Daylight Time)","263922","[{""page_index"":0,""viewing_time"":15295},{""page_index"":1,""viewing_time"":6549},{""page_index"":2,""viewing_time"":6128}]","27972","","","","","","","","","","","","",""
"html-keyboard-response","4","34647","0.0-5.0-1.0","6400ed09421b2727c2f7c553","bdp_rd","Sat Mar 25 2023 22:20:20 GMT-0400 (Eastern Daylight Time)","263922","","null","","","","FIX","","<div class='trialBorder'><div class='vertical-center'><img style='vertical-align:center; align:center' src=img/fixation3.jpg></div></div>","null","","","","","",""
"html-keyboard-response","5","38313","0.0-5.0-2.0","6400ed09421b2727c2f7c553","bdp_rd","Sat Mar 25 2023 22:20:20 GMT-0400 (Eastern Daylight Time)","263922","","3664","","","","offer","","<div class='trialBorder'><div class='vertical-center'><img style='vertical-align:center; align:center' src=img/fixation3.jpg></div><div class='cl'><div class='vertical-center'>$66<br>with a<br>50% chance</div></div><div class='cr'><div class='vertical-center'>$33<br>for<br>sure</div></div><div class='respDivL'><div class='vertical-center'>(E)</div></div><div class='respDivR'><div class='vertical-center'>(I)</div></div></div>","E","$33","$66","1","33","66","RISKY"
"html-keyboard-response","6","38567","0.0-5.0-3.0","6400ed09421b2727c2f7c553","bdp_rd","Sat Mar 25 2023 22:20:20 GMT-0400 (Eastern Daylight Time)","263922","","null","","","","offerFB","","<div class='trialBorder'><div class='vertical-center'><img style='vertical-align:center; align:center' src=img/fixation3.jpg></div><div class='cl'><div class='vertical-center'><font style='color:orange'>$66<br>with a<br>50% chance</font></div></div><div class='cr'><div class='vertical-center'>$33<br>for<br>sure</div></div><div class='respDivL'><div class='vertical-center'><font style='color:orange'>(E)</font></div></div><div class='respDivR'><div class='vertical-center'>(I)</div></div></div>","null","$33","$66","1","33","66",""
"html-keyboard-response","7","39070","0.0-5.0-1.1","6400ed09421b2727c2f7c553","bdp_rd","Sat Mar 25 2023 22:20:20 GMT-0400 (Eastern Daylight Time)","263922","","null","","","","FIX","","<div class='trialBorder'><div class='vertical-center'><img style='vertical-align:center; align:center' src=img/fixation3.jpg></div></div>","null","","","","","",""
"html-keyboard-response","8","41805","0.0-5.0-2.1","6400ed09421b2727c2f7c553","bdp_rd","Sat Mar 25 2023 22:20:20 GMT-0400 (Eastern Daylight Time)","263922","","2734","","","","offer","","<div class='trialBorder'><div class='vertical-center'><img style='vertical-align:center; align:center' src=img/fixation3.jpg></div><div class='cl'><div class='vertical-center'>$15<br>for<br>sure</div></div><div class='cr'><div class='vertical-center'>$34<br>with a<br>50% chance</div></div><div class='respDivL'><div class='vertical-center'>(E)</div></div><div class='respDivR'><div class='vertical-center'>(I)</div></div></div>","I","$15","$34","0","15","34","RISKY"
"html-keyboard-response","9","42058","0.0-5.0-3.1","6400ed09421b2727c2f7c553","bdp_rd","Sat Mar 25 2023 22:20:20 GMT-0400 (Eastern Daylight Time)","263922","","null","","","","offerFB","","<div class='trialBorder'><div class='vertical-center'><img style='vertical-align:center; align:center' src=img/fixation3.jpg></div><div class='cl'><div class='vertical-center'>$15<br>for<br>sure</div></div><div class='cr'><div class='vertical-center'><font style='color:orange'>$34<br>with a<br>50% chance</font></div></div><div class='respDivL'><div class='vertical-center'>(E)</div></div><div class='respDivR'><div class='vertical-center'><font style='color:orange'>(I)</font></div></div></div>","null","$15","$34","0","15","34",""
"html-keyboard-response","10","42560","0.0-5.0-1.2","6400ed09421b2727c2f7c553","bdp_rd","Sat Mar 25 2023 22:20:20 GMT-0400 (Eastern Daylight Time)","263922","","null","","","","FIX","","<div class='trialBorder'><div class='vertical-center'><img style='vertical-align:center; align:center' src=img/fixation3.jpg></div></div>","null","","","","","",""
"html-keyboard-response","11","44277","0.0-5.0-2.2","6400ed09421b2727c2f7c553","bdp_rd","Sat Mar 25 2023 22:20:20 GMT-0400 (Eastern Daylight Time)","263922","","1715","","","","offer","","<div class='trialBorder'><div class='vertical-center'><img style='vertical-align:center; align:center' src=img/fixation3.jpg></div><div class='cl'><div class='vertical-center'>$20<br>for<br>sure</div></div><div class='cr'><div class='vertical-center'>$80<br>with a<br>50% chance</div></div><div class='respDivL'><div class='vertical-center'>(E)</div></div><div class='respDivR'><div class='vertical-center'>(I)</div></div></div>","I","$20","$80","0","20","80","RISKY"
"html-keyboard-response","12","44530","0.0-5.0-3.2","6400ed09421b2727c2f7c553","bdp_rd","Sat Mar 25 2023 22:20:20 GMT-0400 (Eastern Daylight Time)","263922","","null","","","","offerFB","","<div class='trialBorder'><div class='vertical-center'><img style='vertical-align:center; align:center' src=img/fixation3.jpg></div><div class='cl'><div class='vertical-center'>$20<br>for<br>sure</div></div><div class='cr'><div class='vertical-center'><font style='color:orange'>$80<br>with a<br>50% chance</font></div></div><div class='respDivL'><div class='vertical-center'>(E)</div></div><div class='respDivR'><div class='vertical-center'><font style='color:orange'>(I)</font></div></div></div>","null","$20","$80","0","20","80",""
"html-keyboard-response","13","45032","0.0-5.0-1.3","6400ed09421b2727c2f7c553","bdp_rd","Sat Mar 25 2023 22:20:20 GMT-0400 (Eastern Daylight Time)","263922","","null","","","","FIX","","<div class='trialBorder'><div class='vertical-center'><img style='vertical-align:center; align:center' src=img/fixation3.jpg></div></div>","null","","","","","",""
"html-keyboard-response","14","46900","0.0-5.0-2.3","6400ed09421b2727c2f7c553","bdp_rd","Sat Mar 25 2023 22:20:20 GMT-0400 (Eastern Daylight Time)","263922","","1865","","","","offer","","<div class='trialBorder'><div class='vertical-center'><img style='vertical-align:center; align:center' src=img/fixation3.jpg></div><div class='cl'><div class='vertical-center'>$40<br>for<br>sure</div></div><div class='cr'><div class='vertical-center'>$95<br>with a<br>50% chance</div></div><div class='respDivL'><div class='vertical-center'>(E)</div></div><div class='respDivR'><div class='vertical-center'>(I)</div></div></div>","I","$40","$95","0","40","95","RISKY"
"html-keyboard-response","15","47157","0.0-5.0-3.3","6400ed09421b2727c2f7c553","bdp_rd","Sat Mar 25 2023 22:20:20 GMT-0400 (Eastern Daylight Time)","263922","","null","","","","offerFB","","<div class='trialBorder'><div class='vertical-center'><img style='vertical-align:center; align:center' src=img/fixation3.jpg></div><div class='cl'><div class='vertical-center'>$40<br>for<br>sure</div></div><div class='cr'><div class='vertical-center'><font style='color:orange'>$95<br>with a<br>50% chance</font></div></div><div class='respDivL'><div class='vertical-center'>(E)</div></div><div class='respDivR'><div class='vertical-center'><font style='color:orange'>(I)</font></div></div></div>","null","$40","$95","0","40","95",""
"html-keyboard-response","16","47658","0.0-5.0-1.4","6400ed09421b2727c2f7c553","bdp_rd","Sat Mar 25 2023 22:20:20 GMT-0400 (Eastern Daylight Time)","263922","","null","","","","FIX","","<div class='trialBorder'><div class='vertical-center'><img style='vertical-align:center; align:center' src=img/fixation3.jpg></div></div>","null","","","","","",""
"html-keyboard-response","17","49344","0.0-5.0-2.4","6400ed09421b2727c2f7c553","bdp_rd","Sat Mar 25 2023 22:20:20 GMT-0400 (Eastern Daylight Time)","263922","","1685","","","","offer","","<div class='trialBorder'><div class='vertical-center'><img style='vertical-align:center; align:center' src=img/fixation3.jpg></div><div class='cl'><div class='vertical-center'>$12<br>for<br>sure</div></div><div class='cr'><div class='vertical-center'>$27<br>with a<br>50% chance</div></div><div class='respDivL'><div class='vertical-center'>(E)</div></div><div class='respDivR'><div class='vertical-center'>(I)</div></div></div>","I","$12","$27","0","12","27","RISKY"
"html-keyboard-response","18","49598","0.0-5.0-3.4","6400ed09421b2727c2f7c553","bdp_rd","Sat Mar 25 2023 22:20:20 GMT-0400 (Eastern Daylight Time)","263922","","null","","","","offerFB","","<div class='trialBorder'><div class='vertical-center'><img style='vertical-align:center; align:center' src=img/fixation3.jpg></div><div class='cl'><div class='vertical-center'>$12<br>for<br>sure</div></div><div class='cr'><div class='vertical-center'><font style='color:orange'>$27<br>with a<br>50% chance</font></div></div><div class='respDivL'><div class='vertical-center'>(E)</div></div><div class='respDivR'><div class='vertical-center'><font style='color:orange'>(I)</font></div></div></div>","null","$12","$27","0","12","27",""
"html-keyboard-response","19","50100","0.0-5.0-1.5","6400ed09421b2727c2f7c553","bdp_rd","Sat Mar 25 2023 22:20:20 GMT-0400 (Eastern Daylight Time)","263922","","null","","","","FIX","","<div class='trialBorder'><div class='vertical-center'><img style='vertical-align:center; align:center' src=img/fixation3.jpg></div></div>","null","","","","","",""
"html-keyboard-response","20","52683","0.0-5.0-2.5","6400ed09421b2727c2f7c553","bdp_rd","Sat Mar 25 2023 22:20:20 GMT-0400 (Eastern Daylight Time)","263922","","2580","","","","offer","","<div class='trialBorder'><div class='vertical-center'><img style='vertical-align:center; align:center' src=img/fixation3.jpg></div><div class='cl'><div class='vertical-center'>$58<br>for<br>sure</div></div><div class='cr'><div class='vertical-center'>$69<br>with a<br>50% chance</div></div><div class='respDivL'><div class='vertical-center'>(E)</div></div><div class='respDivR'><div class='vertical-center'>(I)</div></div></div>","E","$58","$69","0","58","69","SURE"
"html-keyboard-response","21","52936","0.0-5.0-3.5","6400ed09421b2727c2f7c553","bdp_rd","Sat Mar 25 2023 22:20:20 GMT-0400 (Eastern Daylight Time)","263922","","null","","","","offerFB","","<div class='trialBorder'><div class='vertical-center'><img style='vertical-align:center; align:center' src=img/fixation3.jpg></div><div class='cl'><div class='vertical-center'><font style='color:orange'>$58<br>for<br>sure</font></div></div><div class='cr'><div class='vertical-center'>$69<br>with a<br>50% chance</div></div><div class='respDivL'><div class='vertical-center'><font style='color:orange'>(E)</font></div></div><div class='respDivR'><div class='vertical-center'>(I)</div></div></div>","null","$58","$69","0","58","69",""
"html-keyboard-response","22","53438","0.0-5.0-1.6","6400ed09421b2727c2f7c553","bdp_rd","Sat Mar 25 2023 22:20:20 GMT-0400 (Eastern Daylight Time)","263922","","null","","","","FIX","","<div class='trialBorder'><div class='vertical-center'><img style='vertical-align:center; align:center' src=img/fixation3.jpg></div></div>","null","","","","","",""
"html-keyboard-response","23","56618","0.0-5.0-2.6","6400ed09421b2727c2f7c553","bdp_rd","Sat Mar 25 2023 22:20:20 GMT-0400 (Eastern Daylight Time)","263922","","3178","","","","offer","","<div class='trialBorder'><div class='vertical-center'><img style='vertical-align:center; align:center' src=img/fixation3.jpg></div><div class='cl'><div class='vertical-center'>$26<br>with a<br>50% chance</div></div><div class='cr'><div class='vertical-center'>$11<br>for<br>sure</div></div><div class='respDivL'><div class='vertical-center'>(E)</div></div><div class='respDivR'><div class='vertical-center'>(I)</div></div></div>","E","$11","$26","1","11","26","RISKY"
"html-keyboard-response","24","56872","0.0-5.0-3.6","6400ed09421b2727c2f7c553","bdp_rd","Sat Mar 25 2023 22:20:20 GMT-0400 (Eastern Daylight Time)","263922","","null","","","","offerFB","","<div class='trialBorder'><div class='vertical-center'><img style='vertical-align:center; align:center' src=img/fixation3.jpg></div><div class='cl'><div class='vertical-center'><font style='color:orange'>$26<br>with a<br>50% chance</font></div></div><div class='cr'><div class='vertical-center'>$11<br>for<br>sure</div></div><div class='respDivL'><div class='vertical-center'><font style='color:orange'>(E)</font></div></div><div class='respDivR'><div class='vertical-center'>(I)</div></div></div>","null","$11","$26","1","11","26",""
"html-keyboard-response","25","57375","0.0-5.0-1.7","6400ed09421b2727c2f7c553","bdp_rd","Sat Mar 25 2023 22:20:20 GMT-0400 (Eastern Daylight Time)","263922","","null","","","","FIX","","<div class='trialBorder'><div class='vertical-center'><img style='vertical-align:center; align:center' src=img/fixation3.jpg></div></div>","null","","","","","",""
"html-keyboard-response","26","59341","0.0-5.0-2.7","6400ed09421b2727c2f7c553","bdp_rd","Sat Mar 25 2023 22:20:20 GMT-0400 (Eastern Daylight Time)","263922","","1965","","","","offer","","<div class='trialBorder'><div class='vertical-center'><img style='vertical-align:center; align:center' src=img/fixation3.jpg></div><div class='cl'><div class='vertical-center'>$7<br>for<br>sure</div></div><div class='cr'><div class='vertical-center'>$71<br>with a<br>50% chance</div></div><div class='respDivL'><div class='vertical-center'>(E)</div></div><div class='respDivR'><div class='vertical-center'>(I)</div></div></div>","I","$7","$71","0","7","71","RISKY"
"html-keyboard-response","27","59596","0.0-5.0-3.7","6400ed09421b2727c2f7c553","bdp_rd","Sat Mar 25 2023 22:20:20 GMT-0400 (Eastern Daylight Time)","263922","","null","","","","offerFB","","<div class='trialBorder'><div class='vertical-center'><img style='vertical-align:center; align:center' src=img/fixation3.jpg></div><div class='cl'><div class='vertical-center'>$7<br>for<br>sure</div></div><div class='cr'><div class='vertical-center'><font style='color:orange'>$71<br>with a<br>50% chance</font></div></div><div class='respDivL'><div class='vertical-center'>(E)</div></div><div class='respDivR'><div class='vertical-center'><font style='color:orange'>(I)</font></div></div></div>","null","$7","$71","0","7","71",""
"html-keyboard-response","28","60099","0.0-5.0-1.8","6400ed09421b2727c2f7c553","bdp_rd","Sat Mar 25 2023 22:20:20 GMT-0400 (Eastern Daylight Time)","263922","","null","","","","FIX","","<div class='trialBorder'><div class='vertical-center'><img style='vertical-align:center; align:center' src=img/fixation3.jpg></div></div>","null","","","","","",""
"html-keyboard-response","29","62568","0.0-5.0-2.8","6400ed09421b2727c2f7c553","bdp_rd","Sat Mar 25 2023 22:20:20 GMT-0400 (Eastern Daylight Time)","263922","","2468","","","","offer","","<div class='trialBorder'><div class='vertical-center'><img style='vertical-align:center; align:center' src=img/fixation3.jpg></div><div class='cl'><div class='vertical-center'>$18<br>for<br>sure</div></div><div class='cr'><div class='vertical-center'>$39<br>with a<br>50% chance</div></div><div class='respDivL'><div class='vertical-center'>(E)</div></div><div class='respDivR'><div class='vertical-center'>(I)</div></div></div>","I","$18","$39","0","18","39","RISKY"
"html-keyboard-response","30","62824","0.0-5.0-3.8","6400ed09421b2727c2f7c553","bdp_rd","Sat Mar 25 2023 22:20:20 GMT-0400 (Eastern Daylight Time)","263922","","null","","","","offerFB","","<div class='trialBorder'><div class='vertical-center'><img style='vertical-align:center; align:center' src=img/fixation3.jpg></div><div class='cl'><div class='vertical-center'>$18<br>for<br>sure</div></div><div class='cr'><div class='vertical-center'><font style='color:orange'>$39<br>with a<br>50% chance</font></div></div><div class='respDivL'><div class='vertical-center'>(E)</div></div><div class='respDivR'><div class='vertical-center'><font style='color:orange'>(I)</font></div></div></div>","null","$18","$39","0","18","39",""
"html-keyboard-response","31","63326","0.0-5.0-1.9","6400ed09421b2727c2f7c553","bdp_rd","Sat Mar 25 2023 22:20:20 GMT-0400 (Eastern Daylight Time)","263922","","null","","","","FIX","","<div class='trialBorder'><div class='vertical-center'><img style='vertical-align:center; align:center' src=img/fixation3.jpg></div></div>","null","","","","","",""
"html-keyboard-response","32","71298","0.0-5.0-2.9","6400ed09421b2727c2f7c553","bdp_rd","Sat Mar 25 2023 22:20:20 GMT-0400 (Eastern Daylight Time)","263922","","7971","","","","offer","","<div class='trialBorder'><div class='vertical-center'><img style='vertical-align:center; align:center' src=img/fixation3.jpg></div><div class='cl'><div class='vertical-center'>$42<br>with a<br>50% chance</div></div><div class='cr'><div class='vertical-center'>$22<br>for<br>sure</div></div><div class='respDivL'><div class='vertical-center'>(E)</div></div><div class='respDivR'><div class='vertical-center'>(I)</div></div></div>","E","$22","$42","1","22","42","RISKY"
"html-keyboard-response","33","71551","0.0-5.0-3.9","6400ed09421b2727c2f7c553","bdp_rd","Sat Mar 25 2023 22:20:20 GMT-0400 (Eastern Daylight Time)","263922","","null","","","","offerFB","","<div class='trialBorder'><div class='vertical-center'><img style='vertical-align:center; align:center' src=img/fixation3.jpg></div><div class='cl'><div class='vertical-center'><font style='color:orange'>$42<br>with a<br>50% chance</font></div></div><div class='cr'><div class='vertical-center'>$22<br>for<br>sure</div></div><div class='respDivL'><div class='vertical-center'><font style='color:orange'>(E)</font></div></div><div class='respDivR'><div class='vertical-center'>(I)</div></div></div>","null","$22","$42","1","22","42",""
"html-keyboard-response","34","72053","0.0-5.0-1.10","6400ed09421b2727c2f7c553","bdp_rd","Sat Mar 25 2023 22:20:20 GMT-0400 (Eastern Daylight Time)","263922","","null","","","","FIX","","<div class='trialBorder'><div class='vertical-center'><img style='vertical-align:center; align:center' src=img/fixation3.jpg></div></div>","null","","","","","",""
"html-keyboard-response","35","74864","0.0-5.0-2.10","6400ed09421b2727c2f7c553","bdp_rd","Sat Mar 25 2023 22:20:20 GMT-0400 (Eastern Daylight Time)","263922","","2808","","","","offer","","<div class='trialBorder'><div class='vertical-center'><img style='vertical-align:center; align:center' src=img/fixation3.jpg></div><div class='cl'><div class='vertical-center'>$47<br>with a<br>50% chance</div></div><div class='cr'><div class='vertical-center'>$27<br>for<br>sure</div></div><div class='respDivL'><div class='vertical-center'>(E)</div></div><div class='respDivR'><div class='vertical-center'>(I)</div></div></div>","E","$27","$47","1","27","47","RISKY"
"html-keyboard-response","36","75117","0.0-5.0-3.10","6400ed09421b2727c2f7c553","bdp_rd","Sat Mar 25 2023 22:20:20 GMT-0400 (Eastern Daylight Time)","263922","","null","","","","offerFB","","<div class='trialBorder'><div class='vertical-center'><img style='vertical-align:center; align:center' src=img/fixation3.jpg></div><div class='cl'><div class='vertical-center'><font style='color:orange'>$47<br>with a<br>50% chance</font></div></div><div class='cr'><div class='vertical-center'>$27<br>for<br>sure</div></div><div class='respDivL'><div class='vertical-center'><font style='color:orange'>(E)</font></div></div><div class='respDivR'><div class='vertical-center'>(I)</div></div></div>","null","$27","$47","1","27","47",""
"html-keyboard-response","37","75619","0.0-5.0-1.11","6400ed09421b2727c2f7c553","bdp_rd","Sat Mar 25 2023 22:20:20 GMT-0400 (Eastern Daylight Time)","263922","","null","","","","FIX","","<div class='trialBorder'><div class='vertical-center'><img style='vertical-align:center; align:center' src=img/fixation3.jpg></div></div>","null","","","","","",""
"html-keyboard-response","38","78459","0.0-5.0-2.11","6400ed09421b2727c2f7c553","bdp_rd","Sat Mar 25 2023 22:20:20 GMT-0400 (Eastern Daylight Time)","263922","","2839","","","","offer","","<div class='trialBorder'><div class='vertical-center'><img style='vertical-align:center; align:center' src=img/fixation3.jpg></div><div class='cl'><div class='vertical-center'>$13<br>for<br>sure</div></div><div class='cr'><div class='vertical-center'>$24<br>with a<br>50% chance</div></div><div class='respDivL'><div class='vertical-center'>(E)</div></div><div class='respDivR'><div class='vertical-center'>(I)</div></div></div>","I","$13","$24","0","13","24","RISKY"
"html-keyboard-response","39","78713","0.0-5.0-3.11","6400ed09421b2727c2f7c553","bdp_rd","Sat Mar 25 2023 22:20:20 GMT-0400 (Eastern Daylight Time)","263922","","null","","","","offerFB","","<div class='trialBorder'><div class='vertical-center'><img style='vertical-align:center; align:center' src=img/fixation3.jpg></div><div class='cl'><div class='vertical-center'>$13<br>for<br>sure</div></div><div class='cr'><div class='vertical-center'><font style='color:orange'>$24<br>with a<br>50% chance</font></div></div><div class='respDivL'><div class='vertical-center'>(E)</div></div><div class='respDivR'><div class='vertical-center'><font style='color:orange'>(I)</font></div></div></div>","null","$13","$24","0","13","24",""
"html-keyboard-response","40","79216","0.0-5.0-1.12","6400ed09421b2727c2f7c553","bdp_rd","Sat Mar 25 2023 22:20:20 GMT-0400 (Eastern Daylight Time)","263922","","null","","","","FIX","","<div class='trialBorder'><div class='vertical-center'><img style='vertical-align:center; align:center' src=img/fixation3.jpg></div></div>","null","","","","","",""
"html-keyboard-response","41","84998","0.0-5.0-2.12","6400ed09421b2727c2f7c553","bdp_rd","Sat Mar 25 2023 22:20:20 GMT-0400 (Eastern Daylight Time)","263922","","5781","","","","offer","","<div class='trialBorder'><div class='vertical-center'><img style='vertical-align:center; align:center' src=img/fixation3.jpg></div><div class='cl'><div class='vertical-center'>$46<br>with a<br>50% chance</div></div><div class='cr'><div class='vertical-center'>$29<br>for<br>sure</div></div><div class='respDivL'><div class='vertical-center'>(E)</div></div><div class='respDivR'><div class='vertical-center'>(I)</div></div></div>","E","$29","$46","1","29","46","RISKY"
"html-keyboard-response","42","85253","0.0-5.0-3.12","6400ed09421b2727c2f7c553","bdp_rd","Sat Mar 25 2023 22:20:20 GMT-0400 (Eastern Daylight Time)","263922","","null","","","","offerFB","","<div class='trialBorder'><div class='vertical-center'><img style='vertical-align:center; align:center' src=img/fixation3.jpg></div><div class='cl'><div class='vertical-center'><font style='color:orange'>$46<br>with a<br>50% chance</font></div></div><div class='cr'><div class='vertical-center'>$29<br>for<br>sure</div></div><div class='respDivL'><div class='vertical-center'><font style='color:orange'>(E)</font></div></div><div class='respDivR'><div class='vertical-center'>(I)</div></div></div>","null","$29","$46","1","29","46",""
"html-keyboard-response","43","85755","0.0-5.0-1.13","6400ed09421b2727c2f7c553","bdp_rd","Sat Mar 25 2023 22:20:20 GMT-0400 (Eastern Daylight Time)","263922","","null","","","","FIX","","<div class='trialBorder'><div class='vertical-center'><img style='vertical-align:center; align:center' src=img/fixation3.jpg></div></div>","null","","","","","",""
"html-keyboard-response","44","88460","0.0-5.0-2.13","6400ed09421b2727c2f7c553","bdp_rd","Sat Mar 25 2023 22:20:20 GMT-0400 (Eastern Daylight Time)","263922","","2703","","","","offer","","<div class='trialBorder'><div class='vertical-center'><img style='vertical-align:center; align:center' src=img/fixation3.jpg></div><div class='cl'><div class='vertical-center'>$41<br>with a<br>50% chance</div></div><div class='cr'><div class='vertical-center'>$13<br>for<br>sure</div></div><div class='respDivL'><div class='vertical-center'>(E)</div></div><div class='respDivR'><div class='vertical-center'>(I)</div></div></div>","E","$13","$41","1","13","41","RISKY"
"html-keyboard-response","45","88713","0.0-5.0-3.13","6400ed09421b2727c2f7c553","bdp_rd","Sat Mar 25 2023 22:20:20 GMT-0400 (Eastern Daylight Time)","263922","","null","","","","offerFB","","<div class='trialBorder'><div class='vertical-center'><img style='vertical-align:center; align:center' src=img/fixation3.jpg></div><div class='cl'><div class='vertical-center'><font style='color:orange'>$41<br>with a<br>50% chance</font></div></div><div class='cr'><div class='vertical-center'>$13<br>for<br>sure</div></div><div class='respDivL'><div class='vertical-center'><font style='color:orange'>(E)</font></div></div><div class='respDivR'><div class='vertical-center'>(I)</div></div></div>","null","$13","$41","1","13","41",""
"html-keyboard-response","46","89215","0.0-5.0-1.14","6400ed09421b2727c2f7c553","bdp_rd","Sat Mar 25 2023 22:20:20 GMT-0400 (Eastern Daylight Time)","263922","","null","","","","FIX","","<div class='trialBorder'><div class='vertical-center'><img style='vertical-align:center; align:center' src=img/fixation3.jpg></div></div>","null","","","","","",""
"html-keyboard-response","47","92546","0.0-5.0-2.14","6400ed09421b2727c2f7c553","bdp_rd","Sat Mar 25 2023 22:20:20 GMT-0400 (Eastern Daylight Time)","263922","","3329","","","","offer","","<div class='trialBorder'><div class='vertical-center'><img style='vertical-align:center; align:center' src=img/fixation3.jpg></div><div class='cl'><div class='vertical-center'>$19<br>for<br>sure</div></div><div class='cr'><div class='vertical-center'>$51<br>with a<br>50% chance</div></div><div class='respDivL'><div class='vertical-center'>(E)</div></div><div class='respDivR'><div class='vertical-center'>(I)</div></div></div>","I","$19","$51","0","19","51","RISKY"
"html-keyboard-response","48","92799","0.0-5.0-3.14","6400ed09421b2727c2f7c553","bdp_rd","Sat Mar 25 2023 22:20:20 GMT-0400 (Eastern Daylight Time)","263922","","null","","","","offerFB","","<div class='trialBorder'><div class='vertical-center'><img style='vertical-align:center; align:center' src=img/fixation3.jpg></div><div class='cl'><div class='vertical-center'>$19<br>for<br>sure</div></div><div class='cr'><div class='vertical-center'><font style='color:orange'>$51<br>with a<br>50% chance</font></div></div><div class='respDivL'><div class='vertical-center'>(E)</div></div><div class='respDivR'><div class='vertical-center'><font style='color:orange'>(I)</font></div></div></div>","null","$19","$51","0","19","51",""
"html-keyboard-response","49","93301","0.0-5.0-1.15","6400ed09421b2727c2f7c553","bdp_rd","Sat Mar 25 2023 22:20:20 GMT-0400 (Eastern Daylight Time)","263922","","null","","","","FIX","","<div class='trialBorder'><div class='vertical-center'><img style='vertical-align:center; align:center' src=img/fixation3.jpg></div></div>","null","","","","","",""
"html-keyboard-response","50","95972","0.0-5.0-2.15","6400ed09421b2727c2f7c553","bdp_rd","Sat Mar 25 2023 22:20:20 GMT-0400 (Eastern Daylight Time)","263922","","2669","","","","offer","","<div class='trialBorder'><div class='vertical-center'><img style='vertical-align:center; align:center' src=img/fixation3.jpg></div><div class='cl'><div class='vertical-center'>$31<br>with a<br>50% chance</div></div><div class='cr'><div class='vertical-center'>$15<br>for<br>sure</div></div><div class='respDivL'><div class='vertical-center'>(E)</div></div><div class='respDivR'><div class='vertical-center'>(I)</div></div></div>","E","$15","$31","1","15","31","RISKY"
"html-keyboard-response","51","96225","0.0-5.0-3.15","6400ed09421b2727c2f7c553","bdp_rd","Sat Mar 25 2023 22:20:20 GMT-0400 (Eastern Daylight Time)","263922","","null","","","","offerFB","","<div class='trialBorder'><div class='vertical-center'><img style='vertical-align:center; align:center' src=img/fixation3.jpg></div><div class='cl'><div class='vertical-center'><font style='color:orange'>$31<br>with a<br>50% chance</font></div></div><div class='cr'><div class='vertical-center'>$15<br>for<br>sure</div></div><div class='respDivL'><div class='vertical-center'><font style='color:orange'>(E)</font></div></div><div class='respDivR'><div class='vertical-center'>(I)</div></div></div>","null","$15","$31","1","15","31",""
"html-keyboard-response","52","96726","0.0-5.0-1.16","6400ed09421b2727c2f7c553","bdp_rd","Sat Mar 25 2023 22:20:20 GMT-0400 (Eastern Daylight Time)","263922","","null","","","","FIX","","<div class='trialBorder'><div class='vertical-center'><img style='vertical-align:center; align:center' src=img/fixation3.jpg></div></div>","null","","","","","",""
"html-keyboard-response","53","100408","0.0-5.0-2.16","6400ed09421b2727c2f7c553","bdp_rd","Sat Mar 25 2023 22:20:20 GMT-0400 (Eastern Daylight Time)","263922","","3680","","","","offer","","<div class='trialBorder'><div class='vertical-center'><img style='vertical-align:center; align:center' src=img/fixation3.jpg></div><div class='cl'><div class='vertical-center'>$63<br>for<br>sure</div></div><div class='cr'><div class='vertical-center'>$100<br>with a<br>50% chance</div></div><div class='respDivL'><div class='vertical-center'>(E)</div></div><div class='respDivR'><div class='vertical-center'>(I)</div></div></div>","I","$63","$100","0","63","10","RISKY"
"html-keyboard-response","54","100661","0.0-5.0-3.16","6400ed09421b2727c2f7c553","bdp_rd","Sat Mar 25 2023 22:20:20 GMT-0400 (Eastern Daylight Time)","263922","","null","","","","offerFB","","<div class='trialBorder'><div class='vertical-center'><img style='vertical-align:center; align:center' src=img/fixation3.jpg></div><div class='cl'><div class='vertical-center'>$63<br>for<br>sure</div></div><div class='cr'><div class='vertical-center'><font style='color:orange'>$100<br>with a<br>50% chance</font></div></div><div class='respDivL'><div class='vertical-center'>(E)</div></div><div class='respDivR'><div class='vertical-center'><font style='color:orange'>(I)</font></div></div></div>","null","$63","$100","0","63","10",""
"html-keyboard-response","55","101163","0.0-5.0-1.17","6400ed09421b2727c2f7c553","bdp_rd","Sat Mar 25 2023 22:20:20 GMT-0400 (Eastern Daylight Time)","263922","","null","","","","FIX","","<div class='trialBorder'><div class='vertical-center'><img style='vertical-align:center; align:center' src=img/fixation3.jpg></div></div>","null","","","","","",""
"html-keyboard-response","56","104992","0.0-5.0-2.17","6400ed09421b2727c2f7c553","bdp_rd","Sat Mar 25 2023 22:20:20 GMT-0400 (Eastern Daylight Time)","263922","","3827","","","","offer","","<div class='trialBorder'><div class='vertical-center'><img style='vertical-align:center; align:center' src=img/fixation3.jpg></div><div class='cl'><div class='vertical-center'>$18<br>with a<br>50% chance</div></div><div class='cr'><div class='vertical-center'>$9<br>for<br>sure</div></div><div class='respDivL'><div class='vertical-center'>(E)</div></div><div class='respDivR'><div class='vertical-center'>(I)</div></div></div>","E","$9","$18","1","9","18","RISKY"
"html-keyboard-response","57","105245","0.0-5.0-3.17","6400ed09421b2727c2f7c553","bdp_rd","Sat Mar 25 2023 22:20:20 GMT-0400 (Eastern Daylight Time)","263922","","null","","","","offerFB","","<div class='trialBorder'><div class='vertical-center'><img style='vertical-align:center; align:center' src=img/fixation3.jpg></div><div class='cl'><div class='vertical-center'><font style='color:orange'>$18<br>with a<br>50% chance</font></div></div><div class='cr'><div class='vertical-center'>$9<br>for<br>sure</div></div><div class='respDivL'><div class='vertical-center'><font style='color:orange'>(E)</font></div></div><div class='respDivR'><div class='vertical-center'>(I)</div></div></div>","null","$9","$18","1","9","18",""
"html-keyboard-response","58","105747","0.0-5.0-1.18","6400ed09421b2727c2f7c553","bdp_rd","Sat Mar 25 2023 22:20:20 GMT-0400 (Eastern Daylight Time)","263922","","null","","","","FIX","","<div class='trialBorder'><div class='vertical-center'><img style='vertical-align:center; align:center' src=img/fixation3.jpg></div></div>","null","","","","","",""
"html-keyboard-response","59","109931","0.0-5.0-2.18","6400ed09421b2727c2f7c553","bdp_rd","Sat Mar 25 2023 22:20:20 GMT-0400 (Eastern Daylight Time)","263922","","4182","","","","offer","","<div class='trialBorder'><div class='vertical-center'><img style='vertical-align:center; align:center' src=img/fixation3.jpg></div><div class='cl'><div class='vertical-center'>$3<br>for<br>sure</div></div><div class='cr'><div class='vertical-center'>$17<br>with a<br>50% chance</div></div><div class='respDivL'><div class='vertical-center'>(E)</div></div><div class='respDivR'><div class='vertical-center'>(I)</div></div></div>","I","$3","$17","0","3","17","RISKY"
"html-keyboard-response","60","110184","0.0-5.0-3.18","6400ed09421b2727c2f7c553","bdp_rd","Sat Mar 25 2023 22:20:20 GMT-0400 (Eastern Daylight Time)","263922","","null","","","","offerFB","","<div class='trialBorder'><div class='vertical-center'><img style='vertical-align:center; align:center' src=img/fixation3.jpg></div><div class='cl'><div class='vertical-center'>$3<br>for<br>sure</div></div><div class='cr'><div class='vertical-center'><font style='color:orange'>$17<br>with a<br>50% chance</font></div></div><div class='respDivL'><div class='vertical-center'>(E)</div></div><div class='respDivR'><div class='vertical-center'><font style='color:orange'>(I)</font></div></div></div>","null","$3","$17","0","3","17",""
"html-keyboard-response","61","110686","0.0-5.0-1.19","6400ed09421b2727c2f7c553","bdp_rd","Sat Mar 25 2023 22:20:20 GMT-0400 (Eastern Daylight Time)","263922","","null","","","","FIX","","<div class='trialBorder'><div class='vertical-center'><img style='vertical-align:center; align:center' src=img/fixation3.jpg></div></div>","null","","","","","",""
"html-keyboard-response","62","113269","0.0-5.0-2.19","6400ed09421b2727c2f7c553","bdp_rd","Sat Mar 25 2023 22:20:20 GMT-0400 (Eastern Daylight Time)","263922","","2582","","","","offer","","<div class='trialBorder'><div class='vertical-center'><img style='vertical-align:center; align:center' src=img/fixation3.jpg></div><div class='cl'><div class='vertical-center'>$68<br>with a<br>50% chance</div></div><div class='cr'><div class='vertical-center'>$30<br>for<br>sure</div></div><div class='respDivL'><div class='vertical-center'>(E)</div></div><div class='respDivR'><div class='vertical-center'>(I)</div></div></div>","E","$30","$68","1","30","68","RISKY"
"html-keyboard-response","63","113523","0.0-5.0-3.19","6400ed09421b2727c2f7c553","bdp_rd","Sat Mar 25 2023 22:20:20 GMT-0400 (Eastern Daylight Time)","263922","","null","","","","offerFB","","<div class='trialBorder'><div class='vertical-center'><img style='vertical-align:center; align:center' src=img/fixation3.jpg></div><div class='cl'><div class='vertical-center'><font style='color:orange'>$68<br>with a<br>50% chance</font></div></div><div class='cr'><div class='vertical-center'>$30<br>for<br>sure</div></div><div class='respDivL'><div class='vertical-center'><font style='color:orange'>(E)</font></div></div><div class='respDivR'><div class='vertical-center'>(I)</div></div></div>","null","$30","$68","1","30","68",""
"html-keyboard-response","64","114030","0.0-5.0-1.20","6400ed09421b2727c2f7c553","bdp_rd","Sat Mar 25 2023 22:20:20 GMT-0400 (Eastern Daylight Time)","263922","","null","","","","FIX","","<div class='trialBorder'><div class='vertical-center'><img style='vertical-align:center; align:center' src=img/fixation3.jpg></div></div>","null","","","","","",""
"html-keyboard-response","65","116356","0.0-5.0-2.20","6400ed09421b2727c2f7c553","bdp_rd","Sat Mar 25 2023 22:20:20 GMT-0400 (Eastern Daylight Time)","263922","","2324","","","","offer","","<div class='trialBorder'><div class='vertical-center'><img style='vertical-align:center; align:center' src=img/fixation3.jpg></div><div class='cl'><div class='vertical-center'>$13<br>with a<br>50% chance</div></div><div class='cr'><div class='vertical-center'>$6<br>for<br>sure</div></div><div class='respDivL'><div class='vertical-center'>(E)</div></div><div class='respDivR'><div class='vertical-center'>(I)</div></div></div>","E","$6","$13","1","6","13","RISKY"
"html-keyboard-response","66","116608","0.0-5.0-3.20","6400ed09421b2727c2f7c553","bdp_rd","Sat Mar 25 2023 22:20:20 GMT-0400 (Eastern Daylight Time)","263922","","null","","","","offerFB","","<div class='trialBorder'><div class='vertical-center'><img style='vertical-align:center; align:center' src=img/fixation3.jpg></div><div class='cl'><div class='vertical-center'><font style='color:orange'>$13<br>with a<br>50% chance</font></div></div><div class='cr'><div class='vertical-center'>$6<br>for<br>sure</div></div><div class='respDivL'><div class='vertical-center'><font style='color:orange'>(E)</font></div></div><div class='respDivR'><div class='vertical-center'>(I)</div></div></div>","null","$6","$13","1","6","13",""
"html-keyboard-response","67","117111","0.0-5.0-1.21","6400ed09421b2727c2f7c553","bdp_rd","Sat Mar 25 2023 22:20:20 GMT-0400 (Eastern Daylight Time)","263922","","null","","","","FIX","","<div class='trialBorder'><div class='vertical-center'><img style='vertical-align:center; align:center' src=img/fixation3.jpg></div></div>","null","","","","","",""
"html-keyboard-response","68","119994","0.0-5.0-2.21","6400ed09421b2727c2f7c553","bdp_rd","Sat Mar 25 2023 22:20:20 GMT-0400 (Eastern Daylight Time)","263922","","2881","","","","offer","","<div class='trialBorder'><div class='vertical-center'><img style='vertical-align:center; align:center' src=img/fixation3.jpg></div><div class='cl'><div class='vertical-center'>$28<br>with a<br>50% chance</div></div><div class='cr'><div class='vertical-center'>$16<br>for<br>sure</div></div><div class='respDivL'><div class='vertical-center'>(E)</div></div><div class='respDivR'><div class='vertical-center'>(I)</div></div></div>","E","$16","$28","1","16","28","RISKY"
"html-keyboard-response","69","120247","0.0-5.0-3.21","6400ed09421b2727c2f7c553","bdp_rd","Sat Mar 25 2023 22:20:20 GMT-0400 (Eastern Daylight Time)","263922","","null","","","","offerFB","","<div class='trialBorder'><div class='vertical-center'><img style='vertical-align:center; align:center' src=img/fixation3.jpg></div><div class='cl'><div class='vertical-center'><font style='color:orange'>$28<br>with a<br>50% chance</font></div></div><div class='cr'><div class='vertical-center'>$16<br>for<br>sure</div></div><div class='respDivL'><div class='vertical-center'><font style='color:orange'>(E)</font></div></div><div class='respDivR'><div class='vertical-center'>(I)</div></div></div>","null","$16","$28","1","16","28",""
"html-keyboard-response","70","120749","0.0-5.0-1.22","6400ed09421b2727c2f7c553","bdp_rd","Sat Mar 25 2023 22:20:20 GMT-0400 (Eastern Daylight Time)","263922","","null","","","","FIX","","<div class='trialBorder'><div class='vertical-center'><img style='vertical-align:center; align:center' src=img/fixation3.jpg></div></div>","null","","","","","",""
"html-keyboard-response","71","123352","0.0-5.0-2.22","6400ed09421b2727c2f7c553","bdp_rd","Sat Mar 25 2023 22:20:20 GMT-0400 (Eastern Daylight Time)","263922","","2600","","","","offer","","<div class='trialBorder'><div class='vertical-center'><img style='vertical-align:center; align:center' src=img/fixation3.jpg></div><div class='cl'><div class='vertical-center'>$14<br>for<br>sure</div></div><div class='cr'><div class='vertical-center'>$22<br>with a<br>50% chance</div></div><div class='respDivL'><div class='vertical-center'>(E)</div></div><div class='respDivR'><div class='vertical-center'>(I)</div></div></div>","I","$14","$22","0","14","22","RISKY"
"html-keyboard-response","72","123604","0.0-5.0-3.22","6400ed09421b2727c2f7c553","bdp_rd","Sat Mar 25 2023 22:20:20 GMT-0400 (Eastern Daylight Time)","263922","","null","","","","offerFB","","<div class='trialBorder'><div class='vertical-center'><img style='vertical-align:center; align:center' src=img/fixation3.jpg></div><div class='cl'><div class='vertical-center'>$14<br>for<br>sure</div></div><div class='cr'><div class='vertical-center'><font style='color:orange'>$22<br>with a<br>50% chance</font></div></div><div class='respDivL'><div class='vertical-center'>(E)</div></div><div class='respDivR'><div class='vertical-center'><font style='color:orange'>(I)</font></div></div></div>","null","$14","$22","0","14","22",""
"html-keyboard-response","73","124107","0.0-5.0-1.23","6400ed09421b2727c2f7c553","bdp_rd","Sat Mar 25 2023 22:20:20 GMT-0400 (Eastern Daylight Time)","263922","","null","","","","FIX","","<div class='trialBorder'><div class='vertical-center'><img style='vertical-align:center; align:center' src=img/fixation3.jpg></div></div>","null","","","","","",""
"html-keyboard-response","74","126764","0.0-5.0-2.23","6400ed09421b2727c2f7c553","bdp_rd","Sat Mar 25 2023 22:20:20 GMT-0400 (Eastern Daylight Time)","263922","","2655","","","","offer","","<div class='trialBorder'><div class='vertical-center'><img style='vertical-align:center; align:center' src=img/fixation3.jpg></div><div class='cl'><div class='vertical-center'>$16<br>for<br>sure</div></div><div class='cr'><div class='vertical-center'>$38<br>with a<br>50% chance</div></div><div class='respDivL'><div class='vertical-center'>(E)</div></div><div class='respDivR'><div class='vertical-center'>(I)</div></div></div>","I","$16","$38","0","16","38","RISKY"
"html-keyboard-response","75","127018","0.0-5.0-3.23","6400ed09421b2727c2f7c553","bdp_rd","Sat Mar 25 2023 22:20:20 GMT-0400 (Eastern Daylight Time)","263922","","null","","","","offerFB","","<div class='trialBorder'><div class='vertical-center'><img style='vertical-align:center; align:center' src=img/fixation3.jpg></div><div class='cl'><div class='vertical-center'>$16<br>for<br>sure</div></div><div class='cr'><div class='vertical-center'><font style='color:orange'>$38<br>with a<br>50% chance</font></div></div><div class='respDivL'><div class='vertical-center'>(E)</div></div><div class='respDivR'><div class='vertical-center'><font style='color:orange'>(I)</font></div></div></div>","null","$16","$38","0","16","38",""
"html-keyboard-response","76","127521","0.0-5.0-1.24","6400ed09421b2727c2f7c553","bdp_rd","Sat Mar 25 2023 22:20:20 GMT-0400 (Eastern Daylight Time)","263922","","null","","","","FIX","","<div class='trialBorder'><div class='vertical-center'><img style='vertical-align:center; align:center' src=img/fixation3.jpg></div></div>","null","","","","","",""
"html-keyboard-response","77","130213","0.0-5.0-2.24","6400ed09421b2727c2f7c553","bdp_rd","Sat Mar 25 2023 22:20:20 GMT-0400 (Eastern Daylight Time)","263922","","2690","","","","offer","","<div class='trialBorder'><div class='vertical-center'><img style='vertical-align:center; align:center' src=img/fixation3.jpg></div><div class='cl'><div class='vertical-center'>$29<br>with a<br>50% chance</div></div><div class='cr'><div class='vertical-center'>$14<br>for<br>sure</div></div><div class='respDivL'><div class='vertical-center'>(E)</div></div><div class='respDivR'><div class='vertical-center'>(I)</div></div></div>","E","$14","$29","1","14","29","RISKY"
"html-keyboard-response","78","130466","0.0-5.0-3.24","6400ed09421b2727c2f7c553","bdp_rd","Sat Mar 25 2023 22:20:20 GMT-0400 (Eastern Daylight Time)","263922","","null","","","","offerFB","","<div class='trialBorder'><div class='vertical-center'><img style='vertical-align:center; align:center' src=img/fixation3.jpg></div><div class='cl'><div class='vertical-center'><font style='color:orange'>$29<br>with a<br>50% chance</font></div></div><div class='cr'><div class='vertical-center'>$14<br>for<br>sure</div></div><div class='respDivL'><div class='vertical-center'><font style='color:orange'>(E)</font></div></div><div class='respDivR'><div class='vertical-center'>(I)</div></div></div>","null","$14","$29","1","14","29",""
"html-keyboard-response","79","130968","0.0-5.0-1.25","6400ed09421b2727c2f7c553","bdp_rd","Sat Mar 25 2023 22:20:20 GMT-0400 (Eastern Daylight Time)","263922","","null","","","","FIX","","<div class='trialBorder'><div class='vertical-center'><img style='vertical-align:center; align:center' src=img/fixation3.jpg></div></div>","null","","","","","",""
"html-keyboard-response","80","134417","0.0-5.0-2.25","6400ed09421b2727c2f7c553","bdp_rd","Sat Mar 25 2023 22:20:20 GMT-0400 (Eastern Daylight Time)","263922","","3447","","","","offer","","<div class='trialBorder'><div class='vertical-center'><img style='vertical-align:center; align:center' src=img/fixation3.jpg></div><div class='cl'><div class='vertical-center'>$25<br>with a<br>50% chance</div></div><div class='cr'><div class='vertical-center'>$21<br>for<br>sure</div></div><div class='respDivL'><div class='vertical-center'>(E)</div></div><div class='respDivR'><div class='vertical-center'>(I)</div></div></div>","E","$21","$25","1","21","25","RISKY"
"html-keyboard-response","81","134669","0.0-5.0-3.25","6400ed09421b2727c2f7c553","bdp_rd","Sat Mar 25 2023 22:20:20 GMT-0400 (Eastern Daylight Time)","263922","","null","","","","offerFB","","<div class='trialBorder'><div class='vertical-center'><img style='vertical-align:center; align:center' src=img/fixation3.jpg></div><div class='cl'><div class='vertical-center'><font style='color:orange'>$25<br>with a<br>50% chance</font></div></div><div class='cr'><div class='vertical-center'>$21<br>for<br>sure</div></div><div class='respDivL'><div class='vertical-center'><font style='color:orange'>(E)</font></div></div><div class='respDivR'><div class='vertical-center'>(I)</div></div></div>","null","$21","$25","1","21","25",""
"html-keyboard-response","82","135172","0.0-5.0-1.26","6400ed09421b2727c2f7c553","bdp_rd","Sat Mar 25 2023 22:20:20 GMT-0400 (Eastern Daylight Time)","263922","","null","","","","FIX","","<div class='trialBorder'><div class='vertical-center'><img style='vertical-align:center; align:center' src=img/fixation3.jpg></div></div>","null","","","","","",""
"html-keyboard-response","83","141486","0.0-5.0-2.26","6400ed09421b2727c2f7c553","bdp_rd","Sat Mar 25 2023 22:20:20 GMT-0400 (Eastern Daylight Time)","263922","","6312","","","","offer","","<div class='trialBorder'><div class='vertical-center'><img style='vertical-align:center; align:center' src=img/fixation3.jpg></div><div class='cl'><div class='vertical-center'>$17<br>for<br>sure</div></div><div class='cr'><div class='vertical-center'>$43<br>with a<br>50% chance</div></div><div class='respDivL'><div class='vertical-center'>(E)</div></div><div class='respDivR'><div class='vertical-center'>(I)</div></div></div>","I","$17","$43","0","17","43","RISKY"
"html-keyboard-response","84","141739","0.0-5.0-3.26","6400ed09421b2727c2f7c553","bdp_rd","Sat Mar 25 2023 22:20:20 GMT-0400 (Eastern Daylight Time)","263922","","null","","","","offerFB","","<div class='trialBorder'><div class='vertical-center'><img style='vertical-align:center; align:center' src=img/fixation3.jpg></div><div class='cl'><div class='vertical-center'>$17<br>for<br>sure</div></div><div class='cr'><div class='vertical-center'><font style='color:orange'>$43<br>with a<br>50% chance</font></div></div><div class='respDivL'><div class='vertical-center'>(E)</div></div><div class='respDivR'><div class='vertical-center'><font style='color:orange'>(I)</font></div></div></div>","null","$17","$43","0","17","43",""
"html-keyboard-response","85","142241","0.0-5.0-1.27","6400ed09421b2727c2f7c553","bdp_rd","Sat Mar 25 2023 22:20:20 GMT-0400 (Eastern Daylight Time)","263922","","null","","","","FIX","","<div class='trialBorder'><div class='vertical-center'><img style='vertical-align:center; align:center' src=img/fixation3.jpg></div></div>","null","","","","","",""
"html-keyboard-response","86","145889","0.0-5.0-2.27","6400ed09421b2727c2f7c553","bdp_rd","Sat Mar 25 2023 22:20:20 GMT-0400 (Eastern Daylight Time)","263922","","3646","","","","offer","","<div class='trialBorder'><div class='vertical-center'><img style='vertical-align:center; align:center' src=img/fixation3.jpg></div><div class='cl'><div class='vertical-center'>$23<br>with a<br>50% chance</div></div><div class='cr'><div class='vertical-center'>$8<br>for<br>sure</div></div><div class='respDivL'><div class='vertical-center'>(E)</div></div><div class='respDivR'><div class='vertical-center'>(I)</div></div></div>","E","$8","$23","1","8","23","RISKY"
"html-keyboard-response","87","146143","0.0-5.0-3.27","6400ed09421b2727c2f7c553","bdp_rd","Sat Mar 25 2023 22:20:20 GMT-0400 (Eastern Daylight Time)","263922","","null","","","","offerFB","","<div class='trialBorder'><div class='vertical-center'><img style='vertical-align:center; align:center' src=img/fixation3.jpg></div><div class='cl'><div class='vertical-center'><font style='color:orange'>$23<br>with a<br>50% chance</font></div></div><div class='cr'><div class='vertical-center'>$8<br>for<br>sure</div></div><div class='respDivL'><div class='vertical-center'><font style='color:orange'>(E)</font></div></div><div class='respDivR'><div class='vertical-center'>(I)</div></div></div>","null","$8","$23","1","8","23",""
"html-keyboard-response","88","146645","0.0-5.0-1.28","6400ed09421b2727c2f7c553","bdp_rd","Sat Mar 25 2023 22:20:20 GMT-0400 (Eastern Daylight Time)","263922","","null","","","","FIX","","<div class='trialBorder'><div class='vertical-center'><img style='vertical-align:center; align:center' src=img/fixation3.jpg></div></div>","null","","","","","",""
"html-keyboard-response","89","151179","0.0-5.0-2.28","6400ed09421b2727c2f7c553","bdp_rd","Sat Mar 25 2023 22:20:20 GMT-0400 (Eastern Daylight Time)","263922","","4532","","","","offer","","<div class='trialBorder'><div class='vertical-center'><img style='vertical-align:center; align:center' src=img/fixation3.jpg></div><div class='cl'><div class='vertical-center'>$3<br>for<br>sure</div></div><div class='cr'><div class='vertical-center'>$12<br>with a<br>50% chance</div></div><div class='respDivL'><div class='vertical-center'>(E)</div></div><div class='respDivR'><div class='vertical-center'>(I)</div></div></div>","I","$3","$12","0","3","12","RISKY"
"html-keyboard-response","90","151432","0.0-5.0-3.28","6400ed09421b2727c2f7c553","bdp_rd","Sat Mar 25 2023 22:20:20 GMT-0400 (Eastern Daylight Time)","263922","","null","","","","offerFB","","<div class='trialBorder'><div class='vertical-center'><img style='vertical-align:center; align:center' src=img/fixation3.jpg></div><div class='cl'><div class='vertical-center'>$3<br>for<br>sure</div></div><div class='cr'><div class='vertical-center'><font style='color:orange'>$12<br>with a<br>50% chance</font></div></div><div class='respDivL'><div class='vertical-center'>(E)</div></div><div class='respDivR'><div class='vertical-center'><font style='color:orange'>(I)</font></div></div></div>","null","$3","$12","0","3","12",""
"html-keyboard-response","91","151935","0.0-5.0-1.29","6400ed09421b2727c2f7c553","bdp_rd","Sat Mar 25 2023 22:20:20 GMT-0400 (Eastern Daylight Time)","263922","","null","","","","FIX","","<div class='trialBorder'><div class='vertical-center'><img style='vertical-align:center; align:center' src=img/fixation3.jpg></div></div>","null","","","","","",""
"html-keyboard-response","92","155333","0.0-5.0-2.29","6400ed09421b2727c2f7c553","bdp_rd","Sat Mar 25 2023 22:20:20 GMT-0400 (Eastern Daylight Time)","263922","","3396","","","","offer","","<div class='trialBorder'><div class='vertical-center'><img style='vertical-align:center; align:center' src=img/fixation3.jpg></div><div class='cl'><div class='vertical-center'>$78<br>with a<br>50% chance</div></div><div class='cr'><div class='vertical-center'>$31<br>for<br>sure</div></div><div class='respDivL'><div class='vertical-center'>(E)</div></div><div class='respDivR'><div class='vertical-center'>(I)</div></div></div>","E","$31","$78","1","31","78","RISKY"
"html-keyboard-response","93","155586","0.0-5.0-3.29","6400ed09421b2727c2f7c553","bdp_rd","Sat Mar 25 2023 22:20:20 GMT-0400 (Eastern Daylight Time)","263922","","null","","","","offerFB","","<div class='trialBorder'><div class='vertical-center'><img style='vertical-align:center; align:center' src=img/fixation3.jpg></div><div class='cl'><div class='vertical-center'><font style='color:orange'>$78<br>with a<br>50% chance</font></div></div><div class='cr'><div class='vertical-center'>$31<br>for<br>sure</div></div><div class='respDivL'><div class='vertical-center'><font style='color:orange'>(E)</font></div></div><div class='respDivR'><div class='vertical-center'>(I)</div></div></div>","null","$31","$78","1","31","78",""
"html-keyboard-response","94","156088","0.0-5.0-1.30","6400ed09421b2727c2f7c553","bdp_rd","Sat Mar 25 2023 22:20:20 GMT-0400 (Eastern Daylight Time)","263922","","null","","","","FIX","","<div class='trialBorder'><div class='vertical-center'><img style='vertical-align:center; align:center' src=img/fixation3.jpg></div></div>","null","","","","","",""
"html-keyboard-response","95","163379","0.0-5.0-2.30","6400ed09421b2727c2f7c553","bdp_rd","Sat Mar 25 2023 22:20:20 GMT-0400 (Eastern Daylight Time)","263922","","7289","","","","offer","","<div class='trialBorder'><div class='vertical-center'><img style='vertical-align:center; align:center' src=img/fixation3.jpg></div><div class='cl'><div class='vertical-center'>$12<br>for<br>sure</div></div><div class='cr'><div class='vertical-center'>$35<br>with a<br>50% chance</div></div><div class='respDivL'><div class='vertical-center'>(E)</div></div><div class='respDivR'><div class='vertical-center'>(I)</div></div></div>","I","$12","$35","0","12","35","RISKY"
"html-keyboard-response","96","163633","0.0-5.0-3.30","6400ed09421b2727c2f7c553","bdp_rd","Sat Mar 25 2023 22:20:20 GMT-0400 (Eastern Daylight Time)","263922","","null","","","","offerFB","","<div class='trialBorder'><div class='vertical-center'><img style='vertical-align:center; align:center' src=img/fixation3.jpg></div><div class='cl'><div class='vertical-center'>$12<br>for<br>sure</div></div><div class='cr'><div class='vertical-center'><font style='color:orange'>$35<br>with a<br>50% chance</font></div></div><div class='respDivL'><div class='vertical-center'>(E)</div></div><div class='respDivR'><div class='vertical-center'><font style='color:orange'>(I)</font></div></div></div>","null","$12","$35","0","12","35",""
"html-keyboard-response","97","164136","0.0-5.0-1.31","6400ed09421b2727c2f7c553","bdp_rd","Sat Mar 25 2023 22:20:20 GMT-0400 (Eastern Daylight Time)","263922","","null","","","","FIX","","<div class='trialBorder'><div class='vertical-center'><img style='vertical-align:center; align:center' src=img/fixation3.jpg></div></div>","null","","","","","",""
"html-keyboard-response","98","166467","0.0-5.0-2.31","6400ed09421b2727c2f7c553","bdp_rd","Sat Mar 25 2023 22:20:20 GMT-0400 (Eastern Daylight Time)","263922","","2329","","","","offer","","<div class='trialBorder'><div class='vertical-center'><img style='vertical-align:center; align:center' src=img/fixation3.jpg></div><div class='cl'><div class='vertical-center'>$64<br>with a<br>50% chance</div></div><div class='cr'><div class='vertical-center'>$2<br>for<br>sure</div></div><div class='respDivL'><div class='vertical-center'>(E)</div></div><div class='respDivR'><div class='vertical-center'>(I)</div></div></div>","E","$2","$64","1","2","64","RISKY"
"html-keyboard-response","99","166719","0.0-5.0-3.31","6400ed09421b2727c2f7c553","bdp_rd","Sat Mar 25 2023 22:20:20 GMT-0400 (Eastern Daylight Time)","263922","","null","","","","offerFB","","<div class='trialBorder'><div class='vertical-center'><img style='vertical-align:center; align:center' src=img/fixation3.jpg></div><div class='cl'><div class='vertical-center'><font style='color:orange'>$64<br>with a<br>50% chance</font></div></div><div class='cr'><div class='vertical-center'>$2<br>for<br>sure</div></div><div class='respDivL'><div class='vertical-center'><font style='color:orange'>(E)</font></div></div><div class='respDivR'><div class='vertical-center'>(I)</div></div></div>","null","$2","$64","1","2","64",""
"html-keyboard-response","100","167221","0.0-5.0-1.32","6400ed09421b2727c2f7c553","bdp_rd","Sat Mar 25 2023 22:20:20 GMT-0400 (Eastern Daylight Time)","263922","","null","","","","FIX","","<div class='trialBorder'><div class='vertical-center'><img style='vertical-align:center; align:center' src=img/fixation3.jpg></div></div>","null","","","","","",""
"html-keyboard-response","101","173014","0.0-5.0-2.32","6400ed09421b2727c2f7c553","bdp_rd","Sat Mar 25 2023 22:20:20 GMT-0400 (Eastern Daylight Time)","263922","","5792","","","","offer","","<div class='trialBorder'><div class='vertical-center'><img style='vertical-align:center; align:center' src=img/fixation3.jpg></div><div class='cl'><div class='vertical-center'>$32<br>with a<br>50% chance</div></div><div class='cr'><div class='vertical-center'>$9<br>for<br>sure</div></div><div class='respDivL'><div class='vertical-center'>(E)</div></div><div class='respDivR'><div class='vertical-center'>(I)</div></div></div>","E","$9","$32","1","9","32","RISKY"
"html-keyboard-response","102","173269","0.0-5.0-3.32","6400ed09421b2727c2f7c553","bdp_rd","Sat Mar 25 2023 22:20:20 GMT-0400 (Eastern Daylight Time)","263922","","null","","","","offerFB","","<div class='trialBorder'><div class='vertical-center'><img style='vertical-align:center; align:center' src=img/fixation3.jpg></div><div class='cl'><div class='vertical-center'><font style='color:orange'>$32<br>with a<br>50% chance</font></div></div><div class='cr'><div class='vertical-center'>$9<br>for<br>sure</div></div><div class='respDivL'><div class='vertical-center'><font style='color:orange'>(E)</font></div></div><div class='respDivR'><div class='vertical-center'>(I)</div></div></div>","null","$9","$32","1","9","32",""
"html-keyboard-response","103","173771","0.0-5.0-1.33","6400ed09421b2727c2f7c553","bdp_rd","Sat Mar 25 2023 22:20:20 GMT-0400 (Eastern Daylight Time)","263922","","null","","","","FIX","","<div class='trialBorder'><div class='vertical-center'><img style='vertical-align:center; align:center' src=img/fixation3.jpg></div></div>","null","","","","","",""
"html-keyboard-response","104","177369","0.0-5.0-2.33","6400ed09421b2727c2f7c553","bdp_rd","Sat Mar 25 2023 22:20:20 GMT-0400 (Eastern Daylight Time)","263922","","3596","","","","offer","","<div class='trialBorder'><div class='vertical-center'><img style='vertical-align:center; align:center' src=img/fixation3.jpg></div><div class='cl'><div class='vertical-center'>$65<br>with a<br>50% chance</div></div><div class='cr'><div class='vertical-center'>$46<br>for<br>sure</div></div><div class='respDivL'><div class='vertical-center'>(E)</div></div><div class='respDivR'><div class='vertical-center'>(I)</div></div></div>","I","$46","$65","1","46","65","SURE"
"html-keyboard-response","105","177622","0.0-5.0-3.33","6400ed09421b2727c2f7c553","bdp_rd","Sat Mar 25 2023 22:20:20 GMT-0400 (Eastern Daylight Time)","263922","","null","","","","offerFB","","<div class='trialBorder'><div class='vertical-center'><img style='vertical-align:center; align:center' src=img/fixation3.jpg></div><div class='cl'><div class='vertical-center'>$65<br>with a<br>50% chance</div></div><div class='cr'><div class='vertical-center'><font style='color:orange'>$46<br>for<br>sure</font></div></div><div class='respDivL'><div class='vertical-center'>(E)</div></div><div class='respDivR'><div class='vertical-center'><font style='color:orange'>(I)</font></div></div></div>","null","$46","$65","1","46","65",""
"html-keyboard-response","106","178125","0.0-5.0-1.34","6400ed09421b2727c2f7c553","bdp_rd","Sat Mar 25 2023 22:20:20 GMT-0400 (Eastern Daylight Time)","263922","","null","","","","FIX","","<div class='trialBorder'><div class='vertical-center'><img style='vertical-align:center; align:center' src=img/fixation3.jpg></div></div>","null","","","","","",""
"html-keyboard-response","107","183499","0.0-5.0-2.34","6400ed09421b2727c2f7c553","bdp_rd","Sat Mar 25 2023 22:20:20 GMT-0400 (Eastern Daylight Time)","263922","","5372","","","","offer","","<div class='trialBorder'><div class='vertical-center'><img style='vertical-align:center; align:center' src=img/fixation3.jpg></div><div class='cl'><div class='vertical-center'>$11<br>for<br>sure</div></div><div class='cr'><div class='vertical-center'>$62<br>with a<br>50% chance</div></div><div class='respDivL'><div class='vertical-center'>(E)</div></div><div class='respDivR'><div class='vertical-center'>(I)</div></div></div>","I","$11","$62","0","11","62","RISKY"
"html-keyboard-response","108","183753","0.0-5.0-3.34","6400ed09421b2727c2f7c553","bdp_rd","Sat Mar 25 2023 22:20:20 GMT-0400 (Eastern Daylight Time)","263922","","null","","","","offerFB","","<div class='trialBorder'><div class='vertical-center'><img style='vertical-align:center; align:center' src=img/fixation3.jpg></div><div class='cl'><div class='vertical-center'>$11<br>for<br>sure</div></div><div class='cr'><div class='vertical-center'><font style='color:orange'>$62<br>with a<br>50% chance</font></div></div><div class='respDivL'><div class='vertical-center'>(E)</div></div><div class='respDivR'><div class='vertical-center'><font style='color:orange'>(I)</font></div></div></div>","null","$11","$62","0","11","62",""
"html-keyboard-response","109","184255","0.0-5.0-1.35","6400ed09421b2727c2f7c553","bdp_rd","Sat Mar 25 2023 22:20:20 GMT-0400 (Eastern Daylight Time)","263922","","null","","","","FIX","","<div class='trialBorder'><div class='vertical-center'><img style='vertical-align:center; align:center' src=img/fixation3.jpg></div></div>","null","","","","","",""
"html-keyboard-response","110","185951","0.0-5.0-2.35","6400ed09421b2727c2f7c553","bdp_rd","Sat Mar 25 2023 22:20:20 GMT-0400 (Eastern Daylight Time)","263922","","1694","","","","offer","","<div class='trialBorder'><div class='vertical-center'><img style='vertical-align:center; align:center' src=img/fixation3.jpg></div><div class='cl'><div class='vertical-center'>$8<br>for<br>sure</div></div><div class='cr'><div class='vertical-center'>$45<br>with a<br>50% chance</div></div><div class='respDivL'><div class='vertical-center'>(E)</div></div><div class='respDivR'><div class='vertical-center'>(I)</div></div></div>","I","$8","$45","0","8","45","RISKY"
"html-keyboard-response","111","186204","0.0-5.0-3.35","6400ed09421b2727c2f7c553","bdp_rd","Sat Mar 25 2023 22:20:20 GMT-0400 (Eastern Daylight Time)","263922","","null","","","","offerFB","","<div class='trialBorder'><div class='vertical-center'><img style='vertical-align:center; align:center' src=img/fixation3.jpg></div><div class='cl'><div class='vertical-center'>$8<br>for<br>sure</div></div><div class='cr'><div class='vertical-center'><font style='color:orange'>$45<br>with a<br>50% chance</font></div></div><div class='respDivL'><div class='vertical-center'>(E)</div></div><div class='respDivR'><div class='vertical-center'><font style='color:orange'>(I)</font></div></div></div>","null","$8","$45","0","8","45",""
"html-keyboard-response","112","186707","0.0-5.0-1.36","6400ed09421b2727c2f7c553","bdp_rd","Sat Mar 25 2023 22:20:20 GMT-0400 (Eastern Daylight Time)","263922","","null","","","","FIX","","<div class='trialBorder'><div class='vertical-center'><img style='vertical-align:center; align:center' src=img/fixation3.jpg></div></div>","null","","","","","",""
"html-keyboard-response","113","189360","0.0-5.0-2.36","6400ed09421b2727c2f7c553","bdp_rd","Sat Mar 25 2023 22:20:20 GMT-0400 (Eastern Daylight Time)","263922","","2652","","","","offer","","<div class='trialBorder'><div class='vertical-center'><img style='vertical-align:center; align:center' src=img/fixation3.jpg></div><div class='cl'><div class='vertical-center'>$11<br>with a<br>50% chance</div></div><div class='cr'><div class='vertical-center'>$4<br>for<br>sure</div></div><div class='respDivL'><div class='vertical-center'>(E)</div></div><div class='respDivR'><div class='vertical-center'>(I)</div></div></div>","E","$4","$11","1","4","11","RISKY"
"html-keyboard-response","114","189613","0.0-5.0-3.36","6400ed09421b2727c2f7c553","bdp_rd","Sat Mar 25 2023 22:20:20 GMT-0400 (Eastern Daylight Time)","263922","","null","","","","offerFB","","<div class='trialBorder'><div class='vertical-center'><img style='vertical-align:center; align:center' src=img/fixation3.jpg></div><div class='cl'><div class='vertical-center'><font style='color:orange'>$11<br>with a<br>50% chance</font></div></div><div class='cr'><div class='vertical-center'>$4<br>for<br>sure</div></div><div class='respDivL'><div class='vertical-center'><font style='color:orange'>(E)</font></div></div><div class='respDivR'><div class='vertical-center'>(I)</div></div></div>","null","$4","$11","1","4","11",""
"html-keyboard-response","115","190116","0.0-5.0-1.37","6400ed09421b2727c2f7c553","bdp_rd","Sat Mar 25 2023 22:20:20 GMT-0400 (Eastern Daylight Time)","263922","","null","","","","FIX","","<div class='trialBorder'><div class='vertical-center'><img style='vertical-align:center; align:center' src=img/fixation3.jpg></div></div>","null","","","","","",""
"html-keyboard-response","116","191482","0.0-5.0-2.37","6400ed09421b2727c2f7c553","bdp_rd","Sat Mar 25 2023 22:20:20 GMT-0400 (Eastern Daylight Time)","263922","","1364","","","","offer","","<div class='trialBorder'><div class='vertical-center'><img style='vertical-align:center; align:center' src=img/fixation3.jpg></div><div class='cl'><div class='vertical-center'>$92<br>with a<br>50% chance</div></div><div class='cr'><div class='vertical-center'>$26<br>for<br>sure</div></div><div class='respDivL'><div class='vertical-center'>(E)</div></div><div class='respDivR'><div class='vertical-center'>(I)</div></div></div>","E","$26","$92","1","26","92","RISKY"
"html-keyboard-response","117","191735","0.0-5.0-3.37","6400ed09421b2727c2f7c553","bdp_rd","Sat Mar 25 2023 22:20:20 GMT-0400 (Eastern Daylight Time)","263922","","null","","","","offerFB","","<div class='trialBorder'><div class='vertical-center'><img style='vertical-align:center; align:center' src=img/fixation3.jpg></div><div class='cl'><div class='vertical-center'><font style='color:orange'>$92<br>with a<br>50% chance</font></div></div><div class='cr'><div class='vertical-center'>$26<br>for<br>sure</div></div><div class='respDivL'><div class='vertical-center'><font style='color:orange'>(E)</font></div></div><div class='respDivR'><div class='vertical-center'>(I)</div></div></div>","null","$26","$92","1","26","92",""
"html-keyboard-response","118","192238","0.0-5.0-1.38","6400ed09421b2727c2f7c553","bdp_rd","Sat Mar 25 2023 22:20:20 GMT-0400 (Eastern Daylight Time)","263922","","null","","","","FIX","","<div class='trialBorder'><div class='vertical-center'><img style='vertical-align:center; align:center' src=img/fixation3.jpg></div></div>","null","","","","","",""
"html-keyboard-response","119","195017","0.0-5.0-2.38","6400ed09421b2727c2f7c553","bdp_rd","Sat Mar 25 2023 22:20:20 GMT-0400 (Eastern Daylight Time)","263922","","2778","","","","offer","","<div class='trialBorder'><div class='vertical-center'><img style='vertical-align:center; align:center' src=img/fixation3.jpg></div><div class='cl'><div class='vertical-center'>$39<br>for<br>sure</div></div><div class='cr'><div class='vertical-center'>$81<br>with a<br>50% chance</div></div><div class='respDivL'><div class='vertical-center'>(E)</div></div><div class='respDivR'><div class='vertical-center'>(I)</div></div></div>","I","$39","$81","0","39","81","RISKY"
"html-keyboard-response","120","195270","0.0-5.0-3.38","6400ed09421b2727c2f7c553","bdp_rd","Sat Mar 25 2023 22:20:20 GMT-0400 (Eastern Daylight Time)","263922","","null","","","","offerFB","","<div class='trialBorder'><div class='vertical-center'><img style='vertical-align:center; align:center' src=img/fixation3.jpg></div><div class='cl'><div class='vertical-center'>$39<br>for<br>sure</div></div><div class='cr'><div class='vertical-center'><font style='color:orange'>$81<br>with a<br>50% chance</font></div></div><div class='respDivL'><div class='vertical-center'>(E)</div></div><div class='respDivR'><div class='vertical-center'><font style='color:orange'>(I)</font></div></div></div>","null","$39","$81","0","39","81",""
"html-keyboard-response","121","195773","0.0-5.0-1.39","6400ed09421b2727c2f7c553","bdp_rd","Sat Mar 25 2023 22:20:20 GMT-0400 (Eastern Daylight Time)","263922","","null","","","","FIX","","<div class='trialBorder'><div class='vertical-center'><img style='vertical-align:center; align:center' src=img/fixation3.jpg></div></div>","null","","","","","",""
"html-keyboard-response","122","197621","0.0-5.0-2.39","6400ed09421b2727c2f7c553","bdp_rd","Sat Mar 25 2023 22:20:20 GMT-0400 (Eastern Daylight Time)","263922","","1846","","","","offer","","<div class='trialBorder'><div class='vertical-center'><img style='vertical-align:center; align:center' src=img/fixation3.jpg></div><div class='cl'><div class='vertical-center'>$45<br>for<br>sure</div></div><div class='cr'><div class='vertical-center'>$86<br>with a<br>50% chance</div></div><div class='respDivL'><div class='vertical-center'>(E)</div></div><div class='respDivR'><div class='vertical-center'>(I)</div></div></div>","I","$45","$86","0","45","86","RISKY"
"html-keyboard-response","123","197873","0.0-5.0-3.39","6400ed09421b2727c2f7c553","bdp_rd","Sat Mar 25 2023 22:20:20 GMT-0400 (Eastern Daylight Time)","263922","","null","","","","offerFB","","<div class='trialBorder'><div class='vertical-center'><img style='vertical-align:center; align:center' src=img/fixation3.jpg></div><div class='cl'><div class='vertical-center'>$45<br>for<br>sure</div></div><div class='cr'><div class='vertical-center'><font style='color:orange'>$86<br>with a<br>50% chance</font></div></div><div class='respDivL'><div class='vertical-center'>(E)</div></div><div class='respDivR'><div class='vertical-center'><font style='color:orange'>(I)</font></div></div></div>","null","$45","$86","0","45","86",""
"html-keyboard-response","124","198375","0.0-5.0-1.40","6400ed09421b2727c2f7c553","bdp_rd","Sat Mar 25 2023 22:20:20 GMT-0400 (Eastern Daylight Time)","263922","","null","","","","FIX","","<div class='trialBorder'><div class='vertical-center'><img style='vertical-align:center; align:center' src=img/fixation3.jpg></div></div>","null","","","","","",""
"html-keyboard-response","125","201132","0.0-5.0-2.40","6400ed09421b2727c2f7c553","bdp_rd","Sat Mar 25 2023 22:20:20 GMT-0400 (Eastern Daylight Time)","263922","","2753","","","","offer","","<div class='trialBorder'><div class='vertical-center'><img style='vertical-align:center; align:center' src=img/fixation3.jpg></div><div class='cl'><div class='vertical-center'>$40<br>with a<br>50% chance</div></div><div class='cr'><div class='vertical-center'>$10<br>for<br>sure</div></div><div class='respDivL'><div class='vertical-center'>(E)</div></div><div class='respDivR'><div class='vertical-center'>(I)</div></div></div>","E","$10","$40","1","10","40","RISKY"
"html-keyboard-response","126","201386","0.0-5.0-3.40","6400ed09421b2727c2f7c553","bdp_rd","Sat Mar 25 2023 22:20:20 GMT-0400 (Eastern Daylight Time)","263922","","null","","","","offerFB","","<div class='trialBorder'><div class='vertical-center'><img style='vertical-align:center; align:center' src=img/fixation3.jpg></div><div class='cl'><div class='vertical-center'><font style='color:orange'>$40<br>with a<br>50% chance</font></div></div><div class='cr'><div class='vertical-center'>$10<br>for<br>sure</div></div><div class='respDivL'><div class='vertical-center'><font style='color:orange'>(E)</font></div></div><div class='respDivR'><div class='vertical-center'>(I)</div></div></div>","null","$10","$40","1","10","40",""
"html-keyboard-response","127","201888","0.0-5.0-1.41","6400ed09421b2727c2f7c553","bdp_rd","Sat Mar 25 2023 22:20:20 GMT-0400 (Eastern Daylight Time)","263922","","null","","","","FIX","","<div class='trialBorder'><div class='vertical-center'><img style='vertical-align:center; align:center' src=img/fixation3.jpg></div></div>","null","","","","","",""
"html-keyboard-response","128","203696","0.0-5.0-2.41","6400ed09421b2727c2f7c553","bdp_rd","Sat Mar 25 2023 22:20:20 GMT-0400 (Eastern Daylight Time)","263922","","1807","","","","offer","","<div class='trialBorder'><div class='vertical-center'><img style='vertical-align:center; align:center' src=img/fixation3.jpg></div><div class='cl'><div class='vertical-center'>$6<br>for<br>sure</div></div><div class='cr'><div class='vertical-center'>$15<br>with a<br>50% chance</div></div><div class='respDivL'><div class='vertical-center'>(E)</div></div><div class='respDivR'><div class='vertical-center'>(I)</div></div></div>","I","$6","$15","0","6","15","RISKY"
"html-keyboard-response","129","203949","0.0-5.0-3.41","6400ed09421b2727c2f7c553","bdp_rd","Sat Mar 25 2023 22:20:20 GMT-0400 (Eastern Daylight Time)","263922","","null","","","","offerFB","","<div class='trialBorder'><div class='vertical-center'><img style='vertical-align:center; align:center' src=img/fixation3.jpg></div><div class='cl'><div class='vertical-center'>$6<br>for<br>sure</div></div><div class='cr'><div class='vertical-center'><font style='color:orange'>$15<br>with a<br>50% chance</font></div></div><div class='respDivL'><div class='vertical-center'>(E)</div></div><div class='respDivR'><div class='vertical-center'><font style='color:orange'>(I)</font></div></div></div>","null","$6","$15","0","6","15",""
"html-keyboard-response","130","204452","0.0-5.0-1.42","6400ed09421b2727c2f7c553","bdp_rd","Sat Mar 25 2023 22:20:20 GMT-0400 (Eastern Daylight Time)","263922","","null","","","","FIX","","<div class='trialBorder'><div class='vertical-center'><img style='vertical-align:center; align:center' src=img/fixation3.jpg></div></div>","null","","","","","",""
"html-keyboard-response","131","205988","0.0-5.0-2.42","6400ed09421b2727c2f7c553","bdp_rd","Sat Mar 25 2023 22:20:20 GMT-0400 (Eastern Daylight Time)","263922","","1534","","","","offer","","<div class='trialBorder'><div class='vertical-center'><img style='vertical-align:center; align:center' src=img/fixation3.jpg></div><div class='cl'><div class='vertical-center'>$21<br>with a<br>50% chance</div></div><div class='cr'><div class='vertical-center'>$2<br>for<br>sure</div></div><div class='respDivL'><div class='vertical-center'>(E)</div></div><div class='respDivR'><div class='vertical-center'>(I)</div></div></div>","E","$2","$21","1","2","21","RISKY"
"html-keyboard-response","132","206241","0.0-5.0-3.42","6400ed09421b2727c2f7c553","bdp_rd","Sat Mar 25 2023 22:20:20 GMT-0400 (Eastern Daylight Time)","263922","","null","","","","offerFB","","<div class='trialBorder'><div class='vertical-center'><img style='vertical-align:center; align:center' src=img/fixation3.jpg></div><div class='cl'><div class='vertical-center'><font style='color:orange'>$21<br>with a<br>50% chance</font></div></div><div class='cr'><div class='vertical-center'>$2<br>for<br>sure</div></div><div class='respDivL'><div class='vertical-center'><font style='color:orange'>(E)</font></div></div><div class='respDivR'><div class='vertical-center'>(I)</div></div></div>","null","$2","$21","1","2","21",""
"html-keyboard-response","133","206744","0.0-5.0-1.43","6400ed09421b2727c2f7c553","bdp_rd","Sat Mar 25 2023 22:20:20 GMT-0400 (Eastern Daylight Time)","263922","","null","","","","FIX","","<div class='trialBorder'><div class='vertical-center'><img style='vertical-align:center; align:center' src=img/fixation3.jpg></div></div>","null","","","","","",""
"html-keyboard-response","134","209203","0.0-5.0-2.43","6400ed09421b2727c2f7c553","bdp_rd","Sat Mar 25 2023 22:20:20 GMT-0400 (Eastern Daylight Time)","263922","","2458","","","","offer","","<div class='trialBorder'><div class='vertical-center'><img style='vertical-align:center; align:center' src=img/fixation3.jpg></div><div class='cl'><div class='vertical-center'>$33<br>with a<br>50% chance</div></div><div class='cr'><div class='vertical-center'>$1<br>for<br>sure</div></div><div class='respDivL'><div class='vertical-center'>(E)</div></div><div class='respDivR'><div class='vertical-center'>(I)</div></div></div>","E","$1","$33","1","1","33","RISKY"
"html-keyboard-response","135","209457","0.0-5.0-3.43","6400ed09421b2727c2f7c553","bdp_rd","Sat Mar 25 2023 22:20:20 GMT-0400 (Eastern Daylight Time)","263922","","null","","","","offerFB","","<div class='trialBorder'><div class='vertical-center'><img style='vertical-align:center; align:center' src=img/fixation3.jpg></div><div class='cl'><div class='vertical-center'><font style='color:orange'>$33<br>with a<br>50% chance</font></div></div><div class='cr'><div class='vertical-center'>$1<br>for<br>sure</div></div><div class='respDivL'><div class='vertical-center'><font style='color:orange'>(E)</font></div></div><div class='respDivR'><div class='vertical-center'>(I)</div></div></div>","null","$1","$33","1","1","33",""
"html-keyboard-response","136","209960","0.0-5.0-1.44","6400ed09421b2727c2f7c553","bdp_rd","Sat Mar 25 2023 22:20:20 GMT-0400 (Eastern Daylight Time)","263922","","null","","","","FIX","","<div class='trialBorder'><div class='vertical-center'><img style='vertical-align:center; align:center' src=img/fixation3.jpg></div></div>","null","","","","","",""
"html-keyboard-response","137","213172","0.0-5.0-2.44","6400ed09421b2727c2f7c553","bdp_rd","Sat Mar 25 2023 22:20:20 GMT-0400 (Eastern Daylight Time)","263922","","3210","","","","offer","","<div class='trialBorder'><div class='vertical-center'><img style='vertical-align:center; align:center' src=img/fixation3.jpg></div><div class='cl'><div class='vertical-center'>$53<br>for<br>sure</div></div><div class='cr'><div class='vertical-center'>$98<br>with a<br>50% chance</div></div><div class='respDivL'><div class='vertical-center'>(E)</div></div><div class='respDivR'><div class='vertical-center'>(I)</div></div></div>","I","$53","$98","0","53","98","RISKY"
"html-keyboard-response","138","213425","0.0-5.0-3.44","6400ed09421b2727c2f7c553","bdp_rd","Sat Mar 25 2023 22:20:20 GMT-0400 (Eastern Daylight Time)","263922","","null","","","","offerFB","","<div class='trialBorder'><div class='vertical-center'><img style='vertical-align:center; align:center' src=img/fixation3.jpg></div><div class='cl'><div class='vertical-center'>$53<br>for<br>sure</div></div><div class='cr'><div class='vertical-center'><font style='color:orange'>$98<br>with a<br>50% chance</font></div></div><div class='respDivL'><div class='vertical-center'>(E)</div></div><div class='respDivR'><div class='vertical-center'><font style='color:orange'>(I)</font></div></div></div>","null","$53","$98","0","53","98",""
"html-keyboard-response","139","213928","0.0-5.0-1.45","6400ed09421b2727c2f7c553","bdp_rd","Sat Mar 25 2023 22:20:20 GMT-0400 (Eastern Daylight Time)","263922","","null","","","","FIX","","<div class='trialBorder'><div class='vertical-center'><img style='vertical-align:center; align:center' src=img/fixation3.jpg></div></div>","null","","","","","",""
"html-keyboard-response","140","216052","0.0-5.0-2.45","6400ed09421b2727c2f7c553","bdp_rd","Sat Mar 25 2023 22:20:20 GMT-0400 (Eastern Daylight Time)","263922","","2123","","","","offer","","<div class='trialBorder'><div class='vertical-center'><img style='vertical-align:center; align:center' src=img/fixation3.jpg></div><div class='cl'><div class='vertical-center'>$7<br>for<br>sure</div></div><div class='cr'><div class='vertical-center'>$10<br>with a<br>50% chance</div></div><div class='respDivL'><div class='vertical-center'>(E)</div></div><div class='respDivR'><div class='vertical-center'>(I)</div></div></div>","I","$7","$10","0","7","10","RISKY"
"html-keyboard-response","141","216305","0.0-5.0-3.45","6400ed09421b2727c2f7c553","bdp_rd","Sat Mar 25 2023 22:20:20 GMT-0400 (Eastern Daylight Time)","263922","","null","","","","offerFB","","<div class='trialBorder'><div class='vertical-center'><img style='vertical-align:center; align:center' src=img/fixation3.jpg></div><div class='cl'><div class='vertical-center'>$7<br>for<br>sure</div></div><div class='cr'><div class='vertical-center'><font style='color:orange'>$10<br>with a<br>50% chance</font></div></div><div class='respDivL'><div class='vertical-center'>(E)</div></div><div class='respDivR'><div class='vertical-center'><font style='color:orange'>(I)</font></div></div></div>","null","$7","$10","0","7","10",""
"html-keyboard-response","142","216808","0.0-5.0-1.46","6400ed09421b2727c2f7c553","bdp_rd","Sat Mar 25 2023 22:20:20 GMT-0400 (Eastern Daylight Time)","263922","","null","","","","FIX","","<div class='trialBorder'><div class='vertical-center'><img style='vertical-align:center; align:center' src=img/fixation3.jpg></div></div>","null","","","","","",""
"html-keyboard-response","143","219584","0.0-5.0-2.46","6400ed09421b2727c2f7c553","bdp_rd","Sat Mar 25 2023 22:20:20 GMT-0400 (Eastern Daylight Time)","263922","","2774","","","","offer","","<div class='trialBorder'><div class='vertical-center'><img style='vertical-align:center; align:center' src=img/fixation3.jpg></div><div class='cl'><div class='vertical-center'>$10<br>for<br>sure</div></div><div class='cr'><div class='vertical-center'>$19<br>with a<br>50% chance</div></div><div class='respDivL'><div class='vertical-center'>(E)</div></div><div class='respDivR'><div class='vertical-center'>(I)</div></div></div>","I","$10","$19","0","10","19","RISKY"
"html-keyboard-response","144","219837","0.0-5.0-3.46","6400ed09421b2727c2f7c553","bdp_rd","Sat Mar 25 2023 22:20:20 GMT-0400 (Eastern Daylight Time)","263922","","null","","","","offerFB","","<div class='trialBorder'><div class='vertical-center'><img style='vertical-align:center; align:center' src=img/fixation3.jpg></div><div class='cl'><div class='vertical-center'>$10<br>for<br>sure</div></div><div class='cr'><div class='vertical-center'><font style='color:orange'>$19<br>with a<br>50% chance</font></div></div><div class='respDivL'><div class='vertical-center'>(E)</div></div><div class='respDivR'><div class='vertical-center'><font style='color:orange'>(I)</font></div></div></div>","null","$10","$19","0","10","19",""
"html-keyboard-response","145","220340","0.0-5.0-1.47","6400ed09421b2727c2f7c553","bdp_rd","Sat Mar 25 2023 22:20:20 GMT-0400 (Eastern Daylight Time)","263922","","null","","","","FIX","","<div class='trialBorder'><div class='vertical-center'><img style='vertical-align:center; align:center' src=img/fixation3.jpg></div></div>","null","","","","","",""
"html-keyboard-response","146","223047","0.0-5.0-2.47","6400ed09421b2727c2f7c553","bdp_rd","Sat Mar 25 2023 22:20:20 GMT-0400 (Eastern Daylight Time)","263922","","2705","","","","offer","","<div class='trialBorder'><div class='vertical-center'><img style='vertical-align:center; align:center' src=img/fixation3.jpg></div><div class='cl'><div class='vertical-center'>$37<br>for<br>sure</div></div><div class='cr'><div class='vertical-center'>$44<br>with a<br>50% chance</div></div><div class='respDivL'><div class='vertical-center'>(E)</div></div><div class='respDivR'><div class='vertical-center'>(I)</div></div></div>","E","$37","$44","0","37","44","SURE"
"html-keyboard-response","147","223301","0.0-5.0-3.47","6400ed09421b2727c2f7c553","bdp_rd","Sat Mar 25 2023 22:20:20 GMT-0400 (Eastern Daylight Time)","263922","","null","","","","offerFB","","<div class='trialBorder'><div class='vertical-center'><img style='vertical-align:center; align:center' src=img/fixation3.jpg></div><div class='cl'><div class='vertical-center'><font style='color:orange'>$37<br>for<br>sure</font></div></div><div class='cr'><div class='vertical-center'>$44<br>with a<br>50% chance</div></div><div class='respDivL'><div class='vertical-center'><font style='color:orange'>(E)</font></div></div><div class='respDivR'><div class='vertical-center'>(I)</div></div></div>","null","$37","$44","0","37","44",""
"html-keyboard-response","148","223803","0.0-5.0-1.48","6400ed09421b2727c2f7c553","bdp_rd","Sat Mar 25 2023 22:20:20 GMT-0400 (Eastern Daylight Time)","263922","","null","","","","FIX","","<div class='trialBorder'><div class='vertical-center'><img style='vertical-align:center; align:center' src=img/fixation3.jpg></div></div>","null","","","","","",""
"html-keyboard-response","149","225891","0.0-5.0-2.48","6400ed09421b2727c2f7c553","bdp_rd","Sat Mar 25 2023 22:20:20 GMT-0400 (Eastern Daylight Time)","263922","","2086","","","","offer","","<div class='trialBorder'><div class='vertical-center'><img style='vertical-align:center; align:center' src=img/fixation3.jpg></div><div class='cl'><div class='vertical-center'>$4<br>for<br>sure</div></div><div class='cr'><div class='vertical-center'>$14<br>with a<br>50% chance</div></div><div class='respDivL'><div class='vertical-center'>(E)</div></div><div class='respDivR'><div class='vertical-center'>(I)</div></div></div>","I","$4","$14","0","4","14","RISKY"
"html-keyboard-response","150","226145","0.0-5.0-3.48","6400ed09421b2727c2f7c553","bdp_rd","Sat Mar 25 2023 22:20:20 GMT-0400 (Eastern Daylight Time)","263922","","null","","","","offerFB","","<div class='trialBorder'><div class='vertical-center'><img style='vertical-align:center; align:center' src=img/fixation3.jpg></div><div class='cl'><div class='vertical-center'>$4<br>for<br>sure</div></div><div class='cr'><div class='vertical-center'><font style='color:orange'>$14<br>with a<br>50% chance</font></div></div><div class='respDivL'><div class='vertical-center'>(E)</div></div><div class='respDivR'><div class='vertical-center'><font style='color:orange'>(I)</font></div></div></div>","null","$4","$14","0","4","14",""
"html-keyboard-response","151","226648","0.0-5.0-1.49","6400ed09421b2727c2f7c553","bdp_rd","Sat Mar 25 2023 22:20:20 GMT-0400 (Eastern Daylight Time)","263922","","null","","","","FIX","","<div class='trialBorder'><div class='vertical-center'><img style='vertical-align:center; align:center' src=img/fixation3.jpg></div></div>","null","","","","","",""
"html-keyboard-response","152","230537","0.0-5.0-2.49","6400ed09421b2727c2f7c553","bdp_rd","Sat Mar 25 2023 22:20:20 GMT-0400 (Eastern Daylight Time)","263922","","3888","","","","offer","","<div class='trialBorder'><div class='vertical-center'><img style='vertical-align:center; align:center' src=img/fixation3.jpg></div><div class='cl'><div class='vertical-center'>$42<br>for<br>sure</div></div><div class='cr'><div class='vertical-center'>$73<br>with a<br>50% chance</div></div><div class='respDivL'><div class='vertical-center'>(E)</div></div><div class='respDivR'><div class='vertical-center'>(I)</div></div></div>","I","$42","$73","0","42","73","RISKY"
"html-keyboard-response","153","230790","0.0-5.0-3.49","6400ed09421b2727c2f7c553","bdp_rd","Sat Mar 25 2023 22:20:20 GMT-0400 (Eastern Daylight Time)","263922","","null","","","","offerFB","","<div class='trialBorder'><div class='vertical-center'><img style='vertical-align:center; align:center' src=img/fixation3.jpg></div><div class='cl'><div class='vertical-center'>$42<br>for<br>sure</div></div><div class='cr'><div class='vertical-center'><font style='color:orange'>$73<br>with a<br>50% chance</font></div></div><div class='respDivL'><div class='vertical-center'>(E)</div></div><div class='respDivR'><div class='vertical-center'><font style='color:orange'>(I)</font></div></div></div>","null","$42","$73","0","42","73",""
"html-keyboard-response","154","231293","0.0-5.0-1.50","6400ed09421b2727c2f7c553","bdp_rd","Sat Mar 25 2023 22:20:20 GMT-0400 (Eastern Daylight Time)","263922","","null","","","","FIX","","<div class='trialBorder'><div class='vertical-center'><img style='vertical-align:center; align:center' src=img/fixation3.jpg></div></div>","null","","","","","",""
"html-keyboard-response","155","234223","0.0-5.0-2.50","6400ed09421b2727c2f7c553","bdp_rd","Sat Mar 25 2023 22:20:20 GMT-0400 (Eastern Daylight Time)","263922","","2928","","","","offer","","<div class='trialBorder'><div class='vertical-center'><img style='vertical-align:center; align:center' src=img/fixation3.jpg></div><div class='cl'><div class='vertical-center'>$59<br>with a<br>50% chance</div></div><div class='cr'><div class='vertical-center'>$22<br>for<br>sure</div></div><div class='respDivL'><div class='vertical-center'>(E)</div></div><div class='respDivR'><div class='vertical-center'>(I)</div></div></div>","E","$22","$59","1","22","59","RISKY"
"html-keyboard-response","156","234476","0.0-5.0-3.50","6400ed09421b2727c2f7c553","bdp_rd","Sat Mar 25 2023 22:20:20 GMT-0400 (Eastern Daylight Time)","263922","","null","","","","offerFB","","<div class='trialBorder'><div class='vertical-center'><img style='vertical-align:center; align:center' src=img/fixation3.jpg></div><div class='cl'><div class='vertical-center'><font style='color:orange'>$59<br>with a<br>50% chance</font></div></div><div class='cr'><div class='vertical-center'>$22<br>for<br>sure</div></div><div class='respDivL'><div class='vertical-center'><font style='color:orange'>(E)</font></div></div><div class='respDivR'><div class='vertical-center'>(I)</div></div></div>","null","$22","$59","1","22","59",""
"html-keyboard-response","157","234978","0.0-5.0-1.51","6400ed09421b2727c2f7c553","bdp_rd","Sat Mar 25 2023 22:20:20 GMT-0400 (Eastern Daylight Time)","263922","","null","","","","FIX","","<div class='trialBorder'><div class='vertical-center'><img style='vertical-align:center; align:center' src=img/fixation3.jpg></div></div>","null","","","","","",""
"html-keyboard-response","158","237422","0.0-5.0-2.51","6400ed09421b2727c2f7c553","bdp_rd","Sat Mar 25 2023 22:20:20 GMT-0400 (Eastern Daylight Time)","263922","","2443","","","","offer","","<div class='trialBorder'><div class='vertical-center'><img style='vertical-align:center; align:center' src=img/fixation3.jpg></div><div class='cl'><div class='vertical-center'>$24<br>for<br>sure</div></div><div class='cr'><div class='vertical-center'>$70<br>with a<br>50% chance</div></div><div class='respDivL'><div class='vertical-center'>(E)</div></div><div class='respDivR'><div class='vertical-center'>(I)</div></div></div>","I","$24","$70","0","24","70","RISKY"
"html-keyboard-response","159","237675","0.0-5.0-3.51","6400ed09421b2727c2f7c553","bdp_rd","Sat Mar 25 2023 22:20:20 GMT-0400 (Eastern Daylight Time)","263922","","null","","","","offerFB","","<div class='trialBorder'><div class='vertical-center'><img style='vertical-align:center; align:center' src=img/fixation3.jpg></div><div class='cl'><div class='vertical-center'>$24<br>for<br>sure</div></div><div class='cr'><div class='vertical-center'><font style='color:orange'>$70<br>with a<br>50% chance</font></div></div><div class='respDivL'><div class='vertical-center'>(E)</div></div><div class='respDivR'><div class='vertical-center'><font style='color:orange'>(I)</font></div></div></div>","null","$24","$70","0","24","70",""
"html-keyboard-response","160","238178","0.0-5.0-1.52","6400ed09421b2727c2f7c553","bdp_rd","Sat Mar 25 2023 22:20:20 GMT-0400 (Eastern Daylight Time)","263922","","null","","","","FIX","","<div class='trialBorder'><div class='vertical-center'><img style='vertical-align:center; align:center' src=img/fixation3.jpg></div></div>","null","","","","","",""
"html-keyboard-response","161","240531","0.0-5.0-2.52","6400ed09421b2727c2f7c553","bdp_rd","Sat Mar 25 2023 22:20:20 GMT-0400 (Eastern Daylight Time)","263922","","2351","","","","offer","","<div class='trialBorder'><div class='vertical-center'><img style='vertical-align:center; align:center' src=img/fixation3.jpg></div><div class='cl'><div class='vertical-center'>$16<br>with a<br>50% chance</div></div><div class='cr'><div class='vertical-center'>$5<br>for<br>sure</div></div><div class='respDivL'><div class='vertical-center'>(E)</div></div><div class='respDivR'><div class='vertical-center'>(I)</div></div></div>","E","$5","$16","1","5","16","RISKY"
"html-keyboard-response","162","240783","0.0-5.0-3.52","6400ed09421b2727c2f7c553","bdp_rd","Sat Mar 25 2023 22:20:20 GMT-0400 (Eastern Daylight Time)","263922","","null","","","","offerFB","","<div class='trialBorder'><div class='vertical-center'><img style='vertical-align:center; align:center' src=img/fixation3.jpg></div><div class='cl'><div class='vertical-center'><font style='color:orange'>$16<br>with a<br>50% chance</font></div></div><div class='cr'><div class='vertical-center'>$5<br>for<br>sure</div></div><div class='respDivL'><div class='vertical-center'><font style='color:orange'>(E)</font></div></div><div class='respDivR'><div class='vertical-center'>(I)</div></div></div>","null","$5","$16","1","5","16",""
"html-keyboard-response","163","241286","0.0-5.0-1.53","6400ed09421b2727c2f7c553","bdp_rd","Sat Mar 25 2023 22:20:20 GMT-0400 (Eastern Daylight Time)","263922","","null","","","","FIX","","<div class='trialBorder'><div class='vertical-center'><img style='vertical-align:center; align:center' src=img/fixation3.jpg></div></div>","null","","","","","",""
"html-keyboard-response","164","244551","0.0-5.0-2.53","6400ed09421b2727c2f7c553","bdp_rd","Sat Mar 25 2023 22:20:20 GMT-0400 (Eastern Daylight Time)","263922","","3263","","","","offer","","<div class='trialBorder'><div class='vertical-center'><img style='vertical-align:center; align:center' src=img/fixation3.jpg></div><div class='cl'><div class='vertical-center'>$36<br>with a<br>50% chance</div></div><div class='cr'><div class='vertical-center'>$18<br>for<br>sure</div></div><div class='respDivL'><div class='vertical-center'>(E)</div></div><div class='respDivR'><div class='vertical-center'>(I)</div></div></div>","E","$18","$36","1","18","36","RISKY"
"html-keyboard-response","165","244806","0.0-5.0-3.53","6400ed09421b2727c2f7c553","bdp_rd","Sat Mar 25 2023 22:20:20 GMT-0400 (Eastern Daylight Time)","263922","","null","","","","offerFB","","<div class='trialBorder'><div class='vertical-center'><img style='vertical-align:center; align:center' src=img/fixation3.jpg></div><div class='cl'><div class='vertical-center'><font style='color:orange'>$36<br>with a<br>50% chance</font></div></div><div class='cr'><div class='vertical-center'>$18<br>for<br>sure</div></div><div class='respDivL'><div class='vertical-center'><font style='color:orange'>(E)</font></div></div><div class='respDivR'><div class='vertical-center'>(I)</div></div></div>","null","$18","$36","1","18","36",""
"html-keyboard-response","166","245309","0.0-5.0-1.54","6400ed09421b2727c2f7c553","bdp_rd","Sat Mar 25 2023 22:20:20 GMT-0400 (Eastern Daylight Time)","263922","","null","","","","FIX","","<div class='trialBorder'><div class='vertical-center'><img style='vertical-align:center; align:center' src=img/fixation3.jpg></div></div>","null","","","","","",""
"html-keyboard-response","167","247334","0.0-5.0-2.54","6400ed09421b2727c2f7c553","bdp_rd","Sat Mar 25 2023 22:20:20 GMT-0400 (Eastern Daylight Time)","263922","","2024","","","","offer","","<div class='trialBorder'><div class='vertical-center'><img style='vertical-align:center; align:center' src=img/fixation3.jpg></div><div class='cl'><div class='vertical-center'>$50<br>with a<br>50% chance</div></div><div class='cr'><div class='vertical-center'>$5<br>for<br>sure</div></div><div class='respDivL'><div class='vertical-center'>(E)</div></div><div class='respDivR'><div class='vertical-center'>(I)</div></div></div>","E","$5","$50","1","5","50","RISKY"
"html-keyboard-response","168","247587","0.0-5.0-3.54","6400ed09421b2727c2f7c553","bdp_rd","Sat Mar 25 2023 22:20:20 GMT-0400 (Eastern Daylight Time)","263922","","null","","","","offerFB","","<div class='trialBorder'><div class='vertical-center'><img style='vertical-align:center; align:center' src=img/fixation3.jpg></div><div class='cl'><div class='vertical-center'><font style='color:orange'>$50<br>with a<br>50% chance</font></div></div><div class='cr'><div class='vertical-center'>$5<br>for<br>sure</div></div><div class='respDivL'><div class='vertical-center'><font style='color:orange'>(E)</font></div></div><div class='respDivR'><div class='vertical-center'>(I)</div></div></div>","null","$5","$50","1","5","50",""
"html-keyboard-response","169","248090","0.0-5.0-1.55","6400ed09421b2727c2f7c553","bdp_rd","Sat Mar 25 2023 22:20:20 GMT-0400 (Eastern Daylight Time)","263922","","null","","","","FIX","","<div class='trialBorder'><div class='vertical-center'><img style='vertical-align:center; align:center' src=img/fixation3.jpg></div></div>","null","","","","","",""
"html-keyboard-response","170","250542","0.0-5.0-2.55","6400ed09421b2727c2f7c553","bdp_rd","Sat Mar 25 2023 22:20:20 GMT-0400 (Eastern Daylight Time)","263922","","2450","","","","offer","","<div class='trialBorder'><div class='vertical-center'><img style='vertical-align:center; align:center' src=img/fixation3.jpg></div><div class='cl'><div class='vertical-center'>$54<br>with a<br>50% chance</div></div><div class='cr'><div class='vertical-center'>$25<br>for<br>sure</div></div><div class='respDivL'><div class='vertical-center'>(E)</div></div><div class='respDivR'><div class='vertical-center'>(I)</div></div></div>","E","$25","$54","1","25","54","RISKY"
"html-keyboard-response","171","250795","0.0-5.0-3.55","6400ed09421b2727c2f7c553","bdp_rd","Sat Mar 25 2023 22:20:20 GMT-0400 (Eastern Daylight Time)","263922","","null","","","","offerFB","","<div class='trialBorder'><div class='vertical-center'><img style='vertical-align:center; align:center' src=img/fixation3.jpg></div><div class='cl'><div class='vertical-center'><font style='color:orange'>$54<br>with a<br>50% chance</font></div></div><div class='cr'><div class='vertical-center'>$25<br>for<br>sure</div></div><div class='respDivL'><div class='vertical-center'><font style='color:orange'>(E)</font></div></div><div class='respDivR'><div class='vertical-center'>(I)</div></div></div>","null","$25","$54","1","25","54",""
"html-keyboard-response","172","251297","0.0-5.0-1.56","6400ed09421b2727c2f7c553","bdp_rd","Sat Mar 25 2023 22:20:20 GMT-0400 (Eastern Daylight Time)","263922","","null","","","","FIX","","<div class='trialBorder'><div class='vertical-center'><img style='vertical-align:center; align:center' src=img/fixation3.jpg></div></div>","null","","","","","",""
"html-keyboard-response","173","253208","0.0-5.0-2.56","6400ed09421b2727c2f7c553","bdp_rd","Sat Mar 25 2023 22:20:20 GMT-0400 (Eastern Daylight Time)","263922","","1909","","","","offer","","<div class='trialBorder'><div class='vertical-center'><img style='vertical-align:center; align:center' src=img/fixation3.jpg></div><div class='cl'><div class='vertical-center'>$28<br>for<br>sure</div></div><div class='cr'><div class='vertical-center'>$89<br>with a<br>50% chance</div></div><div class='respDivL'><div class='vertical-center'>(E)</div></div><div class='respDivR'><div class='vertical-center'>(I)</div></div></div>","I","$28","$89","0","28","89","RISKY"
