"event","trial","time","trialtype","subject_id","task","startTime","totalTime","trial_type","trial_index","time_elapsed","internal_node_id","view_history","rt","success","stimulus","key_press","sureOffer","riskyOffer","riskyLeft","sureAmt","riskyAmt","chosen"
"focus","0","0","focusevent","63b82398bbe6a599972413ad","bdp_rd","Tue Mar 28 2023 11:12:02 GMT-0400 (Eastern Daylight Time)","180851","","","","","","","","","","","","","","",""
"","","","","63b82398bbe6a599972413ad","bdp_rd","Tue Mar 28 2023 11:12:02 GMT-0400 (Eastern Daylight Time)","180851","pavlovia","0","3","0.0-0.0","","","","","","","","","","",""
"","","","","63b82398bbe6a599972413ad","bdp_rd","Tue Mar 28 2023 11:12:02 GMT-0400 (Eastern Daylight Time)","180851","instructions","1","1312","0.0-1.0","[{""page_index"":0,""viewing_time"":1309}]","1309","","","","","","","","",""
"fullscreenexit","2","4698","fullscreenexit","63b82398bbe6a599972413ad","bdp_rd","Tue Mar 28 2023 11:12:02 GMT-0400 (Eastern Daylight Time)","180851","","","","","","","","","","","","","","",""
"","","","","63b82398bbe6a599972413ad","bdp_rd","Tue Mar 28 2023 11:12:02 GMT-0400 (Eastern Daylight Time)","180851","fullscreen","2","5491","0.0-2.0","","","true","","","","","","","",""
"","","","fullscreenfail","63b82398bbe6a599972413ad","bdp_rd","Tue Mar 28 2023 11:12:02 GMT-0400 (Eastern Daylight Time)","180851","image-keyboard-response","3","6991","0.0-3.0-0.0","","1496","","","32","","","","","",""
"","","","","63b82398bbe6a599972413ad","bdp_rd","Tue Mar 28 2023 11:12:02 GMT-0400 (Eastern Daylight Time)","180851","instructions","4","32701","0.0-4.0","[{""page_index"":0,""viewing_time"":17983},{""page_index"":1,""viewing_time"":4685},{""page_index"":2,""viewing_time"":2782}]","25451","","","","","","","","",""
"","","","FIX","63b82398bbe6a599972413ad","bdp_rd","Tue Mar 28 2023 11:12:02 GMT-0400 (Eastern Daylight Time)","180851","html-keyboard-response","5","33211","0.0-5.0-1.0","","null","","<div class='trialBorder'><div class='vertical-center'><img style='vertical-align:center; align:center' src=img/fixation3.jpg></div></div>","null","","","","","",""
"","","","offer","63b82398bbe6a599972413ad","bdp_rd","Tue Mar 28 2023 11:12:02 GMT-0400 (Eastern Daylight Time)","180851","html-keyboard-response","6","38309","0.0-5.0-2.0","","5096","","<div class='trialBorder'><div class='vertical-center'><img style='vertical-align:center; align:center' src=img/fixation3.jpg></div><div class='cl'><div class='vertical-center'>$73<br>with a<br>50% chance</div></div><div class='cr'><div class='vertical-center'>$42<br>for<br>sure</div></div><div class='respDivL'><div class='vertical-center'>(E)</div></div><div class='respDivR'><div class='vertical-center'>(I)</div></div></div>","E","$42","$73","1","42","73","RISKY"
"","","","offerFB","63b82398bbe6a599972413ad","bdp_rd","Tue Mar 28 2023 11:12:02 GMT-0400 (Eastern Daylight Time)","180851","html-keyboard-response","7","38565","0.0-5.0-3.0","","null","","<div class='trialBorder'><div class='vertical-center'><img style='vertical-align:center; align:center' src=img/fixation3.jpg></div><div class='cl'><div class='vertical-center'><font style='color:orange'>$73<br>with a<br>50% chance</font></div></div><div class='cr'><div class='vertical-center'>$42<br>for<br>sure</div></div><div class='respDivL'><div class='vertical-center'><font style='color:orange'>(E)</font></div></div><div class='respDivR'><div class='vertical-center'>(I)</div></div></div>","null","$42","$73","1","42","73",""
"","","","FIX","63b82398bbe6a599972413ad","bdp_rd","Tue Mar 28 2023 11:12:02 GMT-0400 (Eastern Daylight Time)","180851","html-keyboard-response","8","39068","0.0-5.0-1.1","","null","","<div class='trialBorder'><div class='vertical-center'><img style='vertical-align:center; align:center' src=img/fixation3.jpg></div></div>","null","","","","","",""
"","","","offer","63b82398bbe6a599972413ad","bdp_rd","Tue Mar 28 2023 11:12:02 GMT-0400 (Eastern Daylight Time)","180851","html-keyboard-response","9","41155","0.0-5.0-2.1","","2086","","<div class='trialBorder'><div class='vertical-center'><img style='vertical-align:center; align:center' src=img/fixation3.jpg></div><div class='cl'><div class='vertical-center'>$29<br>for<br>sure</div></div><div class='cr'><div class='vertical-center'>$46<br>with a<br>50% chance</div></div><div class='respDivL'><div class='vertical-center'>(E)</div></div><div class='respDivR'><div class='vertical-center'>(I)</div></div></div>","E","$29","$46","0","29","46","SURE"
"","","","offerFB","63b82398bbe6a599972413ad","bdp_rd","Tue Mar 28 2023 11:12:02 GMT-0400 (Eastern Daylight Time)","180851","html-keyboard-response","10","41407","0.0-5.0-3.1","","null","","<div class='trialBorder'><div class='vertical-center'><img style='vertical-align:center; align:center' src=img/fixation3.jpg></div><div class='cl'><div class='vertical-center'><font style='color:orange'>$29<br>for<br>sure</font></div></div><div class='cr'><div class='vertical-center'>$46<br>with a<br>50% chance</div></div><div class='respDivL'><div class='vertical-center'><font style='color:orange'>(E)</font></div></div><div class='respDivR'><div class='vertical-center'>(I)</div></div></div>","null","$29","$46","0","29","46",""
"","","","FIX","63b82398bbe6a599972413ad","bdp_rd","Tue Mar 28 2023 11:12:02 GMT-0400 (Eastern Daylight Time)","180851","html-keyboard-response","11","41912","0.0-5.0-1.2","","null","","<div class='trialBorder'><div class='vertical-center'><img style='vertical-align:center; align:center' src=img/fixation3.jpg></div></div>","null","","","","","",""
"","","","offer","63b82398bbe6a599972413ad","bdp_rd","Tue Mar 28 2023 11:12:02 GMT-0400 (Eastern Daylight Time)","180851","html-keyboard-response","12","43554","0.0-5.0-2.2","","1642","","<div class='trialBorder'><div class='vertical-center'><img style='vertical-align:center; align:center' src=img/fixation3.jpg></div><div class='cl'><div class='vertical-center'>$13<br>for<br>sure</div></div><div class='cr'><div class='vertical-center'>$24<br>with a<br>50% chance</div></div><div class='respDivL'><div class='vertical-center'>(E)</div></div><div class='respDivR'><div class='vertical-center'>(I)</div></div></div>","E","$13","$24","0","13","24","SURE"
"","","","offerFB","63b82398bbe6a599972413ad","bdp_rd","Tue Mar 28 2023 11:12:02 GMT-0400 (Eastern Daylight Time)","180851","html-keyboard-response","13","43808","0.0-5.0-3.2","","null","","<div class='trialBorder'><div class='vertical-center'><img style='vertical-align:center; align:center' src=img/fixation3.jpg></div><div class='cl'><div class='vertical-center'><font style='color:orange'>$13<br>for<br>sure</font></div></div><div class='cr'><div class='vertical-center'>$24<br>with a<br>50% chance</div></div><div class='respDivL'><div class='vertical-center'><font style='color:orange'>(E)</font></div></div><div class='respDivR'><div class='vertical-center'>(I)</div></div></div>","null","$13","$24","0","13","24",""
"","","","FIX","63b82398bbe6a599972413ad","bdp_rd","Tue Mar 28 2023 11:12:02 GMT-0400 (Eastern Daylight Time)","180851","html-keyboard-response","14","44313","0.0-5.0-1.3","","null","","<div class='trialBorder'><div class='vertical-center'><img style='vertical-align:center; align:center' src=img/fixation3.jpg></div></div>","null","","","","","",""
"","","","offer","63b82398bbe6a599972413ad","bdp_rd","Tue Mar 28 2023 11:12:02 GMT-0400 (Eastern Daylight Time)","180851","html-keyboard-response","15","46318","0.0-5.0-2.3","","2004","","<div class='trialBorder'><div class='vertical-center'><img style='vertical-align:center; align:center' src=img/fixation3.jpg></div><div class='cl'><div class='vertical-center'>$41<br>with a<br>50% chance</div></div><div class='cr'><div class='vertical-center'>$13<br>for<br>sure</div></div><div class='respDivL'><div class='vertical-center'>(E)</div></div><div class='respDivR'><div class='vertical-center'>(I)</div></div></div>","E","$13","$41","1","13","41","RISKY"
"","","","offerFB","63b82398bbe6a599972413ad","bdp_rd","Tue Mar 28 2023 11:12:02 GMT-0400 (Eastern Daylight Time)","180851","html-keyboard-response","16","46573","0.0-5.0-3.3","","null","","<div class='trialBorder'><div class='vertical-center'><img style='vertical-align:center; align:center' src=img/fixation3.jpg></div><div class='cl'><div class='vertical-center'><font style='color:orange'>$41<br>with a<br>50% chance</font></div></div><div class='cr'><div class='vertical-center'>$13<br>for<br>sure</div></div><div class='respDivL'><div class='vertical-center'><font style='color:orange'>(E)</font></div></div><div class='respDivR'><div class='vertical-center'>(I)</div></div></div>","null","$13","$41","1","13","41",""
"","","","FIX","63b82398bbe6a599972413ad","bdp_rd","Tue Mar 28 2023 11:12:02 GMT-0400 (Eastern Daylight Time)","180851","html-keyboard-response","17","47077","0.0-5.0-1.4","","null","","<div class='trialBorder'><div class='vertical-center'><img style='vertical-align:center; align:center' src=img/fixation3.jpg></div></div>","null","","","","","",""
"","","","offer","63b82398bbe6a599972413ad","bdp_rd","Tue Mar 28 2023 11:12:02 GMT-0400 (Eastern Daylight Time)","180851","html-keyboard-response","18","49014","0.0-5.0-2.4","","1936","","<div class='trialBorder'><div class='vertical-center'><img style='vertical-align:center; align:center' src=img/fixation3.jpg></div><div class='cl'><div class='vertical-center'>$20<br>for<br>sure</div></div><div class='cr'><div class='vertical-center'>$37<br>with a<br>50% chance</div></div><div class='respDivL'><div class='vertical-center'>(E)</div></div><div class='respDivR'><div class='vertical-center'>(I)</div></div></div>","E","$20","$37","0","20","37","SURE"
"","","","offerFB","63b82398bbe6a599972413ad","bdp_rd","Tue Mar 28 2023 11:12:02 GMT-0400 (Eastern Daylight Time)","180851","html-keyboard-response","19","49277","0.0-5.0-3.4","","null","","<div class='trialBorder'><div class='vertical-center'><img style='vertical-align:center; align:center' src=img/fixation3.jpg></div><div class='cl'><div class='vertical-center'><font style='color:orange'>$20<br>for<br>sure</font></div></div><div class='cr'><div class='vertical-center'>$37<br>with a<br>50% chance</div></div><div class='respDivL'><div class='vertical-center'><font style='color:orange'>(E)</font></div></div><div class='respDivR'><div class='vertical-center'>(I)</div></div></div>","null","$20","$37","0","20","37",""
"","","","FIX","63b82398bbe6a599972413ad","bdp_rd","Tue Mar 28 2023 11:12:02 GMT-0400 (Eastern Daylight Time)","180851","html-keyboard-response","20","49780","0.0-5.0-1.5","","null","","<div class='trialBorder'><div class='vertical-center'><img style='vertical-align:center; align:center' src=img/fixation3.jpg></div></div>","null","","","","","",""
"","","","offer","63b82398bbe6a599972413ad","bdp_rd","Tue Mar 28 2023 11:12:02 GMT-0400 (Eastern Daylight Time)","180851","html-keyboard-response","21","52192","0.0-5.0-2.5","","2412","","<div class='trialBorder'><div class='vertical-center'><img style='vertical-align:center; align:center' src=img/fixation3.jpg></div><div class='cl'><div class='vertical-center'>$42<br>with a<br>50% chance</div></div><div class='cr'><div class='vertical-center'>$22<br>for<br>sure</div></div><div class='respDivL'><div class='vertical-center'>(E)</div></div><div class='respDivR'><div class='vertical-center'>(I)</div></div></div>","E","$22","$42","1","22","42","RISKY"
"","","","offerFB","63b82398bbe6a599972413ad","bdp_rd","Tue Mar 28 2023 11:12:02 GMT-0400 (Eastern Daylight Time)","180851","html-keyboard-response","22","52449","0.0-5.0-3.5","","null","","<div class='trialBorder'><div class='vertical-center'><img style='vertical-align:center; align:center' src=img/fixation3.jpg></div><div class='cl'><div class='vertical-center'><font style='color:orange'>$42<br>with a<br>50% chance</font></div></div><div class='cr'><div class='vertical-center'>$22<br>for<br>sure</div></div><div class='respDivL'><div class='vertical-center'><font style='color:orange'>(E)</font></div></div><div class='respDivR'><div class='vertical-center'>(I)</div></div></div>","null","$22","$42","1","22","42",""
"","","","FIX","63b82398bbe6a599972413ad","bdp_rd","Tue Mar 28 2023 11:12:02 GMT-0400 (Eastern Daylight Time)","180851","html-keyboard-response","23","52953","0.0-5.0-1.6","","null","","<div class='trialBorder'><div class='vertical-center'><img style='vertical-align:center; align:center' src=img/fixation3.jpg></div></div>","null","","","","","",""
"","","","offer","63b82398bbe6a599972413ad","bdp_rd","Tue Mar 28 2023 11:12:02 GMT-0400 (Eastern Daylight Time)","180851","html-keyboard-response","24","55474","0.0-5.0-2.6","","2520","","<div class='trialBorder'><div class='vertical-center'><img style='vertical-align:center; align:center' src=img/fixation3.jpg></div><div class='cl'><div class='vertical-center'>$58<br>for<br>sure</div></div><div class='cr'><div class='vertical-center'>$69<br>with a<br>50% chance</div></div><div class='respDivL'><div class='vertical-center'>(E)</div></div><div class='respDivR'><div class='vertical-center'>(I)</div></div></div>","E","$58","$69","0","58","69","SURE"
"","","","offerFB","63b82398bbe6a599972413ad","bdp_rd","Tue Mar 28 2023 11:12:02 GMT-0400 (Eastern Daylight Time)","180851","html-keyboard-response","25","55729","0.0-5.0-3.6","","null","","<div class='trialBorder'><div class='vertical-center'><img style='vertical-align:center; align:center' src=img/fixation3.jpg></div><div class='cl'><div class='vertical-center'><font style='color:orange'>$58<br>for<br>sure</font></div></div><div class='cr'><div class='vertical-center'>$69<br>with a<br>50% chance</div></div><div class='respDivL'><div class='vertical-center'><font style='color:orange'>(E)</font></div></div><div class='respDivR'><div class='vertical-center'>(I)</div></div></div>","null","$58","$69","0","58","69",""
"","","","FIX","63b82398bbe6a599972413ad","bdp_rd","Tue Mar 28 2023 11:12:02 GMT-0400 (Eastern Daylight Time)","180851","html-keyboard-response","26","56232","0.0-5.0-1.7","","null","","<div class='trialBorder'><div class='vertical-center'><img style='vertical-align:center; align:center' src=img/fixation3.jpg></div></div>","null","","","","","",""
"","","","offer","63b82398bbe6a599972413ad","bdp_rd","Tue Mar 28 2023 11:12:02 GMT-0400 (Eastern Daylight Time)","180851","html-keyboard-response","27","57605","0.0-5.0-2.7","","1371","","<div class='trialBorder'><div class='vertical-center'><img style='vertical-align:center; align:center' src=img/fixation3.jpg></div><div class='cl'><div class='vertical-center'>$2<br>for<br>sure</div></div><div class='cr'><div class='vertical-center'>$64<br>with a<br>50% chance</div></div><div class='respDivL'><div class='vertical-center'>(E)</div></div><div class='respDivR'><div class='vertical-center'>(I)</div></div></div>","I","$2","$64","0","2","64","RISKY"
"","","","offerFB","63b82398bbe6a599972413ad","bdp_rd","Tue Mar 28 2023 11:12:02 GMT-0400 (Eastern Daylight Time)","180851","html-keyboard-response","28","57869","0.0-5.0-3.7","","null","","<div class='trialBorder'><div class='vertical-center'><img style='vertical-align:center; align:center' src=img/fixation3.jpg></div><div class='cl'><div class='vertical-center'>$2<br>for<br>sure</div></div><div class='cr'><div class='vertical-center'><font style='color:orange'>$64<br>with a<br>50% chance</font></div></div><div class='respDivL'><div class='vertical-center'>(E)</div></div><div class='respDivR'><div class='vertical-center'><font style='color:orange'>(I)</font></div></div></div>","null","$2","$64","0","2","64",""
"","","","FIX","63b82398bbe6a599972413ad","bdp_rd","Tue Mar 28 2023 11:12:02 GMT-0400 (Eastern Daylight Time)","180851","html-keyboard-response","29","58371","0.0-5.0-1.8","","null","","<div class='trialBorder'><div class='vertical-center'><img style='vertical-align:center; align:center' src=img/fixation3.jpg></div></div>","null","","","","","",""
"","","","offer","63b82398bbe6a599972413ad","bdp_rd","Tue Mar 28 2023 11:12:02 GMT-0400 (Eastern Daylight Time)","180851","html-keyboard-response","30","59734","0.0-5.0-2.8","","1362","","<div class='trialBorder'><div class='vertical-center'><img style='vertical-align:center; align:center' src=img/fixation3.jpg></div><div class='cl'><div class='vertical-center'>$80<br>with a<br>50% chance</div></div><div class='cr'><div class='vertical-center'>$20<br>for<br>sure</div></div><div class='respDivL'><div class='vertical-center'>(E)</div></div><div class='respDivR'><div class='vertical-center'>(I)</div></div></div>","E","$20","$80","1","20","80","RISKY"
"","","","offerFB","63b82398bbe6a599972413ad","bdp_rd","Tue Mar 28 2023 11:12:02 GMT-0400 (Eastern Daylight Time)","180851","html-keyboard-response","31","59994","0.0-5.0-3.8","","null","","<div class='trialBorder'><div class='vertical-center'><img style='vertical-align:center; align:center' src=img/fixation3.jpg></div><div class='cl'><div class='vertical-center'><font style='color:orange'>$80<br>with a<br>50% chance</font></div></div><div class='cr'><div class='vertical-center'>$20<br>for<br>sure</div></div><div class='respDivL'><div class='vertical-center'><font style='color:orange'>(E)</font></div></div><div class='respDivR'><div class='vertical-center'>(I)</div></div></div>","null","$20","$80","1","20","80",""
"","","","FIX","63b82398bbe6a599972413ad","bdp_rd","Tue Mar 28 2023 11:12:02 GMT-0400 (Eastern Daylight Time)","180851","html-keyboard-response","32","60499","0.0-5.0-1.9","","null","","<div class='trialBorder'><div class='vertical-center'><img style='vertical-align:center; align:center' src=img/fixation3.jpg></div></div>","null","","","","","",""
"","","","offer","63b82398bbe6a599972413ad","bdp_rd","Tue Mar 28 2023 11:12:02 GMT-0400 (Eastern Daylight Time)","180851","html-keyboard-response","33","62568","0.0-5.0-2.9","","2068","","<div class='trialBorder'><div class='vertical-center'><img style='vertical-align:center; align:center' src=img/fixation3.jpg></div><div class='cl'><div class='vertical-center'>$31<br>with a<br>50% chance</div></div><div class='cr'><div class='vertical-center'>$15<br>for<br>sure</div></div><div class='respDivL'><div class='vertical-center'>(E)</div></div><div class='respDivR'><div class='vertical-center'>(I)</div></div></div>","I","$15","$31","1","15","31","SURE"
"","","","offerFB","63b82398bbe6a599972413ad","bdp_rd","Tue Mar 28 2023 11:12:02 GMT-0400 (Eastern Daylight Time)","180851","html-keyboard-response","34","62823","0.0-5.0-3.9","","null","","<div class='trialBorder'><div class='vertical-center'><img style='vertical-align:center; align:center' src=img/fixation3.jpg></div><div class='cl'><div class='vertical-center'>$31<br>with a<br>50% chance</div></div><div class='cr'><div class='vertical-center'><font style='color:orange'>$15<br>for<br>sure</font></div></div><div class='respDivL'><div class='vertical-center'>(E)</div></div><div class='respDivR'><div class='vertical-center'><font style='color:orange'>(I)</font></div></div></div>","null","$15","$31","1","15","31",""
"","","","FIX","63b82398bbe6a599972413ad","bdp_rd","Tue Mar 28 2023 11:12:02 GMT-0400 (Eastern Daylight Time)","180851","html-keyboard-response","35","63326","0.0-5.0-1.10","","null","","<div class='trialBorder'><div class='vertical-center'><img style='vertical-align:center; align:center' src=img/fixation3.jpg></div></div>","null","","","","","",""
"","","","offer","63b82398bbe6a599972413ad","bdp_rd","Tue Mar 28 2023 11:12:02 GMT-0400 (Eastern Daylight Time)","180851","html-keyboard-response","36","64972","0.0-5.0-2.10","","1645","","<div class='trialBorder'><div class='vertical-center'><img style='vertical-align:center; align:center' src=img/fixation3.jpg></div><div class='cl'><div class='vertical-center'>$17<br>with a<br>50% chance</div></div><div class='cr'><div class='vertical-center'>$3<br>for<br>sure</div></div><div class='respDivL'><div class='vertical-center'>(E)</div></div><div class='respDivR'><div class='vertical-center'>(I)</div></div></div>","E","$3","$17","1","3","17","RISKY"
"","","","offerFB","63b82398bbe6a599972413ad","bdp_rd","Tue Mar 28 2023 11:12:02 GMT-0400 (Eastern Daylight Time)","180851","html-keyboard-response","37","65233","0.0-5.0-3.10","","null","","<div class='trialBorder'><div class='vertical-center'><img style='vertical-align:center; align:center' src=img/fixation3.jpg></div><div class='cl'><div class='vertical-center'><font style='color:orange'>$17<br>with a<br>50% chance</font></div></div><div class='cr'><div class='vertical-center'>$3<br>for<br>sure</div></div><div class='respDivL'><div class='vertical-center'><font style='color:orange'>(E)</font></div></div><div class='respDivR'><div class='vertical-center'>(I)</div></div></div>","null","$3","$17","1","3","17",""
"","","","FIX","63b82398bbe6a599972413ad","bdp_rd","Tue Mar 28 2023 11:12:02 GMT-0400 (Eastern Daylight Time)","180851","html-keyboard-response","38","65736","0.0-5.0-1.11","","null","","<div class='trialBorder'><div class='vertical-center'><img style='vertical-align:center; align:center' src=img/fixation3.jpg></div></div>","null","","","","","",""
"","","","offer","63b82398bbe6a599972413ad","bdp_rd","Tue Mar 28 2023 11:12:02 GMT-0400 (Eastern Daylight Time)","180851","html-keyboard-response","39","67714","0.0-5.0-2.11","","1977","","<div class='trialBorder'><div class='vertical-center'><img style='vertical-align:center; align:center' src=img/fixation3.jpg></div><div class='cl'><div class='vertical-center'>$14<br>for<br>sure</div></div><div class='cr'><div class='vertical-center'>$29<br>with a<br>50% chance</div></div><div class='respDivL'><div class='vertical-center'>(E)</div></div><div class='respDivR'><div class='vertical-center'>(I)</div></div></div>","I","$14","$29","0","14","29","RISKY"
"","","","offerFB","63b82398bbe6a599972413ad","bdp_rd","Tue Mar 28 2023 11:12:02 GMT-0400 (Eastern Daylight Time)","180851","html-keyboard-response","40","67978","0.0-5.0-3.11","","null","","<div class='trialBorder'><div class='vertical-center'><img style='vertical-align:center; align:center' src=img/fixation3.jpg></div><div class='cl'><div class='vertical-center'>$14<br>for<br>sure</div></div><div class='cr'><div class='vertical-center'><font style='color:orange'>$29<br>with a<br>50% chance</font></div></div><div class='respDivL'><div class='vertical-center'>(E)</div></div><div class='respDivR'><div class='vertical-center'><font style='color:orange'>(I)</font></div></div></div>","null","$14","$29","0","14","29",""
"","","","FIX","63b82398bbe6a599972413ad","bdp_rd","Tue Mar 28 2023 11:12:02 GMT-0400 (Eastern Daylight Time)","180851","html-keyboard-response","41","68484","0.0-5.0-1.12","","null","","<div class='trialBorder'><div class='vertical-center'><img style='vertical-align:center; align:center' src=img/fixation3.jpg></div></div>","null","","","","","",""
"","","","offer","63b82398bbe6a599972413ad","bdp_rd","Tue Mar 28 2023 11:12:02 GMT-0400 (Eastern Daylight Time)","180851","html-keyboard-response","42","69826","0.0-5.0-2.12","","1340","","<div class='trialBorder'><div class='vertical-center'><img style='vertical-align:center; align:center' src=img/fixation3.jpg></div><div class='cl'><div class='vertical-center'>$37<br>for<br>sure</div></div><div class='cr'><div class='vertical-center'>$44<br>with a<br>50% chance</div></div><div class='respDivL'><div class='vertical-center'>(E)</div></div><div class='respDivR'><div class='vertical-center'>(I)</div></div></div>","E","$37","$44","0","37","44","SURE"
"","","","offerFB","63b82398bbe6a599972413ad","bdp_rd","Tue Mar 28 2023 11:12:02 GMT-0400 (Eastern Daylight Time)","180851","html-keyboard-response","43","70081","0.0-5.0-3.12","","null","","<div class='trialBorder'><div class='vertical-center'><img style='vertical-align:center; align:center' src=img/fixation3.jpg></div><div class='cl'><div class='vertical-center'><font style='color:orange'>$37<br>for<br>sure</font></div></div><div class='cr'><div class='vertical-center'>$44<br>with a<br>50% chance</div></div><div class='respDivL'><div class='vertical-center'><font style='color:orange'>(E)</font></div></div><div class='respDivR'><div class='vertical-center'>(I)</div></div></div>","null","$37","$44","0","37","44",""
"","","","FIX","63b82398bbe6a599972413ad","bdp_rd","Tue Mar 28 2023 11:12:02 GMT-0400 (Eastern Daylight Time)","180851","html-keyboard-response","44","70587","0.0-5.0-1.13","","null","","<div class='trialBorder'><div class='vertical-center'><img style='vertical-align:center; align:center' src=img/fixation3.jpg></div></div>","null","","","","","",""
"","","","offer","63b82398bbe6a599972413ad","bdp_rd","Tue Mar 28 2023 11:12:02 GMT-0400 (Eastern Daylight Time)","180851","html-keyboard-response","45","72559","0.0-5.0-2.13","","1969","","<div class='trialBorder'><div class='vertical-center'><img style='vertical-align:center; align:center' src=img/fixation3.jpg></div><div class='cl'><div class='vertical-center'>$19<br>with a<br>50% chance</div></div><div class='cr'><div class='vertical-center'>$10<br>for<br>sure</div></div><div class='respDivL'><div class='vertical-center'>(E)</div></div><div class='respDivR'><div class='vertical-center'>(I)</div></div></div>","I","$10","$19","1","10","19","SURE"
"","","","offerFB","63b82398bbe6a599972413ad","bdp_rd","Tue Mar 28 2023 11:12:02 GMT-0400 (Eastern Daylight Time)","180851","html-keyboard-response","46","72810","0.0-5.0-3.13","","null","","<div class='trialBorder'><div class='vertical-center'><img style='vertical-align:center; align:center' src=img/fixation3.jpg></div><div class='cl'><div class='vertical-center'>$19<br>with a<br>50% chance</div></div><div class='cr'><div class='vertical-center'><font style='color:orange'>$10<br>for<br>sure</font></div></div><div class='respDivL'><div class='vertical-center'>(E)</div></div><div class='respDivR'><div class='vertical-center'><font style='color:orange'>(I)</font></div></div></div>","null","$10","$19","1","10","19",""
"","","","FIX","63b82398bbe6a599972413ad","bdp_rd","Tue Mar 28 2023 11:12:02 GMT-0400 (Eastern Daylight Time)","180851","html-keyboard-response","47","73315","0.0-5.0-1.14","","null","","<div class='trialBorder'><div class='vertical-center'><img style='vertical-align:center; align:center' src=img/fixation3.jpg></div></div>","null","","","","","",""
"","","","offer","63b82398bbe6a599972413ad","bdp_rd","Tue Mar 28 2023 11:12:02 GMT-0400 (Eastern Daylight Time)","180851","html-keyboard-response","48","75007","0.0-5.0-2.14","","1691","","<div class='trialBorder'><div class='vertical-center'><img style='vertical-align:center; align:center' src=img/fixation3.jpg></div><div class='cl'><div class='vertical-center'>$98<br>with a<br>50% chance</div></div><div class='cr'><div class='vertical-center'>$53<br>for<br>sure</div></div><div class='respDivL'><div class='vertical-center'>(E)</div></div><div class='respDivR'><div class='vertical-center'>(I)</div></div></div>","E","$53","$98","1","53","98","RISKY"
"","","","offerFB","63b82398bbe6a599972413ad","bdp_rd","Tue Mar 28 2023 11:12:02 GMT-0400 (Eastern Daylight Time)","180851","html-keyboard-response","49","75273","0.0-5.0-3.14","","null","","<div class='trialBorder'><div class='vertical-center'><img style='vertical-align:center; align:center' src=img/fixation3.jpg></div><div class='cl'><div class='vertical-center'><font style='color:orange'>$98<br>with a<br>50% chance</font></div></div><div class='cr'><div class='vertical-center'>$53<br>for<br>sure</div></div><div class='respDivL'><div class='vertical-center'><font style='color:orange'>(E)</font></div></div><div class='respDivR'><div class='vertical-center'>(I)</div></div></div>","null","$53","$98","1","53","98",""
"","","","FIX","63b82398bbe6a599972413ad","bdp_rd","Tue Mar 28 2023 11:12:02 GMT-0400 (Eastern Daylight Time)","180851","html-keyboard-response","50","75779","0.0-5.0-1.15","","null","","<div class='trialBorder'><div class='vertical-center'><img style='vertical-align:center; align:center' src=img/fixation3.jpg></div></div>","null","","","","","",""
"","","","offer","63b82398bbe6a599972413ad","bdp_rd","Tue Mar 28 2023 11:12:02 GMT-0400 (Eastern Daylight Time)","180851","html-keyboard-response","51","77228","0.0-5.0-2.15","","1448","","<div class='trialBorder'><div class='vertical-center'><img style='vertical-align:center; align:center' src=img/fixation3.jpg></div><div class='cl'><div class='vertical-center'>$35<br>with a<br>50% chance</div></div><div class='cr'><div class='vertical-center'>$12<br>for<br>sure</div></div><div class='respDivL'><div class='vertical-center'>(E)</div></div><div class='respDivR'><div class='vertical-center'>(I)</div></div></div>","E","$12","$35","1","12","35","RISKY"
"","","","offerFB","63b82398bbe6a599972413ad","bdp_rd","Tue Mar 28 2023 11:12:02 GMT-0400 (Eastern Daylight Time)","180851","html-keyboard-response","52","77486","0.0-5.0-3.15","","null","","<div class='trialBorder'><div class='vertical-center'><img style='vertical-align:center; align:center' src=img/fixation3.jpg></div><div class='cl'><div class='vertical-center'><font style='color:orange'>$35<br>with a<br>50% chance</font></div></div><div class='cr'><div class='vertical-center'>$12<br>for<br>sure</div></div><div class='respDivL'><div class='vertical-center'><font style='color:orange'>(E)</font></div></div><div class='respDivR'><div class='vertical-center'>(I)</div></div></div>","null","$12","$35","1","12","35",""
"","","","FIX","63b82398bbe6a599972413ad","bdp_rd","Tue Mar 28 2023 11:12:02 GMT-0400 (Eastern Daylight Time)","180851","html-keyboard-response","53","77993","0.0-5.0-1.16","","null","","<div class='trialBorder'><div class='vertical-center'><img style='vertical-align:center; align:center' src=img/fixation3.jpg></div></div>","null","","","","","",""
"","","","offer","63b82398bbe6a599972413ad","bdp_rd","Tue Mar 28 2023 11:12:02 GMT-0400 (Eastern Daylight Time)","180851","html-keyboard-response","54","79184","0.0-5.0-2.16","","1189","","<div class='trialBorder'><div class='vertical-center'><img style='vertical-align:center; align:center' src=img/fixation3.jpg></div><div class='cl'><div class='vertical-center'>$12<br>with a<br>50% chance</div></div><div class='cr'><div class='vertical-center'>$3<br>for<br>sure</div></div><div class='respDivL'><div class='vertical-center'>(E)</div></div><div class='respDivR'><div class='vertical-center'>(I)</div></div></div>","E","$3","$12","1","3","12","RISKY"
"","","","offerFB","63b82398bbe6a599972413ad","bdp_rd","Tue Mar 28 2023 11:12:02 GMT-0400 (Eastern Daylight Time)","180851","html-keyboard-response","55","79446","0.0-5.0-3.16","","null","","<div class='trialBorder'><div class='vertical-center'><img style='vertical-align:center; align:center' src=img/fixation3.jpg></div><div class='cl'><div class='vertical-center'><font style='color:orange'>$12<br>with a<br>50% chance</font></div></div><div class='cr'><div class='vertical-center'>$3<br>for<br>sure</div></div><div class='respDivL'><div class='vertical-center'><font style='color:orange'>(E)</font></div></div><div class='respDivR'><div class='vertical-center'>(I)</div></div></div>","null","$3","$12","1","3","12",""
"","","","FIX","63b82398bbe6a599972413ad","bdp_rd","Tue Mar 28 2023 11:12:02 GMT-0400 (Eastern Daylight Time)","180851","html-keyboard-response","56","79948","0.0-5.0-1.17","","null","","<div class='trialBorder'><div class='vertical-center'><img style='vertical-align:center; align:center' src=img/fixation3.jpg></div></div>","null","","","","","",""
"","","","offer","63b82398bbe6a599972413ad","bdp_rd","Tue Mar 28 2023 11:12:02 GMT-0400 (Eastern Daylight Time)","180851","html-keyboard-response","57","82340","0.0-5.0-2.17","","2391","","<div class='trialBorder'><div class='vertical-center'><img style='vertical-align:center; align:center' src=img/fixation3.jpg></div><div class='cl'><div class='vertical-center'>$33<br>for<br>sure</div></div><div class='cr'><div class='vertical-center'>$66<br>with a<br>50% chance</div></div><div class='respDivL'><div class='vertical-center'>(E)</div></div><div class='respDivR'><div class='vertical-center'>(I)</div></div></div>","E","$33","$66","0","33","66","SURE"
"","","","offerFB","63b82398bbe6a599972413ad","bdp_rd","Tue Mar 28 2023 11:12:02 GMT-0400 (Eastern Daylight Time)","180851","html-keyboard-response","58","82595","0.0-5.0-3.17","","null","","<div class='trialBorder'><div class='vertical-center'><img style='vertical-align:center; align:center' src=img/fixation3.jpg></div><div class='cl'><div class='vertical-center'><font style='color:orange'>$33<br>for<br>sure</font></div></div><div class='cr'><div class='vertical-center'>$66<br>with a<br>50% chance</div></div><div class='respDivL'><div class='vertical-center'><font style='color:orange'>(E)</font></div></div><div class='respDivR'><div class='vertical-center'>(I)</div></div></div>","null","$33","$66","0","33","66",""
"","","","FIX","63b82398bbe6a599972413ad","bdp_rd","Tue Mar 28 2023 11:12:02 GMT-0400 (Eastern Daylight Time)","180851","html-keyboard-response","59","83108","0.0-5.0-1.18","","null","","<div class='trialBorder'><div class='vertical-center'><img style='vertical-align:center; align:center' src=img/fixation3.jpg></div></div>","null","","","","","",""
"","","","offer","63b82398bbe6a599972413ad","bdp_rd","Tue Mar 28 2023 11:12:02 GMT-0400 (Eastern Daylight Time)","180851","html-keyboard-response","60","84565","0.0-5.0-2.18","","1456","","<div class='trialBorder'><div class='vertical-center'><img style='vertical-align:center; align:center' src=img/fixation3.jpg></div><div class='cl'><div class='vertical-center'>$14<br>for<br>sure</div></div><div class='cr'><div class='vertical-center'>$22<br>with a<br>50% chance</div></div><div class='respDivL'><div class='vertical-center'>(E)</div></div><div class='respDivR'><div class='vertical-center'>(I)</div></div></div>","E","$14","$22","0","14","22","SURE"
"","","","offerFB","63b82398bbe6a599972413ad","bdp_rd","Tue Mar 28 2023 11:12:02 GMT-0400 (Eastern Daylight Time)","180851","html-keyboard-response","61","84821","0.0-5.0-3.18","","null","","<div class='trialBorder'><div class='vertical-center'><img style='vertical-align:center; align:center' src=img/fixation3.jpg></div><div class='cl'><div class='vertical-center'><font style='color:orange'>$14<br>for<br>sure</font></div></div><div class='cr'><div class='vertical-center'>$22<br>with a<br>50% chance</div></div><div class='respDivL'><div class='vertical-center'><font style='color:orange'>(E)</font></div></div><div class='respDivR'><div class='vertical-center'>(I)</div></div></div>","null","$14","$22","0","14","22",""
"","","","FIX","63b82398bbe6a599972413ad","bdp_rd","Tue Mar 28 2023 11:12:02 GMT-0400 (Eastern Daylight Time)","180851","html-keyboard-response","62","85335","0.0-5.0-1.19","","null","","<div class='trialBorder'><div class='vertical-center'><img style='vertical-align:center; align:center' src=img/fixation3.jpg></div></div>","null","","","","","",""
"","","","offer","63b82398bbe6a599972413ad","bdp_rd","Tue Mar 28 2023 11:12:02 GMT-0400 (Eastern Daylight Time)","180851","html-keyboard-response","63","86598","0.0-5.0-2.19","","1261","","<div class='trialBorder'><div class='vertical-center'><img style='vertical-align:center; align:center' src=img/fixation3.jpg></div><div class='cl'><div class='vertical-center'>$4<br>for<br>sure</div></div><div class='cr'><div class='vertical-center'>$14<br>with a<br>50% chance</div></div><div class='respDivL'><div class='vertical-center'>(E)</div></div><div class='respDivR'><div class='vertical-center'>(I)</div></div></div>","I","$4","$14","0","4","14","RISKY"
"","","","offerFB","63b82398bbe6a599972413ad","bdp_rd","Tue Mar 28 2023 11:12:02 GMT-0400 (Eastern Daylight Time)","180851","html-keyboard-response","64","86854","0.0-5.0-3.19","","null","","<div class='trialBorder'><div class='vertical-center'><img style='vertical-align:center; align:center' src=img/fixation3.jpg></div><div class='cl'><div class='vertical-center'>$4<br>for<br>sure</div></div><div class='cr'><div class='vertical-center'><font style='color:orange'>$14<br>with a<br>50% chance</font></div></div><div class='respDivL'><div class='vertical-center'>(E)</div></div><div class='respDivR'><div class='vertical-center'><font style='color:orange'>(I)</font></div></div></div>","null","$4","$14","0","4","14",""
"","","","FIX","63b82398bbe6a599972413ad","bdp_rd","Tue Mar 28 2023 11:12:02 GMT-0400 (Eastern Daylight Time)","180851","html-keyboard-response","65","87362","0.0-5.0-1.20","","null","","<div class='trialBorder'><div class='vertical-center'><img style='vertical-align:center; align:center' src=img/fixation3.jpg></div></div>","null","","","","","",""
"","","","offer","63b82398bbe6a599972413ad","bdp_rd","Tue Mar 28 2023 11:12:02 GMT-0400 (Eastern Daylight Time)","180851","html-keyboard-response","66","88643","0.0-5.0-2.20","","1280","","<div class='trialBorder'><div class='vertical-center'><img style='vertical-align:center; align:center' src=img/fixation3.jpg></div><div class='cl'><div class='vertical-center'>$17<br>for<br>sure</div></div><div class='cr'><div class='vertical-center'>$43<br>with a<br>50% chance</div></div><div class='respDivL'><div class='vertical-center'>(E)</div></div><div class='respDivR'><div class='vertical-center'>(I)</div></div></div>","I","$17","$43","0","17","43","RISKY"
"","","","offerFB","63b82398bbe6a599972413ad","bdp_rd","Tue Mar 28 2023 11:12:02 GMT-0400 (Eastern Daylight Time)","180851","html-keyboard-response","67","88895","0.0-5.0-3.20","","null","","<div class='trialBorder'><div class='vertical-center'><img style='vertical-align:center; align:center' src=img/fixation3.jpg></div><div class='cl'><div class='vertical-center'>$17<br>for<br>sure</div></div><div class='cr'><div class='vertical-center'><font style='color:orange'>$43<br>with a<br>50% chance</font></div></div><div class='respDivL'><div class='vertical-center'>(E)</div></div><div class='respDivR'><div class='vertical-center'><font style='color:orange'>(I)</font></div></div></div>","null","$17","$43","0","17","43",""
"","","","FIX","63b82398bbe6a599972413ad","bdp_rd","Tue Mar 28 2023 11:12:02 GMT-0400 (Eastern Daylight Time)","180851","html-keyboard-response","68","89397","0.0-5.0-1.21","","null","","<div class='trialBorder'><div class='vertical-center'><img style='vertical-align:center; align:center' src=img/fixation3.jpg></div></div>","null","","","","","",""
"","","","offer","63b82398bbe6a599972413ad","bdp_rd","Tue Mar 28 2023 11:12:02 GMT-0400 (Eastern Daylight Time)","180851","html-keyboard-response","69","90590","0.0-5.0-2.21","","1192","","<div class='trialBorder'><div class='vertical-center'><img style='vertical-align:center; align:center' src=img/fixation3.jpg></div><div class='cl'><div class='vertical-center'>$18<br>for<br>sure</div></div><div class='cr'><div class='vertical-center'>$39<br>with a<br>50% chance</div></div><div class='respDivL'><div class='vertical-center'>(E)</div></div><div class='respDivR'><div class='vertical-center'>(I)</div></div></div>","I","$18","$39","0","18","39","RISKY"
"","","","offerFB","63b82398bbe6a599972413ad","bdp_rd","Tue Mar 28 2023 11:12:02 GMT-0400 (Eastern Daylight Time)","180851","html-keyboard-response","70","90848","0.0-5.0-3.21","","null","","<div class='trialBorder'><div class='vertical-center'><img style='vertical-align:center; align:center' src=img/fixation3.jpg></div><div class='cl'><div class='vertical-center'>$18<br>for<br>sure</div></div><div class='cr'><div class='vertical-center'><font style='color:orange'>$39<br>with a<br>50% chance</font></div></div><div class='respDivL'><div class='vertical-center'>(E)</div></div><div class='respDivR'><div class='vertical-center'><font style='color:orange'>(I)</font></div></div></div>","null","$18","$39","0","18","39",""
"","","","FIX","63b82398bbe6a599972413ad","bdp_rd","Tue Mar 28 2023 11:12:02 GMT-0400 (Eastern Daylight Time)","180851","html-keyboard-response","71","91352","0.0-5.0-1.22","","null","","<div class='trialBorder'><div class='vertical-center'><img style='vertical-align:center; align:center' src=img/fixation3.jpg></div></div>","null","","","","","",""
"","","","offer","63b82398bbe6a599972413ad","bdp_rd","Tue Mar 28 2023 11:12:02 GMT-0400 (Eastern Daylight Time)","180851","html-keyboard-response","72","92532","0.0-5.0-2.22","","1179","","<div class='trialBorder'><div class='vertical-center'><img style='vertical-align:center; align:center' src=img/fixation3.jpg></div><div class='cl'><div class='vertical-center'>$24<br>for<br>sure</div></div><div class='cr'><div class='vertical-center'>$70<br>with a<br>50% chance</div></div><div class='respDivL'><div class='vertical-center'>(E)</div></div><div class='respDivR'><div class='vertical-center'>(I)</div></div></div>","I","$24","$70","0","24","70","RISKY"
"","","","offerFB","63b82398bbe6a599972413ad","bdp_rd","Tue Mar 28 2023 11:12:02 GMT-0400 (Eastern Daylight Time)","180851","html-keyboard-response","73","92788","0.0-5.0-3.22","","null","","<div class='trialBorder'><div class='vertical-center'><img style='vertical-align:center; align:center' src=img/fixation3.jpg></div><div class='cl'><div class='vertical-center'>$24<br>for<br>sure</div></div><div class='cr'><div class='vertical-center'><font style='color:orange'>$70<br>with a<br>50% chance</font></div></div><div class='respDivL'><div class='vertical-center'>(E)</div></div><div class='respDivR'><div class='vertical-center'><font style='color:orange'>(I)</font></div></div></div>","null","$24","$70","0","24","70",""
"","","","FIX","63b82398bbe6a599972413ad","bdp_rd","Tue Mar 28 2023 11:12:02 GMT-0400 (Eastern Daylight Time)","180851","html-keyboard-response","74","93303","0.0-5.0-1.23","","null","","<div class='trialBorder'><div class='vertical-center'><img style='vertical-align:center; align:center' src=img/fixation3.jpg></div></div>","null","","","","","",""
"","","","offer","63b82398bbe6a599972413ad","bdp_rd","Tue Mar 28 2023 11:12:02 GMT-0400 (Eastern Daylight Time)","180851","html-keyboard-response","75","94693","0.0-5.0-2.23","","1389","","<div class='trialBorder'><div class='vertical-center'><img style='vertical-align:center; align:center' src=img/fixation3.jpg></div><div class='cl'><div class='vertical-center'>$25<br>for<br>sure</div></div><div class='cr'><div class='vertical-center'>$54<br>with a<br>50% chance</div></div><div class='respDivL'><div class='vertical-center'>(E)</div></div><div class='respDivR'><div class='vertical-center'>(I)</div></div></div>","I","$25","$54","0","25","54","RISKY"
"","","","offerFB","63b82398bbe6a599972413ad","bdp_rd","Tue Mar 28 2023 11:12:02 GMT-0400 (Eastern Daylight Time)","180851","html-keyboard-response","76","94950","0.0-5.0-3.23","","null","","<div class='trialBorder'><div class='vertical-center'><img style='vertical-align:center; align:center' src=img/fixation3.jpg></div><div class='cl'><div class='vertical-center'>$25<br>for<br>sure</div></div><div class='cr'><div class='vertical-center'><font style='color:orange'>$54<br>with a<br>50% chance</font></div></div><div class='respDivL'><div class='vertical-center'>(E)</div></div><div class='respDivR'><div class='vertical-center'><font style='color:orange'>(I)</font></div></div></div>","null","$25","$54","0","25","54",""
"","","","FIX","63b82398bbe6a599972413ad","bdp_rd","Tue Mar 28 2023 11:12:02 GMT-0400 (Eastern Daylight Time)","180851","html-keyboard-response","77","95451","0.0-5.0-1.24","","null","","<div class='trialBorder'><div class='vertical-center'><img style='vertical-align:center; align:center' src=img/fixation3.jpg></div></div>","null","","","","","",""
"","","","offer","63b82398bbe6a599972413ad","bdp_rd","Tue Mar 28 2023 11:12:02 GMT-0400 (Eastern Daylight Time)","180851","html-keyboard-response","78","96781","0.0-5.0-2.24","","1330","","<div class='trialBorder'><div class='vertical-center'><img style='vertical-align:center; align:center' src=img/fixation3.jpg></div><div class='cl'><div class='vertical-center'>$46<br>for<br>sure</div></div><div class='cr'><div class='vertical-center'>$65<br>with a<br>50% chance</div></div><div class='respDivL'><div class='vertical-center'>(E)</div></div><div class='respDivR'><div class='vertical-center'>(I)</div></div></div>","E","$46","$65","0","46","65","SURE"
"","","","offerFB","63b82398bbe6a599972413ad","bdp_rd","Tue Mar 28 2023 11:12:02 GMT-0400 (Eastern Daylight Time)","180851","html-keyboard-response","79","97040","0.0-5.0-3.24","","null","","<div class='trialBorder'><div class='vertical-center'><img style='vertical-align:center; align:center' src=img/fixation3.jpg></div><div class='cl'><div class='vertical-center'><font style='color:orange'>$46<br>for<br>sure</font></div></div><div class='cr'><div class='vertical-center'>$65<br>with a<br>50% chance</div></div><div class='respDivL'><div class='vertical-center'><font style='color:orange'>(E)</font></div></div><div class='respDivR'><div class='vertical-center'>(I)</div></div></div>","null","$46","$65","0","46","65",""
"","","","FIX","63b82398bbe6a599972413ad","bdp_rd","Tue Mar 28 2023 11:12:02 GMT-0400 (Eastern Daylight Time)","180851","html-keyboard-response","80","97542","0.0-5.0-1.25","","null","","<div class='trialBorder'><div class='vertical-center'><img style='vertical-align:center; align:center' src=img/fixation3.jpg></div></div>","null","","","","","",""
"","","","offer","63b82398bbe6a599972413ad","bdp_rd","Tue Mar 28 2023 11:12:02 GMT-0400 (Eastern Daylight Time)","180851","html-keyboard-response","81","99720","0.0-5.0-2.25","","2177","","<div class='trialBorder'><div class='vertical-center'><img style='vertical-align:center; align:center' src=img/fixation3.jpg></div><div class='cl'><div class='vertical-center'>$45<br>for<br>sure</div></div><div class='cr'><div class='vertical-center'>$86<br>with a<br>50% chance</div></div><div class='respDivL'><div class='vertical-center'>(E)</div></div><div class='respDivR'><div class='vertical-center'>(I)</div></div></div>","E","$45","$86","0","45","86","SURE"
"","","","offerFB","63b82398bbe6a599972413ad","bdp_rd","Tue Mar 28 2023 11:12:02 GMT-0400 (Eastern Daylight Time)","180851","html-keyboard-response","82","99977","0.0-5.0-3.25","","null","","<div class='trialBorder'><div class='vertical-center'><img style='vertical-align:center; align:center' src=img/fixation3.jpg></div><div class='cl'><div class='vertical-center'><font style='color:orange'>$45<br>for<br>sure</font></div></div><div class='cr'><div class='vertical-center'>$86<br>with a<br>50% chance</div></div><div class='respDivL'><div class='vertical-center'><font style='color:orange'>(E)</font></div></div><div class='respDivR'><div class='vertical-center'>(I)</div></div></div>","null","$45","$86","0","45","86",""
"","","","FIX","63b82398bbe6a599972413ad","bdp_rd","Tue Mar 28 2023 11:12:02 GMT-0400 (Eastern Daylight Time)","180851","html-keyboard-response","83","100485","0.0-5.0-1.26","","null","","<div class='trialBorder'><div class='vertical-center'><img style='vertical-align:center; align:center' src=img/fixation3.jpg></div></div>","null","","","","","",""
"","","","offer","63b82398bbe6a599972413ad","bdp_rd","Tue Mar 28 2023 11:12:02 GMT-0400 (Eastern Daylight Time)","180851","html-keyboard-response","84","101691","0.0-5.0-2.26","","1206","","<div class='trialBorder'><div class='vertical-center'><img style='vertical-align:center; align:center' src=img/fixation3.jpg></div><div class='cl'><div class='vertical-center'>$5<br>for<br>sure</div></div><div class='cr'><div class='vertical-center'>$50<br>with a<br>50% chance</div></div><div class='respDivL'><div class='vertical-center'>(E)</div></div><div class='respDivR'><div class='vertical-center'>(I)</div></div></div>","I","$5","$50","0","5","50","RISKY"
"","","","offerFB","63b82398bbe6a599972413ad","bdp_rd","Tue Mar 28 2023 11:12:02 GMT-0400 (Eastern Daylight Time)","180851","html-keyboard-response","85","101950","0.0-5.0-3.26","","null","","<div class='trialBorder'><div class='vertical-center'><img style='vertical-align:center; align:center' src=img/fixation3.jpg></div><div class='cl'><div class='vertical-center'>$5<br>for<br>sure</div></div><div class='cr'><div class='vertical-center'><font style='color:orange'>$50<br>with a<br>50% chance</font></div></div><div class='respDivL'><div class='vertical-center'>(E)</div></div><div class='respDivR'><div class='vertical-center'><font style='color:orange'>(I)</font></div></div></div>","null","$5","$50","0","5","50",""
"","","","FIX","63b82398bbe6a599972413ad","bdp_rd","Tue Mar 28 2023 11:12:02 GMT-0400 (Eastern Daylight Time)","180851","html-keyboard-response","86","102454","0.0-5.0-1.27","","null","","<div class='trialBorder'><div class='vertical-center'><img style='vertical-align:center; align:center' src=img/fixation3.jpg></div></div>","null","","","","","",""
"","","","offer","63b82398bbe6a599972413ad","bdp_rd","Tue Mar 28 2023 11:12:02 GMT-0400 (Eastern Daylight Time)","180851","html-keyboard-response","87","104026","0.0-5.0-2.27","","1572","","<div class='trialBorder'><div class='vertical-center'><img style='vertical-align:center; align:center' src=img/fixation3.jpg></div><div class='cl'><div class='vertical-center'>$8<br>for<br>sure</div></div><div class='cr'><div class='vertical-center'>$23<br>with a<br>50% chance</div></div><div class='respDivL'><div class='vertical-center'>(E)</div></div><div class='respDivR'><div class='vertical-center'>(I)</div></div></div>","I","$8","$23","0","8","23","RISKY"
"","","","offerFB","63b82398bbe6a599972413ad","bdp_rd","Tue Mar 28 2023 11:12:02 GMT-0400 (Eastern Daylight Time)","180851","html-keyboard-response","88","104284","0.0-5.0-3.27","","null","","<div class='trialBorder'><div class='vertical-center'><img style='vertical-align:center; align:center' src=img/fixation3.jpg></div><div class='cl'><div class='vertical-center'>$8<br>for<br>sure</div></div><div class='cr'><div class='vertical-center'><font style='color:orange'>$23<br>with a<br>50% chance</font></div></div><div class='respDivL'><div class='vertical-center'>(E)</div></div><div class='respDivR'><div class='vertical-center'><font style='color:orange'>(I)</font></div></div></div>","null","$8","$23","0","8","23",""
"","","","FIX","63b82398bbe6a599972413ad","bdp_rd","Tue Mar 28 2023 11:12:02 GMT-0400 (Eastern Daylight Time)","180851","html-keyboard-response","89","104786","0.0-5.0-1.28","","null","","<div class='trialBorder'><div class='vertical-center'><img style='vertical-align:center; align:center' src=img/fixation3.jpg></div></div>","null","","","","","",""
"","","","offer","63b82398bbe6a599972413ad","bdp_rd","Tue Mar 28 2023 11:12:02 GMT-0400 (Eastern Daylight Time)","180851","html-keyboard-response","90","105880","0.0-5.0-2.28","","1092","","<div class='trialBorder'><div class='vertical-center'><img style='vertical-align:center; align:center' src=img/fixation3.jpg></div><div class='cl'><div class='vertical-center'>$7<br>for<br>sure</div></div><div class='cr'><div class='vertical-center'>$10<br>with a<br>50% chance</div></div><div class='respDivL'><div class='vertical-center'>(E)</div></div><div class='respDivR'><div class='vertical-center'>(I)</div></div></div>","E","$7","$10","0","7","10","SURE"
"","","","offerFB","63b82398bbe6a599972413ad","bdp_rd","Tue Mar 28 2023 11:12:02 GMT-0400 (Eastern Daylight Time)","180851","html-keyboard-response","91","106133","0.0-5.0-3.28","","null","","<div class='trialBorder'><div class='vertical-center'><img style='vertical-align:center; align:center' src=img/fixation3.jpg></div><div class='cl'><div class='vertical-center'><font style='color:orange'>$7<br>for<br>sure</font></div></div><div class='cr'><div class='vertical-center'>$10<br>with a<br>50% chance</div></div><div class='respDivL'><div class='vertical-center'><font style='color:orange'>(E)</font></div></div><div class='respDivR'><div class='vertical-center'>(I)</div></div></div>","null","$7","$10","0","7","10",""
"","","","FIX","63b82398bbe6a599972413ad","bdp_rd","Tue Mar 28 2023 11:12:02 GMT-0400 (Eastern Daylight Time)","180851","html-keyboard-response","92","106643","0.0-5.0-1.29","","null","","<div class='trialBorder'><div class='vertical-center'><img style='vertical-align:center; align:center' src=img/fixation3.jpg></div></div>","null","","","","","",""
"","","","offer","63b82398bbe6a599972413ad","bdp_rd","Tue Mar 28 2023 11:12:02 GMT-0400 (Eastern Daylight Time)","180851","html-keyboard-response","93","107880","0.0-5.0-2.29","","1237","","<div class='trialBorder'><div class='vertical-center'><img style='vertical-align:center; align:center' src=img/fixation3.jpg></div><div class='cl'><div class='vertical-center'>$78<br>with a<br>50% chance</div></div><div class='cr'><div class='vertical-center'>$31<br>for<br>sure</div></div><div class='respDivL'><div class='vertical-center'>(E)</div></div><div class='respDivR'><div class='vertical-center'>(I)</div></div></div>","E","$31","$78","1","31","78","RISKY"
"","","","offerFB","63b82398bbe6a599972413ad","bdp_rd","Tue Mar 28 2023 11:12:02 GMT-0400 (Eastern Daylight Time)","180851","html-keyboard-response","94","108137","0.0-5.0-3.29","","null","","<div class='trialBorder'><div class='vertical-center'><img style='vertical-align:center; align:center' src=img/fixation3.jpg></div><div class='cl'><div class='vertical-center'><font style='color:orange'>$78<br>with a<br>50% chance</font></div></div><div class='cr'><div class='vertical-center'>$31<br>for<br>sure</div></div><div class='respDivL'><div class='vertical-center'><font style='color:orange'>(E)</font></div></div><div class='respDivR'><div class='vertical-center'>(I)</div></div></div>","null","$31","$78","1","31","78",""
"","","","FIX","63b82398bbe6a599972413ad","bdp_rd","Tue Mar 28 2023 11:12:02 GMT-0400 (Eastern Daylight Time)","180851","html-keyboard-response","95","108646","0.0-5.0-1.30","","null","","<div class='trialBorder'><div class='vertical-center'><img style='vertical-align:center; align:center' src=img/fixation3.jpg></div></div>","null","","","","","",""
"","","","offer","63b82398bbe6a599972413ad","bdp_rd","Tue Mar 28 2023 11:12:02 GMT-0400 (Eastern Daylight Time)","180851","html-keyboard-response","96","109681","0.0-5.0-2.30","","1034","","<div class='trialBorder'><div class='vertical-center'><img style='vertical-align:center; align:center' src=img/fixation3.jpg></div><div class='cl'><div class='vertical-center'>$39<br>for<br>sure</div></div><div class='cr'><div class='vertical-center'>$81<br>with a<br>50% chance</div></div><div class='respDivL'><div class='vertical-center'>(E)</div></div><div class='respDivR'><div class='vertical-center'>(I)</div></div></div>","I","$39","$81","0","39","81","RISKY"
"","","","offerFB","63b82398bbe6a599972413ad","bdp_rd","Tue Mar 28 2023 11:12:02 GMT-0400 (Eastern Daylight Time)","180851","html-keyboard-response","97","109941","0.0-5.0-3.30","","null","","<div class='trialBorder'><div class='vertical-center'><img style='vertical-align:center; align:center' src=img/fixation3.jpg></div><div class='cl'><div class='vertical-center'>$39<br>for<br>sure</div></div><div class='cr'><div class='vertical-center'><font style='color:orange'>$81<br>with a<br>50% chance</font></div></div><div class='respDivL'><div class='vertical-center'>(E)</div></div><div class='respDivR'><div class='vertical-center'><font style='color:orange'>(I)</font></div></div></div>","null","$39","$81","0","39","81",""
"","","","FIX","63b82398bbe6a599972413ad","bdp_rd","Tue Mar 28 2023 11:12:02 GMT-0400 (Eastern Daylight Time)","180851","html-keyboard-response","98","110446","0.0-5.0-1.31","","null","","<div class='trialBorder'><div class='vertical-center'><img style='vertical-align:center; align:center' src=img/fixation3.jpg></div></div>","null","","","","","",""
"","","","offer","63b82398bbe6a599972413ad","bdp_rd","Tue Mar 28 2023 11:12:02 GMT-0400 (Eastern Daylight Time)","180851","html-keyboard-response","99","112318","0.0-5.0-2.31","","1871","","<div class='trialBorder'><div class='vertical-center'><img style='vertical-align:center; align:center' src=img/fixation3.jpg></div><div class='cl'><div class='vertical-center'>$38<br>with a<br>50% chance</div></div><div class='cr'><div class='vertical-center'>$16<br>for<br>sure</div></div><div class='respDivL'><div class='vertical-center'>(E)</div></div><div class='respDivR'><div class='vertical-center'>(I)</div></div></div>","I","$16","$38","1","16","38","SURE"
"","","","offerFB","63b82398bbe6a599972413ad","bdp_rd","Tue Mar 28 2023 11:12:02 GMT-0400 (Eastern Daylight Time)","180851","html-keyboard-response","100","112579","0.0-5.0-3.31","","null","","<div class='trialBorder'><div class='vertical-center'><img style='vertical-align:center; align:center' src=img/fixation3.jpg></div><div class='cl'><div class='vertical-center'>$38<br>with a<br>50% chance</div></div><div class='cr'><div class='vertical-center'><font style='color:orange'>$16<br>for<br>sure</font></div></div><div class='respDivL'><div class='vertical-center'>(E)</div></div><div class='respDivR'><div class='vertical-center'><font style='color:orange'>(I)</font></div></div></div>","null","$16","$38","1","16","38",""
"","","","FIX","63b82398bbe6a599972413ad","bdp_rd","Tue Mar 28 2023 11:12:02 GMT-0400 (Eastern Daylight Time)","180851","html-keyboard-response","101","113085","0.0-5.0-1.32","","null","","<div class='trialBorder'><div class='vertical-center'><img style='vertical-align:center; align:center' src=img/fixation3.jpg></div></div>","null","","","","","",""
"","","","offer","63b82398bbe6a599972413ad","bdp_rd","Tue Mar 28 2023 11:12:02 GMT-0400 (Eastern Daylight Time)","180851","html-keyboard-response","102","114939","0.0-5.0-2.32","","1854","","<div class='trialBorder'><div class='vertical-center'><img style='vertical-align:center; align:center' src=img/fixation3.jpg></div><div class='cl'><div class='vertical-center'>$30<br>for<br>sure</div></div><div class='cr'><div class='vertical-center'>$68<br>with a<br>50% chance</div></div><div class='respDivL'><div class='vertical-center'>(E)</div></div><div class='respDivR'><div class='vertical-center'>(I)</div></div></div>","I","$30","$68","0","30","68","RISKY"
"","","","offerFB","63b82398bbe6a599972413ad","bdp_rd","Tue Mar 28 2023 11:12:02 GMT-0400 (Eastern Daylight Time)","180851","html-keyboard-response","103","115204","0.0-5.0-3.32","","null","","<div class='trialBorder'><div class='vertical-center'><img style='vertical-align:center; align:center' src=img/fixation3.jpg></div><div class='cl'><div class='vertical-center'>$30<br>for<br>sure</div></div><div class='cr'><div class='vertical-center'><font style='color:orange'>$68<br>with a<br>50% chance</font></div></div><div class='respDivL'><div class='vertical-center'>(E)</div></div><div class='respDivR'><div class='vertical-center'><font style='color:orange'>(I)</font></div></div></div>","null","$30","$68","0","30","68",""
"","","","FIX","63b82398bbe6a599972413ad","bdp_rd","Tue Mar 28 2023 11:12:02 GMT-0400 (Eastern Daylight Time)","180851","html-keyboard-response","104","115711","0.0-5.0-1.33","","null","","<div class='trialBorder'><div class='vertical-center'><img style='vertical-align:center; align:center' src=img/fixation3.jpg></div></div>","null","","","","","",""
"","","","offer","63b82398bbe6a599972413ad","bdp_rd","Tue Mar 28 2023 11:12:02 GMT-0400 (Eastern Daylight Time)","180851","html-keyboard-response","105","117337","0.0-5.0-2.33","","1625","","<div class='trialBorder'><div class='vertical-center'><img style='vertical-align:center; align:center' src=img/fixation3.jpg></div><div class='cl'><div class='vertical-center'>$63<br>for<br>sure</div></div><div class='cr'><div class='vertical-center'>$100<br>with a<br>50% chance</div></div><div class='respDivL'><div class='vertical-center'>(E)</div></div><div class='respDivR'><div class='vertical-center'>(I)</div></div></div>","I","$63","$100","0","63","10","RISKY"
"","","","offerFB","63b82398bbe6a599972413ad","bdp_rd","Tue Mar 28 2023 11:12:02 GMT-0400 (Eastern Daylight Time)","180851","html-keyboard-response","106","117601","0.0-5.0-3.33","","null","","<div class='trialBorder'><div class='vertical-center'><img style='vertical-align:center; align:center' src=img/fixation3.jpg></div><div class='cl'><div class='vertical-center'>$63<br>for<br>sure</div></div><div class='cr'><div class='vertical-center'><font style='color:orange'>$100<br>with a<br>50% chance</font></div></div><div class='respDivL'><div class='vertical-center'>(E)</div></div><div class='respDivR'><div class='vertical-center'><font style='color:orange'>(I)</font></div></div></div>","null","$63","$100","0","63","10",""
"","","","FIX","63b82398bbe6a599972413ad","bdp_rd","Tue Mar 28 2023 11:12:02 GMT-0400 (Eastern Daylight Time)","180851","html-keyboard-response","107","118104","0.0-5.0-1.34","","null","","<div class='trialBorder'><div class='vertical-center'><img style='vertical-align:center; align:center' src=img/fixation3.jpg></div></div>","null","","","","","",""
"","","","offer","63b82398bbe6a599972413ad","bdp_rd","Tue Mar 28 2023 11:12:02 GMT-0400 (Eastern Daylight Time)","180851","html-keyboard-response","108","119397","0.0-5.0-2.34","","1293","","<div class='trialBorder'><div class='vertical-center'><img style='vertical-align:center; align:center' src=img/fixation3.jpg></div><div class='cl'><div class='vertical-center'>$32<br>with a<br>50% chance</div></div><div class='cr'><div class='vertical-center'>$9<br>for<br>sure</div></div><div class='respDivL'><div class='vertical-center'>(E)</div></div><div class='respDivR'><div class='vertical-center'>(I)</div></div></div>","E","$9","$32","1","9","32","RISKY"
"","","","offerFB","63b82398bbe6a599972413ad","bdp_rd","Tue Mar 28 2023 11:12:02 GMT-0400 (Eastern Daylight Time)","180851","html-keyboard-response","109","119652","0.0-5.0-3.34","","null","","<div class='trialBorder'><div class='vertical-center'><img style='vertical-align:center; align:center' src=img/fixation3.jpg></div><div class='cl'><div class='vertical-center'><font style='color:orange'>$32<br>with a<br>50% chance</font></div></div><div class='cr'><div class='vertical-center'>$9<br>for<br>sure</div></div><div class='respDivL'><div class='vertical-center'><font style='color:orange'>(E)</font></div></div><div class='respDivR'><div class='vertical-center'>(I)</div></div></div>","null","$9","$32","1","9","32",""
"","","","FIX","63b82398bbe6a599972413ad","bdp_rd","Tue Mar 28 2023 11:12:02 GMT-0400 (Eastern Daylight Time)","180851","html-keyboard-response","110","120158","0.0-5.0-1.35","","null","","<div class='trialBorder'><div class='vertical-center'><img style='vertical-align:center; align:center' src=img/fixation3.jpg></div></div>","null","","","","","",""
"","","","offer","63b82398bbe6a599972413ad","bdp_rd","Tue Mar 28 2023 11:12:02 GMT-0400 (Eastern Daylight Time)","180851","html-keyboard-response","111","122484","0.0-5.0-2.35","","2324","","<div class='trialBorder'><div class='vertical-center'><img style='vertical-align:center; align:center' src=img/fixation3.jpg></div><div class='cl'><div class='vertical-center'>$34<br>with a<br>50% chance</div></div><div class='cr'><div class='vertical-center'>$15<br>for<br>sure</div></div><div class='respDivL'><div class='vertical-center'>(E)</div></div><div class='respDivR'><div class='vertical-center'>(I)</div></div></div>","I","$15","$34","1","15","34","SURE"
"","","","offerFB","63b82398bbe6a599972413ad","bdp_rd","Tue Mar 28 2023 11:12:02 GMT-0400 (Eastern Daylight Time)","180851","html-keyboard-response","112","122736","0.0-5.0-3.35","","null","","<div class='trialBorder'><div class='vertical-center'><img style='vertical-align:center; align:center' src=img/fixation3.jpg></div><div class='cl'><div class='vertical-center'>$34<br>with a<br>50% chance</div></div><div class='cr'><div class='vertical-center'><font style='color:orange'>$15<br>for<br>sure</font></div></div><div class='respDivL'><div class='vertical-center'>(E)</div></div><div class='respDivR'><div class='vertical-center'><font style='color:orange'>(I)</font></div></div></div>","null","$15","$34","1","15","34",""
"","","","FIX","63b82398bbe6a599972413ad","bdp_rd","Tue Mar 28 2023 11:12:02 GMT-0400 (Eastern Daylight Time)","180851","html-keyboard-response","113","123242","0.0-5.0-1.36","","null","","<div class='trialBorder'><div class='vertical-center'><img style='vertical-align:center; align:center' src=img/fixation3.jpg></div></div>","null","","","","","",""
"","","","offer","63b82398bbe6a599972413ad","bdp_rd","Tue Mar 28 2023 11:12:02 GMT-0400 (Eastern Daylight Time)","180851","html-keyboard-response","114","125172","0.0-5.0-2.36","","1928","","<div class='trialBorder'><div class='vertical-center'><img style='vertical-align:center; align:center' src=img/fixation3.jpg></div><div class='cl'><div class='vertical-center'>$6<br>for<br>sure</div></div><div class='cr'><div class='vertical-center'>$15<br>with a<br>50% chance</div></div><div class='respDivL'><div class='vertical-center'>(E)</div></div><div class='respDivR'><div class='vertical-center'>(I)</div></div></div>","I","$6","$15","0","6","15","RISKY"
"","","","offerFB","63b82398bbe6a599972413ad","bdp_rd","Tue Mar 28 2023 11:12:02 GMT-0400 (Eastern Daylight Time)","180851","html-keyboard-response","115","125435","0.0-5.0-3.36","","null","","<div class='trialBorder'><div class='vertical-center'><img style='vertical-align:center; align:center' src=img/fixation3.jpg></div><div class='cl'><div class='vertical-center'>$6<br>for<br>sure</div></div><div class='cr'><div class='vertical-center'><font style='color:orange'>$15<br>with a<br>50% chance</font></div></div><div class='respDivL'><div class='vertical-center'>(E)</div></div><div class='respDivR'><div class='vertical-center'><font style='color:orange'>(I)</font></div></div></div>","null","$6","$15","0","6","15",""
"","","","FIX","63b82398bbe6a599972413ad","bdp_rd","Tue Mar 28 2023 11:12:02 GMT-0400 (Eastern Daylight Time)","180851","html-keyboard-response","116","125941","0.0-5.0-1.37","","null","","<div class='trialBorder'><div class='vertical-center'><img style='vertical-align:center; align:center' src=img/fixation3.jpg></div></div>","null","","","","","",""
"","","","offer","63b82398bbe6a599972413ad","bdp_rd","Tue Mar 28 2023 11:12:02 GMT-0400 (Eastern Daylight Time)","180851","html-keyboard-response","117","127322","0.0-5.0-2.37","","1381","","<div class='trialBorder'><div class='vertical-center'><img style='vertical-align:center; align:center' src=img/fixation3.jpg></div><div class='cl'><div class='vertical-center'>$30<br>with a<br>50% chance</div></div><div class='cr'><div class='vertical-center'>$1<br>for<br>sure</div></div><div class='respDivL'><div class='vertical-center'>(E)</div></div><div class='respDivR'><div class='vertical-center'>(I)</div></div></div>","E","$1","$30","1","1","30","RISKY"
"","","","offerFB","63b82398bbe6a599972413ad","bdp_rd","Tue Mar 28 2023 11:12:02 GMT-0400 (Eastern Daylight Time)","180851","html-keyboard-response","118","127582","0.0-5.0-3.37","","null","","<div class='trialBorder'><div class='vertical-center'><img style='vertical-align:center; align:center' src=img/fixation3.jpg></div><div class='cl'><div class='vertical-center'><font style='color:orange'>$30<br>with a<br>50% chance</font></div></div><div class='cr'><div class='vertical-center'>$1<br>for<br>sure</div></div><div class='respDivL'><div class='vertical-center'><font style='color:orange'>(E)</font></div></div><div class='respDivR'><div class='vertical-center'>(I)</div></div></div>","null","$1","$30","1","1","30",""
"","","","FIX","63b82398bbe6a599972413ad","bdp_rd","Tue Mar 28 2023 11:12:02 GMT-0400 (Eastern Daylight Time)","180851","html-keyboard-response","119","128088","0.0-5.0-1.38","","null","","<div class='trialBorder'><div class='vertical-center'><img style='vertical-align:center; align:center' src=img/fixation3.jpg></div></div>","null","","","","","",""
"","","","offer","63b82398bbe6a599972413ad","bdp_rd","Tue Mar 28 2023 11:12:02 GMT-0400 (Eastern Daylight Time)","180851","html-keyboard-response","120","129505","0.0-5.0-2.38","","1416","","<div class='trialBorder'><div class='vertical-center'><img style='vertical-align:center; align:center' src=img/fixation3.jpg></div><div class='cl'><div class='vertical-center'>$8<br>for<br>sure</div></div><div class='cr'><div class='vertical-center'>$45<br>with a<br>50% chance</div></div><div class='respDivL'><div class='vertical-center'>(E)</div></div><div class='respDivR'><div class='vertical-center'>(I)</div></div></div>","I","$8","$45","0","8","45","RISKY"
"","","","offerFB","63b82398bbe6a599972413ad","bdp_rd","Tue Mar 28 2023 11:12:02 GMT-0400 (Eastern Daylight Time)","180851","html-keyboard-response","121","129763","0.0-5.0-3.38","","null","","<div class='trialBorder'><div class='vertical-center'><img style='vertical-align:center; align:center' src=img/fixation3.jpg></div><div class='cl'><div class='vertical-center'>$8<br>for<br>sure</div></div><div class='cr'><div class='vertical-center'><font style='color:orange'>$45<br>with a<br>50% chance</font></div></div><div class='respDivL'><div class='vertical-center'>(E)</div></div><div class='respDivR'><div class='vertical-center'><font style='color:orange'>(I)</font></div></div></div>","null","$8","$45","0","8","45",""
"","","","FIX","63b82398bbe6a599972413ad","bdp_rd","Tue Mar 28 2023 11:12:02 GMT-0400 (Eastern Daylight Time)","180851","html-keyboard-response","122","130268","0.0-5.0-1.39","","null","","<div class='trialBorder'><div class='vertical-center'><img style='vertical-align:center; align:center' src=img/fixation3.jpg></div></div>","null","","","","","",""
"","","","offer","63b82398bbe6a599972413ad","bdp_rd","Tue Mar 28 2023 11:12:02 GMT-0400 (Eastern Daylight Time)","180851","html-keyboard-response","123","131840","0.0-5.0-2.39","","1570","","<div class='trialBorder'><div class='vertical-center'><img style='vertical-align:center; align:center' src=img/fixation3.jpg></div><div class='cl'><div class='vertical-center'>$25<br>with a<br>50% chance</div></div><div class='cr'><div class='vertical-center'>$21<br>for<br>sure</div></div><div class='respDivL'><div class='vertical-center'>(E)</div></div><div class='respDivR'><div class='vertical-center'>(I)</div></div></div>","I","$21","$25","1","21","25","SURE"
"","","","offerFB","63b82398bbe6a599972413ad","bdp_rd","Tue Mar 28 2023 11:12:02 GMT-0400 (Eastern Daylight Time)","180851","html-keyboard-response","124","132101","0.0-5.0-3.39","","null","","<div class='trialBorder'><div class='vertical-center'><img style='vertical-align:center; align:center' src=img/fixation3.jpg></div><div class='cl'><div class='vertical-center'>$25<br>with a<br>50% chance</div></div><div class='cr'><div class='vertical-center'><font style='color:orange'>$21<br>for<br>sure</font></div></div><div class='respDivL'><div class='vertical-center'>(E)</div></div><div class='respDivR'><div class='vertical-center'><font style='color:orange'>(I)</font></div></div></div>","null","$21","$25","1","21","25",""
"","","","FIX","63b82398bbe6a599972413ad","bdp_rd","Tue Mar 28 2023 11:12:02 GMT-0400 (Eastern Daylight Time)","180851","html-keyboard-response","125","132605","0.0-5.0-1.40","","null","","<div class='trialBorder'><div class='vertical-center'><img style='vertical-align:center; align:center' src=img/fixation3.jpg></div></div>","null","","","","","",""
"","","","offer","63b82398bbe6a599972413ad","bdp_rd","Tue Mar 28 2023 11:12:02 GMT-0400 (Eastern Daylight Time)","180851","html-keyboard-response","126","134966","0.0-5.0-2.40","","2359","","<div class='trialBorder'><div class='vertical-center'><img style='vertical-align:center; align:center' src=img/fixation3.jpg></div><div class='cl'><div class='vertical-center'>$22<br>for<br>sure</div></div><div class='cr'><div class='vertical-center'>$59<br>with a<br>50% chance</div></div><div class='respDivL'><div class='vertical-center'>(E)</div></div><div class='respDivR'><div class='vertical-center'>(I)</div></div></div>","E","$22","$59","0","22","59","SURE"
"","","","offerFB","63b82398bbe6a599972413ad","bdp_rd","Tue Mar 28 2023 11:12:02 GMT-0400 (Eastern Daylight Time)","180851","html-keyboard-response","127","135224","0.0-5.0-3.40","","null","","<div class='trialBorder'><div class='vertical-center'><img style='vertical-align:center; align:center' src=img/fixation3.jpg></div><div class='cl'><div class='vertical-center'><font style='color:orange'>$22<br>for<br>sure</font></div></div><div class='cr'><div class='vertical-center'>$59<br>with a<br>50% chance</div></div><div class='respDivL'><div class='vertical-center'><font style='color:orange'>(E)</font></div></div><div class='respDivR'><div class='vertical-center'>(I)</div></div></div>","null","$22","$59","0","22","59",""
"","","","FIX","63b82398bbe6a599972413ad","bdp_rd","Tue Mar 28 2023 11:12:02 GMT-0400 (Eastern Daylight Time)","180851","html-keyboard-response","128","135730","0.0-5.0-1.41","","null","","<div class='trialBorder'><div class='vertical-center'><img style='vertical-align:center; align:center' src=img/fixation3.jpg></div></div>","null","","","","","",""
"","","","offer","63b82398bbe6a599972413ad","bdp_rd","Tue Mar 28 2023 11:12:02 GMT-0400 (Eastern Daylight Time)","180851","html-keyboard-response","129","137000","0.0-5.0-2.41","","1269","","<div class='trialBorder'><div class='vertical-center'><img style='vertical-align:center; align:center' src=img/fixation3.jpg></div><div class='cl'><div class='vertical-center'>$71<br>with a<br>50% chance</div></div><div class='cr'><div class='vertical-center'>$7<br>for<br>sure</div></div><div class='respDivL'><div class='vertical-center'>(E)</div></div><div class='respDivR'><div class='vertical-center'>(I)</div></div></div>","E","$7","$71","1","7","71","RISKY"
"","","","offerFB","63b82398bbe6a599972413ad","bdp_rd","Tue Mar 28 2023 11:12:02 GMT-0400 (Eastern Daylight Time)","180851","html-keyboard-response","130","137256","0.0-5.0-3.41","","null","","<div class='trialBorder'><div class='vertical-center'><img style='vertical-align:center; align:center' src=img/fixation3.jpg></div><div class='cl'><div class='vertical-center'><font style='color:orange'>$71<br>with a<br>50% chance</font></div></div><div class='cr'><div class='vertical-center'>$7<br>for<br>sure</div></div><div class='respDivL'><div class='vertical-center'><font style='color:orange'>(E)</font></div></div><div class='respDivR'><div class='vertical-center'>(I)</div></div></div>","null","$7","$71","1","7","71",""
"","","","FIX","63b82398bbe6a599972413ad","bdp_rd","Tue Mar 28 2023 11:12:02 GMT-0400 (Eastern Daylight Time)","180851","html-keyboard-response","131","137760","0.0-5.0-1.42","","null","","<div class='trialBorder'><div class='vertical-center'><img style='vertical-align:center; align:center' src=img/fixation3.jpg></div></div>","null","","","","","",""
"","","","offer","63b82398bbe6a599972413ad","bdp_rd","Tue Mar 28 2023 11:12:02 GMT-0400 (Eastern Daylight Time)","180851","html-keyboard-response","132","139095","0.0-5.0-2.42","","1334","","<div class='trialBorder'><div class='vertical-center'><img style='vertical-align:center; align:center' src=img/fixation3.jpg></div><div class='cl'><div class='vertical-center'>$28<br>with a<br>50% chance</div></div><div class='cr'><div class='vertical-center'>$16<br>for<br>sure</div></div><div class='respDivL'><div class='vertical-center'>(E)</div></div><div class='respDivR'><div class='vertical-center'>(I)</div></div></div>","I","$16","$28","1","16","28","SURE"
"","","","offerFB","63b82398bbe6a599972413ad","bdp_rd","Tue Mar 28 2023 11:12:02 GMT-0400 (Eastern Daylight Time)","180851","html-keyboard-response","133","139356","0.0-5.0-3.42","","null","","<div class='trialBorder'><div class='vertical-center'><img style='vertical-align:center; align:center' src=img/fixation3.jpg></div><div class='cl'><div class='vertical-center'>$28<br>with a<br>50% chance</div></div><div class='cr'><div class='vertical-center'><font style='color:orange'>$16<br>for<br>sure</font></div></div><div class='respDivL'><div class='vertical-center'>(E)</div></div><div class='respDivR'><div class='vertical-center'><font style='color:orange'>(I)</font></div></div></div>","null","$16","$28","1","16","28",""
"","","","FIX","63b82398bbe6a599972413ad","bdp_rd","Tue Mar 28 2023 11:12:02 GMT-0400 (Eastern Daylight Time)","180851","html-keyboard-response","134","139861","0.0-5.0-1.43","","null","","<div class='trialBorder'><div class='vertical-center'><img style='vertical-align:center; align:center' src=img/fixation3.jpg></div></div>","null","","","","","",""
"","","","offer","63b82398bbe6a599972413ad","bdp_rd","Tue Mar 28 2023 11:12:02 GMT-0400 (Eastern Daylight Time)","180851","html-keyboard-response","135","141443","0.0-5.0-2.43","","1579","","<div class='trialBorder'><div class='vertical-center'><img style='vertical-align:center; align:center' src=img/fixation3.jpg></div><div class='cl'><div class='vertical-center'>$26<br>with a<br>50% chance</div></div><div class='cr'><div class='vertical-center'>$11<br>for<br>sure</div></div><div class='respDivL'><div class='vertical-center'>(E)</div></div><div class='respDivR'><div class='vertical-center'>(I)</div></div></div>","I","$11","$26","1","11","26","SURE"
"","","","offerFB","63b82398bbe6a599972413ad","bdp_rd","Tue Mar 28 2023 11:12:02 GMT-0400 (Eastern Daylight Time)","180851","html-keyboard-response","136","141708","0.0-5.0-3.43","","null","","<div class='trialBorder'><div class='vertical-center'><img style='vertical-align:center; align:center' src=img/fixation3.jpg></div><div class='cl'><div class='vertical-center'>$26<br>with a<br>50% chance</div></div><div class='cr'><div class='vertical-center'><font style='color:orange'>$11<br>for<br>sure</font></div></div><div class='respDivL'><div class='vertical-center'>(E)</div></div><div class='respDivR'><div class='vertical-center'><font style='color:orange'>(I)</font></div></div></div>","null","$11","$26","1","11","26",""
"","","","FIX","63b82398bbe6a599972413ad","bdp_rd","Tue Mar 28 2023 11:12:02 GMT-0400 (Eastern Daylight Time)","180851","html-keyboard-response","137","142216","0.0-5.0-1.44","","null","","<div class='trialBorder'><div class='vertical-center'><img style='vertical-align:center; align:center' src=img/fixation3.jpg></div></div>","null","","","","","",""
"","","","offer","63b82398bbe6a599972413ad","bdp_rd","Tue Mar 28 2023 11:12:02 GMT-0400 (Eastern Daylight Time)","180851","html-keyboard-response","138","144179","0.0-5.0-2.44","","1962","","<div class='trialBorder'><div class='vertical-center'><img style='vertical-align:center; align:center' src=img/fixation3.jpg></div><div class='cl'><div class='vertical-center'>$9<br>for<br>sure</div></div><div class='cr'><div class='vertical-center'>$18<br>with a<br>50% chance</div></div><div class='respDivL'><div class='vertical-center'>(E)</div></div><div class='respDivR'><div class='vertical-center'>(I)</div></div></div>","E","$9","$18","0","9","18","SURE"
"","","","offerFB","63b82398bbe6a599972413ad","bdp_rd","Tue Mar 28 2023 11:12:02 GMT-0400 (Eastern Daylight Time)","180851","html-keyboard-response","139","144435","0.0-5.0-3.44","","null","","<div class='trialBorder'><div class='vertical-center'><img style='vertical-align:center; align:center' src=img/fixation3.jpg></div><div class='cl'><div class='vertical-center'><font style='color:orange'>$9<br>for<br>sure</font></div></div><div class='cr'><div class='vertical-center'>$18<br>with a<br>50% chance</div></div><div class='respDivL'><div class='vertical-center'><font style='color:orange'>(E)</font></div></div><div class='respDivR'><div class='vertical-center'>(I)</div></div></div>","null","$9","$18","0","9","18",""
"","","","FIX","63b82398bbe6a599972413ad","bdp_rd","Tue Mar 28 2023 11:12:02 GMT-0400 (Eastern Daylight Time)","180851","html-keyboard-response","140","144943","0.0-5.0-1.45","","null","","<div class='trialBorder'><div class='vertical-center'><img style='vertical-align:center; align:center' src=img/fixation3.jpg></div></div>","null","","","","","",""
"","","","offer","63b82398bbe6a599972413ad","bdp_rd","Tue Mar 28 2023 11:12:02 GMT-0400 (Eastern Daylight Time)","180851","html-keyboard-response","141","146346","0.0-5.0-2.45","","1402","","<div class='trialBorder'><div class='vertical-center'><img style='vertical-align:center; align:center' src=img/fixation3.jpg></div><div class='cl'><div class='vertical-center'>$40<br>with a<br>50% chance</div></div><div class='cr'><div class='vertical-center'>$10<br>for<br>sure</div></div><div class='respDivL'><div class='vertical-center'>(E)</div></div><div class='respDivR'><div class='vertical-center'>(I)</div></div></div>","E","$10","$40","1","10","40","RISKY"
"","","","offerFB","63b82398bbe6a599972413ad","bdp_rd","Tue Mar 28 2023 11:12:02 GMT-0400 (Eastern Daylight Time)","180851","html-keyboard-response","142","146604","0.0-5.0-3.45","","null","","<div class='trialBorder'><div class='vertical-center'><img style='vertical-align:center; align:center' src=img/fixation3.jpg></div><div class='cl'><div class='vertical-center'><font style='color:orange'>$40<br>with a<br>50% chance</font></div></div><div class='cr'><div class='vertical-center'>$10<br>for<br>sure</div></div><div class='respDivL'><div class='vertical-center'><font style='color:orange'>(E)</font></div></div><div class='respDivR'><div class='vertical-center'>(I)</div></div></div>","null","$10","$40","1","10","40",""
"","","","FIX","63b82398bbe6a599972413ad","bdp_rd","Tue Mar 28 2023 11:12:02 GMT-0400 (Eastern Daylight Time)","180851","html-keyboard-response","143","147110","0.0-5.0-1.46","","null","","<div class='trialBorder'><div class='vertical-center'><img style='vertical-align:center; align:center' src=img/fixation3.jpg></div></div>","null","","","","","",""
"","","","offer","63b82398bbe6a599972413ad","bdp_rd","Tue Mar 28 2023 11:12:02 GMT-0400 (Eastern Daylight Time)","180851","html-keyboard-response","144","148965","0.0-5.0-2.46","","1853","","<div class='trialBorder'><div class='vertical-center'><img style='vertical-align:center; align:center' src=img/fixation3.jpg></div><div class='cl'><div class='vertical-center'>$27<br>with a<br>50% chance</div></div><div class='cr'><div class='vertical-center'>$12<br>for<br>sure</div></div><div class='respDivL'><div class='vertical-center'>(E)</div></div><div class='respDivR'><div class='vertical-center'>(I)</div></div></div>","I","$12","$27","1","12","27","SURE"
"","","","offerFB","63b82398bbe6a599972413ad","bdp_rd","Tue Mar 28 2023 11:12:02 GMT-0400 (Eastern Daylight Time)","180851","html-keyboard-response","145","149229","0.0-5.0-3.46","","null","","<div class='trialBorder'><div class='vertical-center'><img style='vertical-align:center; align:center' src=img/fixation3.jpg></div><div class='cl'><div class='vertical-center'>$27<br>with a<br>50% chance</div></div><div class='cr'><div class='vertical-center'><font style='color:orange'>$12<br>for<br>sure</font></div></div><div class='respDivL'><div class='vertical-center'>(E)</div></div><div class='respDivR'><div class='vertical-center'><font style='color:orange'>(I)</font></div></div></div>","null","$12","$27","1","12","27",""
"","","","FIX","63b82398bbe6a599972413ad","bdp_rd","Tue Mar 28 2023 11:12:02 GMT-0400 (Eastern Daylight Time)","180851","html-keyboard-response","146","149734","0.0-5.0-1.47","","null","","<div class='trialBorder'><div class='vertical-center'><img style='vertical-align:center; align:center' src=img/fixation3.jpg></div></div>","null","","","","","",""
"","","","offer","63b82398bbe6a599972413ad","bdp_rd","Tue Mar 28 2023 11:12:02 GMT-0400 (Eastern Daylight Time)","180851","html-keyboard-response","147","151018","0.0-5.0-2.47","","1284","","<div class='trialBorder'><div class='vertical-center'><img style='vertical-align:center; align:center' src=img/fixation3.jpg></div><div class='cl'><div class='vertical-center'>$26<br>for<br>sure</div></div><div class='cr'><div class='vertical-center'>$92<br>with a<br>50% chance</div></div><div class='respDivL'><div class='vertical-center'>(E)</div></div><div class='respDivR'><div class='vertical-center'>(I)</div></div></div>","I","$26","$92","0","26","92","RISKY"
"","","","offerFB","63b82398bbe6a599972413ad","bdp_rd","Tue Mar 28 2023 11:12:02 GMT-0400 (Eastern Daylight Time)","180851","html-keyboard-response","148","151284","0.0-5.0-3.47","","null","","<div class='trialBorder'><div class='vertical-center'><img style='vertical-align:center; align:center' src=img/fixation3.jpg></div><div class='cl'><div class='vertical-center'>$26<br>for<br>sure</div></div><div class='cr'><div class='vertical-center'><font style='color:orange'>$92<br>with a<br>50% chance</font></div></div><div class='respDivL'><div class='vertical-center'>(E)</div></div><div class='respDivR'><div class='vertical-center'><font style='color:orange'>(I)</font></div></div></div>","null","$26","$92","0","26","92",""
"","","","FIX","63b82398bbe6a599972413ad","bdp_rd","Tue Mar 28 2023 11:12:02 GMT-0400 (Eastern Daylight Time)","180851","html-keyboard-response","149","151787","0.0-5.0-1.48","","null","","<div class='trialBorder'><div class='vertical-center'><img style='vertical-align:center; align:center' src=img/fixation3.jpg></div></div>","null","","","","","",""
"","","","offer","63b82398bbe6a599972413ad","bdp_rd","Tue Mar 28 2023 11:12:02 GMT-0400 (Eastern Daylight Time)","180851","html-keyboard-response","150","153420","0.0-5.0-2.48","","1633","","<div class='trialBorder'><div class='vertical-center'><img style='vertical-align:center; align:center' src=img/fixation3.jpg></div><div class='cl'><div class='vertical-center'>$13<br>with a<br>50% chance</div></div><div class='cr'><div class='vertical-center'>$6<br>for<br>sure</div></div><div class='respDivL'><div class='vertical-center'>(E)</div></div><div class='respDivR'><div class='vertical-center'>(I)</div></div></div>","I","$6","$13","1","6","13","SURE"
"","","","offerFB","63b82398bbe6a599972413ad","bdp_rd","Tue Mar 28 2023 11:12:02 GMT-0400 (Eastern Daylight Time)","180851","html-keyboard-response","151","153686","0.0-5.0-3.48","","null","","<div class='trialBorder'><div class='vertical-center'><img style='vertical-align:center; align:center' src=img/fixation3.jpg></div><div class='cl'><div class='vertical-center'>$13<br>with a<br>50% chance</div></div><div class='cr'><div class='vertical-center'><font style='color:orange'>$6<br>for<br>sure</font></div></div><div class='respDivL'><div class='vertical-center'>(E)</div></div><div class='respDivR'><div class='vertical-center'><font style='color:orange'>(I)</font></div></div></div>","null","$6","$13","1","6","13",""
"","","","FIX","63b82398bbe6a599972413ad","bdp_rd","Tue Mar 28 2023 11:12:02 GMT-0400 (Eastern Daylight Time)","180851","html-keyboard-response","152","154192","0.0-5.0-1.49","","null","","<div class='trialBorder'><div class='vertical-center'><img style='vertical-align:center; align:center' src=img/fixation3.jpg></div></div>","null","","","","","",""
"","","","offer","63b82398bbe6a599972413ad","bdp_rd","Tue Mar 28 2023 11:12:02 GMT-0400 (Eastern Daylight Time)","180851","html-keyboard-response","153","155949","0.0-5.0-2.49","","1756","","<div class='trialBorder'><div class='vertical-center'><img style='vertical-align:center; align:center' src=img/fixation3.jpg></div><div class='cl'><div class='vertical-center'>$28<br>for<br>sure</div></div><div class='cr'><div class='vertical-center'>$89<br>with a<br>50% chance</div></div><div class='respDivL'><div class='vertical-center'>(E)</div></div><div class='respDivR'><div class='vertical-center'>(I)</div></div></div>","I","$28","$89","0","28","89","RISKY"
"","","","offerFB","63b82398bbe6a599972413ad","bdp_rd","Tue Mar 28 2023 11:12:02 GMT-0400 (Eastern Daylight Time)","180851","html-keyboard-response","154","156203","0.0-5.0-3.49","","null","","<div class='trialBorder'><div class='vertical-center'><img style='vertical-align:center; align:center' src=img/fixation3.jpg></div><div class='cl'><div class='vertical-center'>$28<br>for<br>sure</div></div><div class='cr'><div class='vertical-center'><font style='color:orange'>$89<br>with a<br>50% chance</font></div></div><div class='respDivL'><div class='vertical-center'>(E)</div></div><div class='respDivR'><div class='vertical-center'><font style='color:orange'>(I)</font></div></div></div>","null","$28","$89","0","28","89",""
"","","","FIX","63b82398bbe6a599972413ad","bdp_rd","Tue Mar 28 2023 11:12:02 GMT-0400 (Eastern Daylight Time)","180851","html-keyboard-response","155","156706","0.0-5.0-1.50","","null","","<div class='trialBorder'><div class='vertical-center'><img style='vertical-align:center; align:center' src=img/fixation3.jpg></div></div>","null","","","","","",""
"","","","offer","63b82398bbe6a599972413ad","bdp_rd","Tue Mar 28 2023 11:12:02 GMT-0400 (Eastern Daylight Time)","180851","html-keyboard-response","156","157952","0.0-5.0-2.50","","1245","","<div class='trialBorder'><div class='vertical-center'><img style='vertical-align:center; align:center' src=img/fixation3.jpg></div><div class='cl'><div class='vertical-center'>$36<br>with a<br>50% chance</div></div><div class='cr'><div class='vertical-center'>$18<br>for<br>sure</div></div><div class='respDivL'><div class='vertical-center'>(E)</div></div><div class='respDivR'><div class='vertical-center'>(I)</div></div></div>","I","$18","$36","1","18","36","SURE"
"","","","offerFB","63b82398bbe6a599972413ad","bdp_rd","Tue Mar 28 2023 11:12:02 GMT-0400 (Eastern Daylight Time)","180851","html-keyboard-response","157","158204","0.0-5.0-3.50","","null","","<div class='trialBorder'><div class='vertical-center'><img style='vertical-align:center; align:center' src=img/fixation3.jpg></div><div class='cl'><div class='vertical-center'>$36<br>with a<br>50% chance</div></div><div class='cr'><div class='vertical-center'><font style='color:orange'>$18<br>for<br>sure</font></div></div><div class='respDivL'><div class='vertical-center'>(E)</div></div><div class='respDivR'><div class='vertical-center'><font style='color:orange'>(I)</font></div></div></div>","null","$18","$36","1","18","36",""
"","","","FIX","63b82398bbe6a599972413ad","bdp_rd","Tue Mar 28 2023 11:12:02 GMT-0400 (Eastern Daylight Time)","180851","html-keyboard-response","158","158708","0.0-5.0-1.51","","null","","<div class='trialBorder'><div class='vertical-center'><img style='vertical-align:center; align:center' src=img/fixation3.jpg></div></div>","null","","","","","",""
"","","","offer","63b82398bbe6a599972413ad","bdp_rd","Tue Mar 28 2023 11:12:02 GMT-0400 (Eastern Daylight Time)","180851","html-keyboard-response","159","160653","0.0-5.0-2.51","","1944","","<div class='trialBorder'><div class='vertical-center'><img style='vertical-align:center; align:center' src=img/fixation3.jpg></div><div class='cl'><div class='vertical-center'>$11<br>with a<br>50% chance</div></div><div class='cr'><div class='vertical-center'>$4<br>for<br>sure</div></div><div class='respDivL'><div class='vertical-center'>(E)</div></div><div class='respDivR'><div class='vertical-center'>(I)</div></div></div>","E","$4","$11","1","4","11","RISKY"
"","","","offerFB","63b82398bbe6a599972413ad","bdp_rd","Tue Mar 28 2023 11:12:02 GMT-0400 (Eastern Daylight Time)","180851","html-keyboard-response","160","160918","0.0-5.0-3.51","","null","","<div class='trialBorder'><div class='vertical-center'><img style='vertical-align:center; align:center' src=img/fixation3.jpg></div><div class='cl'><div class='vertical-center'><font style='color:orange'>$11<br>with a<br>50% chance</font></div></div><div class='cr'><div class='vertical-center'>$4<br>for<br>sure</div></div><div class='respDivL'><div class='vertical-center'><font style='color:orange'>(E)</font></div></div><div class='respDivR'><div class='vertical-center'>(I)</div></div></div>","null","$4","$11","1","4","11",""
"","","","FIX","63b82398bbe6a599972413ad","bdp_rd","Tue Mar 28 2023 11:12:02 GMT-0400 (Eastern Daylight Time)","180851","html-keyboard-response","161","161420","0.0-5.0-1.52","","null","","<div class='trialBorder'><div class='vertical-center'><img style='vertical-align:center; align:center' src=img/fixation3.jpg></div></div>","null","","","","","",""
"","","","offer","63b82398bbe6a599972413ad","bdp_rd","Tue Mar 28 2023 11:12:02 GMT-0400 (Eastern Daylight Time)","180851","html-keyboard-response","162","163123","0.0-5.0-2.52","","1701","","<div class='trialBorder'><div class='vertical-center'><img style='vertical-align:center; align:center' src=img/fixation3.jpg></div><div class='cl'><div class='vertical-center'>$62<br>with a<br>50% chance</div></div><div class='cr'><div class='vertical-center'>$11<br>for<br>sure</div></div><div class='respDivL'><div class='vertical-center'>(E)</div></div><div class='respDivR'><div class='vertical-center'>(I)</div></div></div>","E","$11","$62","1","11","62","RISKY"
"","","","offerFB","63b82398bbe6a599972413ad","bdp_rd","Tue Mar 28 2023 11:12:02 GMT-0400 (Eastern Daylight Time)","180851","html-keyboard-response","163","163379","0.0-5.0-3.52","","null","","<div class='trialBorder'><div class='vertical-center'><img style='vertical-align:center; align:center' src=img/fixation3.jpg></div><div class='cl'><div class='vertical-center'><font style='color:orange'>$62<br>with a<br>50% chance</font></div></div><div class='cr'><div class='vertical-center'>$11<br>for<br>sure</div></div><div class='respDivL'><div class='vertical-center'><font style='color:orange'>(E)</font></div></div><div class='respDivR'><div class='vertical-center'>(I)</div></div></div>","null","$11","$62","1","11","62",""
"","","","FIX","63b82398bbe6a599972413ad","bdp_rd","Tue Mar 28 2023 11:12:02 GMT-0400 (Eastern Daylight Time)","180851","html-keyboard-response","164","163884","0.0-5.0-1.53","","null","","<div class='trialBorder'><div class='vertical-center'><img style='vertical-align:center; align:center' src=img/fixation3.jpg></div></div>","null","","","","","",""
"","","","offer","63b82398bbe6a599972413ad","bdp_rd","Tue Mar 28 2023 11:12:02 GMT-0400 (Eastern Daylight Time)","180851","html-keyboard-response","165","166235","0.0-5.0-2.53","","2351","","<div class='trialBorder'><div class='vertical-center'><img style='vertical-align:center; align:center' src=img/fixation3.jpg></div><div class='cl'><div class='vertical-center'>$47<br>with a<br>50% chance</div></div><div class='cr'><div class='vertical-center'>$27<br>for<br>sure</div></div><div class='respDivL'><div class='vertical-center'>(E)</div></div><div class='respDivR'><div class='vertical-center'>(I)</div></div></div>","I","$27","$47","1","27","47","SURE"
"","","","offerFB","63b82398bbe6a599972413ad","bdp_rd","Tue Mar 28 2023 11:12:02 GMT-0400 (Eastern Daylight Time)","180851","html-keyboard-response","166","166495","0.0-5.0-3.53","","null","","<div class='trialBorder'><div class='vertical-center'><img style='vertical-align:center; align:center' src=img/fixation3.jpg></div><div class='cl'><div class='vertical-center'>$47<br>with a<br>50% chance</div></div><div class='cr'><div class='vertical-center'><font style='color:orange'>$27<br>for<br>sure</font></div></div><div class='respDivL'><div class='vertical-center'>(E)</div></div><div class='respDivR'><div class='vertical-center'><font style='color:orange'>(I)</font></div></div></div>","null","$27","$47","1","27","47",""
"","","","FIX","63b82398bbe6a599972413ad","bdp_rd","Tue Mar 28 2023 11:12:02 GMT-0400 (Eastern Daylight Time)","180851","html-keyboard-response","167","166998","0.0-5.0-1.54","","null","","<div class='trialBorder'><div class='vertical-center'><img style='vertical-align:center; align:center' src=img/fixation3.jpg></div></div>","null","","","","","",""
"","","","offer","63b82398bbe6a599972413ad","bdp_rd","Tue Mar 28 2023 11:12:02 GMT-0400 (Eastern Daylight Time)","180851","html-keyboard-response","168","168792","0.0-5.0-2.54","","1793","","<div class='trialBorder'><div class='vertical-center'><img style='vertical-align:center; align:center' src=img/fixation3.jpg></div><div class='cl'><div class='vertical-center'>$48<br>with a<br>50% chance</div></div><div class='cr'><div class='vertical-center'>$34<br>for<br>sure</div></div><div class='respDivL'><div class='vertical-center'>(E)</div></div><div class='respDivR'><div class='vertical-center'>(I)</div></div></div>","I","$34","$48","1","34","48","SURE"
"","","","offerFB","63b82398bbe6a599972413ad","bdp_rd","Tue Mar 28 2023 11:12:02 GMT-0400 (Eastern Daylight Time)","180851","html-keyboard-response","169","169054","0.0-5.0-3.54","","null","","<div class='trialBorder'><div class='vertical-center'><img style='vertical-align:center; align:center' src=img/fixation3.jpg></div><div class='cl'><div class='vertical-center'>$48<br>with a<br>50% chance</div></div><div class='cr'><div class='vertical-center'><font style='color:orange'>$34<br>for<br>sure</font></div></div><div class='respDivL'><div class='vertical-center'>(E)</div></div><div class='respDivR'><div class='vertical-center'><font style='color:orange'>(I)</font></div></div></div>","null","$34","$48","1","34","48",""
"","","","FIX","63b82398bbe6a599972413ad","bdp_rd","Tue Mar 28 2023 11:12:02 GMT-0400 (Eastern Daylight Time)","180851","html-keyboard-response","170","169560","0.0-5.0-1.55","","null","","<div class='trialBorder'><div class='vertical-center'><img style='vertical-align:center; align:center' src=img/fixation3.jpg></div></div>","null","","","","","",""
"","","","offer","63b82398bbe6a599972413ad","bdp_rd","Tue Mar 28 2023 11:12:02 GMT-0400 (Eastern Daylight Time)","180851","html-keyboard-response","171","171017","0.0-5.0-2.55","","1457","","<div class='trialBorder'><div class='vertical-center'><img style='vertical-align:center; align:center' src=img/fixation3.jpg></div><div class='cl'><div class='vertical-center'>$51<br>with a<br>50% chance</div></div><div class='cr'><div class='vertical-center'>$19<br>for<br>sure</div></div><div class='respDivL'><div class='vertical-center'>(E)</div></div><div class='respDivR'><div class='vertical-center'>(I)</div></div></div>","E","$19","$51","1","19","51","RISKY"
"","","","offerFB","63b82398bbe6a599972413ad","bdp_rd","Tue Mar 28 2023 11:12:02 GMT-0400 (Eastern Daylight Time)","180851","html-keyboard-response","172","171268","0.0-5.0-3.55","","null","","<div class='trialBorder'><div class='vertical-center'><img style='vertical-align:center; align:center' src=img/fixation3.jpg></div><div class='cl'><div class='vertical-center'><font style='color:orange'>$51<br>with a<br>50% chance</font></div></div><div class='cr'><div class='vertical-center'>$19<br>for<br>sure</div></div><div class='respDivL'><div class='vertical-center'><font style='color:orange'>(E)</font></div></div><div class='respDivR'><div class='vertical-center'>(I)</div></div></div>","null","$19","$51","1","19","51",""
"","","","FIX","63b82398bbe6a599972413ad","bdp_rd","Tue Mar 28 2023 11:12:02 GMT-0400 (Eastern Daylight Time)","180851","html-keyboard-response","173","171773","0.0-5.0-1.56","","null","","<div class='trialBorder'><div class='vertical-center'><img style='vertical-align:center; align:center' src=img/fixation3.jpg></div></div>","null","","","","","",""
"","","","offer","63b82398bbe6a599972413ad","bdp_rd","Tue Mar 28 2023 11:12:02 GMT-0400 (Eastern Daylight Time)","180851","html-keyboard-response","174","173557","0.0-5.0-2.56","","1783","","<div class='trialBorder'><div class='vertical-center'><img style='vertical-align:center; align:center' src=img/fixation3.jpg></div><div class='cl'><div class='vertical-center'>$95<br>with a<br>50% chance</div></div><div class='cr'><div class='vertical-center'>$40<br>for<br>sure</div></div><div class='respDivL'><div class='vertical-center'>(E)</div></div><div class='respDivR'><div class='vertical-center'>(I)</div></div></div>","E","$40","$95","1","40","95","RISKY"
