"event","trial","time","trialtype","subject_id","task","startTime","totalTime","trial_type","trial_index","time_elapsed","internal_node_id","view_history","rt","success","stimulus","key_press","sureOffer","riskyOffer","riskyLeft","sureAmt","riskyAmt","chosen"
"focus","0","0","focusevent","5fc70f3bd255c10f0b2346ba","bdp_rd","Mon Mar 27 2023 19:11:46 GMT-0700 (Pacific Daylight Time)","235808","","","","","","","","","","","","","","",""
"","","","","5fc70f3bd255c10f0b2346ba","bdp_rd","Mon Mar 27 2023 19:11:46 GMT-0700 (Pacific Daylight Time)","235808","pavlovia","0","2","0.0-0.0","","","","","","","","","","",""
"","","","","5fc70f3bd255c10f0b2346ba","bdp_rd","Mon Mar 27 2023 19:11:46 GMT-0700 (Pacific Daylight Time)","235808","instructions","1","2271","0.0-1.0","[{""page_index"":0,""viewing_time"":2268}]","2269","","","","","","","","",""
"fullscreenexit","2","5098","fullscreenexit","5fc70f3bd255c10f0b2346ba","bdp_rd","Mon Mar 27 2023 19:11:46 GMT-0700 (Pacific Daylight Time)","235808","","","","","","","","","","","","","","",""
"","","","","5fc70f3bd255c10f0b2346ba","bdp_rd","Mon Mar 27 2023 19:11:46 GMT-0700 (Pacific Daylight Time)","235808","fullscreen","2","5872","0.0-2.0","","","true","","","","","","","",""
"","","","fullscreenfail","5fc70f3bd255c10f0b2346ba","bdp_rd","Mon Mar 27 2023 19:11:46 GMT-0700 (Pacific Daylight Time)","235808","image-keyboard-response","3","6964","0.0-3.0-0.0","","1089","","","32","","","","","",""
"","","","","5fc70f3bd255c10f0b2346ba","bdp_rd","Mon Mar 27 2023 19:11:46 GMT-0700 (Pacific Daylight Time)","235808","instructions","4","30219","0.0-4.0","[{""page_index"":0,""viewing_time"":17208},{""page_index"":1,""viewing_time"":4557},{""page_index"":2,""viewing_time"":1237}]","23002","","","","","","","","",""
"","","","FIX","5fc70f3bd255c10f0b2346ba","bdp_rd","Mon Mar 27 2023 19:11:46 GMT-0700 (Pacific Daylight Time)","235808","html-keyboard-response","5","30740","0.0-5.0-1.0","","null","","<div class='trialBorder'><div class='vertical-center'><img style='vertical-align:center; align:center' src=img/fixation3.jpg></div></div>","null","","","","","",""
"","","","offer","5fc70f3bd255c10f0b2346ba","bdp_rd","Mon Mar 27 2023 19:11:46 GMT-0700 (Pacific Daylight Time)","235808","html-keyboard-response","6","36815","0.0-5.0-2.0","","6071","","<div class='trialBorder'><div class='vertical-center'><img style='vertical-align:center; align:center' src=img/fixation3.jpg></div><div class='cl'><div class='vertical-center'>$18<br>with a<br>50% chance</div></div><div class='cr'><div class='vertical-center'>$9<br>for<br>sure</div></div><div class='respDivL'><div class='vertical-center'>(E)</div></div><div class='respDivR'><div class='vertical-center'>(I)</div></div></div>","E","$9","$18","1","9","18","RISKY"
"","","","offerFB","5fc70f3bd255c10f0b2346ba","bdp_rd","Mon Mar 27 2023 19:11:46 GMT-0700 (Pacific Daylight Time)","235808","html-keyboard-response","7","37073","0.0-5.0-3.0","","null","","<div class='trialBorder'><div class='vertical-center'><img style='vertical-align:center; align:center' src=img/fixation3.jpg></div><div class='cl'><div class='vertical-center'><font style='color:orange'>$18<br>with a<br>50% chance</font></div></div><div class='cr'><div class='vertical-center'>$9<br>for<br>sure</div></div><div class='respDivL'><div class='vertical-center'><font style='color:orange'>(E)</font></div></div><div class='respDivR'><div class='vertical-center'>(I)</div></div></div>","null","$9","$18","1","9","18",""
"","","","FIX","5fc70f3bd255c10f0b2346ba","bdp_rd","Mon Mar 27 2023 19:11:46 GMT-0700 (Pacific Daylight Time)","235808","html-keyboard-response","8","37580","0.0-5.0-1.1","","null","","<div class='trialBorder'><div class='vertical-center'><img style='vertical-align:center; align:center' src=img/fixation3.jpg></div></div>","null","","","","","",""
"","","","offer","5fc70f3bd255c10f0b2346ba","bdp_rd","Mon Mar 27 2023 19:11:46 GMT-0700 (Pacific Daylight Time)","235808","html-keyboard-response","9","40170","0.0-5.0-2.1","","2588","","<div class='trialBorder'><div class='vertical-center'><img style='vertical-align:center; align:center' src=img/fixation3.jpg></div><div class='cl'><div class='vertical-center'>$20<br>for<br>sure</div></div><div class='cr'><div class='vertical-center'>$80<br>with a<br>50% chance</div></div><div class='respDivL'><div class='vertical-center'>(E)</div></div><div class='respDivR'><div class='vertical-center'>(I)</div></div></div>","I","$20","$80","0","20","80","RISKY"
"","","","offerFB","5fc70f3bd255c10f0b2346ba","bdp_rd","Mon Mar 27 2023 19:11:46 GMT-0700 (Pacific Daylight Time)","235808","html-keyboard-response","10","40427","0.0-5.0-3.1","","null","","<div class='trialBorder'><div class='vertical-center'><img style='vertical-align:center; align:center' src=img/fixation3.jpg></div><div class='cl'><div class='vertical-center'>$20<br>for<br>sure</div></div><div class='cr'><div class='vertical-center'><font style='color:orange'>$80<br>with a<br>50% chance</font></div></div><div class='respDivL'><div class='vertical-center'>(E)</div></div><div class='respDivR'><div class='vertical-center'><font style='color:orange'>(I)</font></div></div></div>","null","$20","$80","0","20","80",""
"","","","FIX","5fc70f3bd255c10f0b2346ba","bdp_rd","Mon Mar 27 2023 19:11:46 GMT-0700 (Pacific Daylight Time)","235808","html-keyboard-response","11","40929","0.0-5.0-1.2","","null","","<div class='trialBorder'><div class='vertical-center'><img style='vertical-align:center; align:center' src=img/fixation3.jpg></div></div>","null","","","","","",""
"","","","offer","5fc70f3bd255c10f0b2346ba","bdp_rd","Mon Mar 27 2023 19:11:46 GMT-0700 (Pacific Daylight Time)","235808","html-keyboard-response","12","43502","0.0-5.0-2.2","","2570","","<div class='trialBorder'><div class='vertical-center'><img style='vertical-align:center; align:center' src=img/fixation3.jpg></div><div class='cl'><div class='vertical-center'>$63<br>for<br>sure</div></div><div class='cr'><div class='vertical-center'>$100<br>with a<br>50% chance</div></div><div class='respDivL'><div class='vertical-center'>(E)</div></div><div class='respDivR'><div class='vertical-center'>(I)</div></div></div>","E","$63","$100","0","63","10","SURE"
"","","","offerFB","5fc70f3bd255c10f0b2346ba","bdp_rd","Mon Mar 27 2023 19:11:46 GMT-0700 (Pacific Daylight Time)","235808","html-keyboard-response","13","43757","0.0-5.0-3.2","","null","","<div class='trialBorder'><div class='vertical-center'><img style='vertical-align:center; align:center' src=img/fixation3.jpg></div><div class='cl'><div class='vertical-center'><font style='color:orange'>$63<br>for<br>sure</font></div></div><div class='cr'><div class='vertical-center'>$100<br>with a<br>50% chance</div></div><div class='respDivL'><div class='vertical-center'><font style='color:orange'>(E)</font></div></div><div class='respDivR'><div class='vertical-center'>(I)</div></div></div>","null","$63","$100","0","63","10",""
"","","","FIX","5fc70f3bd255c10f0b2346ba","bdp_rd","Mon Mar 27 2023 19:11:46 GMT-0700 (Pacific Daylight Time)","235808","html-keyboard-response","14","44262","0.0-5.0-1.3","","null","","<div class='trialBorder'><div class='vertical-center'><img style='vertical-align:center; align:center' src=img/fixation3.jpg></div></div>","null","","","","","",""
"","","","offer","5fc70f3bd255c10f0b2346ba","bdp_rd","Mon Mar 27 2023 19:11:46 GMT-0700 (Pacific Daylight Time)","235808","html-keyboard-response","15","45827","0.0-5.0-2.3","","1563","","<div class='trialBorder'><div class='vertical-center'><img style='vertical-align:center; align:center' src=img/fixation3.jpg></div><div class='cl'><div class='vertical-center'>$4<br>for<br>sure</div></div><div class='cr'><div class='vertical-center'>$14<br>with a<br>50% chance</div></div><div class='respDivL'><div class='vertical-center'>(E)</div></div><div class='respDivR'><div class='vertical-center'>(I)</div></div></div>","I","$4","$14","0","4","14","RISKY"
"","","","offerFB","5fc70f3bd255c10f0b2346ba","bdp_rd","Mon Mar 27 2023 19:11:46 GMT-0700 (Pacific Daylight Time)","235808","html-keyboard-response","16","46082","0.0-5.0-3.3","","null","","<div class='trialBorder'><div class='vertical-center'><img style='vertical-align:center; align:center' src=img/fixation3.jpg></div><div class='cl'><div class='vertical-center'>$4<br>for<br>sure</div></div><div class='cr'><div class='vertical-center'><font style='color:orange'>$14<br>with a<br>50% chance</font></div></div><div class='respDivL'><div class='vertical-center'>(E)</div></div><div class='respDivR'><div class='vertical-center'><font style='color:orange'>(I)</font></div></div></div>","null","$4","$14","0","4","14",""
"","","","FIX","5fc70f3bd255c10f0b2346ba","bdp_rd","Mon Mar 27 2023 19:11:46 GMT-0700 (Pacific Daylight Time)","235808","html-keyboard-response","17","46586","0.0-5.0-1.4","","null","","<div class='trialBorder'><div class='vertical-center'><img style='vertical-align:center; align:center' src=img/fixation3.jpg></div></div>","null","","","","","",""
"","","","offer","5fc70f3bd255c10f0b2346ba","bdp_rd","Mon Mar 27 2023 19:11:46 GMT-0700 (Pacific Daylight Time)","235808","html-keyboard-response","18","48684","0.0-5.0-2.4","","2096","","<div class='trialBorder'><div class='vertical-center'><img style='vertical-align:center; align:center' src=img/fixation3.jpg></div><div class='cl'><div class='vertical-center'>$15<br>for<br>sure</div></div><div class='cr'><div class='vertical-center'>$31<br>with a<br>50% chance</div></div><div class='respDivL'><div class='vertical-center'>(E)</div></div><div class='respDivR'><div class='vertical-center'>(I)</div></div></div>","E","$15","$31","0","15","31","SURE"
"","","","offerFB","5fc70f3bd255c10f0b2346ba","bdp_rd","Mon Mar 27 2023 19:11:46 GMT-0700 (Pacific Daylight Time)","235808","html-keyboard-response","19","48939","0.0-5.0-3.4","","null","","<div class='trialBorder'><div class='vertical-center'><img style='vertical-align:center; align:center' src=img/fixation3.jpg></div><div class='cl'><div class='vertical-center'><font style='color:orange'>$15<br>for<br>sure</font></div></div><div class='cr'><div class='vertical-center'>$31<br>with a<br>50% chance</div></div><div class='respDivL'><div class='vertical-center'><font style='color:orange'>(E)</font></div></div><div class='respDivR'><div class='vertical-center'>(I)</div></div></div>","null","$15","$31","0","15","31",""
"","","","FIX","5fc70f3bd255c10f0b2346ba","bdp_rd","Mon Mar 27 2023 19:11:46 GMT-0700 (Pacific Daylight Time)","235808","html-keyboard-response","20","49442","0.0-5.0-1.5","","null","","<div class='trialBorder'><div class='vertical-center'><img style='vertical-align:center; align:center' src=img/fixation3.jpg></div></div>","null","","","","","",""
"","","","offer","5fc70f3bd255c10f0b2346ba","bdp_rd","Mon Mar 27 2023 19:11:46 GMT-0700 (Pacific Daylight Time)","235808","html-keyboard-response","21","52834","0.0-5.0-2.5","","3392","","<div class='trialBorder'><div class='vertical-center'><img style='vertical-align:center; align:center' src=img/fixation3.jpg></div><div class='cl'><div class='vertical-center'>$35<br>with a<br>50% chance</div></div><div class='cr'><div class='vertical-center'>$12<br>for<br>sure</div></div><div class='respDivL'><div class='vertical-center'>(E)</div></div><div class='respDivR'><div class='vertical-center'>(I)</div></div></div>","E","$12","$35","1","12","35","RISKY"
"","","","offerFB","5fc70f3bd255c10f0b2346ba","bdp_rd","Mon Mar 27 2023 19:11:46 GMT-0700 (Pacific Daylight Time)","235808","html-keyboard-response","22","53092","0.0-5.0-3.5","","null","","<div class='trialBorder'><div class='vertical-center'><img style='vertical-align:center; align:center' src=img/fixation3.jpg></div><div class='cl'><div class='vertical-center'><font style='color:orange'>$35<br>with a<br>50% chance</font></div></div><div class='cr'><div class='vertical-center'>$12<br>for<br>sure</div></div><div class='respDivL'><div class='vertical-center'><font style='color:orange'>(E)</font></div></div><div class='respDivR'><div class='vertical-center'>(I)</div></div></div>","null","$12","$35","1","12","35",""
"","","","FIX","5fc70f3bd255c10f0b2346ba","bdp_rd","Mon Mar 27 2023 19:11:46 GMT-0700 (Pacific Daylight Time)","235808","html-keyboard-response","23","53598","0.0-5.0-1.6","","null","","<div class='trialBorder'><div class='vertical-center'><img style='vertical-align:center; align:center' src=img/fixation3.jpg></div></div>","null","","","","","",""
"","","","offer","5fc70f3bd255c10f0b2346ba","bdp_rd","Mon Mar 27 2023 19:11:46 GMT-0700 (Pacific Daylight Time)","235808","html-keyboard-response","24","55053","0.0-5.0-2.6","","1455","","<div class='trialBorder'><div class='vertical-center'><img style='vertical-align:center; align:center' src=img/fixation3.jpg></div><div class='cl'><div class='vertical-center'>$1<br>for<br>sure</div></div><div class='cr'><div class='vertical-center'>$33<br>with a<br>50% chance</div></div><div class='respDivL'><div class='vertical-center'>(E)</div></div><div class='respDivR'><div class='vertical-center'>(I)</div></div></div>","I","$1","$33","0","1","33","RISKY"
"","","","offerFB","5fc70f3bd255c10f0b2346ba","bdp_rd","Mon Mar 27 2023 19:11:46 GMT-0700 (Pacific Daylight Time)","235808","html-keyboard-response","25","55311","0.0-5.0-3.6","","null","","<div class='trialBorder'><div class='vertical-center'><img style='vertical-align:center; align:center' src=img/fixation3.jpg></div><div class='cl'><div class='vertical-center'>$1<br>for<br>sure</div></div><div class='cr'><div class='vertical-center'><font style='color:orange'>$33<br>with a<br>50% chance</font></div></div><div class='respDivL'><div class='vertical-center'>(E)</div></div><div class='respDivR'><div class='vertical-center'><font style='color:orange'>(I)</font></div></div></div>","null","$1","$33","0","1","33",""
"","","","FIX","5fc70f3bd255c10f0b2346ba","bdp_rd","Mon Mar 27 2023 19:11:46 GMT-0700 (Pacific Daylight Time)","235808","html-keyboard-response","26","55817","0.0-5.0-1.7","","null","","<div class='trialBorder'><div class='vertical-center'><img style='vertical-align:center; align:center' src=img/fixation3.jpg></div></div>","null","","","","","",""
"","","","offer","5fc70f3bd255c10f0b2346ba","bdp_rd","Mon Mar 27 2023 19:11:46 GMT-0700 (Pacific Daylight Time)","235808","html-keyboard-response","27","58841","0.0-5.0-2.7","","3023","","<div class='trialBorder'><div class='vertical-center'><img style='vertical-align:center; align:center' src=img/fixation3.jpg></div><div class='cl'><div class='vertical-center'>$16<br>for<br>sure</div></div><div class='cr'><div class='vertical-center'>$38<br>with a<br>50% chance</div></div><div class='respDivL'><div class='vertical-center'>(E)</div></div><div class='respDivR'><div class='vertical-center'>(I)</div></div></div>","E","$16","$38","0","16","38","SURE"
"","","","offerFB","5fc70f3bd255c10f0b2346ba","bdp_rd","Mon Mar 27 2023 19:11:46 GMT-0700 (Pacific Daylight Time)","235808","html-keyboard-response","28","59097","0.0-5.0-3.7","","null","","<div class='trialBorder'><div class='vertical-center'><img style='vertical-align:center; align:center' src=img/fixation3.jpg></div><div class='cl'><div class='vertical-center'><font style='color:orange'>$16<br>for<br>sure</font></div></div><div class='cr'><div class='vertical-center'>$38<br>with a<br>50% chance</div></div><div class='respDivL'><div class='vertical-center'><font style='color:orange'>(E)</font></div></div><div class='respDivR'><div class='vertical-center'>(I)</div></div></div>","null","$16","$38","0","16","38",""
"","","","FIX","5fc70f3bd255c10f0b2346ba","bdp_rd","Mon Mar 27 2023 19:11:46 GMT-0700 (Pacific Daylight Time)","235808","html-keyboard-response","29","59603","0.0-5.0-1.8","","null","","<div class='trialBorder'><div class='vertical-center'><img style='vertical-align:center; align:center' src=img/fixation3.jpg></div></div>","null","","","","","",""
"","","","offer","5fc70f3bd255c10f0b2346ba","bdp_rd","Mon Mar 27 2023 19:11:46 GMT-0700 (Pacific Daylight Time)","235808","html-keyboard-response","30","61239","0.0-5.0-2.8","","1634","","<div class='trialBorder'><div class='vertical-center'><img style='vertical-align:center; align:center' src=img/fixation3.jpg></div><div class='cl'><div class='vertical-center'>$5<br>for<br>sure</div></div><div class='cr'><div class='vertical-center'>$16<br>with a<br>50% chance</div></div><div class='respDivL'><div class='vertical-center'>(E)</div></div><div class='respDivR'><div class='vertical-center'>(I)</div></div></div>","I","$5","$16","0","5","16","RISKY"
"","","","offerFB","5fc70f3bd255c10f0b2346ba","bdp_rd","Mon Mar 27 2023 19:11:46 GMT-0700 (Pacific Daylight Time)","235808","html-keyboard-response","31","61490","0.0-5.0-3.8","","null","","<div class='trialBorder'><div class='vertical-center'><img style='vertical-align:center; align:center' src=img/fixation3.jpg></div><div class='cl'><div class='vertical-center'>$5<br>for<br>sure</div></div><div class='cr'><div class='vertical-center'><font style='color:orange'>$16<br>with a<br>50% chance</font></div></div><div class='respDivL'><div class='vertical-center'>(E)</div></div><div class='respDivR'><div class='vertical-center'><font style='color:orange'>(I)</font></div></div></div>","null","$5","$16","0","5","16",""
"","","","FIX","5fc70f3bd255c10f0b2346ba","bdp_rd","Mon Mar 27 2023 19:11:46 GMT-0700 (Pacific Daylight Time)","235808","html-keyboard-response","32","61992","0.0-5.0-1.9","","null","","<div class='trialBorder'><div class='vertical-center'><img style='vertical-align:center; align:center' src=img/fixation3.jpg></div></div>","null","","","","","",""
"","","","offer","5fc70f3bd255c10f0b2346ba","bdp_rd","Mon Mar 27 2023 19:11:46 GMT-0700 (Pacific Daylight Time)","235808","html-keyboard-response","33","64133","0.0-5.0-2.9","","2139","","<div class='trialBorder'><div class='vertical-center'><img style='vertical-align:center; align:center' src=img/fixation3.jpg></div><div class='cl'><div class='vertical-center'>$46<br>for<br>sure</div></div><div class='cr'><div class='vertical-center'>$65<br>with a<br>50% chance</div></div><div class='respDivL'><div class='vertical-center'>(E)</div></div><div class='respDivR'><div class='vertical-center'>(I)</div></div></div>","E","$46","$65","0","46","65","SURE"
"","","","offerFB","5fc70f3bd255c10f0b2346ba","bdp_rd","Mon Mar 27 2023 19:11:46 GMT-0700 (Pacific Daylight Time)","235808","html-keyboard-response","34","64390","0.0-5.0-3.9","","null","","<div class='trialBorder'><div class='vertical-center'><img style='vertical-align:center; align:center' src=img/fixation3.jpg></div><div class='cl'><div class='vertical-center'><font style='color:orange'>$46<br>for<br>sure</font></div></div><div class='cr'><div class='vertical-center'>$65<br>with a<br>50% chance</div></div><div class='respDivL'><div class='vertical-center'><font style='color:orange'>(E)</font></div></div><div class='respDivR'><div class='vertical-center'>(I)</div></div></div>","null","$46","$65","0","46","65",""
"","","","FIX","5fc70f3bd255c10f0b2346ba","bdp_rd","Mon Mar 27 2023 19:11:46 GMT-0700 (Pacific Daylight Time)","235808","html-keyboard-response","35","64896","0.0-5.0-1.10","","null","","<div class='trialBorder'><div class='vertical-center'><img style='vertical-align:center; align:center' src=img/fixation3.jpg></div></div>","null","","","","","",""
"","","","offer","5fc70f3bd255c10f0b2346ba","bdp_rd","Mon Mar 27 2023 19:11:46 GMT-0700 (Pacific Daylight Time)","235808","html-keyboard-response","36","68111","0.0-5.0-2.10","","3213","","<div class='trialBorder'><div class='vertical-center'><img style='vertical-align:center; align:center' src=img/fixation3.jpg></div><div class='cl'><div class='vertical-center'>$86<br>with a<br>50% chance</div></div><div class='cr'><div class='vertical-center'>$45<br>for<br>sure</div></div><div class='respDivL'><div class='vertical-center'>(E)</div></div><div class='respDivR'><div class='vertical-center'>(I)</div></div></div>","I","$45","$86","1","45","86","SURE"
"","","","offerFB","5fc70f3bd255c10f0b2346ba","bdp_rd","Mon Mar 27 2023 19:11:46 GMT-0700 (Pacific Daylight Time)","235808","html-keyboard-response","37","68368","0.0-5.0-3.10","","null","","<div class='trialBorder'><div class='vertical-center'><img style='vertical-align:center; align:center' src=img/fixation3.jpg></div><div class='cl'><div class='vertical-center'>$86<br>with a<br>50% chance</div></div><div class='cr'><div class='vertical-center'><font style='color:orange'>$45<br>for<br>sure</font></div></div><div class='respDivL'><div class='vertical-center'>(E)</div></div><div class='respDivR'><div class='vertical-center'><font style='color:orange'>(I)</font></div></div></div>","null","$45","$86","1","45","86",""
"","","","FIX","5fc70f3bd255c10f0b2346ba","bdp_rd","Mon Mar 27 2023 19:11:46 GMT-0700 (Pacific Daylight Time)","235808","html-keyboard-response","38","68872","0.0-5.0-1.11","","null","","<div class='trialBorder'><div class='vertical-center'><img style='vertical-align:center; align:center' src=img/fixation3.jpg></div></div>","null","","","","","",""
"","","","offer","5fc70f3bd255c10f0b2346ba","bdp_rd","Mon Mar 27 2023 19:11:46 GMT-0700 (Pacific Daylight Time)","235808","html-keyboard-response","39","72061","0.0-5.0-2.11","","3185","","<div class='trialBorder'><div class='vertical-center'><img style='vertical-align:center; align:center' src=img/fixation3.jpg></div><div class='cl'><div class='vertical-center'>$22<br>for<br>sure</div></div><div class='cr'><div class='vertical-center'>$59<br>with a<br>50% chance</div></div><div class='respDivL'><div class='vertical-center'>(E)</div></div><div class='respDivR'><div class='vertical-center'>(I)</div></div></div>","I","$22","$59","0","22","59","RISKY"
"","","","offerFB","5fc70f3bd255c10f0b2346ba","bdp_rd","Mon Mar 27 2023 19:11:46 GMT-0700 (Pacific Daylight Time)","235808","html-keyboard-response","40","72315","0.0-5.0-3.11","","null","","<div class='trialBorder'><div class='vertical-center'><img style='vertical-align:center; align:center' src=img/fixation3.jpg></div><div class='cl'><div class='vertical-center'>$22<br>for<br>sure</div></div><div class='cr'><div class='vertical-center'><font style='color:orange'>$59<br>with a<br>50% chance</font></div></div><div class='respDivL'><div class='vertical-center'>(E)</div></div><div class='respDivR'><div class='vertical-center'><font style='color:orange'>(I)</font></div></div></div>","null","$22","$59","0","22","59",""
"","","","FIX","5fc70f3bd255c10f0b2346ba","bdp_rd","Mon Mar 27 2023 19:11:46 GMT-0700 (Pacific Daylight Time)","235808","html-keyboard-response","41","72821","0.0-5.0-1.12","","null","","<div class='trialBorder'><div class='vertical-center'><img style='vertical-align:center; align:center' src=img/fixation3.jpg></div></div>","null","","","","","",""
"","","","offer","5fc70f3bd255c10f0b2346ba","bdp_rd","Mon Mar 27 2023 19:11:46 GMT-0700 (Pacific Daylight Time)","235808","html-keyboard-response","42","77372","0.0-5.0-2.12","","4549","","<div class='trialBorder'><div class='vertical-center'><img style='vertical-align:center; align:center' src=img/fixation3.jpg></div><div class='cl'><div class='vertical-center'>$73<br>with a<br>50% chance</div></div><div class='cr'><div class='vertical-center'>$42<br>for<br>sure</div></div><div class='respDivL'><div class='vertical-center'>(E)</div></div><div class='respDivR'><div class='vertical-center'>(I)</div></div></div>","I","$42","$73","1","42","73","SURE"
"","","","offerFB","5fc70f3bd255c10f0b2346ba","bdp_rd","Mon Mar 27 2023 19:11:46 GMT-0700 (Pacific Daylight Time)","235808","html-keyboard-response","43","77631","0.0-5.0-3.12","","null","","<div class='trialBorder'><div class='vertical-center'><img style='vertical-align:center; align:center' src=img/fixation3.jpg></div><div class='cl'><div class='vertical-center'>$73<br>with a<br>50% chance</div></div><div class='cr'><div class='vertical-center'><font style='color:orange'>$42<br>for<br>sure</font></div></div><div class='respDivL'><div class='vertical-center'>(E)</div></div><div class='respDivR'><div class='vertical-center'><font style='color:orange'>(I)</font></div></div></div>","null","$42","$73","1","42","73",""
"","","","FIX","5fc70f3bd255c10f0b2346ba","bdp_rd","Mon Mar 27 2023 19:11:46 GMT-0700 (Pacific Daylight Time)","235808","html-keyboard-response","44","78137","0.0-5.0-1.13","","null","","<div class='trialBorder'><div class='vertical-center'><img style='vertical-align:center; align:center' src=img/fixation3.jpg></div></div>","null","","","","","",""
"","","","offer","5fc70f3bd255c10f0b2346ba","bdp_rd","Mon Mar 27 2023 19:11:46 GMT-0700 (Pacific Daylight Time)","235808","html-keyboard-response","45","79866","0.0-5.0-2.13","","1727","","<div class='trialBorder'><div class='vertical-center'><img style='vertical-align:center; align:center' src=img/fixation3.jpg></div><div class='cl'><div class='vertical-center'>$25<br>with a<br>50% chance</div></div><div class='cr'><div class='vertical-center'>$21<br>for<br>sure</div></div><div class='respDivL'><div class='vertical-center'>(E)</div></div><div class='respDivR'><div class='vertical-center'>(I)</div></div></div>","I","$21","$25","1","21","25","SURE"
"","","","offerFB","5fc70f3bd255c10f0b2346ba","bdp_rd","Mon Mar 27 2023 19:11:46 GMT-0700 (Pacific Daylight Time)","235808","html-keyboard-response","46","80122","0.0-5.0-3.13","","null","","<div class='trialBorder'><div class='vertical-center'><img style='vertical-align:center; align:center' src=img/fixation3.jpg></div><div class='cl'><div class='vertical-center'>$25<br>with a<br>50% chance</div></div><div class='cr'><div class='vertical-center'><font style='color:orange'>$21<br>for<br>sure</font></div></div><div class='respDivL'><div class='vertical-center'>(E)</div></div><div class='respDivR'><div class='vertical-center'><font style='color:orange'>(I)</font></div></div></div>","null","$21","$25","1","21","25",""
"","","","FIX","5fc70f3bd255c10f0b2346ba","bdp_rd","Mon Mar 27 2023 19:11:46 GMT-0700 (Pacific Daylight Time)","235808","html-keyboard-response","47","80626","0.0-5.0-1.14","","null","","<div class='trialBorder'><div class='vertical-center'><img style='vertical-align:center; align:center' src=img/fixation3.jpg></div></div>","null","","","","","",""
"","","","offer","5fc70f3bd255c10f0b2346ba","bdp_rd","Mon Mar 27 2023 19:11:46 GMT-0700 (Pacific Daylight Time)","235808","html-keyboard-response","48","82506","0.0-5.0-2.14","","1877","","<div class='trialBorder'><div class='vertical-center'><img style='vertical-align:center; align:center' src=img/fixation3.jpg></div><div class='cl'><div class='vertical-center'>$71<br>with a<br>50% chance</div></div><div class='cr'><div class='vertical-center'>$7<br>for<br>sure</div></div><div class='respDivL'><div class='vertical-center'>(E)</div></div><div class='respDivR'><div class='vertical-center'>(I)</div></div></div>","E","$7","$71","1","7","71","RISKY"
"","","","offerFB","5fc70f3bd255c10f0b2346ba","bdp_rd","Mon Mar 27 2023 19:11:46 GMT-0700 (Pacific Daylight Time)","235808","html-keyboard-response","49","82763","0.0-5.0-3.14","","null","","<div class='trialBorder'><div class='vertical-center'><img style='vertical-align:center; align:center' src=img/fixation3.jpg></div><div class='cl'><div class='vertical-center'><font style='color:orange'>$71<br>with a<br>50% chance</font></div></div><div class='cr'><div class='vertical-center'>$7<br>for<br>sure</div></div><div class='respDivL'><div class='vertical-center'><font style='color:orange'>(E)</font></div></div><div class='respDivR'><div class='vertical-center'>(I)</div></div></div>","null","$7","$71","1","7","71",""
"","","","FIX","5fc70f3bd255c10f0b2346ba","bdp_rd","Mon Mar 27 2023 19:11:46 GMT-0700 (Pacific Daylight Time)","235808","html-keyboard-response","50","83270","0.0-5.0-1.15","","null","","<div class='trialBorder'><div class='vertical-center'><img style='vertical-align:center; align:center' src=img/fixation3.jpg></div></div>","null","","","","","",""
"","","","offer","5fc70f3bd255c10f0b2346ba","bdp_rd","Mon Mar 27 2023 19:11:46 GMT-0700 (Pacific Daylight Time)","235808","html-keyboard-response","51","85225","0.0-5.0-2.15","","1953","","<div class='trialBorder'><div class='vertical-center'><img style='vertical-align:center; align:center' src=img/fixation3.jpg></div><div class='cl'><div class='vertical-center'>$37<br>with a<br>50% chance</div></div><div class='cr'><div class='vertical-center'>$20<br>for<br>sure</div></div><div class='respDivL'><div class='vertical-center'>(E)</div></div><div class='respDivR'><div class='vertical-center'>(I)</div></div></div>","I","$20","$37","1","20","37","SURE"
"","","","offerFB","5fc70f3bd255c10f0b2346ba","bdp_rd","Mon Mar 27 2023 19:11:46 GMT-0700 (Pacific Daylight Time)","235808","html-keyboard-response","52","85478","0.0-5.0-3.15","","null","","<div class='trialBorder'><div class='vertical-center'><img style='vertical-align:center; align:center' src=img/fixation3.jpg></div><div class='cl'><div class='vertical-center'>$37<br>with a<br>50% chance</div></div><div class='cr'><div class='vertical-center'><font style='color:orange'>$20<br>for<br>sure</font></div></div><div class='respDivL'><div class='vertical-center'>(E)</div></div><div class='respDivR'><div class='vertical-center'><font style='color:orange'>(I)</font></div></div></div>","null","$20","$37","1","20","37",""
"","","","FIX","5fc70f3bd255c10f0b2346ba","bdp_rd","Mon Mar 27 2023 19:11:46 GMT-0700 (Pacific Daylight Time)","235808","html-keyboard-response","53","85984","0.0-5.0-1.16","","null","","<div class='trialBorder'><div class='vertical-center'><img style='vertical-align:center; align:center' src=img/fixation3.jpg></div></div>","null","","","","","",""
"","","","offer","5fc70f3bd255c10f0b2346ba","bdp_rd","Mon Mar 27 2023 19:11:46 GMT-0700 (Pacific Daylight Time)","235808","html-keyboard-response","54","87844","0.0-5.0-2.16","","1858","","<div class='trialBorder'><div class='vertical-center'><img style='vertical-align:center; align:center' src=img/fixation3.jpg></div><div class='cl'><div class='vertical-center'>$43<br>with a<br>50% chance</div></div><div class='cr'><div class='vertical-center'>$17<br>for<br>sure</div></div><div class='respDivL'><div class='vertical-center'>(E)</div></div><div class='respDivR'><div class='vertical-center'>(I)</div></div></div>","E","$17","$43","1","17","43","RISKY"
"","","","offerFB","5fc70f3bd255c10f0b2346ba","bdp_rd","Mon Mar 27 2023 19:11:46 GMT-0700 (Pacific Daylight Time)","235808","html-keyboard-response","55","88101","0.0-5.0-3.16","","null","","<div class='trialBorder'><div class='vertical-center'><img style='vertical-align:center; align:center' src=img/fixation3.jpg></div><div class='cl'><div class='vertical-center'><font style='color:orange'>$43<br>with a<br>50% chance</font></div></div><div class='cr'><div class='vertical-center'>$17<br>for<br>sure</div></div><div class='respDivL'><div class='vertical-center'><font style='color:orange'>(E)</font></div></div><div class='respDivR'><div class='vertical-center'>(I)</div></div></div>","null","$17","$43","1","17","43",""
"","","","FIX","5fc70f3bd255c10f0b2346ba","bdp_rd","Mon Mar 27 2023 19:11:46 GMT-0700 (Pacific Daylight Time)","235808","html-keyboard-response","56","88606","0.0-5.0-1.17","","null","","<div class='trialBorder'><div class='vertical-center'><img style='vertical-align:center; align:center' src=img/fixation3.jpg></div></div>","null","","","","","",""
"","","","offer","5fc70f3bd255c10f0b2346ba","bdp_rd","Mon Mar 27 2023 19:11:46 GMT-0700 (Pacific Daylight Time)","235808","html-keyboard-response","57","91186","0.0-5.0-2.17","","2576","","<div class='trialBorder'><div class='vertical-center'><img style='vertical-align:center; align:center' src=img/fixation3.jpg></div><div class='cl'><div class='vertical-center'>$10<br>with a<br>50% chance</div></div><div class='cr'><div class='vertical-center'>$7<br>for<br>sure</div></div><div class='respDivL'><div class='vertical-center'>(E)</div></div><div class='respDivR'><div class='vertical-center'>(I)</div></div></div>","I","$7","$10","1","7","10","SURE"
"","","","offerFB","5fc70f3bd255c10f0b2346ba","bdp_rd","Mon Mar 27 2023 19:11:46 GMT-0700 (Pacific Daylight Time)","235808","html-keyboard-response","58","91443","0.0-5.0-3.17","","null","","<div class='trialBorder'><div class='vertical-center'><img style='vertical-align:center; align:center' src=img/fixation3.jpg></div><div class='cl'><div class='vertical-center'>$10<br>with a<br>50% chance</div></div><div class='cr'><div class='vertical-center'><font style='color:orange'>$7<br>for<br>sure</font></div></div><div class='respDivL'><div class='vertical-center'>(E)</div></div><div class='respDivR'><div class='vertical-center'><font style='color:orange'>(I)</font></div></div></div>","null","$7","$10","1","7","10",""
"","","","FIX","5fc70f3bd255c10f0b2346ba","bdp_rd","Mon Mar 27 2023 19:11:46 GMT-0700 (Pacific Daylight Time)","235808","html-keyboard-response","59","91944","0.0-5.0-1.18","","null","","<div class='trialBorder'><div class='vertical-center'><img style='vertical-align:center; align:center' src=img/fixation3.jpg></div></div>","null","","","","","",""
"","","","offer","5fc70f3bd255c10f0b2346ba","bdp_rd","Mon Mar 27 2023 19:11:46 GMT-0700 (Pacific Daylight Time)","235808","html-keyboard-response","60","95379","0.0-5.0-2.18","","3434","","<div class='trialBorder'><div class='vertical-center'><img style='vertical-align:center; align:center' src=img/fixation3.jpg></div><div class='cl'><div class='vertical-center'>$14<br>for<br>sure</div></div><div class='cr'><div class='vertical-center'>$29<br>with a<br>50% chance</div></div><div class='respDivL'><div class='vertical-center'>(E)</div></div><div class='respDivR'><div class='vertical-center'>(I)</div></div></div>","I","$14","$29","0","14","29","RISKY"
"","","","offerFB","5fc70f3bd255c10f0b2346ba","bdp_rd","Mon Mar 27 2023 19:11:46 GMT-0700 (Pacific Daylight Time)","235808","html-keyboard-response","61","95636","0.0-5.0-3.18","","null","","<div class='trialBorder'><div class='vertical-center'><img style='vertical-align:center; align:center' src=img/fixation3.jpg></div><div class='cl'><div class='vertical-center'>$14<br>for<br>sure</div></div><div class='cr'><div class='vertical-center'><font style='color:orange'>$29<br>with a<br>50% chance</font></div></div><div class='respDivL'><div class='vertical-center'>(E)</div></div><div class='respDivR'><div class='vertical-center'><font style='color:orange'>(I)</font></div></div></div>","null","$14","$29","0","14","29",""
"","","","FIX","5fc70f3bd255c10f0b2346ba","bdp_rd","Mon Mar 27 2023 19:11:46 GMT-0700 (Pacific Daylight Time)","235808","html-keyboard-response","62","96142","0.0-5.0-1.19","","null","","<div class='trialBorder'><div class='vertical-center'><img style='vertical-align:center; align:center' src=img/fixation3.jpg></div></div>","null","","","","","",""
"","","","offer","5fc70f3bd255c10f0b2346ba","bdp_rd","Mon Mar 27 2023 19:11:46 GMT-0700 (Pacific Daylight Time)","235808","html-keyboard-response","63","97440","0.0-5.0-2.19","","1297","","<div class='trialBorder'><div class='vertical-center'><img style='vertical-align:center; align:center' src=img/fixation3.jpg></div><div class='cl'><div class='vertical-center'>$26<br>for<br>sure</div></div><div class='cr'><div class='vertical-center'>$92<br>with a<br>50% chance</div></div><div class='respDivL'><div class='vertical-center'>(E)</div></div><div class='respDivR'><div class='vertical-center'>(I)</div></div></div>","I","$26","$92","0","26","92","RISKY"
"","","","offerFB","5fc70f3bd255c10f0b2346ba","bdp_rd","Mon Mar 27 2023 19:11:46 GMT-0700 (Pacific Daylight Time)","235808","html-keyboard-response","64","97697","0.0-5.0-3.19","","null","","<div class='trialBorder'><div class='vertical-center'><img style='vertical-align:center; align:center' src=img/fixation3.jpg></div><div class='cl'><div class='vertical-center'>$26<br>for<br>sure</div></div><div class='cr'><div class='vertical-center'><font style='color:orange'>$92<br>with a<br>50% chance</font></div></div><div class='respDivL'><div class='vertical-center'>(E)</div></div><div class='respDivR'><div class='vertical-center'><font style='color:orange'>(I)</font></div></div></div>","null","$26","$92","0","26","92",""
"","","","FIX","5fc70f3bd255c10f0b2346ba","bdp_rd","Mon Mar 27 2023 19:11:46 GMT-0700 (Pacific Daylight Time)","235808","html-keyboard-response","65","98200","0.0-5.0-1.20","","null","","<div class='trialBorder'><div class='vertical-center'><img style='vertical-align:center; align:center' src=img/fixation3.jpg></div></div>","null","","","","","",""
"","","","offer","5fc70f3bd255c10f0b2346ba","bdp_rd","Mon Mar 27 2023 19:11:46 GMT-0700 (Pacific Daylight Time)","235808","html-keyboard-response","66","103090","0.0-5.0-2.20","","4887","","<div class='trialBorder'><div class='vertical-center'><img style='vertical-align:center; align:center' src=img/fixation3.jpg></div><div class='cl'><div class='vertical-center'>$54<br>with a<br>50% chance</div></div><div class='cr'><div class='vertical-center'>$25<br>for<br>sure</div></div><div class='respDivL'><div class='vertical-center'>(E)</div></div><div class='respDivR'><div class='vertical-center'>(I)</div></div></div>","E","$25","$54","1","25","54","RISKY"
"","","","offerFB","5fc70f3bd255c10f0b2346ba","bdp_rd","Mon Mar 27 2023 19:11:46 GMT-0700 (Pacific Daylight Time)","235808","html-keyboard-response","67","103348","0.0-5.0-3.20","","null","","<div class='trialBorder'><div class='vertical-center'><img style='vertical-align:center; align:center' src=img/fixation3.jpg></div><div class='cl'><div class='vertical-center'><font style='color:orange'>$54<br>with a<br>50% chance</font></div></div><div class='cr'><div class='vertical-center'>$25<br>for<br>sure</div></div><div class='respDivL'><div class='vertical-center'><font style='color:orange'>(E)</font></div></div><div class='respDivR'><div class='vertical-center'>(I)</div></div></div>","null","$25","$54","1","25","54",""
"","","","FIX","5fc70f3bd255c10f0b2346ba","bdp_rd","Mon Mar 27 2023 19:11:46 GMT-0700 (Pacific Daylight Time)","235808","html-keyboard-response","68","103851","0.0-5.0-1.21","","null","","<div class='trialBorder'><div class='vertical-center'><img style='vertical-align:center; align:center' src=img/fixation3.jpg></div></div>","null","","","","","",""
"","","","offer","5fc70f3bd255c10f0b2346ba","bdp_rd","Mon Mar 27 2023 19:11:46 GMT-0700 (Pacific Daylight Time)","235808","html-keyboard-response","69","108198","0.0-5.0-2.21","","4346","","<div class='trialBorder'><div class='vertical-center'><img style='vertical-align:center; align:center' src=img/fixation3.jpg></div><div class='cl'><div class='vertical-center'>$34<br>for<br>sure</div></div><div class='cr'><div class='vertical-center'>$48<br>with a<br>50% chance</div></div><div class='respDivL'><div class='vertical-center'>(E)</div></div><div class='respDivR'><div class='vertical-center'>(I)</div></div></div>","E","$34","$48","0","34","48","SURE"
"","","","offerFB","5fc70f3bd255c10f0b2346ba","bdp_rd","Mon Mar 27 2023 19:11:46 GMT-0700 (Pacific Daylight Time)","235808","html-keyboard-response","70","108454","0.0-5.0-3.21","","null","","<div class='trialBorder'><div class='vertical-center'><img style='vertical-align:center; align:center' src=img/fixation3.jpg></div><div class='cl'><div class='vertical-center'><font style='color:orange'>$34<br>for<br>sure</font></div></div><div class='cr'><div class='vertical-center'>$48<br>with a<br>50% chance</div></div><div class='respDivL'><div class='vertical-center'><font style='color:orange'>(E)</font></div></div><div class='respDivR'><div class='vertical-center'>(I)</div></div></div>","null","$34","$48","0","34","48",""
"","","","FIX","5fc70f3bd255c10f0b2346ba","bdp_rd","Mon Mar 27 2023 19:11:46 GMT-0700 (Pacific Daylight Time)","235808","html-keyboard-response","71","108955","0.0-5.0-1.22","","null","","<div class='trialBorder'><div class='vertical-center'><img style='vertical-align:center; align:center' src=img/fixation3.jpg></div></div>","null","","","","","",""
"","","","offer","5fc70f3bd255c10f0b2346ba","bdp_rd","Mon Mar 27 2023 19:11:46 GMT-0700 (Pacific Daylight Time)","235808","html-keyboard-response","72","113241","0.0-5.0-2.22","","4285","","<div class='trialBorder'><div class='vertical-center'><img style='vertical-align:center; align:center' src=img/fixation3.jpg></div><div class='cl'><div class='vertical-center'>$95<br>with a<br>50% chance</div></div><div class='cr'><div class='vertical-center'>$40<br>for<br>sure</div></div><div class='respDivL'><div class='vertical-center'>(E)</div></div><div class='respDivR'><div class='vertical-center'>(I)</div></div></div>","E","$40","$95","1","40","95","RISKY"
"","","","offerFB","5fc70f3bd255c10f0b2346ba","bdp_rd","Mon Mar 27 2023 19:11:46 GMT-0700 (Pacific Daylight Time)","235808","html-keyboard-response","73","113494","0.0-5.0-3.22","","null","","<div class='trialBorder'><div class='vertical-center'><img style='vertical-align:center; align:center' src=img/fixation3.jpg></div><div class='cl'><div class='vertical-center'><font style='color:orange'>$95<br>with a<br>50% chance</font></div></div><div class='cr'><div class='vertical-center'>$40<br>for<br>sure</div></div><div class='respDivL'><div class='vertical-center'><font style='color:orange'>(E)</font></div></div><div class='respDivR'><div class='vertical-center'>(I)</div></div></div>","null","$40","$95","1","40","95",""
"","","","FIX","5fc70f3bd255c10f0b2346ba","bdp_rd","Mon Mar 27 2023 19:11:46 GMT-0700 (Pacific Daylight Time)","235808","html-keyboard-response","74","114000","0.0-5.0-1.23","","null","","<div class='trialBorder'><div class='vertical-center'><img style='vertical-align:center; align:center' src=img/fixation3.jpg></div></div>","null","","","","","",""
"","","","offer","5fc70f3bd255c10f0b2346ba","bdp_rd","Mon Mar 27 2023 19:11:46 GMT-0700 (Pacific Daylight Time)","235808","html-keyboard-response","75","115306","0.0-5.0-2.23","","1304","","<div class='trialBorder'><div class='vertical-center'><img style='vertical-align:center; align:center' src=img/fixation3.jpg></div><div class='cl'><div class='vertical-center'>$2<br>for<br>sure</div></div><div class='cr'><div class='vertical-center'>$21<br>with a<br>50% chance</div></div><div class='respDivL'><div class='vertical-center'>(E)</div></div><div class='respDivR'><div class='vertical-center'>(I)</div></div></div>","I","$2","$21","0","2","21","RISKY"
"","","","offerFB","5fc70f3bd255c10f0b2346ba","bdp_rd","Mon Mar 27 2023 19:11:46 GMT-0700 (Pacific Daylight Time)","235808","html-keyboard-response","76","115563","0.0-5.0-3.23","","null","","<div class='trialBorder'><div class='vertical-center'><img style='vertical-align:center; align:center' src=img/fixation3.jpg></div><div class='cl'><div class='vertical-center'>$2<br>for<br>sure</div></div><div class='cr'><div class='vertical-center'><font style='color:orange'>$21<br>with a<br>50% chance</font></div></div><div class='respDivL'><div class='vertical-center'>(E)</div></div><div class='respDivR'><div class='vertical-center'><font style='color:orange'>(I)</font></div></div></div>","null","$2","$21","0","2","21",""
"","","","FIX","5fc70f3bd255c10f0b2346ba","bdp_rd","Mon Mar 27 2023 19:11:46 GMT-0700 (Pacific Daylight Time)","235808","html-keyboard-response","77","116069","0.0-5.0-1.24","","null","","<div class='trialBorder'><div class='vertical-center'><img style='vertical-align:center; align:center' src=img/fixation3.jpg></div></div>","null","","","","","",""
"","","","offer","5fc70f3bd255c10f0b2346ba","bdp_rd","Mon Mar 27 2023 19:11:46 GMT-0700 (Pacific Daylight Time)","235808","html-keyboard-response","78","119241","0.0-5.0-2.24","","3169","","<div class='trialBorder'><div class='vertical-center'><img style='vertical-align:center; align:center' src=img/fixation3.jpg></div><div class='cl'><div class='vertical-center'>$27<br>with a<br>50% chance</div></div><div class='cr'><div class='vertical-center'>$12<br>for<br>sure</div></div><div class='respDivL'><div class='vertical-center'>(E)</div></div><div class='respDivR'><div class='vertical-center'>(I)</div></div></div>","E","$12","$27","1","12","27","RISKY"
"","","","offerFB","5fc70f3bd255c10f0b2346ba","bdp_rd","Mon Mar 27 2023 19:11:46 GMT-0700 (Pacific Daylight Time)","235808","html-keyboard-response","79","119498","0.0-5.0-3.24","","null","","<div class='trialBorder'><div class='vertical-center'><img style='vertical-align:center; align:center' src=img/fixation3.jpg></div><div class='cl'><div class='vertical-center'><font style='color:orange'>$27<br>with a<br>50% chance</font></div></div><div class='cr'><div class='vertical-center'>$12<br>for<br>sure</div></div><div class='respDivL'><div class='vertical-center'><font style='color:orange'>(E)</font></div></div><div class='respDivR'><div class='vertical-center'>(I)</div></div></div>","null","$12","$27","1","12","27",""
"","","","FIX","5fc70f3bd255c10f0b2346ba","bdp_rd","Mon Mar 27 2023 19:11:46 GMT-0700 (Pacific Daylight Time)","235808","html-keyboard-response","80","120005","0.0-5.0-1.25","","null","","<div class='trialBorder'><div class='vertical-center'><img style='vertical-align:center; align:center' src=img/fixation3.jpg></div></div>","null","","","","","",""
"","","","offer","5fc70f3bd255c10f0b2346ba","bdp_rd","Mon Mar 27 2023 19:11:46 GMT-0700 (Pacific Daylight Time)","235808","html-keyboard-response","81","123671","0.0-5.0-2.25","","3664","","<div class='trialBorder'><div class='vertical-center'><img style='vertical-align:center; align:center' src=img/fixation3.jpg></div><div class='cl'><div class='vertical-center'>$36<br>with a<br>50% chance</div></div><div class='cr'><div class='vertical-center'>$18<br>for<br>sure</div></div><div class='respDivL'><div class='vertical-center'>(E)</div></div><div class='respDivR'><div class='vertical-center'>(I)</div></div></div>","I","$18","$36","1","18","36","SURE"
"","","","offerFB","5fc70f3bd255c10f0b2346ba","bdp_rd","Mon Mar 27 2023 19:11:46 GMT-0700 (Pacific Daylight Time)","235808","html-keyboard-response","82","123926","0.0-5.0-3.25","","null","","<div class='trialBorder'><div class='vertical-center'><img style='vertical-align:center; align:center' src=img/fixation3.jpg></div><div class='cl'><div class='vertical-center'>$36<br>with a<br>50% chance</div></div><div class='cr'><div class='vertical-center'><font style='color:orange'>$18<br>for<br>sure</font></div></div><div class='respDivL'><div class='vertical-center'>(E)</div></div><div class='respDivR'><div class='vertical-center'><font style='color:orange'>(I)</font></div></div></div>","null","$18","$36","1","18","36",""
"","","","FIX","5fc70f3bd255c10f0b2346ba","bdp_rd","Mon Mar 27 2023 19:11:46 GMT-0700 (Pacific Daylight Time)","235808","html-keyboard-response","83","124428","0.0-5.0-1.26","","null","","<div class='trialBorder'><div class='vertical-center'><img style='vertical-align:center; align:center' src=img/fixation3.jpg></div></div>","null","","","","","",""
"","","","offer","5fc70f3bd255c10f0b2346ba","bdp_rd","Mon Mar 27 2023 19:11:46 GMT-0700 (Pacific Daylight Time)","235808","html-keyboard-response","84","125712","0.0-5.0-2.26","","1283","","<div class='trialBorder'><div class='vertical-center'><img style='vertical-align:center; align:center' src=img/fixation3.jpg></div><div class='cl'><div class='vertical-center'>$51<br>with a<br>50% chance</div></div><div class='cr'><div class='vertical-center'>$19<br>for<br>sure</div></div><div class='respDivL'><div class='vertical-center'>(E)</div></div><div class='respDivR'><div class='vertical-center'>(I)</div></div></div>","E","$19","$51","1","19","51","RISKY"
"","","","offerFB","5fc70f3bd255c10f0b2346ba","bdp_rd","Mon Mar 27 2023 19:11:46 GMT-0700 (Pacific Daylight Time)","235808","html-keyboard-response","85","125970","0.0-5.0-3.26","","null","","<div class='trialBorder'><div class='vertical-center'><img style='vertical-align:center; align:center' src=img/fixation3.jpg></div><div class='cl'><div class='vertical-center'><font style='color:orange'>$51<br>with a<br>50% chance</font></div></div><div class='cr'><div class='vertical-center'>$19<br>for<br>sure</div></div><div class='respDivL'><div class='vertical-center'><font style='color:orange'>(E)</font></div></div><div class='respDivR'><div class='vertical-center'>(I)</div></div></div>","null","$19","$51","1","19","51",""
"","","","FIX","5fc70f3bd255c10f0b2346ba","bdp_rd","Mon Mar 27 2023 19:11:46 GMT-0700 (Pacific Daylight Time)","235808","html-keyboard-response","86","126474","0.0-5.0-1.27","","null","","<div class='trialBorder'><div class='vertical-center'><img style='vertical-align:center; align:center' src=img/fixation3.jpg></div></div>","null","","","","","",""
"","","","offer","5fc70f3bd255c10f0b2346ba","bdp_rd","Mon Mar 27 2023 19:11:46 GMT-0700 (Pacific Daylight Time)","235808","html-keyboard-response","87","130165","0.0-5.0-2.27","","3690","","<div class='trialBorder'><div class='vertical-center'><img style='vertical-align:center; align:center' src=img/fixation3.jpg></div><div class='cl'><div class='vertical-center'>$66<br>with a<br>50% chance</div></div><div class='cr'><div class='vertical-center'>$33<br>for<br>sure</div></div><div class='respDivL'><div class='vertical-center'>(E)</div></div><div class='respDivR'><div class='vertical-center'>(I)</div></div></div>","E","$33","$66","1","33","66","RISKY"
"","","","offerFB","5fc70f3bd255c10f0b2346ba","bdp_rd","Mon Mar 27 2023 19:11:46 GMT-0700 (Pacific Daylight Time)","235808","html-keyboard-response","88","130418","0.0-5.0-3.27","","null","","<div class='trialBorder'><div class='vertical-center'><img style='vertical-align:center; align:center' src=img/fixation3.jpg></div><div class='cl'><div class='vertical-center'><font style='color:orange'>$66<br>with a<br>50% chance</font></div></div><div class='cr'><div class='vertical-center'>$33<br>for<br>sure</div></div><div class='respDivL'><div class='vertical-center'><font style='color:orange'>(E)</font></div></div><div class='respDivR'><div class='vertical-center'>(I)</div></div></div>","null","$33","$66","1","33","66",""
"","","","FIX","5fc70f3bd255c10f0b2346ba","bdp_rd","Mon Mar 27 2023 19:11:46 GMT-0700 (Pacific Daylight Time)","235808","html-keyboard-response","89","130925","0.0-5.0-1.28","","null","","<div class='trialBorder'><div class='vertical-center'><img style='vertical-align:center; align:center' src=img/fixation3.jpg></div></div>","null","","","","","",""
"","","","offer","5fc70f3bd255c10f0b2346ba","bdp_rd","Mon Mar 27 2023 19:11:46 GMT-0700 (Pacific Daylight Time)","235808","html-keyboard-response","90","134355","0.0-5.0-2.28","","3430","","<div class='trialBorder'><div class='vertical-center'><img style='vertical-align:center; align:center' src=img/fixation3.jpg></div><div class='cl'><div class='vertical-center'>$13<br>with a<br>50% chance</div></div><div class='cr'><div class='vertical-center'>$6<br>for<br>sure</div></div><div class='respDivL'><div class='vertical-center'>(E)</div></div><div class='respDivR'><div class='vertical-center'>(I)</div></div></div>","E","$6","$13","1","6","13","RISKY"
"","","","offerFB","5fc70f3bd255c10f0b2346ba","bdp_rd","Mon Mar 27 2023 19:11:46 GMT-0700 (Pacific Daylight Time)","235808","html-keyboard-response","91","134608","0.0-5.0-3.28","","null","","<div class='trialBorder'><div class='vertical-center'><img style='vertical-align:center; align:center' src=img/fixation3.jpg></div><div class='cl'><div class='vertical-center'><font style='color:orange'>$13<br>with a<br>50% chance</font></div></div><div class='cr'><div class='vertical-center'>$6<br>for<br>sure</div></div><div class='respDivL'><div class='vertical-center'><font style='color:orange'>(E)</font></div></div><div class='respDivR'><div class='vertical-center'>(I)</div></div></div>","null","$6","$13","1","6","13",""
"","","","FIX","5fc70f3bd255c10f0b2346ba","bdp_rd","Mon Mar 27 2023 19:11:46 GMT-0700 (Pacific Daylight Time)","235808","html-keyboard-response","92","135114","0.0-5.0-1.29","","null","","<div class='trialBorder'><div class='vertical-center'><img style='vertical-align:center; align:center' src=img/fixation3.jpg></div></div>","null","","","","","",""
"","","","offer","5fc70f3bd255c10f0b2346ba","bdp_rd","Mon Mar 27 2023 19:11:46 GMT-0700 (Pacific Daylight Time)","235808","html-keyboard-response","93","137944","0.0-5.0-2.29","","2828","","<div class='trialBorder'><div class='vertical-center'><img style='vertical-align:center; align:center' src=img/fixation3.jpg></div><div class='cl'><div class='vertical-center'>$46<br>with a<br>50% chance</div></div><div class='cr'><div class='vertical-center'>$29<br>for<br>sure</div></div><div class='respDivL'><div class='vertical-center'>(E)</div></div><div class='respDivR'><div class='vertical-center'>(I)</div></div></div>","I","$29","$46","1","29","46","SURE"
"","","","offerFB","5fc70f3bd255c10f0b2346ba","bdp_rd","Mon Mar 27 2023 19:11:46 GMT-0700 (Pacific Daylight Time)","235808","html-keyboard-response","94","138199","0.0-5.0-3.29","","null","","<div class='trialBorder'><div class='vertical-center'><img style='vertical-align:center; align:center' src=img/fixation3.jpg></div><div class='cl'><div class='vertical-center'>$46<br>with a<br>50% chance</div></div><div class='cr'><div class='vertical-center'><font style='color:orange'>$29<br>for<br>sure</font></div></div><div class='respDivL'><div class='vertical-center'>(E)</div></div><div class='respDivR'><div class='vertical-center'><font style='color:orange'>(I)</font></div></div></div>","null","$29","$46","1","29","46",""
"","","","FIX","5fc70f3bd255c10f0b2346ba","bdp_rd","Mon Mar 27 2023 19:11:46 GMT-0700 (Pacific Daylight Time)","235808","html-keyboard-response","95","138705","0.0-5.0-1.30","","null","","<div class='trialBorder'><div class='vertical-center'><img style='vertical-align:center; align:center' src=img/fixation3.jpg></div></div>","null","","","","","",""
"","","","offer","5fc70f3bd255c10f0b2346ba","bdp_rd","Mon Mar 27 2023 19:11:46 GMT-0700 (Pacific Daylight Time)","235808","html-keyboard-response","96","141760","0.0-5.0-2.30","","3052","","<div class='trialBorder'><div class='vertical-center'><img style='vertical-align:center; align:center' src=img/fixation3.jpg></div><div class='cl'><div class='vertical-center'>$22<br>with a<br>50% chance</div></div><div class='cr'><div class='vertical-center'>$14<br>for<br>sure</div></div><div class='respDivL'><div class='vertical-center'>(E)</div></div><div class='respDivR'><div class='vertical-center'>(I)</div></div></div>","I","$14","$22","1","14","22","SURE"
"","","","offerFB","5fc70f3bd255c10f0b2346ba","bdp_rd","Mon Mar 27 2023 19:11:46 GMT-0700 (Pacific Daylight Time)","235808","html-keyboard-response","97","142017","0.0-5.0-3.30","","null","","<div class='trialBorder'><div class='vertical-center'><img style='vertical-align:center; align:center' src=img/fixation3.jpg></div><div class='cl'><div class='vertical-center'>$22<br>with a<br>50% chance</div></div><div class='cr'><div class='vertical-center'><font style='color:orange'>$14<br>for<br>sure</font></div></div><div class='respDivL'><div class='vertical-center'>(E)</div></div><div class='respDivR'><div class='vertical-center'><font style='color:orange'>(I)</font></div></div></div>","null","$14","$22","1","14","22",""
"","","","FIX","5fc70f3bd255c10f0b2346ba","bdp_rd","Mon Mar 27 2023 19:11:46 GMT-0700 (Pacific Daylight Time)","235808","html-keyboard-response","98","142523","0.0-5.0-1.31","","null","","<div class='trialBorder'><div class='vertical-center'><img style='vertical-align:center; align:center' src=img/fixation3.jpg></div></div>","null","","","","","",""
"","","","offer","5fc70f3bd255c10f0b2346ba","bdp_rd","Mon Mar 27 2023 19:11:46 GMT-0700 (Pacific Daylight Time)","235808","html-keyboard-response","99","144018","0.0-5.0-2.31","","1493","","<div class='trialBorder'><div class='vertical-center'><img style='vertical-align:center; align:center' src=img/fixation3.jpg></div><div class='cl'><div class='vertical-center'>$2<br>for<br>sure</div></div><div class='cr'><div class='vertical-center'>$64<br>with a<br>50% chance</div></div><div class='respDivL'><div class='vertical-center'>(E)</div></div><div class='respDivR'><div class='vertical-center'>(I)</div></div></div>","I","$2","$64","0","2","64","RISKY"
"","","","offerFB","5fc70f3bd255c10f0b2346ba","bdp_rd","Mon Mar 27 2023 19:11:46 GMT-0700 (Pacific Daylight Time)","235808","html-keyboard-response","100","144275","0.0-5.0-3.31","","null","","<div class='trialBorder'><div class='vertical-center'><img style='vertical-align:center; align:center' src=img/fixation3.jpg></div><div class='cl'><div class='vertical-center'>$2<br>for<br>sure</div></div><div class='cr'><div class='vertical-center'><font style='color:orange'>$64<br>with a<br>50% chance</font></div></div><div class='respDivL'><div class='vertical-center'>(E)</div></div><div class='respDivR'><div class='vertical-center'><font style='color:orange'>(I)</font></div></div></div>","null","$2","$64","0","2","64",""
"","","","FIX","5fc70f3bd255c10f0b2346ba","bdp_rd","Mon Mar 27 2023 19:11:46 GMT-0700 (Pacific Daylight Time)","235808","html-keyboard-response","101","144781","0.0-5.0-1.32","","null","","<div class='trialBorder'><div class='vertical-center'><img style='vertical-align:center; align:center' src=img/fixation3.jpg></div></div>","null","","","","","",""
"","","","offer","5fc70f3bd255c10f0b2346ba","bdp_rd","Mon Mar 27 2023 19:11:46 GMT-0700 (Pacific Daylight Time)","235808","html-keyboard-response","102","146437","0.0-5.0-2.32","","1656","","<div class='trialBorder'><div class='vertical-center'><img style='vertical-align:center; align:center' src=img/fixation3.jpg></div><div class='cl'><div class='vertical-center'>$62<br>with a<br>50% chance</div></div><div class='cr'><div class='vertical-center'>$11<br>for<br>sure</div></div><div class='respDivL'><div class='vertical-center'>(E)</div></div><div class='respDivR'><div class='vertical-center'>(I)</div></div></div>","E","$11","$62","1","11","62","RISKY"
"","","","offerFB","5fc70f3bd255c10f0b2346ba","bdp_rd","Mon Mar 27 2023 19:11:46 GMT-0700 (Pacific Daylight Time)","235808","html-keyboard-response","103","146690","0.0-5.0-3.32","","null","","<div class='trialBorder'><div class='vertical-center'><img style='vertical-align:center; align:center' src=img/fixation3.jpg></div><div class='cl'><div class='vertical-center'><font style='color:orange'>$62<br>with a<br>50% chance</font></div></div><div class='cr'><div class='vertical-center'>$11<br>for<br>sure</div></div><div class='respDivL'><div class='vertical-center'><font style='color:orange'>(E)</font></div></div><div class='respDivR'><div class='vertical-center'>(I)</div></div></div>","null","$11","$62","1","11","62",""
"","","","FIX","5fc70f3bd255c10f0b2346ba","bdp_rd","Mon Mar 27 2023 19:11:46 GMT-0700 (Pacific Daylight Time)","235808","html-keyboard-response","104","147196","0.0-5.0-1.33","","null","","<div class='trialBorder'><div class='vertical-center'><img style='vertical-align:center; align:center' src=img/fixation3.jpg></div></div>","null","","","","","",""
"","","","offer","5fc70f3bd255c10f0b2346ba","bdp_rd","Mon Mar 27 2023 19:11:46 GMT-0700 (Pacific Daylight Time)","235808","html-keyboard-response","105","148448","0.0-5.0-2.33","","1251","","<div class='trialBorder'><div class='vertical-center'><img style='vertical-align:center; align:center' src=img/fixation3.jpg></div><div class='cl'><div class='vertical-center'>$50<br>with a<br>50% chance</div></div><div class='cr'><div class='vertical-center'>$5<br>for<br>sure</div></div><div class='respDivL'><div class='vertical-center'>(E)</div></div><div class='respDivR'><div class='vertical-center'>(I)</div></div></div>","E","$5","$50","1","5","50","RISKY"
"","","","offerFB","5fc70f3bd255c10f0b2346ba","bdp_rd","Mon Mar 27 2023 19:11:46 GMT-0700 (Pacific Daylight Time)","235808","html-keyboard-response","106","148701","0.0-5.0-3.33","","null","","<div class='trialBorder'><div class='vertical-center'><img style='vertical-align:center; align:center' src=img/fixation3.jpg></div><div class='cl'><div class='vertical-center'><font style='color:orange'>$50<br>with a<br>50% chance</font></div></div><div class='cr'><div class='vertical-center'>$5<br>for<br>sure</div></div><div class='respDivL'><div class='vertical-center'><font style='color:orange'>(E)</font></div></div><div class='respDivR'><div class='vertical-center'>(I)</div></div></div>","null","$5","$50","1","5","50",""
"","","","FIX","5fc70f3bd255c10f0b2346ba","bdp_rd","Mon Mar 27 2023 19:11:46 GMT-0700 (Pacific Daylight Time)","235808","html-keyboard-response","107","149204","0.0-5.0-1.34","","null","","<div class='trialBorder'><div class='vertical-center'><img style='vertical-align:center; align:center' src=img/fixation3.jpg></div></div>","null","","","","","",""
"","","","offer","5fc70f3bd255c10f0b2346ba","bdp_rd","Mon Mar 27 2023 19:11:46 GMT-0700 (Pacific Daylight Time)","235808","html-keyboard-response","108","150856","0.0-5.0-2.34","","1650","","<div class='trialBorder'><div class='vertical-center'><img style='vertical-align:center; align:center' src=img/fixation3.jpg></div><div class='cl'><div class='vertical-center'>$58<br>for<br>sure</div></div><div class='cr'><div class='vertical-center'>$69<br>with a<br>50% chance</div></div><div class='respDivL'><div class='vertical-center'>(E)</div></div><div class='respDivR'><div class='vertical-center'>(I)</div></div></div>","E","$58","$69","0","58","69","SURE"
"","","","offerFB","5fc70f3bd255c10f0b2346ba","bdp_rd","Mon Mar 27 2023 19:11:46 GMT-0700 (Pacific Daylight Time)","235808","html-keyboard-response","109","151114","0.0-5.0-3.34","","null","","<div class='trialBorder'><div class='vertical-center'><img style='vertical-align:center; align:center' src=img/fixation3.jpg></div><div class='cl'><div class='vertical-center'><font style='color:orange'>$58<br>for<br>sure</font></div></div><div class='cr'><div class='vertical-center'>$69<br>with a<br>50% chance</div></div><div class='respDivL'><div class='vertical-center'><font style='color:orange'>(E)</font></div></div><div class='respDivR'><div class='vertical-center'>(I)</div></div></div>","null","$58","$69","0","58","69",""
"","","","FIX","5fc70f3bd255c10f0b2346ba","bdp_rd","Mon Mar 27 2023 19:11:46 GMT-0700 (Pacific Daylight Time)","235808","html-keyboard-response","110","151618","0.0-5.0-1.35","","null","","<div class='trialBorder'><div class='vertical-center'><img style='vertical-align:center; align:center' src=img/fixation3.jpg></div></div>","null","","","","","",""
"","","","offer","5fc70f3bd255c10f0b2346ba","bdp_rd","Mon Mar 27 2023 19:11:46 GMT-0700 (Pacific Daylight Time)","235808","html-keyboard-response","111","154233","0.0-5.0-2.35","","2613","","<div class='trialBorder'><div class='vertical-center'><img style='vertical-align:center; align:center' src=img/fixation3.jpg></div><div class='cl'><div class='vertical-center'>$98<br>with a<br>50% chance</div></div><div class='cr'><div class='vertical-center'>$53<br>for<br>sure</div></div><div class='respDivL'><div class='vertical-center'>(E)</div></div><div class='respDivR'><div class='vertical-center'>(I)</div></div></div>","I","$53","$98","1","53","98","SURE"
"","","","offerFB","5fc70f3bd255c10f0b2346ba","bdp_rd","Mon Mar 27 2023 19:11:46 GMT-0700 (Pacific Daylight Time)","235808","html-keyboard-response","112","154489","0.0-5.0-3.35","","null","","<div class='trialBorder'><div class='vertical-center'><img style='vertical-align:center; align:center' src=img/fixation3.jpg></div><div class='cl'><div class='vertical-center'>$98<br>with a<br>50% chance</div></div><div class='cr'><div class='vertical-center'><font style='color:orange'>$53<br>for<br>sure</font></div></div><div class='respDivL'><div class='vertical-center'>(E)</div></div><div class='respDivR'><div class='vertical-center'><font style='color:orange'>(I)</font></div></div></div>","null","$53","$98","1","53","98",""
"","","","FIX","5fc70f3bd255c10f0b2346ba","bdp_rd","Mon Mar 27 2023 19:11:46 GMT-0700 (Pacific Daylight Time)","235808","html-keyboard-response","113","154994","0.0-5.0-1.36","","null","","<div class='trialBorder'><div class='vertical-center'><img style='vertical-align:center; align:center' src=img/fixation3.jpg></div></div>","null","","","","","",""
"","","","offer","5fc70f3bd255c10f0b2346ba","bdp_rd","Mon Mar 27 2023 19:11:46 GMT-0700 (Pacific Daylight Time)","235808","html-keyboard-response","114","158500","0.0-5.0-2.36","","3504","","<div class='trialBorder'><div class='vertical-center'><img style='vertical-align:center; align:center' src=img/fixation3.jpg></div><div class='cl'><div class='vertical-center'>$8<br>for<br>sure</div></div><div class='cr'><div class='vertical-center'>$45<br>with a<br>50% chance</div></div><div class='respDivL'><div class='vertical-center'>(E)</div></div><div class='respDivR'><div class='vertical-center'>(I)</div></div></div>","I","$8","$45","0","8","45","RISKY"
"","","","offerFB","5fc70f3bd255c10f0b2346ba","bdp_rd","Mon Mar 27 2023 19:11:46 GMT-0700 (Pacific Daylight Time)","235808","html-keyboard-response","115","158757","0.0-5.0-3.36","","null","","<div class='trialBorder'><div class='vertical-center'><img style='vertical-align:center; align:center' src=img/fixation3.jpg></div><div class='cl'><div class='vertical-center'>$8<br>for<br>sure</div></div><div class='cr'><div class='vertical-center'><font style='color:orange'>$45<br>with a<br>50% chance</font></div></div><div class='respDivL'><div class='vertical-center'>(E)</div></div><div class='respDivR'><div class='vertical-center'><font style='color:orange'>(I)</font></div></div></div>","null","$8","$45","0","8","45",""
"","","","FIX","5fc70f3bd255c10f0b2346ba","bdp_rd","Mon Mar 27 2023 19:11:46 GMT-0700 (Pacific Daylight Time)","235808","html-keyboard-response","116","159263","0.0-5.0-1.37","","null","","<div class='trialBorder'><div class='vertical-center'><img style='vertical-align:center; align:center' src=img/fixation3.jpg></div></div>","null","","","","","",""
"","","","offer","5fc70f3bd255c10f0b2346ba","bdp_rd","Mon Mar 27 2023 19:11:46 GMT-0700 (Pacific Daylight Time)","235808","html-keyboard-response","117","162685","0.0-5.0-2.37","","3421","","<div class='trialBorder'><div class='vertical-center'><img style='vertical-align:center; align:center' src=img/fixation3.jpg></div><div class='cl'><div class='vertical-center'>$13<br>for<br>sure</div></div><div class='cr'><div class='vertical-center'>$24<br>with a<br>50% chance</div></div><div class='respDivL'><div class='vertical-center'>(E)</div></div><div class='respDivR'><div class='vertical-center'>(I)</div></div></div>","E","$13","$24","0","13","24","SURE"
"","","","offerFB","5fc70f3bd255c10f0b2346ba","bdp_rd","Mon Mar 27 2023 19:11:46 GMT-0700 (Pacific Daylight Time)","235808","html-keyboard-response","118","162939","0.0-5.0-3.37","","null","","<div class='trialBorder'><div class='vertical-center'><img style='vertical-align:center; align:center' src=img/fixation3.jpg></div><div class='cl'><div class='vertical-center'><font style='color:orange'>$13<br>for<br>sure</font></div></div><div class='cr'><div class='vertical-center'>$24<br>with a<br>50% chance</div></div><div class='respDivL'><div class='vertical-center'><font style='color:orange'>(E)</font></div></div><div class='respDivR'><div class='vertical-center'>(I)</div></div></div>","null","$13","$24","0","13","24",""
"","","","FIX","5fc70f3bd255c10f0b2346ba","bdp_rd","Mon Mar 27 2023 19:11:46 GMT-0700 (Pacific Daylight Time)","235808","html-keyboard-response","119","163446","0.0-5.0-1.38","","null","","<div class='trialBorder'><div class='vertical-center'><img style='vertical-align:center; align:center' src=img/fixation3.jpg></div></div>","null","","","","","",""
"","","","offer","5fc70f3bd255c10f0b2346ba","bdp_rd","Mon Mar 27 2023 19:11:46 GMT-0700 (Pacific Daylight Time)","235808","html-keyboard-response","120","165282","0.0-5.0-2.38","","1834","","<div class='trialBorder'><div class='vertical-center'><img style='vertical-align:center; align:center' src=img/fixation3.jpg></div><div class='cl'><div class='vertical-center'>$3<br>for<br>sure</div></div><div class='cr'><div class='vertical-center'>$17<br>with a<br>50% chance</div></div><div class='respDivL'><div class='vertical-center'>(E)</div></div><div class='respDivR'><div class='vertical-center'>(I)</div></div></div>","I","$3","$17","0","3","17","RISKY"
"","","","offerFB","5fc70f3bd255c10f0b2346ba","bdp_rd","Mon Mar 27 2023 19:11:46 GMT-0700 (Pacific Daylight Time)","235808","html-keyboard-response","121","165535","0.0-5.0-3.38","","null","","<div class='trialBorder'><div class='vertical-center'><img style='vertical-align:center; align:center' src=img/fixation3.jpg></div><div class='cl'><div class='vertical-center'>$3<br>for<br>sure</div></div><div class='cr'><div class='vertical-center'><font style='color:orange'>$17<br>with a<br>50% chance</font></div></div><div class='respDivL'><div class='vertical-center'>(E)</div></div><div class='respDivR'><div class='vertical-center'><font style='color:orange'>(I)</font></div></div></div>","null","$3","$17","0","3","17",""
"","","","FIX","5fc70f3bd255c10f0b2346ba","bdp_rd","Mon Mar 27 2023 19:11:46 GMT-0700 (Pacific Daylight Time)","235808","html-keyboard-response","122","166041","0.0-5.0-1.39","","null","","<div class='trialBorder'><div class='vertical-center'><img style='vertical-align:center; align:center' src=img/fixation3.jpg></div></div>","null","","","","","",""
"","","","offer","5fc70f3bd255c10f0b2346ba","bdp_rd","Mon Mar 27 2023 19:11:46 GMT-0700 (Pacific Daylight Time)","235808","html-keyboard-response","123","167537","0.0-5.0-2.39","","1494","","<div class='trialBorder'><div class='vertical-center'><img style='vertical-align:center; align:center' src=img/fixation3.jpg></div><div class='cl'><div class='vertical-center'>$9<br>for<br>sure</div></div><div class='cr'><div class='vertical-center'>$32<br>with a<br>50% chance</div></div><div class='respDivL'><div class='vertical-center'>(E)</div></div><div class='respDivR'><div class='vertical-center'>(I)</div></div></div>","I","$9","$32","0","9","32","RISKY"
"","","","offerFB","5fc70f3bd255c10f0b2346ba","bdp_rd","Mon Mar 27 2023 19:11:46 GMT-0700 (Pacific Daylight Time)","235808","html-keyboard-response","124","167794","0.0-5.0-3.39","","null","","<div class='trialBorder'><div class='vertical-center'><img style='vertical-align:center; align:center' src=img/fixation3.jpg></div><div class='cl'><div class='vertical-center'>$9<br>for<br>sure</div></div><div class='cr'><div class='vertical-center'><font style='color:orange'>$32<br>with a<br>50% chance</font></div></div><div class='respDivL'><div class='vertical-center'>(E)</div></div><div class='respDivR'><div class='vertical-center'><font style='color:orange'>(I)</font></div></div></div>","null","$9","$32","0","9","32",""
"","","","FIX","5fc70f3bd255c10f0b2346ba","bdp_rd","Mon Mar 27 2023 19:11:46 GMT-0700 (Pacific Daylight Time)","235808","html-keyboard-response","125","168296","0.0-5.0-1.40","","null","","<div class='trialBorder'><div class='vertical-center'><img style='vertical-align:center; align:center' src=img/fixation3.jpg></div></div>","null","","","","","",""
"","","","offer","5fc70f3bd255c10f0b2346ba","bdp_rd","Mon Mar 27 2023 19:11:46 GMT-0700 (Pacific Daylight Time)","235808","html-keyboard-response","126","170141","0.0-5.0-2.40","","1843","","<div class='trialBorder'><div class='vertical-center'><img style='vertical-align:center; align:center' src=img/fixation3.jpg></div><div class='cl'><div class='vertical-center'>$6<br>for<br>sure</div></div><div class='cr'><div class='vertical-center'>$15<br>with a<br>50% chance</div></div><div class='respDivL'><div class='vertical-center'>(E)</div></div><div class='respDivR'><div class='vertical-center'>(I)</div></div></div>","I","$6","$15","0","6","15","RISKY"
"","","","offerFB","5fc70f3bd255c10f0b2346ba","bdp_rd","Mon Mar 27 2023 19:11:46 GMT-0700 (Pacific Daylight Time)","235808","html-keyboard-response","127","170398","0.0-5.0-3.40","","null","","<div class='trialBorder'><div class='vertical-center'><img style='vertical-align:center; align:center' src=img/fixation3.jpg></div><div class='cl'><div class='vertical-center'>$6<br>for<br>sure</div></div><div class='cr'><div class='vertical-center'><font style='color:orange'>$15<br>with a<br>50% chance</font></div></div><div class='respDivL'><div class='vertical-center'>(E)</div></div><div class='respDivR'><div class='vertical-center'><font style='color:orange'>(I)</font></div></div></div>","null","$6","$15","0","6","15",""
"","","","FIX","5fc70f3bd255c10f0b2346ba","bdp_rd","Mon Mar 27 2023 19:11:46 GMT-0700 (Pacific Daylight Time)","235808","html-keyboard-response","128","170905","0.0-5.0-1.41","","null","","<div class='trialBorder'><div class='vertical-center'><img style='vertical-align:center; align:center' src=img/fixation3.jpg></div></div>","null","","","","","",""
"","","","offer","5fc70f3bd255c10f0b2346ba","bdp_rd","Mon Mar 27 2023 19:11:46 GMT-0700 (Pacific Daylight Time)","235808","html-keyboard-response","129","173274","0.0-5.0-2.41","","2367","","<div class='trialBorder'><div class='vertical-center'><img style='vertical-align:center; align:center' src=img/fixation3.jpg></div><div class='cl'><div class='vertical-center'>$3<br>for<br>sure</div></div><div class='cr'><div class='vertical-center'>$12<br>with a<br>50% chance</div></div><div class='respDivL'><div class='vertical-center'>(E)</div></div><div class='respDivR'><div class='vertical-center'>(I)</div></div></div>","I","$3","$12","0","3","12","RISKY"
"","","","offerFB","5fc70f3bd255c10f0b2346ba","bdp_rd","Mon Mar 27 2023 19:11:46 GMT-0700 (Pacific Daylight Time)","235808","html-keyboard-response","130","173526","0.0-5.0-3.41","","null","","<div class='trialBorder'><div class='vertical-center'><img style='vertical-align:center; align:center' src=img/fixation3.jpg></div><div class='cl'><div class='vertical-center'>$3<br>for<br>sure</div></div><div class='cr'><div class='vertical-center'><font style='color:orange'>$12<br>with a<br>50% chance</font></div></div><div class='respDivL'><div class='vertical-center'>(E)</div></div><div class='respDivR'><div class='vertical-center'><font style='color:orange'>(I)</font></div></div></div>","null","$3","$12","0","3","12",""
"","","","FIX","5fc70f3bd255c10f0b2346ba","bdp_rd","Mon Mar 27 2023 19:11:46 GMT-0700 (Pacific Daylight Time)","235808","html-keyboard-response","131","174032","0.0-5.0-1.42","","null","","<div class='trialBorder'><div class='vertical-center'><img style='vertical-align:center; align:center' src=img/fixation3.jpg></div></div>","null","","","","","",""
"","","","offer","5fc70f3bd255c10f0b2346ba","bdp_rd","Mon Mar 27 2023 19:11:46 GMT-0700 (Pacific Daylight Time)","235808","html-keyboard-response","132","175315","0.0-5.0-2.42","","1282","","<div class='trialBorder'><div class='vertical-center'><img style='vertical-align:center; align:center' src=img/fixation3.jpg></div><div class='cl'><div class='vertical-center'>$11<br>with a<br>50% chance</div></div><div class='cr'><div class='vertical-center'>$4<br>for<br>sure</div></div><div class='respDivL'><div class='vertical-center'>(E)</div></div><div class='respDivR'><div class='vertical-center'>(I)</div></div></div>","E","$4","$11","1","4","11","RISKY"
"","","","offerFB","5fc70f3bd255c10f0b2346ba","bdp_rd","Mon Mar 27 2023 19:11:46 GMT-0700 (Pacific Daylight Time)","235808","html-keyboard-response","133","175571","0.0-5.0-3.42","","null","","<div class='trialBorder'><div class='vertical-center'><img style='vertical-align:center; align:center' src=img/fixation3.jpg></div><div class='cl'><div class='vertical-center'><font style='color:orange'>$11<br>with a<br>50% chance</font></div></div><div class='cr'><div class='vertical-center'>$4<br>for<br>sure</div></div><div class='respDivL'><div class='vertical-center'><font style='color:orange'>(E)</font></div></div><div class='respDivR'><div class='vertical-center'>(I)</div></div></div>","null","$4","$11","1","4","11",""
"","","","FIX","5fc70f3bd255c10f0b2346ba","bdp_rd","Mon Mar 27 2023 19:11:46 GMT-0700 (Pacific Daylight Time)","235808","html-keyboard-response","134","176074","0.0-5.0-1.43","","null","","<div class='trialBorder'><div class='vertical-center'><img style='vertical-align:center; align:center' src=img/fixation3.jpg></div></div>","null","","","","","",""
"","","","offer","5fc70f3bd255c10f0b2346ba","bdp_rd","Mon Mar 27 2023 19:11:46 GMT-0700 (Pacific Daylight Time)","235808","html-keyboard-response","135","178921","0.0-5.0-2.43","","2844","","<div class='trialBorder'><div class='vertical-center'><img style='vertical-align:center; align:center' src=img/fixation3.jpg></div><div class='cl'><div class='vertical-center'>$68<br>with a<br>50% chance</div></div><div class='cr'><div class='vertical-center'>$30<br>for<br>sure</div></div><div class='respDivL'><div class='vertical-center'>(E)</div></div><div class='respDivR'><div class='vertical-center'>(I)</div></div></div>","E","$30","$68","1","30","68","RISKY"
"","","","offerFB","5fc70f3bd255c10f0b2346ba","bdp_rd","Mon Mar 27 2023 19:11:46 GMT-0700 (Pacific Daylight Time)","235808","html-keyboard-response","136","179178","0.0-5.0-3.43","","null","","<div class='trialBorder'><div class='vertical-center'><img style='vertical-align:center; align:center' src=img/fixation3.jpg></div><div class='cl'><div class='vertical-center'><font style='color:orange'>$68<br>with a<br>50% chance</font></div></div><div class='cr'><div class='vertical-center'>$30<br>for<br>sure</div></div><div class='respDivL'><div class='vertical-center'><font style='color:orange'>(E)</font></div></div><div class='respDivR'><div class='vertical-center'>(I)</div></div></div>","null","$30","$68","1","30","68",""
"","","","FIX","5fc70f3bd255c10f0b2346ba","bdp_rd","Mon Mar 27 2023 19:11:46 GMT-0700 (Pacific Daylight Time)","235808","html-keyboard-response","137","179681","0.0-5.0-1.44","","null","","<div class='trialBorder'><div class='vertical-center'><img style='vertical-align:center; align:center' src=img/fixation3.jpg></div></div>","null","","","","","",""
"","","","offer","5fc70f3bd255c10f0b2346ba","bdp_rd","Mon Mar 27 2023 19:11:46 GMT-0700 (Pacific Daylight Time)","235808","html-keyboard-response","138","184215","0.0-5.0-2.44","","4533","","<div class='trialBorder'><div class='vertical-center'><img style='vertical-align:center; align:center' src=img/fixation3.jpg></div><div class='cl'><div class='vertical-center'>$39<br>for<br>sure</div></div><div class='cr'><div class='vertical-center'>$81<br>with a<br>50% chance</div></div><div class='respDivL'><div class='vertical-center'>(E)</div></div><div class='respDivR'><div class='vertical-center'>(I)</div></div></div>","I","$39","$81","0","39","81","RISKY"
"","","","offerFB","5fc70f3bd255c10f0b2346ba","bdp_rd","Mon Mar 27 2023 19:11:46 GMT-0700 (Pacific Daylight Time)","235808","html-keyboard-response","139","184471","0.0-5.0-3.44","","null","","<div class='trialBorder'><div class='vertical-center'><img style='vertical-align:center; align:center' src=img/fixation3.jpg></div><div class='cl'><div class='vertical-center'>$39<br>for<br>sure</div></div><div class='cr'><div class='vertical-center'><font style='color:orange'>$81<br>with a<br>50% chance</font></div></div><div class='respDivL'><div class='vertical-center'>(E)</div></div><div class='respDivR'><div class='vertical-center'><font style='color:orange'>(I)</font></div></div></div>","null","$39","$81","0","39","81",""
"","","","FIX","5fc70f3bd255c10f0b2346ba","bdp_rd","Mon Mar 27 2023 19:11:46 GMT-0700 (Pacific Daylight Time)","235808","html-keyboard-response","140","184973","0.0-5.0-1.45","","null","","<div class='trialBorder'><div class='vertical-center'><img style='vertical-align:center; align:center' src=img/fixation3.jpg></div></div>","null","","","","","",""
"","","","offer","5fc70f3bd255c10f0b2346ba","bdp_rd","Mon Mar 27 2023 19:11:46 GMT-0700 (Pacific Daylight Time)","235808","html-keyboard-response","141","188736","0.0-5.0-2.45","","3762","","<div class='trialBorder'><div class='vertical-center'><img style='vertical-align:center; align:center' src=img/fixation3.jpg></div><div class='cl'><div class='vertical-center'>$19<br>with a<br>50% chance</div></div><div class='cr'><div class='vertical-center'>$10<br>for<br>sure</div></div><div class='respDivL'><div class='vertical-center'>(E)</div></div><div class='respDivR'><div class='vertical-center'>(I)</div></div></div>","I","$10","$19","1","10","19","SURE"
"","","","offerFB","5fc70f3bd255c10f0b2346ba","bdp_rd","Mon Mar 27 2023 19:11:46 GMT-0700 (Pacific Daylight Time)","235808","html-keyboard-response","142","188991","0.0-5.0-3.45","","null","","<div class='trialBorder'><div class='vertical-center'><img style='vertical-align:center; align:center' src=img/fixation3.jpg></div><div class='cl'><div class='vertical-center'>$19<br>with a<br>50% chance</div></div><div class='cr'><div class='vertical-center'><font style='color:orange'>$10<br>for<br>sure</font></div></div><div class='respDivL'><div class='vertical-center'>(E)</div></div><div class='respDivR'><div class='vertical-center'><font style='color:orange'>(I)</font></div></div></div>","null","$10","$19","1","10","19",""
"","","","FIX","5fc70f3bd255c10f0b2346ba","bdp_rd","Mon Mar 27 2023 19:11:46 GMT-0700 (Pacific Daylight Time)","235808","html-keyboard-response","143","189495","0.0-5.0-1.46","","null","","<div class='trialBorder'><div class='vertical-center'><img style='vertical-align:center; align:center' src=img/fixation3.jpg></div></div>","null","","","","","",""
"","","","offer","5fc70f3bd255c10f0b2346ba","bdp_rd","Mon Mar 27 2023 19:11:46 GMT-0700 (Pacific Daylight Time)","235808","html-keyboard-response","144","191484","0.0-5.0-2.46","","1987","","<div class='trialBorder'><div class='vertical-center'><img style='vertical-align:center; align:center' src=img/fixation3.jpg></div><div class='cl'><div class='vertical-center'>$10<br>for<br>sure</div></div><div class='cr'><div class='vertical-center'>$40<br>with a<br>50% chance</div></div><div class='respDivL'><div class='vertical-center'>(E)</div></div><div class='respDivR'><div class='vertical-center'>(I)</div></div></div>","I","$10","$40","0","10","40","RISKY"
"","","","offerFB","5fc70f3bd255c10f0b2346ba","bdp_rd","Mon Mar 27 2023 19:11:46 GMT-0700 (Pacific Daylight Time)","235808","html-keyboard-response","145","191740","0.0-5.0-3.46","","null","","<div class='trialBorder'><div class='vertical-center'><img style='vertical-align:center; align:center' src=img/fixation3.jpg></div><div class='cl'><div class='vertical-center'>$10<br>for<br>sure</div></div><div class='cr'><div class='vertical-center'><font style='color:orange'>$40<br>with a<br>50% chance</font></div></div><div class='respDivL'><div class='vertical-center'>(E)</div></div><div class='respDivR'><div class='vertical-center'><font style='color:orange'>(I)</font></div></div></div>","null","$10","$40","0","10","40",""
"","","","FIX","5fc70f3bd255c10f0b2346ba","bdp_rd","Mon Mar 27 2023 19:11:46 GMT-0700 (Pacific Daylight Time)","235808","html-keyboard-response","146","192246","0.0-5.0-1.47","","null","","<div class='trialBorder'><div class='vertical-center'><img style='vertical-align:center; align:center' src=img/fixation3.jpg></div></div>","null","","","","","",""
"","","","offer","5fc70f3bd255c10f0b2346ba","bdp_rd","Mon Mar 27 2023 19:11:46 GMT-0700 (Pacific Daylight Time)","235808","html-keyboard-response","147","195229","0.0-5.0-2.47","","2981","","<div class='trialBorder'><div class='vertical-center'><img style='vertical-align:center; align:center' src=img/fixation3.jpg></div><div class='cl'><div class='vertical-center'>$31<br>for<br>sure</div></div><div class='cr'><div class='vertical-center'>$78<br>with a<br>50% chance</div></div><div class='respDivL'><div class='vertical-center'>(E)</div></div><div class='respDivR'><div class='vertical-center'>(I)</div></div></div>","I","$31","$78","0","31","78","RISKY"
"","","","offerFB","5fc70f3bd255c10f0b2346ba","bdp_rd","Mon Mar 27 2023 19:11:46 GMT-0700 (Pacific Daylight Time)","235808","html-keyboard-response","148","195485","0.0-5.0-3.47","","null","","<div class='trialBorder'><div class='vertical-center'><img style='vertical-align:center; align:center' src=img/fixation3.jpg></div><div class='cl'><div class='vertical-center'>$31<br>for<br>sure</div></div><div class='cr'><div class='vertical-center'><font style='color:orange'>$78<br>with a<br>50% chance</font></div></div><div class='respDivL'><div class='vertical-center'>(E)</div></div><div class='respDivR'><div class='vertical-center'><font style='color:orange'>(I)</font></div></div></div>","null","$31","$78","0","31","78",""
"","","","FIX","5fc70f3bd255c10f0b2346ba","bdp_rd","Mon Mar 27 2023 19:11:46 GMT-0700 (Pacific Daylight Time)","235808","html-keyboard-response","149","195988","0.0-5.0-1.48","","null","","<div class='trialBorder'><div class='vertical-center'><img style='vertical-align:center; align:center' src=img/fixation3.jpg></div></div>","null","","","","","",""
"","","","offer","5fc70f3bd255c10f0b2346ba","bdp_rd","Mon Mar 27 2023 19:11:46 GMT-0700 (Pacific Daylight Time)","235808","html-keyboard-response","150","199199","0.0-5.0-2.48","","3210","","<div class='trialBorder'><div class='vertical-center'><img style='vertical-align:center; align:center' src=img/fixation3.jpg></div><div class='cl'><div class='vertical-center'>$16<br>for<br>sure</div></div><div class='cr'><div class='vertical-center'>$28<br>with a<br>50% chance</div></div><div class='respDivL'><div class='vertical-center'>(E)</div></div><div class='respDivR'><div class='vertical-center'>(I)</div></div></div>","E","$16","$28","0","16","28","SURE"
"","","","offerFB","5fc70f3bd255c10f0b2346ba","bdp_rd","Mon Mar 27 2023 19:11:46 GMT-0700 (Pacific Daylight Time)","235808","html-keyboard-response","151","199454","0.0-5.0-3.48","","null","","<div class='trialBorder'><div class='vertical-center'><img style='vertical-align:center; align:center' src=img/fixation3.jpg></div><div class='cl'><div class='vertical-center'><font style='color:orange'>$16<br>for<br>sure</font></div></div><div class='cr'><div class='vertical-center'>$28<br>with a<br>50% chance</div></div><div class='respDivL'><div class='vertical-center'><font style='color:orange'>(E)</font></div></div><div class='respDivR'><div class='vertical-center'>(I)</div></div></div>","null","$16","$28","0","16","28",""
"","","","FIX","5fc70f3bd255c10f0b2346ba","bdp_rd","Mon Mar 27 2023 19:11:46 GMT-0700 (Pacific Daylight Time)","235808","html-keyboard-response","152","199959","0.0-5.0-1.49","","null","","<div class='trialBorder'><div class='vertical-center'><img style='vertical-align:center; align:center' src=img/fixation3.jpg></div></div>","null","","","","","",""
"","","","offer","5fc70f3bd255c10f0b2346ba","bdp_rd","Mon Mar 27 2023 19:11:46 GMT-0700 (Pacific Daylight Time)","235808","html-keyboard-response","153","201983","0.0-5.0-2.49","","2022","","<div class='trialBorder'><div class='vertical-center'><img style='vertical-align:center; align:center' src=img/fixation3.jpg></div><div class='cl'><div class='vertical-center'>$70<br>with a<br>50% chance</div></div><div class='cr'><div class='vertical-center'>$24<br>for<br>sure</div></div><div class='respDivL'><div class='vertical-center'>(E)</div></div><div class='respDivR'><div class='vertical-center'>(I)</div></div></div>","E","$24","$70","1","24","70","RISKY"
"","","","offerFB","5fc70f3bd255c10f0b2346ba","bdp_rd","Mon Mar 27 2023 19:11:46 GMT-0700 (Pacific Daylight Time)","235808","html-keyboard-response","154","202239","0.0-5.0-3.49","","null","","<div class='trialBorder'><div class='vertical-center'><img style='vertical-align:center; align:center' src=img/fixation3.jpg></div><div class='cl'><div class='vertical-center'><font style='color:orange'>$70<br>with a<br>50% chance</font></div></div><div class='cr'><div class='vertical-center'>$24<br>for<br>sure</div></div><div class='respDivL'><div class='vertical-center'><font style='color:orange'>(E)</font></div></div><div class='respDivR'><div class='vertical-center'>(I)</div></div></div>","null","$24","$70","1","24","70",""
"","","","FIX","5fc70f3bd255c10f0b2346ba","bdp_rd","Mon Mar 27 2023 19:11:46 GMT-0700 (Pacific Daylight Time)","235808","html-keyboard-response","155","202743","0.0-5.0-1.50","","null","","<div class='trialBorder'><div class='vertical-center'><img style='vertical-align:center; align:center' src=img/fixation3.jpg></div></div>","null","","","","","",""
"","","","offer","5fc70f3bd255c10f0b2346ba","bdp_rd","Mon Mar 27 2023 19:11:46 GMT-0700 (Pacific Daylight Time)","235808","html-keyboard-response","156","206209","0.0-5.0-2.50","","3464","","<div class='trialBorder'><div class='vertical-center'><img style='vertical-align:center; align:center' src=img/fixation3.jpg></div><div class='cl'><div class='vertical-center'>$42<br>with a<br>50% chance</div></div><div class='cr'><div class='vertical-center'>$22<br>for<br>sure</div></div><div class='respDivL'><div class='vertical-center'>(E)</div></div><div class='respDivR'><div class='vertical-center'>(I)</div></div></div>","I","$22","$42","1","22","42","SURE"
"","","","offerFB","5fc70f3bd255c10f0b2346ba","bdp_rd","Mon Mar 27 2023 19:11:46 GMT-0700 (Pacific Daylight Time)","235808","html-keyboard-response","157","206465","0.0-5.0-3.50","","null","","<div class='trialBorder'><div class='vertical-center'><img style='vertical-align:center; align:center' src=img/fixation3.jpg></div><div class='cl'><div class='vertical-center'>$42<br>with a<br>50% chance</div></div><div class='cr'><div class='vertical-center'><font style='color:orange'>$22<br>for<br>sure</font></div></div><div class='respDivL'><div class='vertical-center'>(E)</div></div><div class='respDivR'><div class='vertical-center'><font style='color:orange'>(I)</font></div></div></div>","null","$22","$42","1","22","42",""
"","","","FIX","5fc70f3bd255c10f0b2346ba","bdp_rd","Mon Mar 27 2023 19:11:46 GMT-0700 (Pacific Daylight Time)","235808","html-keyboard-response","158","206969","0.0-5.0-1.51","","null","","<div class='trialBorder'><div class='vertical-center'><img style='vertical-align:center; align:center' src=img/fixation3.jpg></div></div>","null","","","","","",""
"","","","offer","5fc70f3bd255c10f0b2346ba","bdp_rd","Mon Mar 27 2023 19:11:46 GMT-0700 (Pacific Daylight Time)","235808","html-keyboard-response","159","209884","0.0-5.0-2.51","","2915","","<div class='trialBorder'><div class='vertical-center'><img style='vertical-align:center; align:center' src=img/fixation3.jpg></div><div class='cl'><div class='vertical-center'>$15<br>for<br>sure</div></div><div class='cr'><div class='vertical-center'>$34<br>with a<br>50% chance</div></div><div class='respDivL'><div class='vertical-center'>(E)</div></div><div class='respDivR'><div class='vertical-center'>(I)</div></div></div>","I","$15","$34","0","15","34","RISKY"
"","","","offerFB","5fc70f3bd255c10f0b2346ba","bdp_rd","Mon Mar 27 2023 19:11:46 GMT-0700 (Pacific Daylight Time)","235808","html-keyboard-response","160","210138","0.0-5.0-3.51","","null","","<div class='trialBorder'><div class='vertical-center'><img style='vertical-align:center; align:center' src=img/fixation3.jpg></div><div class='cl'><div class='vertical-center'>$15<br>for<br>sure</div></div><div class='cr'><div class='vertical-center'><font style='color:orange'>$34<br>with a<br>50% chance</font></div></div><div class='respDivL'><div class='vertical-center'>(E)</div></div><div class='respDivR'><div class='vertical-center'><font style='color:orange'>(I)</font></div></div></div>","null","$15","$34","0","15","34",""
"","","","FIX","5fc70f3bd255c10f0b2346ba","bdp_rd","Mon Mar 27 2023 19:11:46 GMT-0700 (Pacific Daylight Time)","235808","html-keyboard-response","161","210644","0.0-5.0-1.52","","null","","<div class='trialBorder'><div class='vertical-center'><img style='vertical-align:center; align:center' src=img/fixation3.jpg></div></div>","null","","","","","",""
"","","","offer","5fc70f3bd255c10f0b2346ba","bdp_rd","Mon Mar 27 2023 19:11:46 GMT-0700 (Pacific Daylight Time)","235808","html-keyboard-response","162","213535","0.0-5.0-2.52","","2889","","<div class='trialBorder'><div class='vertical-center'><img style='vertical-align:center; align:center' src=img/fixation3.jpg></div><div class='cl'><div class='vertical-center'>$11<br>for<br>sure</div></div><div class='cr'><div class='vertical-center'>$26<br>with a<br>50% chance</div></div><div class='respDivL'><div class='vertical-center'>(E)</div></div><div class='respDivR'><div class='vertical-center'>(I)</div></div></div>","I","$11","$26","0","11","26","RISKY"
"","","","offerFB","5fc70f3bd255c10f0b2346ba","bdp_rd","Mon Mar 27 2023 19:11:46 GMT-0700 (Pacific Daylight Time)","235808","html-keyboard-response","163","213792","0.0-5.0-3.52","","null","","<div class='trialBorder'><div class='vertical-center'><img style='vertical-align:center; align:center' src=img/fixation3.jpg></div><div class='cl'><div class='vertical-center'>$11<br>for<br>sure</div></div><div class='cr'><div class='vertical-center'><font style='color:orange'>$26<br>with a<br>50% chance</font></div></div><div class='respDivL'><div class='vertical-center'>(E)</div></div><div class='respDivR'><div class='vertical-center'><font style='color:orange'>(I)</font></div></div></div>","null","$11","$26","0","11","26",""
"","","","FIX","5fc70f3bd255c10f0b2346ba","bdp_rd","Mon Mar 27 2023 19:11:46 GMT-0700 (Pacific Daylight Time)","235808","html-keyboard-response","164","214298","0.0-5.0-1.53","","null","","<div class='trialBorder'><div class='vertical-center'><img style='vertical-align:center; align:center' src=img/fixation3.jpg></div></div>","null","","","","","",""
"","","","offer","5fc70f3bd255c10f0b2346ba","bdp_rd","Mon Mar 27 2023 19:11:46 GMT-0700 (Pacific Daylight Time)","235808","html-keyboard-response","165","216563","0.0-5.0-2.53","","2264","","<div class='trialBorder'><div class='vertical-center'><img style='vertical-align:center; align:center' src=img/fixation3.jpg></div><div class='cl'><div class='vertical-center'>$37<br>for<br>sure</div></div><div class='cr'><div class='vertical-center'>$44<br>with a<br>50% chance</div></div><div class='respDivL'><div class='vertical-center'>(E)</div></div><div class='respDivR'><div class='vertical-center'>(I)</div></div></div>","E","$37","$44","0","37","44","SURE"
"","","","offerFB","5fc70f3bd255c10f0b2346ba","bdp_rd","Mon Mar 27 2023 19:11:46 GMT-0700 (Pacific Daylight Time)","235808","html-keyboard-response","166","216816","0.0-5.0-3.53","","null","","<div class='trialBorder'><div class='vertical-center'><img style='vertical-align:center; align:center' src=img/fixation3.jpg></div><div class='cl'><div class='vertical-center'><font style='color:orange'>$37<br>for<br>sure</font></div></div><div class='cr'><div class='vertical-center'>$44<br>with a<br>50% chance</div></div><div class='respDivL'><div class='vertical-center'><font style='color:orange'>(E)</font></div></div><div class='respDivR'><div class='vertical-center'>(I)</div></div></div>","null","$37","$44","0","37","44",""
"","","","FIX","5fc70f3bd255c10f0b2346ba","bdp_rd","Mon Mar 27 2023 19:11:46 GMT-0700 (Pacific Daylight Time)","235808","html-keyboard-response","167","217322","0.0-5.0-1.54","","null","","<div class='trialBorder'><div class='vertical-center'><img style='vertical-align:center; align:center' src=img/fixation3.jpg></div></div>","null","","","","","",""
"","","","offer","5fc70f3bd255c10f0b2346ba","bdp_rd","Mon Mar 27 2023 19:11:46 GMT-0700 (Pacific Daylight Time)","235808","html-keyboard-response","168","218757","0.0-5.0-2.54","","1434","","<div class='trialBorder'><div class='vertical-center'><img style='vertical-align:center; align:center' src=img/fixation3.jpg></div><div class='cl'><div class='vertical-center'>$89<br>with a<br>50% chance</div></div><div class='cr'><div class='vertical-center'>$28<br>for<br>sure</div></div><div class='respDivL'><div class='vertical-center'>(E)</div></div><div class='respDivR'><div class='vertical-center'>(I)</div></div></div>","E","$28","$89","1","28","89","RISKY"
"","","","offerFB","5fc70f3bd255c10f0b2346ba","bdp_rd","Mon Mar 27 2023 19:11:46 GMT-0700 (Pacific Daylight Time)","235808","html-keyboard-response","169","219013","0.0-5.0-3.54","","null","","<div class='trialBorder'><div class='vertical-center'><img style='vertical-align:center; align:center' src=img/fixation3.jpg></div><div class='cl'><div class='vertical-center'><font style='color:orange'>$89<br>with a<br>50% chance</font></div></div><div class='cr'><div class='vertical-center'>$28<br>for<br>sure</div></div><div class='respDivL'><div class='vertical-center'><font style='color:orange'>(E)</font></div></div><div class='respDivR'><div class='vertical-center'>(I)</div></div></div>","null","$28","$89","1","28","89",""
"","","","FIX","5fc70f3bd255c10f0b2346ba","bdp_rd","Mon Mar 27 2023 19:11:46 GMT-0700 (Pacific Daylight Time)","235808","html-keyboard-response","170","219516","0.0-5.0-1.55","","null","","<div class='trialBorder'><div class='vertical-center'><img style='vertical-align:center; align:center' src=img/fixation3.jpg></div></div>","null","","","","","",""
"","","","offer","5fc70f3bd255c10f0b2346ba","bdp_rd","Mon Mar 27 2023 19:11:46 GMT-0700 (Pacific Daylight Time)","235808","html-keyboard-response","171","221011","0.0-5.0-2.55","","1493","","<div class='trialBorder'><div class='vertical-center'><img style='vertical-align:center; align:center' src=img/fixation3.jpg></div><div class='cl'><div class='vertical-center'>$23<br>with a<br>50% chance</div></div><div class='cr'><div class='vertical-center'>$8<br>for<br>sure</div></div><div class='respDivL'><div class='vertical-center'>(E)</div></div><div class='respDivR'><div class='vertical-center'>(I)</div></div></div>","E","$8","$23","1","8","23","RISKY"
"","","","offerFB","5fc70f3bd255c10f0b2346ba","bdp_rd","Mon Mar 27 2023 19:11:46 GMT-0700 (Pacific Daylight Time)","235808","html-keyboard-response","172","221269","0.0-5.0-3.55","","null","","<div class='trialBorder'><div class='vertical-center'><img style='vertical-align:center; align:center' src=img/fixation3.jpg></div><div class='cl'><div class='vertical-center'><font style='color:orange'>$23<br>with a<br>50% chance</font></div></div><div class='cr'><div class='vertical-center'>$8<br>for<br>sure</div></div><div class='respDivL'><div class='vertical-center'><font style='color:orange'>(E)</font></div></div><div class='respDivR'><div class='vertical-center'>(I)</div></div></div>","null","$8","$23","1","8","23",""
"","","","FIX","5fc70f3bd255c10f0b2346ba","bdp_rd","Mon Mar 27 2023 19:11:46 GMT-0700 (Pacific Daylight Time)","235808","html-keyboard-response","173","221772","0.0-5.0-1.56","","null","","<div class='trialBorder'><div class='vertical-center'><img style='vertical-align:center; align:center' src=img/fixation3.jpg></div></div>","null","","","","","",""
"","","","offer","5fc70f3bd255c10f0b2346ba","bdp_rd","Mon Mar 27 2023 19:11:46 GMT-0700 (Pacific Daylight Time)","235808","html-keyboard-response","174","222861","0.0-5.0-2.56","","1088","","<div class='trialBorder'><div class='vertical-center'><img style='vertical-align:center; align:center' src=img/fixation3.jpg></div><div class='cl'><div class='vertical-center'>$30<br>with a<br>50% chance</div></div><div class='cr'><div class='vertical-center'>$1<br>for<br>sure</div></div><div class='respDivL'><div class='vertical-center'>(E)</div></div><div class='respDivR'><div class='vertical-center'>(I)</div></div></div>","E","$1","$30","1","1","30","RISKY"
