"trial_type","trial_index","time_elapsed","internal_node_id","subject_id","task","startTime","totalTime","view_history","rt","event","trial","time","trialtype","success","stimulus","key_press","sureOffer","riskyOffer","riskyLeft","sureAmt","riskyAmt","chosen"
"pavlovia","0","2","0.0-0.0","5c5f525806006e0001db95d2","bdp_rd","Tue Mar 28 2023 20:31:26 GMT-0400 (Eastern Daylight Time)","1211287","","","","","","","","","","","","","","",""
"instructions","1","3768","0.0-1.0","5c5f525806006e0001db95d2","bdp_rd","Tue Mar 28 2023 20:31:26 GMT-0400 (Eastern Daylight Time)","1211287","[{""page_index"":0,""viewing_time"":3766}]","3766","","","","","","","","","","","","",""
"","","","","5c5f525806006e0001db95d2","bdp_rd","Tue Mar 28 2023 20:31:26 GMT-0400 (Eastern Daylight Time)","1211287","","","fullscreenenter","2","44388","fullscreenenter","","","","","","","","",""
"fullscreen","2","45375","0.0-2.0","5c5f525806006e0001db95d2","bdp_rd","Tue Mar 28 2023 20:31:26 GMT-0400 (Eastern Daylight Time)","1211287","","","","","","","true","","","","","","","",""
"instructions","3","741592","0.0-4.0","5c5f525806006e0001db95d2","bdp_rd","Tue Mar 28 2023 20:31:26 GMT-0400 (Eastern Daylight Time)","1211287","[{""page_index"":0,""viewing_time"":692997},{""page_index"":1,""viewing_time"":1097},{""page_index"":2,""viewing_time"":2120}]","696215","","","","","","","","","","","","",""
"html-keyboard-response","4","742095","0.0-5.0-1.0","5c5f525806006e0001db95d2","bdp_rd","Tue Mar 28 2023 20:31:26 GMT-0400 (Eastern Daylight Time)","1211287","","null","","","","FIX","","<div class='trialBorder'><div class='vertical-center'><img style='vertical-align:center; align:center' src=img/fixation3.jpg></div></div>","null","","","","","",""
"html-keyboard-response","5","744001","0.0-5.0-2.0","5c5f525806006e0001db95d2","bdp_rd","Tue Mar 28 2023 20:31:26 GMT-0400 (Eastern Daylight Time)","1211287","","1905","","","","offer","","<div class='trialBorder'><div class='vertical-center'><img style='vertical-align:center; align:center' src=img/fixation3.jpg></div><div class='cl'><div class='vertical-center'>$48<br>with a<br>50% chance</div></div><div class='cr'><div class='vertical-center'>$34<br>for<br>sure</div></div><div class='respDivL'><div class='vertical-center'>(E)</div></div><div class='respDivR'><div class='vertical-center'>(I)</div></div></div>","I","$34","$48","1","34","48","SURE"
"html-keyboard-response","6","744254","0.0-5.0-3.0","5c5f525806006e0001db95d2","bdp_rd","Tue Mar 28 2023 20:31:26 GMT-0400 (Eastern Daylight Time)","1211287","","null","","","","offerFB","","<div class='trialBorder'><div class='vertical-center'><img style='vertical-align:center; align:center' src=img/fixation3.jpg></div><div class='cl'><div class='vertical-center'>$48<br>with a<br>50% chance</div></div><div class='cr'><div class='vertical-center'><font style='color:orange'>$34<br>for<br>sure</font></div></div><div class='respDivL'><div class='vertical-center'>(E)</div></div><div class='respDivR'><div class='vertical-center'><font style='color:orange'>(I)</font></div></div></div>","null","$34","$48","1","34","48",""
"html-keyboard-response","7","744756","0.0-5.0-1.1","5c5f525806006e0001db95d2","bdp_rd","Tue Mar 28 2023 20:31:26 GMT-0400 (Eastern Daylight Time)","1211287","","null","","","","FIX","","<div class='trialBorder'><div class='vertical-center'><img style='vertical-align:center; align:center' src=img/fixation3.jpg></div></div>","null","","","","","",""
"html-keyboard-response","8","747169","0.0-5.0-2.1","5c5f525806006e0001db95d2","bdp_rd","Tue Mar 28 2023 20:31:26 GMT-0400 (Eastern Daylight Time)","1211287","","2411","","","","offer","","<div class='trialBorder'><div class='vertical-center'><img style='vertical-align:center; align:center' src=img/fixation3.jpg></div><div class='cl'><div class='vertical-center'>$17<br>for<br>sure</div></div><div class='cr'><div class='vertical-center'>$43<br>with a<br>50% chance</div></div><div class='respDivL'><div class='vertical-center'>(E)</div></div><div class='respDivR'><div class='vertical-center'>(I)</div></div></div>","E","$17","$43","0","17","43","SURE"
"html-keyboard-response","9","747421","0.0-5.0-3.1","5c5f525806006e0001db95d2","bdp_rd","Tue Mar 28 2023 20:31:26 GMT-0400 (Eastern Daylight Time)","1211287","","null","","","","offerFB","","<div class='trialBorder'><div class='vertical-center'><img style='vertical-align:center; align:center' src=img/fixation3.jpg></div><div class='cl'><div class='vertical-center'><font style='color:orange'>$17<br>for<br>sure</font></div></div><div class='cr'><div class='vertical-center'>$43<br>with a<br>50% chance</div></div><div class='respDivL'><div class='vertical-center'><font style='color:orange'>(E)</font></div></div><div class='respDivR'><div class='vertical-center'>(I)</div></div></div>","null","$17","$43","0","17","43",""
"html-keyboard-response","10","747924","0.0-5.0-1.2","5c5f525806006e0001db95d2","bdp_rd","Tue Mar 28 2023 20:31:26 GMT-0400 (Eastern Daylight Time)","1211287","","null","","","","FIX","","<div class='trialBorder'><div class='vertical-center'><img style='vertical-align:center; align:center' src=img/fixation3.jpg></div></div>","null","","","","","",""
"html-keyboard-response","11","752067","0.0-5.0-2.2","5c5f525806006e0001db95d2","bdp_rd","Tue Mar 28 2023 20:31:26 GMT-0400 (Eastern Daylight Time)","1211287","","4142","","","","offer","","<div class='trialBorder'><div class='vertical-center'><img style='vertical-align:center; align:center' src=img/fixation3.jpg></div><div class='cl'><div class='vertical-center'>$33<br>for<br>sure</div></div><div class='cr'><div class='vertical-center'>$66<br>with a<br>50% chance</div></div><div class='respDivL'><div class='vertical-center'>(E)</div></div><div class='respDivR'><div class='vertical-center'>(I)</div></div></div>","E","$33","$66","0","33","66","SURE"
"html-keyboard-response","12","752320","0.0-5.0-3.2","5c5f525806006e0001db95d2","bdp_rd","Tue Mar 28 2023 20:31:26 GMT-0400 (Eastern Daylight Time)","1211287","","null","","","","offerFB","","<div class='trialBorder'><div class='vertical-center'><img style='vertical-align:center; align:center' src=img/fixation3.jpg></div><div class='cl'><div class='vertical-center'><font style='color:orange'>$33<br>for<br>sure</font></div></div><div class='cr'><div class='vertical-center'>$66<br>with a<br>50% chance</div></div><div class='respDivL'><div class='vertical-center'><font style='color:orange'>(E)</font></div></div><div class='respDivR'><div class='vertical-center'>(I)</div></div></div>","null","$33","$66","0","33","66",""
"html-keyboard-response","13","752822","0.0-5.0-1.3","5c5f525806006e0001db95d2","bdp_rd","Tue Mar 28 2023 20:31:26 GMT-0400 (Eastern Daylight Time)","1211287","","null","","","","FIX","","<div class='trialBorder'><div class='vertical-center'><img style='vertical-align:center; align:center' src=img/fixation3.jpg></div></div>","null","","","","","",""
"html-keyboard-response","14","754503","0.0-5.0-2.3","5c5f525806006e0001db95d2","bdp_rd","Tue Mar 28 2023 20:31:26 GMT-0400 (Eastern Daylight Time)","1211287","","1679","","","","offer","","<div class='trialBorder'><div class='vertical-center'><img style='vertical-align:center; align:center' src=img/fixation3.jpg></div><div class='cl'><div class='vertical-center'>$81<br>with a<br>50% chance</div></div><div class='cr'><div class='vertical-center'>$39<br>for<br>sure</div></div><div class='respDivL'><div class='vertical-center'>(E)</div></div><div class='respDivR'><div class='vertical-center'>(I)</div></div></div>","E","$39","$81","1","39","81","RISKY"
"html-keyboard-response","15","754754","0.0-5.0-3.3","5c5f525806006e0001db95d2","bdp_rd","Tue Mar 28 2023 20:31:26 GMT-0400 (Eastern Daylight Time)","1211287","","null","","","","offerFB","","<div class='trialBorder'><div class='vertical-center'><img style='vertical-align:center; align:center' src=img/fixation3.jpg></div><div class='cl'><div class='vertical-center'><font style='color:orange'>$81<br>with a<br>50% chance</font></div></div><div class='cr'><div class='vertical-center'>$39<br>for<br>sure</div></div><div class='respDivL'><div class='vertical-center'><font style='color:orange'>(E)</font></div></div><div class='respDivR'><div class='vertical-center'>(I)</div></div></div>","null","$39","$81","1","39","81",""
"html-keyboard-response","16","755256","0.0-5.0-1.4","5c5f525806006e0001db95d2","bdp_rd","Tue Mar 28 2023 20:31:26 GMT-0400 (Eastern Daylight Time)","1211287","","null","","","","FIX","","<div class='trialBorder'><div class='vertical-center'><img style='vertical-align:center; align:center' src=img/fixation3.jpg></div></div>","null","","","","","",""
"html-keyboard-response","17","757909","0.0-5.0-2.4","5c5f525806006e0001db95d2","bdp_rd","Tue Mar 28 2023 20:31:26 GMT-0400 (Eastern Daylight Time)","1211287","","2651","","","","offer","","<div class='trialBorder'><div class='vertical-center'><img style='vertical-align:center; align:center' src=img/fixation3.jpg></div><div class='cl'><div class='vertical-center'>$27<br>with a<br>50% chance</div></div><div class='cr'><div class='vertical-center'>$12<br>for<br>sure</div></div><div class='respDivL'><div class='vertical-center'>(E)</div></div><div class='respDivR'><div class='vertical-center'>(I)</div></div></div>","I","$12","$27","1","12","27","SURE"
"html-keyboard-response","18","758161","0.0-5.0-3.4","5c5f525806006e0001db95d2","bdp_rd","Tue Mar 28 2023 20:31:26 GMT-0400 (Eastern Daylight Time)","1211287","","null","","","","offerFB","","<div class='trialBorder'><div class='vertical-center'><img style='vertical-align:center; align:center' src=img/fixation3.jpg></div><div class='cl'><div class='vertical-center'>$27<br>with a<br>50% chance</div></div><div class='cr'><div class='vertical-center'><font style='color:orange'>$12<br>for<br>sure</font></div></div><div class='respDivL'><div class='vertical-center'>(E)</div></div><div class='respDivR'><div class='vertical-center'><font style='color:orange'>(I)</font></div></div></div>","null","$12","$27","1","12","27",""
"html-keyboard-response","19","758663","0.0-5.0-1.5","5c5f525806006e0001db95d2","bdp_rd","Tue Mar 28 2023 20:31:26 GMT-0400 (Eastern Daylight Time)","1211287","","null","","","","FIX","","<div class='trialBorder'><div class='vertical-center'><img style='vertical-align:center; align:center' src=img/fixation3.jpg></div></div>","null","","","","","",""
"html-keyboard-response","20","760961","0.0-5.0-2.5","5c5f525806006e0001db95d2","bdp_rd","Tue Mar 28 2023 20:31:26 GMT-0400 (Eastern Daylight Time)","1211287","","2297","","","","offer","","<div class='trialBorder'><div class='vertical-center'><img style='vertical-align:center; align:center' src=img/fixation3.jpg></div><div class='cl'><div class='vertical-center'>$2<br>for<br>sure</div></div><div class='cr'><div class='vertical-center'>$21<br>with a<br>50% chance</div></div><div class='respDivL'><div class='vertical-center'>(E)</div></div><div class='respDivR'><div class='vertical-center'>(I)</div></div></div>","I","$2","$21","0","2","21","RISKY"
"html-keyboard-response","21","761213","0.0-5.0-3.5","5c5f525806006e0001db95d2","bdp_rd","Tue Mar 28 2023 20:31:26 GMT-0400 (Eastern Daylight Time)","1211287","","null","","","","offerFB","","<div class='trialBorder'><div class='vertical-center'><img style='vertical-align:center; align:center' src=img/fixation3.jpg></div><div class='cl'><div class='vertical-center'>$2<br>for<br>sure</div></div><div class='cr'><div class='vertical-center'><font style='color:orange'>$21<br>with a<br>50% chance</font></div></div><div class='respDivL'><div class='vertical-center'>(E)</div></div><div class='respDivR'><div class='vertical-center'><font style='color:orange'>(I)</font></div></div></div>","null","$2","$21","0","2","21",""
"html-keyboard-response","22","761714","0.0-5.0-1.6","5c5f525806006e0001db95d2","bdp_rd","Tue Mar 28 2023 20:31:26 GMT-0400 (Eastern Daylight Time)","1211287","","null","","","","FIX","","<div class='trialBorder'><div class='vertical-center'><img style='vertical-align:center; align:center' src=img/fixation3.jpg></div></div>","null","","","","","",""
"html-keyboard-response","23","764737","0.0-5.0-2.6","5c5f525806006e0001db95d2","bdp_rd","Tue Mar 28 2023 20:31:26 GMT-0400 (Eastern Daylight Time)","1211287","","3022","","","","offer","","<div class='trialBorder'><div class='vertical-center'><img style='vertical-align:center; align:center' src=img/fixation3.jpg></div><div class='cl'><div class='vertical-center'>$6<br>for<br>sure</div></div><div class='cr'><div class='vertical-center'>$13<br>with a<br>50% chance</div></div><div class='respDivL'><div class='vertical-center'>(E)</div></div><div class='respDivR'><div class='vertical-center'>(I)</div></div></div>","E","$6","$13","0","6","13","SURE"
"html-keyboard-response","24","764989","0.0-5.0-3.6","5c5f525806006e0001db95d2","bdp_rd","Tue Mar 28 2023 20:31:26 GMT-0400 (Eastern Daylight Time)","1211287","","null","","","","offerFB","","<div class='trialBorder'><div class='vertical-center'><img style='vertical-align:center; align:center' src=img/fixation3.jpg></div><div class='cl'><div class='vertical-center'><font style='color:orange'>$6<br>for<br>sure</font></div></div><div class='cr'><div class='vertical-center'>$13<br>with a<br>50% chance</div></div><div class='respDivL'><div class='vertical-center'><font style='color:orange'>(E)</font></div></div><div class='respDivR'><div class='vertical-center'>(I)</div></div></div>","null","$6","$13","0","6","13",""
"html-keyboard-response","25","765490","0.0-5.0-1.7","5c5f525806006e0001db95d2","bdp_rd","Tue Mar 28 2023 20:31:26 GMT-0400 (Eastern Daylight Time)","1211287","","null","","","","FIX","","<div class='trialBorder'><div class='vertical-center'><img style='vertical-align:center; align:center' src=img/fixation3.jpg></div></div>","null","","","","","",""
"html-keyboard-response","26","767385","0.0-5.0-2.7","5c5f525806006e0001db95d2","bdp_rd","Tue Mar 28 2023 20:31:26 GMT-0400 (Eastern Daylight Time)","1211287","","1894","","","","offer","","<div class='trialBorder'><div class='vertical-center'><img style='vertical-align:center; align:center' src=img/fixation3.jpg></div><div class='cl'><div class='vertical-center'>$2<br>for<br>sure</div></div><div class='cr'><div class='vertical-center'>$64<br>with a<br>50% chance</div></div><div class='respDivL'><div class='vertical-center'>(E)</div></div><div class='respDivR'><div class='vertical-center'>(I)</div></div></div>","I","$2","$64","0","2","64","RISKY"
"html-keyboard-response","27","767638","0.0-5.0-3.7","5c5f525806006e0001db95d2","bdp_rd","Tue Mar 28 2023 20:31:26 GMT-0400 (Eastern Daylight Time)","1211287","","null","","","","offerFB","","<div class='trialBorder'><div class='vertical-center'><img style='vertical-align:center; align:center' src=img/fixation3.jpg></div><div class='cl'><div class='vertical-center'>$2<br>for<br>sure</div></div><div class='cr'><div class='vertical-center'><font style='color:orange'>$64<br>with a<br>50% chance</font></div></div><div class='respDivL'><div class='vertical-center'>(E)</div></div><div class='respDivR'><div class='vertical-center'><font style='color:orange'>(I)</font></div></div></div>","null","$2","$64","0","2","64",""
"html-keyboard-response","28","768139","0.0-5.0-1.8","5c5f525806006e0001db95d2","bdp_rd","Tue Mar 28 2023 20:31:26 GMT-0400 (Eastern Daylight Time)","1211287","","null","","","","FIX","","<div class='trialBorder'><div class='vertical-center'><img style='vertical-align:center; align:center' src=img/fixation3.jpg></div></div>","null","","","","","",""
"html-keyboard-response","29","771260","0.0-5.0-2.8","5c5f525806006e0001db95d2","bdp_rd","Tue Mar 28 2023 20:31:26 GMT-0400 (Eastern Daylight Time)","1211287","","3120","","","","offer","","<div class='trialBorder'><div class='vertical-center'><img style='vertical-align:center; align:center' src=img/fixation3.jpg></div><div class='cl'><div class='vertical-center'>$13<br>for<br>sure</div></div><div class='cr'><div class='vertical-center'>$24<br>with a<br>50% chance</div></div><div class='respDivL'><div class='vertical-center'>(E)</div></div><div class='respDivR'><div class='vertical-center'>(I)</div></div></div>","E","$13","$24","0","13","24","SURE"
"html-keyboard-response","30","771512","0.0-5.0-3.8","5c5f525806006e0001db95d2","bdp_rd","Tue Mar 28 2023 20:31:26 GMT-0400 (Eastern Daylight Time)","1211287","","null","","","","offerFB","","<div class='trialBorder'><div class='vertical-center'><img style='vertical-align:center; align:center' src=img/fixation3.jpg></div><div class='cl'><div class='vertical-center'><font style='color:orange'>$13<br>for<br>sure</font></div></div><div class='cr'><div class='vertical-center'>$24<br>with a<br>50% chance</div></div><div class='respDivL'><div class='vertical-center'><font style='color:orange'>(E)</font></div></div><div class='respDivR'><div class='vertical-center'>(I)</div></div></div>","null","$13","$24","0","13","24",""
"html-keyboard-response","31","772014","0.0-5.0-1.9","5c5f525806006e0001db95d2","bdp_rd","Tue Mar 28 2023 20:31:26 GMT-0400 (Eastern Daylight Time)","1211287","","null","","","","FIX","","<div class='trialBorder'><div class='vertical-center'><img style='vertical-align:center; align:center' src=img/fixation3.jpg></div></div>","null","","","","","",""
"html-keyboard-response","32","774930","0.0-5.0-2.9","5c5f525806006e0001db95d2","bdp_rd","Tue Mar 28 2023 20:31:26 GMT-0400 (Eastern Daylight Time)","1211287","","2914","","","","offer","","<div class='trialBorder'><div class='vertical-center'><img style='vertical-align:center; align:center' src=img/fixation3.jpg></div><div class='cl'><div class='vertical-center'>$100<br>with a<br>50% chance</div></div><div class='cr'><div class='vertical-center'>$63<br>for<br>sure</div></div><div class='respDivL'><div class='vertical-center'>(E)</div></div><div class='respDivR'><div class='vertical-center'>(I)</div></div></div>","I","$63","$100","1","63","10","SURE"
"html-keyboard-response","33","775182","0.0-5.0-3.9","5c5f525806006e0001db95d2","bdp_rd","Tue Mar 28 2023 20:31:26 GMT-0400 (Eastern Daylight Time)","1211287","","null","","","","offerFB","","<div class='trialBorder'><div class='vertical-center'><img style='vertical-align:center; align:center' src=img/fixation3.jpg></div><div class='cl'><div class='vertical-center'>$100<br>with a<br>50% chance</div></div><div class='cr'><div class='vertical-center'><font style='color:orange'>$63<br>for<br>sure</font></div></div><div class='respDivL'><div class='vertical-center'>(E)</div></div><div class='respDivR'><div class='vertical-center'><font style='color:orange'>(I)</font></div></div></div>","null","$63","$100","1","63","10",""
"html-keyboard-response","34","775684","0.0-5.0-1.10","5c5f525806006e0001db95d2","bdp_rd","Tue Mar 28 2023 20:31:26 GMT-0400 (Eastern Daylight Time)","1211287","","null","","","","FIX","","<div class='trialBorder'><div class='vertical-center'><img style='vertical-align:center; align:center' src=img/fixation3.jpg></div></div>","null","","","","","",""
"html-keyboard-response","35","779612","0.0-5.0-2.10","5c5f525806006e0001db95d2","bdp_rd","Tue Mar 28 2023 20:31:26 GMT-0400 (Eastern Daylight Time)","1211287","","3928","","","","offer","","<div class='trialBorder'><div class='vertical-center'><img style='vertical-align:center; align:center' src=img/fixation3.jpg></div><div class='cl'><div class='vertical-center'>$37<br>with a<br>50% chance</div></div><div class='cr'><div class='vertical-center'>$20<br>for<br>sure</div></div><div class='respDivL'><div class='vertical-center'>(E)</div></div><div class='respDivR'><div class='vertical-center'>(I)</div></div></div>","I","$20","$37","1","20","37","SURE"
"html-keyboard-response","36","779865","0.0-5.0-3.10","5c5f525806006e0001db95d2","bdp_rd","Tue Mar 28 2023 20:31:26 GMT-0400 (Eastern Daylight Time)","1211287","","null","","","","offerFB","","<div class='trialBorder'><div class='vertical-center'><img style='vertical-align:center; align:center' src=img/fixation3.jpg></div><div class='cl'><div class='vertical-center'>$37<br>with a<br>50% chance</div></div><div class='cr'><div class='vertical-center'><font style='color:orange'>$20<br>for<br>sure</font></div></div><div class='respDivL'><div class='vertical-center'>(E)</div></div><div class='respDivR'><div class='vertical-center'><font style='color:orange'>(I)</font></div></div></div>","null","$20","$37","1","20","37",""
"html-keyboard-response","37","780366","0.0-5.0-1.11","5c5f525806006e0001db95d2","bdp_rd","Tue Mar 28 2023 20:31:26 GMT-0400 (Eastern Daylight Time)","1211287","","null","","","","FIX","","<div class='trialBorder'><div class='vertical-center'><img style='vertical-align:center; align:center' src=img/fixation3.jpg></div></div>","null","","","","","",""
"html-keyboard-response","38","784330","0.0-5.0-2.11","5c5f525806006e0001db95d2","bdp_rd","Tue Mar 28 2023 20:31:26 GMT-0400 (Eastern Daylight Time)","1211287","","3963","","","","offer","","<div class='trialBorder'><div class='vertical-center'><img style='vertical-align:center; align:center' src=img/fixation3.jpg></div><div class='cl'><div class='vertical-center'>$80<br>with a<br>50% chance</div></div><div class='cr'><div class='vertical-center'>$20<br>for<br>sure</div></div><div class='respDivL'><div class='vertical-center'>(E)</div></div><div class='respDivR'><div class='vertical-center'>(I)</div></div></div>","E","$20","$80","1","20","80","RISKY"
"html-keyboard-response","39","784583","0.0-5.0-3.11","5c5f525806006e0001db95d2","bdp_rd","Tue Mar 28 2023 20:31:26 GMT-0400 (Eastern Daylight Time)","1211287","","null","","","","offerFB","","<div class='trialBorder'><div class='vertical-center'><img style='vertical-align:center; align:center' src=img/fixation3.jpg></div><div class='cl'><div class='vertical-center'><font style='color:orange'>$80<br>with a<br>50% chance</font></div></div><div class='cr'><div class='vertical-center'>$20<br>for<br>sure</div></div><div class='respDivL'><div class='vertical-center'><font style='color:orange'>(E)</font></div></div><div class='respDivR'><div class='vertical-center'>(I)</div></div></div>","null","$20","$80","1","20","80",""
"html-keyboard-response","40","785084","0.0-5.0-1.12","5c5f525806006e0001db95d2","bdp_rd","Tue Mar 28 2023 20:31:26 GMT-0400 (Eastern Daylight Time)","1211287","","null","","","","FIX","","<div class='trialBorder'><div class='vertical-center'><img style='vertical-align:center; align:center' src=img/fixation3.jpg></div></div>","null","","","","","",""
"html-keyboard-response","41","798140","0.0-5.0-2.12","5c5f525806006e0001db95d2","bdp_rd","Tue Mar 28 2023 20:31:26 GMT-0400 (Eastern Daylight Time)","1211287","","13055","","","","offer","","<div class='trialBorder'><div class='vertical-center'><img style='vertical-align:center; align:center' src=img/fixation3.jpg></div><div class='cl'><div class='vertical-center'>$11<br>for<br>sure</div></div><div class='cr'><div class='vertical-center'>$62<br>with a<br>50% chance</div></div><div class='respDivL'><div class='vertical-center'>(E)</div></div><div class='respDivR'><div class='vertical-center'>(I)</div></div></div>","I","$11","$62","0","11","62","RISKY"
"html-keyboard-response","42","798392","0.0-5.0-3.12","5c5f525806006e0001db95d2","bdp_rd","Tue Mar 28 2023 20:31:26 GMT-0400 (Eastern Daylight Time)","1211287","","null","","","","offerFB","","<div class='trialBorder'><div class='vertical-center'><img style='vertical-align:center; align:center' src=img/fixation3.jpg></div><div class='cl'><div class='vertical-center'>$11<br>for<br>sure</div></div><div class='cr'><div class='vertical-center'><font style='color:orange'>$62<br>with a<br>50% chance</font></div></div><div class='respDivL'><div class='vertical-center'>(E)</div></div><div class='respDivR'><div class='vertical-center'><font style='color:orange'>(I)</font></div></div></div>","null","$11","$62","0","11","62",""
"html-keyboard-response","43","798893","0.0-5.0-1.13","5c5f525806006e0001db95d2","bdp_rd","Tue Mar 28 2023 20:31:26 GMT-0400 (Eastern Daylight Time)","1211287","","null","","","","FIX","","<div class='trialBorder'><div class='vertical-center'><img style='vertical-align:center; align:center' src=img/fixation3.jpg></div></div>","null","","","","","",""
"html-keyboard-response","44","804990","0.0-5.0-2.13","5c5f525806006e0001db95d2","bdp_rd","Tue Mar 28 2023 20:31:26 GMT-0400 (Eastern Daylight Time)","1211287","","6096","","","","offer","","<div class='trialBorder'><div class='vertical-center'><img style='vertical-align:center; align:center' src=img/fixation3.jpg></div><div class='cl'><div class='vertical-center'>$35<br>with a<br>50% chance</div></div><div class='cr'><div class='vertical-center'>$12<br>for<br>sure</div></div><div class='respDivL'><div class='vertical-center'>(E)</div></div><div class='respDivR'><div class='vertical-center'>(I)</div></div></div>","E","$12","$35","1","12","35","RISKY"
"html-keyboard-response","45","805242","0.0-5.0-3.13","5c5f525806006e0001db95d2","bdp_rd","Tue Mar 28 2023 20:31:26 GMT-0400 (Eastern Daylight Time)","1211287","","null","","","","offerFB","","<div class='trialBorder'><div class='vertical-center'><img style='vertical-align:center; align:center' src=img/fixation3.jpg></div><div class='cl'><div class='vertical-center'><font style='color:orange'>$35<br>with a<br>50% chance</font></div></div><div class='cr'><div class='vertical-center'>$12<br>for<br>sure</div></div><div class='respDivL'><div class='vertical-center'><font style='color:orange'>(E)</font></div></div><div class='respDivR'><div class='vertical-center'>(I)</div></div></div>","null","$12","$35","1","12","35",""
"html-keyboard-response","46","805744","0.0-5.0-1.14","5c5f525806006e0001db95d2","bdp_rd","Tue Mar 28 2023 20:31:26 GMT-0400 (Eastern Daylight Time)","1211287","","null","","","","FIX","","<div class='trialBorder'><div class='vertical-center'><img style='vertical-align:center; align:center' src=img/fixation3.jpg></div></div>","null","","","","","",""
"html-keyboard-response","47","812218","0.0-5.0-2.14","5c5f525806006e0001db95d2","bdp_rd","Tue Mar 28 2023 20:31:26 GMT-0400 (Eastern Daylight Time)","1211287","","6473","","","","offer","","<div class='trialBorder'><div class='vertical-center'><img style='vertical-align:center; align:center' src=img/fixation3.jpg></div><div class='cl'><div class='vertical-center'>$45<br>with a<br>50% chance</div></div><div class='cr'><div class='vertical-center'>$8<br>for<br>sure</div></div><div class='respDivL'><div class='vertical-center'>(E)</div></div><div class='respDivR'><div class='vertical-center'>(I)</div></div></div>","E","$8","$45","1","8","45","RISKY"
"html-keyboard-response","48","812470","0.0-5.0-3.14","5c5f525806006e0001db95d2","bdp_rd","Tue Mar 28 2023 20:31:26 GMT-0400 (Eastern Daylight Time)","1211287","","null","","","","offerFB","","<div class='trialBorder'><div class='vertical-center'><img style='vertical-align:center; align:center' src=img/fixation3.jpg></div><div class='cl'><div class='vertical-center'><font style='color:orange'>$45<br>with a<br>50% chance</font></div></div><div class='cr'><div class='vertical-center'>$8<br>for<br>sure</div></div><div class='respDivL'><div class='vertical-center'><font style='color:orange'>(E)</font></div></div><div class='respDivR'><div class='vertical-center'>(I)</div></div></div>","null","$8","$45","1","8","45",""
"html-keyboard-response","49","812972","0.0-5.0-1.15","5c5f525806006e0001db95d2","bdp_rd","Tue Mar 28 2023 20:31:26 GMT-0400 (Eastern Daylight Time)","1211287","","null","","","","FIX","","<div class='trialBorder'><div class='vertical-center'><img style='vertical-align:center; align:center' src=img/fixation3.jpg></div></div>","null","","","","","",""
"html-keyboard-response","50","1035557","0.0-5.0-2.15","5c5f525806006e0001db95d2","bdp_rd","Tue Mar 28 2023 20:31:26 GMT-0400 (Eastern Daylight Time)","1211287","","222584","","","","offer","","<div class='trialBorder'><div class='vertical-center'><img style='vertical-align:center; align:center' src=img/fixation3.jpg></div><div class='cl'><div class='vertical-center'>$15<br>with a<br>50% chance</div></div><div class='cr'><div class='vertical-center'>$6<br>for<br>sure</div></div><div class='respDivL'><div class='vertical-center'>(E)</div></div><div class='respDivR'><div class='vertical-center'>(I)</div></div></div>","E","$6","$15","1","6","15","RISKY"
"html-keyboard-response","51","1035811","0.0-5.0-3.15","5c5f525806006e0001db95d2","bdp_rd","Tue Mar 28 2023 20:31:26 GMT-0400 (Eastern Daylight Time)","1211287","","null","","","","offerFB","","<div class='trialBorder'><div class='vertical-center'><img style='vertical-align:center; align:center' src=img/fixation3.jpg></div><div class='cl'><div class='vertical-center'><font style='color:orange'>$15<br>with a<br>50% chance</font></div></div><div class='cr'><div class='vertical-center'>$6<br>for<br>sure</div></div><div class='respDivL'><div class='vertical-center'><font style='color:orange'>(E)</font></div></div><div class='respDivR'><div class='vertical-center'>(I)</div></div></div>","null","$6","$15","1","6","15",""
"html-keyboard-response","52","1036312","0.0-5.0-1.16","5c5f525806006e0001db95d2","bdp_rd","Tue Mar 28 2023 20:31:26 GMT-0400 (Eastern Daylight Time)","1211287","","null","","","","FIX","","<div class='trialBorder'><div class='vertical-center'><img style='vertical-align:center; align:center' src=img/fixation3.jpg></div></div>","null","","","","","",""
"html-keyboard-response","53","1038830","0.0-5.0-2.16","5c5f525806006e0001db95d2","bdp_rd","Tue Mar 28 2023 20:31:26 GMT-0400 (Eastern Daylight Time)","1211287","","2517","","","","offer","","<div class='trialBorder'><div class='vertical-center'><img style='vertical-align:center; align:center' src=img/fixation3.jpg></div><div class='cl'><div class='vertical-center'>$86<br>with a<br>50% chance</div></div><div class='cr'><div class='vertical-center'>$45<br>for<br>sure</div></div><div class='respDivL'><div class='vertical-center'>(E)</div></div><div class='respDivR'><div class='vertical-center'>(I)</div></div></div>","E","$45","$86","1","45","86","RISKY"
"html-keyboard-response","54","1039082","0.0-5.0-3.16","5c5f525806006e0001db95d2","bdp_rd","Tue Mar 28 2023 20:31:26 GMT-0400 (Eastern Daylight Time)","1211287","","null","","","","offerFB","","<div class='trialBorder'><div class='vertical-center'><img style='vertical-align:center; align:center' src=img/fixation3.jpg></div><div class='cl'><div class='vertical-center'><font style='color:orange'>$86<br>with a<br>50% chance</font></div></div><div class='cr'><div class='vertical-center'>$45<br>for<br>sure</div></div><div class='respDivL'><div class='vertical-center'><font style='color:orange'>(E)</font></div></div><div class='respDivR'><div class='vertical-center'>(I)</div></div></div>","null","$45","$86","1","45","86",""
"html-keyboard-response","55","1039584","0.0-5.0-1.17","5c5f525806006e0001db95d2","bdp_rd","Tue Mar 28 2023 20:31:26 GMT-0400 (Eastern Daylight Time)","1211287","","null","","","","FIX","","<div class='trialBorder'><div class='vertical-center'><img style='vertical-align:center; align:center' src=img/fixation3.jpg></div></div>","null","","","","","",""
"html-keyboard-response","56","1042291","0.0-5.0-2.17","5c5f525806006e0001db95d2","bdp_rd","Tue Mar 28 2023 20:31:26 GMT-0400 (Eastern Daylight Time)","1211287","","2706","","","","offer","","<div class='trialBorder'><div class='vertical-center'><img style='vertical-align:center; align:center' src=img/fixation3.jpg></div><div class='cl'><div class='vertical-center'>$32<br>with a<br>50% chance</div></div><div class='cr'><div class='vertical-center'>$9<br>for<br>sure</div></div><div class='respDivL'><div class='vertical-center'>(E)</div></div><div class='respDivR'><div class='vertical-center'>(I)</div></div></div>","E","$9","$32","1","9","32","RISKY"
"html-keyboard-response","57","1042542","0.0-5.0-3.17","5c5f525806006e0001db95d2","bdp_rd","Tue Mar 28 2023 20:31:26 GMT-0400 (Eastern Daylight Time)","1211287","","null","","","","offerFB","","<div class='trialBorder'><div class='vertical-center'><img style='vertical-align:center; align:center' src=img/fixation3.jpg></div><div class='cl'><div class='vertical-center'><font style='color:orange'>$32<br>with a<br>50% chance</font></div></div><div class='cr'><div class='vertical-center'>$9<br>for<br>sure</div></div><div class='respDivL'><div class='vertical-center'><font style='color:orange'>(E)</font></div></div><div class='respDivR'><div class='vertical-center'>(I)</div></div></div>","null","$9","$32","1","9","32",""
"html-keyboard-response","58","1043044","0.0-5.0-1.18","5c5f525806006e0001db95d2","bdp_rd","Tue Mar 28 2023 20:31:26 GMT-0400 (Eastern Daylight Time)","1211287","","null","","","","FIX","","<div class='trialBorder'><div class='vertical-center'><img style='vertical-align:center; align:center' src=img/fixation3.jpg></div></div>","null","","","","","",""
"html-keyboard-response","59","1045905","0.0-5.0-2.18","5c5f525806006e0001db95d2","bdp_rd","Tue Mar 28 2023 20:31:26 GMT-0400 (Eastern Daylight Time)","1211287","","2860","","","","offer","","<div class='trialBorder'><div class='vertical-center'><img style='vertical-align:center; align:center' src=img/fixation3.jpg></div><div class='cl'><div class='vertical-center'>$10<br>for<br>sure</div></div><div class='cr'><div class='vertical-center'>$19<br>with a<br>50% chance</div></div><div class='respDivL'><div class='vertical-center'>(E)</div></div><div class='respDivR'><div class='vertical-center'>(I)</div></div></div>","E","$10","$19","0","10","19","SURE"
"html-keyboard-response","60","1046158","0.0-5.0-3.18","5c5f525806006e0001db95d2","bdp_rd","Tue Mar 28 2023 20:31:26 GMT-0400 (Eastern Daylight Time)","1211287","","null","","","","offerFB","","<div class='trialBorder'><div class='vertical-center'><img style='vertical-align:center; align:center' src=img/fixation3.jpg></div><div class='cl'><div class='vertical-center'><font style='color:orange'>$10<br>for<br>sure</font></div></div><div class='cr'><div class='vertical-center'>$19<br>with a<br>50% chance</div></div><div class='respDivL'><div class='vertical-center'><font style='color:orange'>(E)</font></div></div><div class='respDivR'><div class='vertical-center'>(I)</div></div></div>","null","$10","$19","0","10","19",""
"html-keyboard-response","61","1046661","0.0-5.0-1.19","5c5f525806006e0001db95d2","bdp_rd","Tue Mar 28 2023 20:31:26 GMT-0400 (Eastern Daylight Time)","1211287","","null","","","","FIX","","<div class='trialBorder'><div class='vertical-center'><img style='vertical-align:center; align:center' src=img/fixation3.jpg></div></div>","null","","","","","",""
"html-keyboard-response","62","1052181","0.0-5.0-2.19","5c5f525806006e0001db95d2","bdp_rd","Tue Mar 28 2023 20:31:26 GMT-0400 (Eastern Daylight Time)","1211287","","5519","","","","offer","","<div class='trialBorder'><div class='vertical-center'><img style='vertical-align:center; align:center' src=img/fixation3.jpg></div><div class='cl'><div class='vertical-center'>$39<br>with a<br>50% chance</div></div><div class='cr'><div class='vertical-center'>$18<br>for<br>sure</div></div><div class='respDivL'><div class='vertical-center'>(E)</div></div><div class='respDivR'><div class='vertical-center'>(I)</div></div></div>","E","$18","$39","1","18","39","RISKY"
"html-keyboard-response","63","1052433","0.0-5.0-3.19","5c5f525806006e0001db95d2","bdp_rd","Tue Mar 28 2023 20:31:26 GMT-0400 (Eastern Daylight Time)","1211287","","null","","","","offerFB","","<div class='trialBorder'><div class='vertical-center'><img style='vertical-align:center; align:center' src=img/fixation3.jpg></div><div class='cl'><div class='vertical-center'><font style='color:orange'>$39<br>with a<br>50% chance</font></div></div><div class='cr'><div class='vertical-center'>$18<br>for<br>sure</div></div><div class='respDivL'><div class='vertical-center'><font style='color:orange'>(E)</font></div></div><div class='respDivR'><div class='vertical-center'>(I)</div></div></div>","null","$18","$39","1","18","39",""
"html-keyboard-response","64","1052935","0.0-5.0-1.20","5c5f525806006e0001db95d2","bdp_rd","Tue Mar 28 2023 20:31:26 GMT-0400 (Eastern Daylight Time)","1211287","","null","","","","FIX","","<div class='trialBorder'><div class='vertical-center'><img style='vertical-align:center; align:center' src=img/fixation3.jpg></div></div>","null","","","","","",""
"html-keyboard-response","65","1054443","0.0-5.0-2.20","5c5f525806006e0001db95d2","bdp_rd","Tue Mar 28 2023 20:31:26 GMT-0400 (Eastern Daylight Time)","1211287","","1507","","","","offer","","<div class='trialBorder'><div class='vertical-center'><img style='vertical-align:center; align:center' src=img/fixation3.jpg></div><div class='cl'><div class='vertical-center'>$19<br>for<br>sure</div></div><div class='cr'><div class='vertical-center'>$51<br>with a<br>50% chance</div></div><div class='respDivL'><div class='vertical-center'>(E)</div></div><div class='respDivR'><div class='vertical-center'>(I)</div></div></div>","I","$19","$51","0","19","51","RISKY"
"html-keyboard-response","66","1054695","0.0-5.0-3.20","5c5f525806006e0001db95d2","bdp_rd","Tue Mar 28 2023 20:31:26 GMT-0400 (Eastern Daylight Time)","1211287","","null","","","","offerFB","","<div class='trialBorder'><div class='vertical-center'><img style='vertical-align:center; align:center' src=img/fixation3.jpg></div><div class='cl'><div class='vertical-center'>$19<br>for<br>sure</div></div><div class='cr'><div class='vertical-center'><font style='color:orange'>$51<br>with a<br>50% chance</font></div></div><div class='respDivL'><div class='vertical-center'>(E)</div></div><div class='respDivR'><div class='vertical-center'><font style='color:orange'>(I)</font></div></div></div>","null","$19","$51","0","19","51",""
"html-keyboard-response","67","1055197","0.0-5.0-1.21","5c5f525806006e0001db95d2","bdp_rd","Tue Mar 28 2023 20:31:26 GMT-0400 (Eastern Daylight Time)","1211287","","null","","","","FIX","","<div class='trialBorder'><div class='vertical-center'><img style='vertical-align:center; align:center' src=img/fixation3.jpg></div></div>","null","","","","","",""
"html-keyboard-response","68","1056677","0.0-5.0-2.21","5c5f525806006e0001db95d2","bdp_rd","Tue Mar 28 2023 20:31:26 GMT-0400 (Eastern Daylight Time)","1211287","","1478","","","","offer","","<div class='trialBorder'><div class='vertical-center'><img style='vertical-align:center; align:center' src=img/fixation3.jpg></div><div class='cl'><div class='vertical-center'>$78<br>with a<br>50% chance</div></div><div class='cr'><div class='vertical-center'>$31<br>for<br>sure</div></div><div class='respDivL'><div class='vertical-center'>(E)</div></div><div class='respDivR'><div class='vertical-center'>(I)</div></div></div>","E","$31","$78","1","31","78","RISKY"
"html-keyboard-response","69","1056928","0.0-5.0-3.21","5c5f525806006e0001db95d2","bdp_rd","Tue Mar 28 2023 20:31:26 GMT-0400 (Eastern Daylight Time)","1211287","","null","","","","offerFB","","<div class='trialBorder'><div class='vertical-center'><img style='vertical-align:center; align:center' src=img/fixation3.jpg></div><div class='cl'><div class='vertical-center'><font style='color:orange'>$78<br>with a<br>50% chance</font></div></div><div class='cr'><div class='vertical-center'>$31<br>for<br>sure</div></div><div class='respDivL'><div class='vertical-center'><font style='color:orange'>(E)</font></div></div><div class='respDivR'><div class='vertical-center'>(I)</div></div></div>","null","$31","$78","1","31","78",""
"html-keyboard-response","70","1057430","0.0-5.0-1.22","5c5f525806006e0001db95d2","bdp_rd","Tue Mar 28 2023 20:31:26 GMT-0400 (Eastern Daylight Time)","1211287","","null","","","","FIX","","<div class='trialBorder'><div class='vertical-center'><img style='vertical-align:center; align:center' src=img/fixation3.jpg></div></div>","null","","","","","",""
"html-keyboard-response","71","1058711","0.0-5.0-2.22","5c5f525806006e0001db95d2","bdp_rd","Tue Mar 28 2023 20:31:26 GMT-0400 (Eastern Daylight Time)","1211287","","1280","","","","offer","","<div class='trialBorder'><div class='vertical-center'><img style='vertical-align:center; align:center' src=img/fixation3.jpg></div><div class='cl'><div class='vertical-center'>$46<br>for<br>sure</div></div><div class='cr'><div class='vertical-center'>$65<br>with a<br>50% chance</div></div><div class='respDivL'><div class='vertical-center'>(E)</div></div><div class='respDivR'><div class='vertical-center'>(I)</div></div></div>","I","$46","$65","0","46","65","RISKY"
"html-keyboard-response","72","1058962","0.0-5.0-3.22","5c5f525806006e0001db95d2","bdp_rd","Tue Mar 28 2023 20:31:26 GMT-0400 (Eastern Daylight Time)","1211287","","null","","","","offerFB","","<div class='trialBorder'><div class='vertical-center'><img style='vertical-align:center; align:center' src=img/fixation3.jpg></div><div class='cl'><div class='vertical-center'>$46<br>for<br>sure</div></div><div class='cr'><div class='vertical-center'><font style='color:orange'>$65<br>with a<br>50% chance</font></div></div><div class='respDivL'><div class='vertical-center'>(E)</div></div><div class='respDivR'><div class='vertical-center'><font style='color:orange'>(I)</font></div></div></div>","null","$46","$65","0","46","65",""
"html-keyboard-response","73","1059465","0.0-5.0-1.23","5c5f525806006e0001db95d2","bdp_rd","Tue Mar 28 2023 20:31:26 GMT-0400 (Eastern Daylight Time)","1211287","","null","","","","FIX","","<div class='trialBorder'><div class='vertical-center'><img style='vertical-align:center; align:center' src=img/fixation3.jpg></div></div>","null","","","","","",""
"html-keyboard-response","74","1061154","0.0-5.0-2.23","5c5f525806006e0001db95d2","bdp_rd","Tue Mar 28 2023 20:31:26 GMT-0400 (Eastern Daylight Time)","1211287","","1687","","","","offer","","<div class='trialBorder'><div class='vertical-center'><img style='vertical-align:center; align:center' src=img/fixation3.jpg></div><div class='cl'><div class='vertical-center'>$18<br>with a<br>50% chance</div></div><div class='cr'><div class='vertical-center'>$9<br>for<br>sure</div></div><div class='respDivL'><div class='vertical-center'>(E)</div></div><div class='respDivR'><div class='vertical-center'>(I)</div></div></div>","E","$9","$18","1","9","18","RISKY"
"html-keyboard-response","75","1061406","0.0-5.0-3.23","5c5f525806006e0001db95d2","bdp_rd","Tue Mar 28 2023 20:31:26 GMT-0400 (Eastern Daylight Time)","1211287","","null","","","","offerFB","","<div class='trialBorder'><div class='vertical-center'><img style='vertical-align:center; align:center' src=img/fixation3.jpg></div><div class='cl'><div class='vertical-center'><font style='color:orange'>$18<br>with a<br>50% chance</font></div></div><div class='cr'><div class='vertical-center'>$9<br>for<br>sure</div></div><div class='respDivL'><div class='vertical-center'><font style='color:orange'>(E)</font></div></div><div class='respDivR'><div class='vertical-center'>(I)</div></div></div>","null","$9","$18","1","9","18",""
"html-keyboard-response","76","1061907","0.0-5.0-1.24","5c5f525806006e0001db95d2","bdp_rd","Tue Mar 28 2023 20:31:26 GMT-0400 (Eastern Daylight Time)","1211287","","null","","","","FIX","","<div class='trialBorder'><div class='vertical-center'><img style='vertical-align:center; align:center' src=img/fixation3.jpg></div></div>","null","","","","","",""
"html-keyboard-response","77","1063484","0.0-5.0-2.24","5c5f525806006e0001db95d2","bdp_rd","Tue Mar 28 2023 20:31:26 GMT-0400 (Eastern Daylight Time)","1211287","","1576","","","","offer","","<div class='trialBorder'><div class='vertical-center'><img style='vertical-align:center; align:center' src=img/fixation3.jpg></div><div class='cl'><div class='vertical-center'>$14<br>for<br>sure</div></div><div class='cr'><div class='vertical-center'>$22<br>with a<br>50% chance</div></div><div class='respDivL'><div class='vertical-center'>(E)</div></div><div class='respDivR'><div class='vertical-center'>(I)</div></div></div>","I","$14","$22","0","14","22","RISKY"
"html-keyboard-response","78","1063737","0.0-5.0-3.24","5c5f525806006e0001db95d2","bdp_rd","Tue Mar 28 2023 20:31:26 GMT-0400 (Eastern Daylight Time)","1211287","","null","","","","offerFB","","<div class='trialBorder'><div class='vertical-center'><img style='vertical-align:center; align:center' src=img/fixation3.jpg></div><div class='cl'><div class='vertical-center'>$14<br>for<br>sure</div></div><div class='cr'><div class='vertical-center'><font style='color:orange'>$22<br>with a<br>50% chance</font></div></div><div class='respDivL'><div class='vertical-center'>(E)</div></div><div class='respDivR'><div class='vertical-center'><font style='color:orange'>(I)</font></div></div></div>","null","$14","$22","0","14","22",""
"html-keyboard-response","79","1064238","0.0-5.0-1.25","5c5f525806006e0001db95d2","bdp_rd","Tue Mar 28 2023 20:31:26 GMT-0400 (Eastern Daylight Time)","1211287","","null","","","","FIX","","<div class='trialBorder'><div class='vertical-center'><img style='vertical-align:center; align:center' src=img/fixation3.jpg></div></div>","null","","","","","",""
"html-keyboard-response","80","1065895","0.0-5.0-2.25","5c5f525806006e0001db95d2","bdp_rd","Tue Mar 28 2023 20:31:26 GMT-0400 (Eastern Daylight Time)","1211287","","1655","","","","offer","","<div class='trialBorder'><div class='vertical-center'><img style='vertical-align:center; align:center' src=img/fixation3.jpg></div><div class='cl'><div class='vertical-center'>$15<br>for<br>sure</div></div><div class='cr'><div class='vertical-center'>$31<br>with a<br>50% chance</div></div><div class='respDivL'><div class='vertical-center'>(E)</div></div><div class='respDivR'><div class='vertical-center'>(I)</div></div></div>","I","$15","$31","0","15","31","RISKY"
"html-keyboard-response","81","1066146","0.0-5.0-3.25","5c5f525806006e0001db95d2","bdp_rd","Tue Mar 28 2023 20:31:26 GMT-0400 (Eastern Daylight Time)","1211287","","null","","","","offerFB","","<div class='trialBorder'><div class='vertical-center'><img style='vertical-align:center; align:center' src=img/fixation3.jpg></div><div class='cl'><div class='vertical-center'>$15<br>for<br>sure</div></div><div class='cr'><div class='vertical-center'><font style='color:orange'>$31<br>with a<br>50% chance</font></div></div><div class='respDivL'><div class='vertical-center'>(E)</div></div><div class='respDivR'><div class='vertical-center'><font style='color:orange'>(I)</font></div></div></div>","null","$15","$31","0","15","31",""
"html-keyboard-response","82","1066648","0.0-5.0-1.26","5c5f525806006e0001db95d2","bdp_rd","Tue Mar 28 2023 20:31:26 GMT-0400 (Eastern Daylight Time)","1211287","","null","","","","FIX","","<div class='trialBorder'><div class='vertical-center'><img style='vertical-align:center; align:center' src=img/fixation3.jpg></div></div>","null","","","","","",""
"html-keyboard-response","83","1070784","0.0-5.0-2.26","5c5f525806006e0001db95d2","bdp_rd","Tue Mar 28 2023 20:31:26 GMT-0400 (Eastern Daylight Time)","1211287","","4135","","","","offer","","<div class='trialBorder'><div class='vertical-center'><img style='vertical-align:center; align:center' src=img/fixation3.jpg></div><div class='cl'><div class='vertical-center'>$29<br>for<br>sure</div></div><div class='cr'><div class='vertical-center'>$46<br>with a<br>50% chance</div></div><div class='respDivL'><div class='vertical-center'>(E)</div></div><div class='respDivR'><div class='vertical-center'>(I)</div></div></div>","I","$29","$46","0","29","46","RISKY"
"html-keyboard-response","84","1071037","0.0-5.0-3.26","5c5f525806006e0001db95d2","bdp_rd","Tue Mar 28 2023 20:31:26 GMT-0400 (Eastern Daylight Time)","1211287","","null","","","","offerFB","","<div class='trialBorder'><div class='vertical-center'><img style='vertical-align:center; align:center' src=img/fixation3.jpg></div><div class='cl'><div class='vertical-center'>$29<br>for<br>sure</div></div><div class='cr'><div class='vertical-center'><font style='color:orange'>$46<br>with a<br>50% chance</font></div></div><div class='respDivL'><div class='vertical-center'>(E)</div></div><div class='respDivR'><div class='vertical-center'><font style='color:orange'>(I)</font></div></div></div>","null","$29","$46","0","29","46",""
"html-keyboard-response","85","1071538","0.0-5.0-1.27","5c5f525806006e0001db95d2","bdp_rd","Tue Mar 28 2023 20:31:26 GMT-0400 (Eastern Daylight Time)","1211287","","null","","","","FIX","","<div class='trialBorder'><div class='vertical-center'><img style='vertical-align:center; align:center' src=img/fixation3.jpg></div></div>","null","","","","","",""
"html-keyboard-response","86","1074272","0.0-5.0-2.27","5c5f525806006e0001db95d2","bdp_rd","Tue Mar 28 2023 20:31:26 GMT-0400 (Eastern Daylight Time)","1211287","","2733","","","","offer","","<div class='trialBorder'><div class='vertical-center'><img style='vertical-align:center; align:center' src=img/fixation3.jpg></div><div class='cl'><div class='vertical-center'>$25<br>for<br>sure</div></div><div class='cr'><div class='vertical-center'>$54<br>with a<br>50% chance</div></div><div class='respDivL'><div class='vertical-center'>(E)</div></div><div class='respDivR'><div class='vertical-center'>(I)</div></div></div>","I","$25","$54","0","25","54","RISKY"
"html-keyboard-response","87","1074525","0.0-5.0-3.27","5c5f525806006e0001db95d2","bdp_rd","Tue Mar 28 2023 20:31:26 GMT-0400 (Eastern Daylight Time)","1211287","","null","","","","offerFB","","<div class='trialBorder'><div class='vertical-center'><img style='vertical-align:center; align:center' src=img/fixation3.jpg></div><div class='cl'><div class='vertical-center'>$25<br>for<br>sure</div></div><div class='cr'><div class='vertical-center'><font style='color:orange'>$54<br>with a<br>50% chance</font></div></div><div class='respDivL'><div class='vertical-center'>(E)</div></div><div class='respDivR'><div class='vertical-center'><font style='color:orange'>(I)</font></div></div></div>","null","$25","$54","0","25","54",""
"html-keyboard-response","88","1075026","0.0-5.0-1.28","5c5f525806006e0001db95d2","bdp_rd","Tue Mar 28 2023 20:31:26 GMT-0400 (Eastern Daylight Time)","1211287","","null","","","","FIX","","<div class='trialBorder'><div class='vertical-center'><img style='vertical-align:center; align:center' src=img/fixation3.jpg></div></div>","null","","","","","",""
"html-keyboard-response","89","1076888","0.0-5.0-2.28","5c5f525806006e0001db95d2","bdp_rd","Tue Mar 28 2023 20:31:26 GMT-0400 (Eastern Daylight Time)","1211287","","1861","","","","offer","","<div class='trialBorder'><div class='vertical-center'><img style='vertical-align:center; align:center' src=img/fixation3.jpg></div><div class='cl'><div class='vertical-center'>$11<br>for<br>sure</div></div><div class='cr'><div class='vertical-center'>$26<br>with a<br>50% chance</div></div><div class='respDivL'><div class='vertical-center'>(E)</div></div><div class='respDivR'><div class='vertical-center'>(I)</div></div></div>","I","$11","$26","0","11","26","RISKY"
"html-keyboard-response","90","1077140","0.0-5.0-3.28","5c5f525806006e0001db95d2","bdp_rd","Tue Mar 28 2023 20:31:26 GMT-0400 (Eastern Daylight Time)","1211287","","null","","","","offerFB","","<div class='trialBorder'><div class='vertical-center'><img style='vertical-align:center; align:center' src=img/fixation3.jpg></div><div class='cl'><div class='vertical-center'>$11<br>for<br>sure</div></div><div class='cr'><div class='vertical-center'><font style='color:orange'>$26<br>with a<br>50% chance</font></div></div><div class='respDivL'><div class='vertical-center'>(E)</div></div><div class='respDivR'><div class='vertical-center'><font style='color:orange'>(I)</font></div></div></div>","null","$11","$26","0","11","26",""
"html-keyboard-response","91","1077643","0.0-5.0-1.29","5c5f525806006e0001db95d2","bdp_rd","Tue Mar 28 2023 20:31:26 GMT-0400 (Eastern Daylight Time)","1211287","","null","","","","FIX","","<div class='trialBorder'><div class='vertical-center'><img style='vertical-align:center; align:center' src=img/fixation3.jpg></div></div>","null","","","","","",""
"html-keyboard-response","92","1079420","0.0-5.0-2.29","5c5f525806006e0001db95d2","bdp_rd","Tue Mar 28 2023 20:31:26 GMT-0400 (Eastern Daylight Time)","1211287","","1777","","","","offer","","<div class='trialBorder'><div class='vertical-center'><img style='vertical-align:center; align:center' src=img/fixation3.jpg></div><div class='cl'><div class='vertical-center'>$16<br>for<br>sure</div></div><div class='cr'><div class='vertical-center'>$38<br>with a<br>50% chance</div></div><div class='respDivL'><div class='vertical-center'>(E)</div></div><div class='respDivR'><div class='vertical-center'>(I)</div></div></div>","I","$16","$38","0","16","38","RISKY"
"html-keyboard-response","93","1079672","0.0-5.0-3.29","5c5f525806006e0001db95d2","bdp_rd","Tue Mar 28 2023 20:31:26 GMT-0400 (Eastern Daylight Time)","1211287","","null","","","","offerFB","","<div class='trialBorder'><div class='vertical-center'><img style='vertical-align:center; align:center' src=img/fixation3.jpg></div><div class='cl'><div class='vertical-center'>$16<br>for<br>sure</div></div><div class='cr'><div class='vertical-center'><font style='color:orange'>$38<br>with a<br>50% chance</font></div></div><div class='respDivL'><div class='vertical-center'>(E)</div></div><div class='respDivR'><div class='vertical-center'><font style='color:orange'>(I)</font></div></div></div>","null","$16","$38","0","16","38",""
"html-keyboard-response","94","1080173","0.0-5.0-1.30","5c5f525806006e0001db95d2","bdp_rd","Tue Mar 28 2023 20:31:26 GMT-0400 (Eastern Daylight Time)","1211287","","null","","","","FIX","","<div class='trialBorder'><div class='vertical-center'><img style='vertical-align:center; align:center' src=img/fixation3.jpg></div></div>","null","","","","","",""
"html-keyboard-response","95","1081904","0.0-5.0-2.30","5c5f525806006e0001db95d2","bdp_rd","Tue Mar 28 2023 20:31:26 GMT-0400 (Eastern Daylight Time)","1211287","","1730","","","","offer","","<div class='trialBorder'><div class='vertical-center'><img style='vertical-align:center; align:center' src=img/fixation3.jpg></div><div class='cl'><div class='vertical-center'>$14<br>with a<br>50% chance</div></div><div class='cr'><div class='vertical-center'>$4<br>for<br>sure</div></div><div class='respDivL'><div class='vertical-center'>(E)</div></div><div class='respDivR'><div class='vertical-center'>(I)</div></div></div>","E","$4","$14","1","4","14","RISKY"
"html-keyboard-response","96","1082156","0.0-5.0-3.30","5c5f525806006e0001db95d2","bdp_rd","Tue Mar 28 2023 20:31:26 GMT-0400 (Eastern Daylight Time)","1211287","","null","","","","offerFB","","<div class='trialBorder'><div class='vertical-center'><img style='vertical-align:center; align:center' src=img/fixation3.jpg></div><div class='cl'><div class='vertical-center'><font style='color:orange'>$14<br>with a<br>50% chance</font></div></div><div class='cr'><div class='vertical-center'>$4<br>for<br>sure</div></div><div class='respDivL'><div class='vertical-center'><font style='color:orange'>(E)</font></div></div><div class='respDivR'><div class='vertical-center'>(I)</div></div></div>","null","$4","$14","1","4","14",""
"html-keyboard-response","97","1082658","0.0-5.0-1.31","5c5f525806006e0001db95d2","bdp_rd","Tue Mar 28 2023 20:31:26 GMT-0400 (Eastern Daylight Time)","1211287","","null","","","","FIX","","<div class='trialBorder'><div class='vertical-center'><img style='vertical-align:center; align:center' src=img/fixation3.jpg></div></div>","null","","","","","",""
"html-keyboard-response","98","1084976","0.0-5.0-2.31","5c5f525806006e0001db95d2","bdp_rd","Tue Mar 28 2023 20:31:26 GMT-0400 (Eastern Daylight Time)","1211287","","2317","","","","offer","","<div class='trialBorder'><div class='vertical-center'><img style='vertical-align:center; align:center' src=img/fixation3.jpg></div><div class='cl'><div class='vertical-center'>$73<br>with a<br>50% chance</div></div><div class='cr'><div class='vertical-center'>$42<br>for<br>sure</div></div><div class='respDivL'><div class='vertical-center'>(E)</div></div><div class='respDivR'><div class='vertical-center'>(I)</div></div></div>","I","$42","$73","1","42","73","SURE"
"html-keyboard-response","99","1085228","0.0-5.0-3.31","5c5f525806006e0001db95d2","bdp_rd","Tue Mar 28 2023 20:31:26 GMT-0400 (Eastern Daylight Time)","1211287","","null","","","","offerFB","","<div class='trialBorder'><div class='vertical-center'><img style='vertical-align:center; align:center' src=img/fixation3.jpg></div><div class='cl'><div class='vertical-center'>$73<br>with a<br>50% chance</div></div><div class='cr'><div class='vertical-center'><font style='color:orange'>$42<br>for<br>sure</font></div></div><div class='respDivL'><div class='vertical-center'>(E)</div></div><div class='respDivR'><div class='vertical-center'><font style='color:orange'>(I)</font></div></div></div>","null","$42","$73","1","42","73",""
"html-keyboard-response","100","1085729","0.0-5.0-1.32","5c5f525806006e0001db95d2","bdp_rd","Tue Mar 28 2023 20:31:26 GMT-0400 (Eastern Daylight Time)","1211287","","null","","","","FIX","","<div class='trialBorder'><div class='vertical-center'><img style='vertical-align:center; align:center' src=img/fixation3.jpg></div></div>","null","","","","","",""
"html-keyboard-response","101","1087572","0.0-5.0-2.32","5c5f525806006e0001db95d2","bdp_rd","Tue Mar 28 2023 20:31:26 GMT-0400 (Eastern Daylight Time)","1211287","","1841","","","","offer","","<div class='trialBorder'><div class='vertical-center'><img style='vertical-align:center; align:center' src=img/fixation3.jpg></div><div class='cl'><div class='vertical-center'>$1<br>for<br>sure</div></div><div class='cr'><div class='vertical-center'>$30<br>with a<br>50% chance</div></div><div class='respDivL'><div class='vertical-center'>(E)</div></div><div class='respDivR'><div class='vertical-center'>(I)</div></div></div>","I","$1","$30","0","1","30","RISKY"
"html-keyboard-response","102","1087824","0.0-5.0-3.32","5c5f525806006e0001db95d2","bdp_rd","Tue Mar 28 2023 20:31:26 GMT-0400 (Eastern Daylight Time)","1211287","","null","","","","offerFB","","<div class='trialBorder'><div class='vertical-center'><img style='vertical-align:center; align:center' src=img/fixation3.jpg></div><div class='cl'><div class='vertical-center'>$1<br>for<br>sure</div></div><div class='cr'><div class='vertical-center'><font style='color:orange'>$30<br>with a<br>50% chance</font></div></div><div class='respDivL'><div class='vertical-center'>(E)</div></div><div class='respDivR'><div class='vertical-center'><font style='color:orange'>(I)</font></div></div></div>","null","$1","$30","0","1","30",""
"html-keyboard-response","103","1088326","0.0-5.0-1.33","5c5f525806006e0001db95d2","bdp_rd","Tue Mar 28 2023 20:31:26 GMT-0400 (Eastern Daylight Time)","1211287","","null","","","","FIX","","<div class='trialBorder'><div class='vertical-center'><img style='vertical-align:center; align:center' src=img/fixation3.jpg></div></div>","null","","","","","",""
"html-keyboard-response","104","1090013","0.0-5.0-2.33","5c5f525806006e0001db95d2","bdp_rd","Tue Mar 28 2023 20:31:26 GMT-0400 (Eastern Daylight Time)","1211287","","1686","","","","offer","","<div class='trialBorder'><div class='vertical-center'><img style='vertical-align:center; align:center' src=img/fixation3.jpg></div><div class='cl'><div class='vertical-center'>$8<br>for<br>sure</div></div><div class='cr'><div class='vertical-center'>$23<br>with a<br>50% chance</div></div><div class='respDivL'><div class='vertical-center'>(E)</div></div><div class='respDivR'><div class='vertical-center'>(I)</div></div></div>","I","$8","$23","0","8","23","RISKY"
"html-keyboard-response","105","1090265","0.0-5.0-3.33","5c5f525806006e0001db95d2","bdp_rd","Tue Mar 28 2023 20:31:26 GMT-0400 (Eastern Daylight Time)","1211287","","null","","","","offerFB","","<div class='trialBorder'><div class='vertical-center'><img style='vertical-align:center; align:center' src=img/fixation3.jpg></div><div class='cl'><div class='vertical-center'>$8<br>for<br>sure</div></div><div class='cr'><div class='vertical-center'><font style='color:orange'>$23<br>with a<br>50% chance</font></div></div><div class='respDivL'><div class='vertical-center'>(E)</div></div><div class='respDivR'><div class='vertical-center'><font style='color:orange'>(I)</font></div></div></div>","null","$8","$23","0","8","23",""
"html-keyboard-response","106","1090766","0.0-5.0-1.34","5c5f525806006e0001db95d2","bdp_rd","Tue Mar 28 2023 20:31:26 GMT-0400 (Eastern Daylight Time)","1211287","","null","","","","FIX","","<div class='trialBorder'><div class='vertical-center'><img style='vertical-align:center; align:center' src=img/fixation3.jpg></div></div>","null","","","","","",""
"html-keyboard-response","107","1098235","0.0-5.0-2.34","5c5f525806006e0001db95d2","bdp_rd","Tue Mar 28 2023 20:31:26 GMT-0400 (Eastern Daylight Time)","1211287","","7468","","","","offer","","<div class='trialBorder'><div class='vertical-center'><img style='vertical-align:center; align:center' src=img/fixation3.jpg></div><div class='cl'><div class='vertical-center'>$16<br>with a<br>50% chance</div></div><div class='cr'><div class='vertical-center'>$5<br>for<br>sure</div></div><div class='respDivL'><div class='vertical-center'>(E)</div></div><div class='respDivR'><div class='vertical-center'>(I)</div></div></div>","E","$5","$16","1","5","16","RISKY"
"html-keyboard-response","108","1098487","0.0-5.0-3.34","5c5f525806006e0001db95d2","bdp_rd","Tue Mar 28 2023 20:31:26 GMT-0400 (Eastern Daylight Time)","1211287","","null","","","","offerFB","","<div class='trialBorder'><div class='vertical-center'><img style='vertical-align:center; align:center' src=img/fixation3.jpg></div><div class='cl'><div class='vertical-center'><font style='color:orange'>$16<br>with a<br>50% chance</font></div></div><div class='cr'><div class='vertical-center'>$5<br>for<br>sure</div></div><div class='respDivL'><div class='vertical-center'><font style='color:orange'>(E)</font></div></div><div class='respDivR'><div class='vertical-center'>(I)</div></div></div>","null","$5","$16","1","5","16",""
"html-keyboard-response","109","1098989","0.0-5.0-1.35","5c5f525806006e0001db95d2","bdp_rd","Tue Mar 28 2023 20:31:26 GMT-0400 (Eastern Daylight Time)","1211287","","null","","","","FIX","","<div class='trialBorder'><div class='vertical-center'><img style='vertical-align:center; align:center' src=img/fixation3.jpg></div></div>","null","","","","","",""
"html-keyboard-response","110","1100976","0.0-5.0-2.35","5c5f525806006e0001db95d2","bdp_rd","Tue Mar 28 2023 20:31:26 GMT-0400 (Eastern Daylight Time)","1211287","","1986","","","","offer","","<div class='trialBorder'><div class='vertical-center'><img style='vertical-align:center; align:center' src=img/fixation3.jpg></div><div class='cl'><div class='vertical-center'>$69<br>with a<br>50% chance</div></div><div class='cr'><div class='vertical-center'>$58<br>for<br>sure</div></div><div class='respDivL'><div class='vertical-center'>(E)</div></div><div class='respDivR'><div class='vertical-center'>(I)</div></div></div>","I","$58","$69","1","58","69","SURE"
"html-keyboard-response","111","1101228","0.0-5.0-3.35","5c5f525806006e0001db95d2","bdp_rd","Tue Mar 28 2023 20:31:26 GMT-0400 (Eastern Daylight Time)","1211287","","null","","","","offerFB","","<div class='trialBorder'><div class='vertical-center'><img style='vertical-align:center; align:center' src=img/fixation3.jpg></div><div class='cl'><div class='vertical-center'>$69<br>with a<br>50% chance</div></div><div class='cr'><div class='vertical-center'><font style='color:orange'>$58<br>for<br>sure</font></div></div><div class='respDivL'><div class='vertical-center'>(E)</div></div><div class='respDivR'><div class='vertical-center'><font style='color:orange'>(I)</font></div></div></div>","null","$58","$69","1","58","69",""
"html-keyboard-response","112","1101728","0.0-5.0-1.36","5c5f525806006e0001db95d2","bdp_rd","Tue Mar 28 2023 20:31:26 GMT-0400 (Eastern Daylight Time)","1211287","","null","","","","FIX","","<div class='trialBorder'><div class='vertical-center'><img style='vertical-align:center; align:center' src=img/fixation3.jpg></div></div>","null","","","","","",""
"html-keyboard-response","113","1104972","0.0-5.0-2.36","5c5f525806006e0001db95d2","bdp_rd","Tue Mar 28 2023 20:31:26 GMT-0400 (Eastern Daylight Time)","1211287","","3242","","","","offer","","<div class='trialBorder'><div class='vertical-center'><img style='vertical-align:center; align:center' src=img/fixation3.jpg></div><div class='cl'><div class='vertical-center'>$68<br>with a<br>50% chance</div></div><div class='cr'><div class='vertical-center'>$30<br>for<br>sure</div></div><div class='respDivL'><div class='vertical-center'>(E)</div></div><div class='respDivR'><div class='vertical-center'>(I)</div></div></div>","I","$30","$68","1","30","68","SURE"
"html-keyboard-response","114","1105224","0.0-5.0-3.36","5c5f525806006e0001db95d2","bdp_rd","Tue Mar 28 2023 20:31:26 GMT-0400 (Eastern Daylight Time)","1211287","","null","","","","offerFB","","<div class='trialBorder'><div class='vertical-center'><img style='vertical-align:center; align:center' src=img/fixation3.jpg></div><div class='cl'><div class='vertical-center'>$68<br>with a<br>50% chance</div></div><div class='cr'><div class='vertical-center'><font style='color:orange'>$30<br>for<br>sure</font></div></div><div class='respDivL'><div class='vertical-center'>(E)</div></div><div class='respDivR'><div class='vertical-center'><font style='color:orange'>(I)</font></div></div></div>","null","$30","$68","1","30","68",""
"html-keyboard-response","115","1105726","0.0-5.0-1.37","5c5f525806006e0001db95d2","bdp_rd","Tue Mar 28 2023 20:31:26 GMT-0400 (Eastern Daylight Time)","1211287","","null","","","","FIX","","<div class='trialBorder'><div class='vertical-center'><img style='vertical-align:center; align:center' src=img/fixation3.jpg></div></div>","null","","","","","",""
"html-keyboard-response","116","1109451","0.0-5.0-2.37","5c5f525806006e0001db95d2","bdp_rd","Tue Mar 28 2023 20:31:26 GMT-0400 (Eastern Daylight Time)","1211287","","3723","","","","offer","","<div class='trialBorder'><div class='vertical-center'><img style='vertical-align:center; align:center' src=img/fixation3.jpg></div><div class='cl'><div class='vertical-center'>$28<br>for<br>sure</div></div><div class='cr'><div class='vertical-center'>$89<br>with a<br>50% chance</div></div><div class='respDivL'><div class='vertical-center'>(E)</div></div><div class='respDivR'><div class='vertical-center'>(I)</div></div></div>","I","$28","$89","0","28","89","RISKY"
"html-keyboard-response","117","1109702","0.0-5.0-3.37","5c5f525806006e0001db95d2","bdp_rd","Tue Mar 28 2023 20:31:26 GMT-0400 (Eastern Daylight Time)","1211287","","null","","","","offerFB","","<div class='trialBorder'><div class='vertical-center'><img style='vertical-align:center; align:center' src=img/fixation3.jpg></div><div class='cl'><div class='vertical-center'>$28<br>for<br>sure</div></div><div class='cr'><div class='vertical-center'><font style='color:orange'>$89<br>with a<br>50% chance</font></div></div><div class='respDivL'><div class='vertical-center'>(E)</div></div><div class='respDivR'><div class='vertical-center'><font style='color:orange'>(I)</font></div></div></div>","null","$28","$89","0","28","89",""
"html-keyboard-response","118","1110204","0.0-5.0-1.38","5c5f525806006e0001db95d2","bdp_rd","Tue Mar 28 2023 20:31:26 GMT-0400 (Eastern Daylight Time)","1211287","","null","","","","FIX","","<div class='trialBorder'><div class='vertical-center'><img style='vertical-align:center; align:center' src=img/fixation3.jpg></div></div>","null","","","","","",""
"html-keyboard-response","119","1119988","0.0-5.0-2.38","5c5f525806006e0001db95d2","bdp_rd","Tue Mar 28 2023 20:31:26 GMT-0400 (Eastern Daylight Time)","1211287","","9783","","","","offer","","<div class='trialBorder'><div class='vertical-center'><img style='vertical-align:center; align:center' src=img/fixation3.jpg></div><div class='cl'><div class='vertical-center'>$5<br>for<br>sure</div></div><div class='cr'><div class='vertical-center'>$50<br>with a<br>50% chance</div></div><div class='respDivL'><div class='vertical-center'>(E)</div></div><div class='respDivR'><div class='vertical-center'>(I)</div></div></div>","I","$5","$50","0","5","50","RISKY"
"html-keyboard-response","120","1120241","0.0-5.0-3.38","5c5f525806006e0001db95d2","bdp_rd","Tue Mar 28 2023 20:31:26 GMT-0400 (Eastern Daylight Time)","1211287","","null","","","","offerFB","","<div class='trialBorder'><div class='vertical-center'><img style='vertical-align:center; align:center' src=img/fixation3.jpg></div><div class='cl'><div class='vertical-center'>$5<br>for<br>sure</div></div><div class='cr'><div class='vertical-center'><font style='color:orange'>$50<br>with a<br>50% chance</font></div></div><div class='respDivL'><div class='vertical-center'>(E)</div></div><div class='respDivR'><div class='vertical-center'><font style='color:orange'>(I)</font></div></div></div>","null","$5","$50","0","5","50",""
"html-keyboard-response","121","1120742","0.0-5.0-1.39","5c5f525806006e0001db95d2","bdp_rd","Tue Mar 28 2023 20:31:26 GMT-0400 (Eastern Daylight Time)","1211287","","null","","","","FIX","","<div class='trialBorder'><div class='vertical-center'><img style='vertical-align:center; align:center' src=img/fixation3.jpg></div></div>","null","","","","","",""
"html-keyboard-response","122","1123228","0.0-5.0-2.39","5c5f525806006e0001db95d2","bdp_rd","Tue Mar 28 2023 20:31:26 GMT-0400 (Eastern Daylight Time)","1211287","","2485","","","","offer","","<div class='trialBorder'><div class='vertical-center'><img style='vertical-align:center; align:center' src=img/fixation3.jpg></div><div class='cl'><div class='vertical-center'>$22<br>for<br>sure</div></div><div class='cr'><div class='vertical-center'>$42<br>with a<br>50% chance</div></div><div class='respDivL'><div class='vertical-center'>(E)</div></div><div class='respDivR'><div class='vertical-center'>(I)</div></div></div>","I","$22","$42","0","22","42","RISKY"
"html-keyboard-response","123","1123480","0.0-5.0-3.39","5c5f525806006e0001db95d2","bdp_rd","Tue Mar 28 2023 20:31:26 GMT-0400 (Eastern Daylight Time)","1211287","","null","","","","offerFB","","<div class='trialBorder'><div class='vertical-center'><img style='vertical-align:center; align:center' src=img/fixation3.jpg></div><div class='cl'><div class='vertical-center'>$22<br>for<br>sure</div></div><div class='cr'><div class='vertical-center'><font style='color:orange'>$42<br>with a<br>50% chance</font></div></div><div class='respDivL'><div class='vertical-center'>(E)</div></div><div class='respDivR'><div class='vertical-center'><font style='color:orange'>(I)</font></div></div></div>","null","$22","$42","0","22","42",""
"html-keyboard-response","124","1123981","0.0-5.0-1.40","5c5f525806006e0001db95d2","bdp_rd","Tue Mar 28 2023 20:31:26 GMT-0400 (Eastern Daylight Time)","1211287","","null","","","","FIX","","<div class='trialBorder'><div class='vertical-center'><img style='vertical-align:center; align:center' src=img/fixation3.jpg></div></div>","null","","","","","",""
"html-keyboard-response","125","1132999","0.0-5.0-2.40","5c5f525806006e0001db95d2","bdp_rd","Tue Mar 28 2023 20:31:26 GMT-0400 (Eastern Daylight Time)","1211287","","9016","","","","offer","","<div class='trialBorder'><div class='vertical-center'><img style='vertical-align:center; align:center' src=img/fixation3.jpg></div><div class='cl'><div class='vertical-center'>$95<br>with a<br>50% chance</div></div><div class='cr'><div class='vertical-center'>$40<br>for<br>sure</div></div><div class='respDivL'><div class='vertical-center'>(E)</div></div><div class='respDivR'><div class='vertical-center'>(I)</div></div></div>","E","$40","$95","1","40","95","RISKY"
"html-keyboard-response","126","1133251","0.0-5.0-3.40","5c5f525806006e0001db95d2","bdp_rd","Tue Mar 28 2023 20:31:26 GMT-0400 (Eastern Daylight Time)","1211287","","null","","","","offerFB","","<div class='trialBorder'><div class='vertical-center'><img style='vertical-align:center; align:center' src=img/fixation3.jpg></div><div class='cl'><div class='vertical-center'><font style='color:orange'>$95<br>with a<br>50% chance</font></div></div><div class='cr'><div class='vertical-center'>$40<br>for<br>sure</div></div><div class='respDivL'><div class='vertical-center'><font style='color:orange'>(E)</font></div></div><div class='respDivR'><div class='vertical-center'>(I)</div></div></div>","null","$40","$95","1","40","95",""
"html-keyboard-response","127","1133752","0.0-5.0-1.41","5c5f525806006e0001db95d2","bdp_rd","Tue Mar 28 2023 20:31:26 GMT-0400 (Eastern Daylight Time)","1211287","","null","","","","FIX","","<div class='trialBorder'><div class='vertical-center'><img style='vertical-align:center; align:center' src=img/fixation3.jpg></div></div>","null","","","","","",""
"html-keyboard-response","128","1135578","0.0-5.0-2.41","5c5f525806006e0001db95d2","bdp_rd","Tue Mar 28 2023 20:31:26 GMT-0400 (Eastern Daylight Time)","1211287","","1825","","","","offer","","<div class='trialBorder'><div class='vertical-center'><img style='vertical-align:center; align:center' src=img/fixation3.jpg></div><div class='cl'><div class='vertical-center'>$4<br>for<br>sure</div></div><div class='cr'><div class='vertical-center'>$11<br>with a<br>50% chance</div></div><div class='respDivL'><div class='vertical-center'>(E)</div></div><div class='respDivR'><div class='vertical-center'>(I)</div></div></div>","I","$4","$11","0","4","11","RISKY"
"html-keyboard-response","129","1135830","0.0-5.0-3.41","5c5f525806006e0001db95d2","bdp_rd","Tue Mar 28 2023 20:31:26 GMT-0400 (Eastern Daylight Time)","1211287","","null","","","","offerFB","","<div class='trialBorder'><div class='vertical-center'><img style='vertical-align:center; align:center' src=img/fixation3.jpg></div><div class='cl'><div class='vertical-center'>$4<br>for<br>sure</div></div><div class='cr'><div class='vertical-center'><font style='color:orange'>$11<br>with a<br>50% chance</font></div></div><div class='respDivL'><div class='vertical-center'>(E)</div></div><div class='respDivR'><div class='vertical-center'><font style='color:orange'>(I)</font></div></div></div>","null","$4","$11","0","4","11",""
"html-keyboard-response","130","1136332","0.0-5.0-1.42","5c5f525806006e0001db95d2","bdp_rd","Tue Mar 28 2023 20:31:26 GMT-0400 (Eastern Daylight Time)","1211287","","null","","","","FIX","","<div class='trialBorder'><div class='vertical-center'><img style='vertical-align:center; align:center' src=img/fixation3.jpg></div></div>","null","","","","","",""
"html-keyboard-response","131","1137730","0.0-5.0-2.42","5c5f525806006e0001db95d2","bdp_rd","Tue Mar 28 2023 20:31:26 GMT-0400 (Eastern Daylight Time)","1211287","","1397","","","","offer","","<div class='trialBorder'><div class='vertical-center'><img style='vertical-align:center; align:center' src=img/fixation3.jpg></div><div class='cl'><div class='vertical-center'>$17<br>with a<br>50% chance</div></div><div class='cr'><div class='vertical-center'>$3<br>for<br>sure</div></div><div class='respDivL'><div class='vertical-center'>(E)</div></div><div class='respDivR'><div class='vertical-center'>(I)</div></div></div>","E","$3","$17","1","3","17","RISKY"
"html-keyboard-response","132","1137982","0.0-5.0-3.42","5c5f525806006e0001db95d2","bdp_rd","Tue Mar 28 2023 20:31:26 GMT-0400 (Eastern Daylight Time)","1211287","","null","","","","offerFB","","<div class='trialBorder'><div class='vertical-center'><img style='vertical-align:center; align:center' src=img/fixation3.jpg></div><div class='cl'><div class='vertical-center'><font style='color:orange'>$17<br>with a<br>50% chance</font></div></div><div class='cr'><div class='vertical-center'>$3<br>for<br>sure</div></div><div class='respDivL'><div class='vertical-center'><font style='color:orange'>(E)</font></div></div><div class='respDivR'><div class='vertical-center'>(I)</div></div></div>","null","$3","$17","1","3","17",""
"html-keyboard-response","133","1138485","0.0-5.0-1.43","5c5f525806006e0001db95d2","bdp_rd","Tue Mar 28 2023 20:31:26 GMT-0400 (Eastern Daylight Time)","1211287","","null","","","","FIX","","<div class='trialBorder'><div class='vertical-center'><img style='vertical-align:center; align:center' src=img/fixation3.jpg></div></div>","null","","","","","",""
"html-keyboard-response","134","1139720","0.0-5.0-2.43","5c5f525806006e0001db95d2","bdp_rd","Tue Mar 28 2023 20:31:26 GMT-0400 (Eastern Daylight Time)","1211287","","1233","","","","offer","","<div class='trialBorder'><div class='vertical-center'><img style='vertical-align:center; align:center' src=img/fixation3.jpg></div><div class='cl'><div class='vertical-center'>$3<br>for<br>sure</div></div><div class='cr'><div class='vertical-center'>$12<br>with a<br>50% chance</div></div><div class='respDivL'><div class='vertical-center'>(E)</div></div><div class='respDivR'><div class='vertical-center'>(I)</div></div></div>","I","$3","$12","0","3","12","RISKY"
"html-keyboard-response","135","1139971","0.0-5.0-3.43","5c5f525806006e0001db95d2","bdp_rd","Tue Mar 28 2023 20:31:26 GMT-0400 (Eastern Daylight Time)","1211287","","null","","","","offerFB","","<div class='trialBorder'><div class='vertical-center'><img style='vertical-align:center; align:center' src=img/fixation3.jpg></div><div class='cl'><div class='vertical-center'>$3<br>for<br>sure</div></div><div class='cr'><div class='vertical-center'><font style='color:orange'>$12<br>with a<br>50% chance</font></div></div><div class='respDivL'><div class='vertical-center'>(E)</div></div><div class='respDivR'><div class='vertical-center'><font style='color:orange'>(I)</font></div></div></div>","null","$3","$12","0","3","12",""
"html-keyboard-response","136","1140473","0.0-5.0-1.44","5c5f525806006e0001db95d2","bdp_rd","Tue Mar 28 2023 20:31:26 GMT-0400 (Eastern Daylight Time)","1211287","","null","","","","FIX","","<div class='trialBorder'><div class='vertical-center'><img style='vertical-align:center; align:center' src=img/fixation3.jpg></div></div>","null","","","","","",""
"html-keyboard-response","137","1141822","0.0-5.0-2.44","5c5f525806006e0001db95d2","bdp_rd","Tue Mar 28 2023 20:31:26 GMT-0400 (Eastern Daylight Time)","1211287","","1348","","","","offer","","<div class='trialBorder'><div class='vertical-center'><img style='vertical-align:center; align:center' src=img/fixation3.jpg></div><div class='cl'><div class='vertical-center'>$14<br>for<br>sure</div></div><div class='cr'><div class='vertical-center'>$29<br>with a<br>50% chance</div></div><div class='respDivL'><div class='vertical-center'>(E)</div></div><div class='respDivR'><div class='vertical-center'>(I)</div></div></div>","I","$14","$29","0","14","29","RISKY"
"html-keyboard-response","138","1142076","0.0-5.0-3.44","5c5f525806006e0001db95d2","bdp_rd","Tue Mar 28 2023 20:31:26 GMT-0400 (Eastern Daylight Time)","1211287","","null","","","","offerFB","","<div class='trialBorder'><div class='vertical-center'><img style='vertical-align:center; align:center' src=img/fixation3.jpg></div><div class='cl'><div class='vertical-center'>$14<br>for<br>sure</div></div><div class='cr'><div class='vertical-center'><font style='color:orange'>$29<br>with a<br>50% chance</font></div></div><div class='respDivL'><div class='vertical-center'>(E)</div></div><div class='respDivR'><div class='vertical-center'><font style='color:orange'>(I)</font></div></div></div>","null","$14","$29","0","14","29",""
"html-keyboard-response","139","1142578","0.0-5.0-1.45","5c5f525806006e0001db95d2","bdp_rd","Tue Mar 28 2023 20:31:26 GMT-0400 (Eastern Daylight Time)","1211287","","null","","","","FIX","","<div class='trialBorder'><div class='vertical-center'><img style='vertical-align:center; align:center' src=img/fixation3.jpg></div></div>","null","","","","","",""
"html-keyboard-response","140","1145379","0.0-5.0-2.45","5c5f525806006e0001db95d2","bdp_rd","Tue Mar 28 2023 20:31:26 GMT-0400 (Eastern Daylight Time)","1211287","","2800","","","","offer","","<div class='trialBorder'><div class='vertical-center'><img style='vertical-align:center; align:center' src=img/fixation3.jpg></div><div class='cl'><div class='vertical-center'>$47<br>with a<br>50% chance</div></div><div class='cr'><div class='vertical-center'>$27<br>for<br>sure</div></div><div class='respDivL'><div class='vertical-center'>(E)</div></div><div class='respDivR'><div class='vertical-center'>(I)</div></div></div>","E","$27","$47","1","27","47","RISKY"
"html-keyboard-response","141","1145631","0.0-5.0-3.45","5c5f525806006e0001db95d2","bdp_rd","Tue Mar 28 2023 20:31:26 GMT-0400 (Eastern Daylight Time)","1211287","","null","","","","offerFB","","<div class='trialBorder'><div class='vertical-center'><img style='vertical-align:center; align:center' src=img/fixation3.jpg></div><div class='cl'><div class='vertical-center'><font style='color:orange'>$47<br>with a<br>50% chance</font></div></div><div class='cr'><div class='vertical-center'>$27<br>for<br>sure</div></div><div class='respDivL'><div class='vertical-center'><font style='color:orange'>(E)</font></div></div><div class='respDivR'><div class='vertical-center'>(I)</div></div></div>","null","$27","$47","1","27","47",""
"html-keyboard-response","142","1146133","0.0-5.0-1.46","5c5f525806006e0001db95d2","bdp_rd","Tue Mar 28 2023 20:31:26 GMT-0400 (Eastern Daylight Time)","1211287","","null","","","","FIX","","<div class='trialBorder'><div class='vertical-center'><img style='vertical-align:center; align:center' src=img/fixation3.jpg></div></div>","null","","","","","",""
"html-keyboard-response","143","1147656","0.0-5.0-2.46","5c5f525806006e0001db95d2","bdp_rd","Tue Mar 28 2023 20:31:26 GMT-0400 (Eastern Daylight Time)","1211287","","1522","","","","offer","","<div class='trialBorder'><div class='vertical-center'><img style='vertical-align:center; align:center' src=img/fixation3.jpg></div><div class='cl'><div class='vertical-center'>$10<br>with a<br>50% chance</div></div><div class='cr'><div class='vertical-center'>$7<br>for<br>sure</div></div><div class='respDivL'><div class='vertical-center'>(E)</div></div><div class='respDivR'><div class='vertical-center'>(I)</div></div></div>","E","$7","$10","1","7","10","RISKY"
"html-keyboard-response","144","1147909","0.0-5.0-3.46","5c5f525806006e0001db95d2","bdp_rd","Tue Mar 28 2023 20:31:26 GMT-0400 (Eastern Daylight Time)","1211287","","null","","","","offerFB","","<div class='trialBorder'><div class='vertical-center'><img style='vertical-align:center; align:center' src=img/fixation3.jpg></div><div class='cl'><div class='vertical-center'><font style='color:orange'>$10<br>with a<br>50% chance</font></div></div><div class='cr'><div class='vertical-center'>$7<br>for<br>sure</div></div><div class='respDivL'><div class='vertical-center'><font style='color:orange'>(E)</font></div></div><div class='respDivR'><div class='vertical-center'>(I)</div></div></div>","null","$7","$10","1","7","10",""
"html-keyboard-response","145","1148411","0.0-5.0-1.47","5c5f525806006e0001db95d2","bdp_rd","Tue Mar 28 2023 20:31:26 GMT-0400 (Eastern Daylight Time)","1211287","","null","","","","FIX","","<div class='trialBorder'><div class='vertical-center'><img style='vertical-align:center; align:center' src=img/fixation3.jpg></div></div>","null","","","","","",""
"html-keyboard-response","146","1149820","0.0-5.0-2.47","5c5f525806006e0001db95d2","bdp_rd","Tue Mar 28 2023 20:31:26 GMT-0400 (Eastern Daylight Time)","1211287","","1407","","","","offer","","<div class='trialBorder'><div class='vertical-center'><img style='vertical-align:center; align:center' src=img/fixation3.jpg></div><div class='cl'><div class='vertical-center'>$41<br>with a<br>50% chance</div></div><div class='cr'><div class='vertical-center'>$13<br>for<br>sure</div></div><div class='respDivL'><div class='vertical-center'>(E)</div></div><div class='respDivR'><div class='vertical-center'>(I)</div></div></div>","E","$13","$41","1","13","41","RISKY"
"html-keyboard-response","147","1150072","0.0-5.0-3.47","5c5f525806006e0001db95d2","bdp_rd","Tue Mar 28 2023 20:31:26 GMT-0400 (Eastern Daylight Time)","1211287","","null","","","","offerFB","","<div class='trialBorder'><div class='vertical-center'><img style='vertical-align:center; align:center' src=img/fixation3.jpg></div><div class='cl'><div class='vertical-center'><font style='color:orange'>$41<br>with a<br>50% chance</font></div></div><div class='cr'><div class='vertical-center'>$13<br>for<br>sure</div></div><div class='respDivL'><div class='vertical-center'><font style='color:orange'>(E)</font></div></div><div class='respDivR'><div class='vertical-center'>(I)</div></div></div>","null","$13","$41","1","13","41",""
"html-keyboard-response","148","1150574","0.0-5.0-1.48","5c5f525806006e0001db95d2","bdp_rd","Tue Mar 28 2023 20:31:26 GMT-0400 (Eastern Daylight Time)","1211287","","null","","","","FIX","","<div class='trialBorder'><div class='vertical-center'><img style='vertical-align:center; align:center' src=img/fixation3.jpg></div></div>","null","","","","","",""
"html-keyboard-response","149","1152577","0.0-5.0-2.48","5c5f525806006e0001db95d2","bdp_rd","Tue Mar 28 2023 20:31:26 GMT-0400 (Eastern Daylight Time)","1211287","","2001","","","","offer","","<div class='trialBorder'><div class='vertical-center'><img style='vertical-align:center; align:center' src=img/fixation3.jpg></div><div class='cl'><div class='vertical-center'>$37<br>for<br>sure</div></div><div class='cr'><div class='vertical-center'>$44<br>with a<br>50% chance</div></div><div class='respDivL'><div class='vertical-center'>(E)</div></div><div class='respDivR'><div class='vertical-center'>(I)</div></div></div>","I","$37","$44","0","37","44","RISKY"
"html-keyboard-response","150","1152828","0.0-5.0-3.48","5c5f525806006e0001db95d2","bdp_rd","Tue Mar 28 2023 20:31:26 GMT-0400 (Eastern Daylight Time)","1211287","","null","","","","offerFB","","<div class='trialBorder'><div class='vertical-center'><img style='vertical-align:center; align:center' src=img/fixation3.jpg></div><div class='cl'><div class='vertical-center'>$37<br>for<br>sure</div></div><div class='cr'><div class='vertical-center'><font style='color:orange'>$44<br>with a<br>50% chance</font></div></div><div class='respDivL'><div class='vertical-center'>(E)</div></div><div class='respDivR'><div class='vertical-center'><font style='color:orange'>(I)</font></div></div></div>","null","$37","$44","0","37","44",""
"html-keyboard-response","151","1153330","0.0-5.0-1.49","5c5f525806006e0001db95d2","bdp_rd","Tue Mar 28 2023 20:31:26 GMT-0400 (Eastern Daylight Time)","1211287","","null","","","","FIX","","<div class='trialBorder'><div class='vertical-center'><img style='vertical-align:center; align:center' src=img/fixation3.jpg></div></div>","null","","","","","",""
"html-keyboard-response","152","1155095","0.0-5.0-2.49","5c5f525806006e0001db95d2","bdp_rd","Tue Mar 28 2023 20:31:26 GMT-0400 (Eastern Daylight Time)","1211287","","1764","","","","offer","","<div class='trialBorder'><div class='vertical-center'><img style='vertical-align:center; align:center' src=img/fixation3.jpg></div><div class='cl'><div class='vertical-center'>$28<br>with a<br>50% chance</div></div><div class='cr'><div class='vertical-center'>$16<br>for<br>sure</div></div><div class='respDivL'><div class='vertical-center'>(E)</div></div><div class='respDivR'><div class='vertical-center'>(I)</div></div></div>","I","$16","$28","1","16","28","SURE"
"html-keyboard-response","153","1155348","0.0-5.0-3.49","5c5f525806006e0001db95d2","bdp_rd","Tue Mar 28 2023 20:31:26 GMT-0400 (Eastern Daylight Time)","1211287","","null","","","","offerFB","","<div class='trialBorder'><div class='vertical-center'><img style='vertical-align:center; align:center' src=img/fixation3.jpg></div><div class='cl'><div class='vertical-center'>$28<br>with a<br>50% chance</div></div><div class='cr'><div class='vertical-center'><font style='color:orange'>$16<br>for<br>sure</font></div></div><div class='respDivL'><div class='vertical-center'>(E)</div></div><div class='respDivR'><div class='vertical-center'><font style='color:orange'>(I)</font></div></div></div>","null","$16","$28","1","16","28",""
"html-keyboard-response","154","1155850","0.0-5.0-1.50","5c5f525806006e0001db95d2","bdp_rd","Tue Mar 28 2023 20:31:26 GMT-0400 (Eastern Daylight Time)","1211287","","null","","","","FIX","","<div class='trialBorder'><div class='vertical-center'><img style='vertical-align:center; align:center' src=img/fixation3.jpg></div></div>","null","","","","","",""
"html-keyboard-response","155","1158737","0.0-5.0-2.50","5c5f525806006e0001db95d2","bdp_rd","Tue Mar 28 2023 20:31:26 GMT-0400 (Eastern Daylight Time)","1211287","","2887","","","","offer","","<div class='trialBorder'><div class='vertical-center'><img style='vertical-align:center; align:center' src=img/fixation3.jpg></div><div class='cl'><div class='vertical-center'>$71<br>with a<br>50% chance</div></div><div class='cr'><div class='vertical-center'>$7<br>for<br>sure</div></div><div class='respDivL'><div class='vertical-center'>(E)</div></div><div class='respDivR'><div class='vertical-center'>(I)</div></div></div>","E","$7","$71","1","7","71","RISKY"
"html-keyboard-response","156","1158990","0.0-5.0-3.50","5c5f525806006e0001db95d2","bdp_rd","Tue Mar 28 2023 20:31:26 GMT-0400 (Eastern Daylight Time)","1211287","","null","","","","offerFB","","<div class='trialBorder'><div class='vertical-center'><img style='vertical-align:center; align:center' src=img/fixation3.jpg></div><div class='cl'><div class='vertical-center'><font style='color:orange'>$71<br>with a<br>50% chance</font></div></div><div class='cr'><div class='vertical-center'>$7<br>for<br>sure</div></div><div class='respDivL'><div class='vertical-center'><font style='color:orange'>(E)</font></div></div><div class='respDivR'><div class='vertical-center'>(I)</div></div></div>","null","$7","$71","1","7","71",""
"html-keyboard-response","157","1159491","0.0-5.0-1.51","5c5f525806006e0001db95d2","bdp_rd","Tue Mar 28 2023 20:31:26 GMT-0400 (Eastern Daylight Time)","1211287","","null","","","","FIX","","<div class='trialBorder'><div class='vertical-center'><img style='vertical-align:center; align:center' src=img/fixation3.jpg></div></div>","null","","","","","",""
"html-keyboard-response","158","1160592","0.0-5.0-2.51","5c5f525806006e0001db95d2","bdp_rd","Tue Mar 28 2023 20:31:26 GMT-0400 (Eastern Daylight Time)","1211287","","1100","","","","offer","","<div class='trialBorder'><div class='vertical-center'><img style='vertical-align:center; align:center' src=img/fixation3.jpg></div><div class='cl'><div class='vertical-center'>$1<br>for<br>sure</div></div><div class='cr'><div class='vertical-center'>$33<br>with a<br>50% chance</div></div><div class='respDivL'><div class='vertical-center'>(E)</div></div><div class='respDivR'><div class='vertical-center'>(I)</div></div></div>","I","$1","$33","0","1","33","RISKY"
"html-keyboard-response","159","1160844","0.0-5.0-3.51","5c5f525806006e0001db95d2","bdp_rd","Tue Mar 28 2023 20:31:26 GMT-0400 (Eastern Daylight Time)","1211287","","null","","","","offerFB","","<div class='trialBorder'><div class='vertical-center'><img style='vertical-align:center; align:center' src=img/fixation3.jpg></div><div class='cl'><div class='vertical-center'>$1<br>for<br>sure</div></div><div class='cr'><div class='vertical-center'><font style='color:orange'>$33<br>with a<br>50% chance</font></div></div><div class='respDivL'><div class='vertical-center'>(E)</div></div><div class='respDivR'><div class='vertical-center'><font style='color:orange'>(I)</font></div></div></div>","null","$1","$33","0","1","33",""
"html-keyboard-response","160","1161346","0.0-5.0-1.52","5c5f525806006e0001db95d2","bdp_rd","Tue Mar 28 2023 20:31:26 GMT-0400 (Eastern Daylight Time)","1211287","","null","","","","FIX","","<div class='trialBorder'><div class='vertical-center'><img style='vertical-align:center; align:center' src=img/fixation3.jpg></div></div>","null","","","","","",""
"html-keyboard-response","161","1164092","0.0-5.0-2.52","5c5f525806006e0001db95d2","bdp_rd","Tue Mar 28 2023 20:31:26 GMT-0400 (Eastern Daylight Time)","1211287","","2745","","","","offer","","<div class='trialBorder'><div class='vertical-center'><img style='vertical-align:center; align:center' src=img/fixation3.jpg></div><div class='cl'><div class='vertical-center'>$22<br>for<br>sure</div></div><div class='cr'><div class='vertical-center'>$59<br>with a<br>50% chance</div></div><div class='respDivL'><div class='vertical-center'>(E)</div></div><div class='respDivR'><div class='vertical-center'>(I)</div></div></div>","I","$22","$59","0","22","59","RISKY"
"html-keyboard-response","162","1164344","0.0-5.0-3.52","5c5f525806006e0001db95d2","bdp_rd","Tue Mar 28 2023 20:31:26 GMT-0400 (Eastern Daylight Time)","1211287","","null","","","","offerFB","","<div class='trialBorder'><div class='vertical-center'><img style='vertical-align:center; align:center' src=img/fixation3.jpg></div><div class='cl'><div class='vertical-center'>$22<br>for<br>sure</div></div><div class='cr'><div class='vertical-center'><font style='color:orange'>$59<br>with a<br>50% chance</font></div></div><div class='respDivL'><div class='vertical-center'>(E)</div></div><div class='respDivR'><div class='vertical-center'><font style='color:orange'>(I)</font></div></div></div>","null","$22","$59","0","22","59",""
"html-keyboard-response","163","1164846","0.0-5.0-1.53","5c5f525806006e0001db95d2","bdp_rd","Tue Mar 28 2023 20:31:26 GMT-0400 (Eastern Daylight Time)","1211287","","null","","","","FIX","","<div class='trialBorder'><div class='vertical-center'><img style='vertical-align:center; align:center' src=img/fixation3.jpg></div></div>","null","","","","","",""
"html-keyboard-response","164","1168108","0.0-5.0-2.53","5c5f525806006e0001db95d2","bdp_rd","Tue Mar 28 2023 20:31:26 GMT-0400 (Eastern Daylight Time)","1211287","","3261","","","","offer","","<div class='trialBorder'><div class='vertical-center'><img style='vertical-align:center; align:center' src=img/fixation3.jpg></div><div class='cl'><div class='vertical-center'>$34<br>with a<br>50% chance</div></div><div class='cr'><div class='vertical-center'>$15<br>for<br>sure</div></div><div class='respDivL'><div class='vertical-center'>(E)</div></div><div class='respDivR'><div class='vertical-center'>(I)</div></div></div>","E","$15","$34","1","15","34","RISKY"
"html-keyboard-response","165","1168360","0.0-5.0-3.53","5c5f525806006e0001db95d2","bdp_rd","Tue Mar 28 2023 20:31:26 GMT-0400 (Eastern Daylight Time)","1211287","","null","","","","offerFB","","<div class='trialBorder'><div class='vertical-center'><img style='vertical-align:center; align:center' src=img/fixation3.jpg></div><div class='cl'><div class='vertical-center'><font style='color:orange'>$34<br>with a<br>50% chance</font></div></div><div class='cr'><div class='vertical-center'>$15<br>for<br>sure</div></div><div class='respDivL'><div class='vertical-center'><font style='color:orange'>(E)</font></div></div><div class='respDivR'><div class='vertical-center'>(I)</div></div></div>","null","$15","$34","1","15","34",""
"html-keyboard-response","166","1168861","0.0-5.0-1.54","5c5f525806006e0001db95d2","bdp_rd","Tue Mar 28 2023 20:31:26 GMT-0400 (Eastern Daylight Time)","1211287","","null","","","","FIX","","<div class='trialBorder'><div class='vertical-center'><img style='vertical-align:center; align:center' src=img/fixation3.jpg></div></div>","null","","","","","",""
"html-keyboard-response","167","1170327","0.0-5.0-2.54","5c5f525806006e0001db95d2","bdp_rd","Tue Mar 28 2023 20:31:26 GMT-0400 (Eastern Daylight Time)","1211287","","1464","","","","offer","","<div class='trialBorder'><div class='vertical-center'><img style='vertical-align:center; align:center' src=img/fixation3.jpg></div><div class='cl'><div class='vertical-center'>$40<br>with a<br>50% chance</div></div><div class='cr'><div class='vertical-center'>$10<br>for<br>sure</div></div><div class='respDivL'><div class='vertical-center'>(E)</div></div><div class='respDivR'><div class='vertical-center'>(I)</div></div></div>","E","$10","$40","1","10","40","RISKY"
"html-keyboard-response","168","1170579","0.0-5.0-3.54","5c5f525806006e0001db95d2","bdp_rd","Tue Mar 28 2023 20:31:26 GMT-0400 (Eastern Daylight Time)","1211287","","null","","","","offerFB","","<div class='trialBorder'><div class='vertical-center'><img style='vertical-align:center; align:center' src=img/fixation3.jpg></div><div class='cl'><div class='vertical-center'><font style='color:orange'>$40<br>with a<br>50% chance</font></div></div><div class='cr'><div class='vertical-center'>$10<br>for<br>sure</div></div><div class='respDivL'><div class='vertical-center'><font style='color:orange'>(E)</font></div></div><div class='respDivR'><div class='vertical-center'>(I)</div></div></div>","null","$10","$40","1","10","40",""
"html-keyboard-response","169","1171081","0.0-5.0-1.55","5c5f525806006e0001db95d2","bdp_rd","Tue Mar 28 2023 20:31:26 GMT-0400 (Eastern Daylight Time)","1211287","","null","","","","FIX","","<div class='trialBorder'><div class='vertical-center'><img style='vertical-align:center; align:center' src=img/fixation3.jpg></div></div>","null","","","","","",""
"html-keyboard-response","170","1172457","0.0-5.0-2.55","5c5f525806006e0001db95d2","bdp_rd","Tue Mar 28 2023 20:31:26 GMT-0400 (Eastern Daylight Time)","1211287","","1374","","","","offer","","<div class='trialBorder'><div class='vertical-center'><img style='vertical-align:center; align:center' src=img/fixation3.jpg></div><div class='cl'><div class='vertical-center'>$25<br>with a<br>50% chance</div></div><div class='cr'><div class='vertical-center'>$21<br>for<br>sure</div></div><div class='respDivL'><div class='vertical-center'>(E)</div></div><div class='respDivR'><div class='vertical-center'>(I)</div></div></div>","I","$21","$25","1","21","25","SURE"
"html-keyboard-response","171","1172709","0.0-5.0-3.55","5c5f525806006e0001db95d2","bdp_rd","Tue Mar 28 2023 20:31:26 GMT-0400 (Eastern Daylight Time)","1211287","","null","","","","offerFB","","<div class='trialBorder'><div class='vertical-center'><img style='vertical-align:center; align:center' src=img/fixation3.jpg></div><div class='cl'><div class='vertical-center'>$25<br>with a<br>50% chance</div></div><div class='cr'><div class='vertical-center'><font style='color:orange'>$21<br>for<br>sure</font></div></div><div class='respDivL'><div class='vertical-center'>(E)</div></div><div class='respDivR'><div class='vertical-center'><font style='color:orange'>(I)</font></div></div></div>","null","$21","$25","1","21","25",""
"html-keyboard-response","172","1173211","0.0-5.0-1.56","5c5f525806006e0001db95d2","bdp_rd","Tue Mar 28 2023 20:31:26 GMT-0400 (Eastern Daylight Time)","1211287","","null","","","","FIX","","<div class='trialBorder'><div class='vertical-center'><img style='vertical-align:center; align:center' src=img/fixation3.jpg></div></div>","null","","","","","",""
"html-keyboard-response","173","1174529","0.0-5.0-2.56","5c5f525806006e0001db95d2","bdp_rd","Tue Mar 28 2023 20:31:26 GMT-0400 (Eastern Daylight Time)","1211287","","1316","","","","offer","","<div class='trialBorder'><div class='vertical-center'><img style='vertical-align:center; align:center' src=img/fixation3.jpg></div><div class='cl'><div class='vertical-center'>$53<br>for<br>sure</div></div><div class='cr'><div class='vertical-center'>$98<br>with a<br>50% chance</div></div><div class='respDivL'><div class='vertical-center'>(E)</div></div><div class='respDivR'><div class='vertical-center'>(I)</div></div></div>","I","$53","$98","0","53","98","RISKY"
