"trial_type","trial_index","time_elapsed","internal_node_id","subject_id","task","startTime","totalTime","view_history","rt","event","trial","time","trialtype","success","stimulus","key_press","sureOffer","riskyOffer","riskyLeft","sureAmt","riskyAmt","chosen"
"pavlovia","0","2","0.0-0.0","63210b26bd58960c97b47ddc","bdp_rd","Thu Apr 13 2023 11:30:20 GMT+0100 (British Summer Time)","326278","","","","","","","","","","","","","","",""
"instructions","1","54064","0.0-1.0","63210b26bd58960c97b47ddc","bdp_rd","Thu Apr 13 2023 11:30:20 GMT+0100 (British Summer Time)","326278","[{""page_index"":0,""viewing_time"":54062}]","54062","","","","","","","","","","","","",""
"","","","","63210b26bd58960c97b47ddc","bdp_rd","Thu Apr 13 2023 11:30:20 GMT+0100 (British Summer Time)","326278","","","fullscreenenter","2","56119","fullscreenenter","","","","","","","","",""
"fullscreen","2","57086","0.0-2.0","63210b26bd58960c97b47ddc","bdp_rd","Thu Apr 13 2023 11:30:20 GMT+0100 (British Summer Time)","326278","","","","","","","true","","","","","","","",""
"instructions","3","170935","0.0-4.0","63210b26bd58960c97b47ddc","bdp_rd","Thu Apr 13 2023 11:30:20 GMT+0100 (British Summer Time)","326278","[{""page_index"":0,""viewing_time"":94603},{""page_index"":1,""viewing_time"":10507},{""page_index"":2,""viewing_time"":8738}]","113848","","","","","","","","","","","","",""
"html-keyboard-response","4","171436","0.0-5.0-1.0","63210b26bd58960c97b47ddc","bdp_rd","Thu Apr 13 2023 11:30:20 GMT+0100 (British Summer Time)","326278","","null","","","","FIX","","<div class='trialBorder'><div class='vertical-center'><img style='vertical-align:center; align:center' src=img/fixation3.jpg></div></div>","null","","","","","",""
"html-keyboard-response","5","174421","0.0-5.0-2.0","63210b26bd58960c97b47ddc","bdp_rd","Thu Apr 13 2023 11:30:20 GMT+0100 (British Summer Time)","326278","","2984","","","","offer","","<div class='trialBorder'><div class='vertical-center'><img style='vertical-align:center; align:center' src=img/fixation3.jpg></div><div class='cl'><div class='vertical-center'>$59<br>with a<br>50% chance</div></div><div class='cr'><div class='vertical-center'>$22<br>for<br>sure</div></div><div class='respDivL'><div class='vertical-center'>(E)</div></div><div class='respDivR'><div class='vertical-center'>(I)</div></div></div>","E","$22","$59","1","22","59","RISKY"
"html-keyboard-response","6","174673","0.0-5.0-3.0","63210b26bd58960c97b47ddc","bdp_rd","Thu Apr 13 2023 11:30:20 GMT+0100 (British Summer Time)","326278","","null","","","","offerFB","","<div class='trialBorder'><div class='vertical-center'><img style='vertical-align:center; align:center' src=img/fixation3.jpg></div><div class='cl'><div class='vertical-center'><font style='color:orange'>$59<br>with a<br>50% chance</font></div></div><div class='cr'><div class='vertical-center'>$22<br>for<br>sure</div></div><div class='respDivL'><div class='vertical-center'><font style='color:orange'>(E)</font></div></div><div class='respDivR'><div class='vertical-center'>(I)</div></div></div>","null","$22","$59","1","22","59",""
"html-keyboard-response","7","175174","0.0-5.0-1.1","63210b26bd58960c97b47ddc","bdp_rd","Thu Apr 13 2023 11:30:20 GMT+0100 (British Summer Time)","326278","","null","","","","FIX","","<div class='trialBorder'><div class='vertical-center'><img style='vertical-align:center; align:center' src=img/fixation3.jpg></div></div>","null","","","","","",""
"html-keyboard-response","8","176996","0.0-5.0-2.1","63210b26bd58960c97b47ddc","bdp_rd","Thu Apr 13 2023 11:30:20 GMT+0100 (British Summer Time)","326278","","1821","","","","offer","","<div class='trialBorder'><div class='vertical-center'><img style='vertical-align:center; align:center' src=img/fixation3.jpg></div><div class='cl'><div class='vertical-center'>$50<br>with a<br>50% chance</div></div><div class='cr'><div class='vertical-center'>$5<br>for<br>sure</div></div><div class='respDivL'><div class='vertical-center'>(E)</div></div><div class='respDivR'><div class='vertical-center'>(I)</div></div></div>","E","$5","$50","1","5","50","RISKY"
"html-keyboard-response","9","177248","0.0-5.0-3.1","63210b26bd58960c97b47ddc","bdp_rd","Thu Apr 13 2023 11:30:20 GMT+0100 (British Summer Time)","326278","","null","","","","offerFB","","<div class='trialBorder'><div class='vertical-center'><img style='vertical-align:center; align:center' src=img/fixation3.jpg></div><div class='cl'><div class='vertical-center'><font style='color:orange'>$50<br>with a<br>50% chance</font></div></div><div class='cr'><div class='vertical-center'>$5<br>for<br>sure</div></div><div class='respDivL'><div class='vertical-center'><font style='color:orange'>(E)</font></div></div><div class='respDivR'><div class='vertical-center'>(I)</div></div></div>","null","$5","$50","1","5","50",""
"html-keyboard-response","10","177750","0.0-5.0-1.2","63210b26bd58960c97b47ddc","bdp_rd","Thu Apr 13 2023 11:30:20 GMT+0100 (British Summer Time)","326278","","null","","","","FIX","","<div class='trialBorder'><div class='vertical-center'><img style='vertical-align:center; align:center' src=img/fixation3.jpg></div></div>","null","","","","","",""
"html-keyboard-response","11","180128","0.0-5.0-2.2","63210b26bd58960c97b47ddc","bdp_rd","Thu Apr 13 2023 11:30:20 GMT+0100 (British Summer Time)","326278","","2377","","","","offer","","<div class='trialBorder'><div class='vertical-center'><img style='vertical-align:center; align:center' src=img/fixation3.jpg></div><div class='cl'><div class='vertical-center'>$36<br>with a<br>50% chance</div></div><div class='cr'><div class='vertical-center'>$18<br>for<br>sure</div></div><div class='respDivL'><div class='vertical-center'>(E)</div></div><div class='respDivR'><div class='vertical-center'>(I)</div></div></div>","E","$18","$36","1","18","36","RISKY"
"html-keyboard-response","12","180380","0.0-5.0-3.2","63210b26bd58960c97b47ddc","bdp_rd","Thu Apr 13 2023 11:30:20 GMT+0100 (British Summer Time)","326278","","null","","","","offerFB","","<div class='trialBorder'><div class='vertical-center'><img style='vertical-align:center; align:center' src=img/fixation3.jpg></div><div class='cl'><div class='vertical-center'><font style='color:orange'>$36<br>with a<br>50% chance</font></div></div><div class='cr'><div class='vertical-center'>$18<br>for<br>sure</div></div><div class='respDivL'><div class='vertical-center'><font style='color:orange'>(E)</font></div></div><div class='respDivR'><div class='vertical-center'>(I)</div></div></div>","null","$18","$36","1","18","36",""
"html-keyboard-response","13","180882","0.0-5.0-1.3","63210b26bd58960c97b47ddc","bdp_rd","Thu Apr 13 2023 11:30:20 GMT+0100 (British Summer Time)","326278","","null","","","","FIX","","<div class='trialBorder'><div class='vertical-center'><img style='vertical-align:center; align:center' src=img/fixation3.jpg></div></div>","null","","","","","",""
"html-keyboard-response","14","183534","0.0-5.0-2.3","63210b26bd58960c97b47ddc","bdp_rd","Thu Apr 13 2023 11:30:20 GMT+0100 (British Summer Time)","326278","","2652","","","","offer","","<div class='trialBorder'><div class='vertical-center'><img style='vertical-align:center; align:center' src=img/fixation3.jpg></div><div class='cl'><div class='vertical-center'>$15<br>with a<br>50% chance</div></div><div class='cr'><div class='vertical-center'>$6<br>for<br>sure</div></div><div class='respDivL'><div class='vertical-center'>(E)</div></div><div class='respDivR'><div class='vertical-center'>(I)</div></div></div>","I","$6","$15","1","6","15","SURE"
"html-keyboard-response","15","183786","0.0-5.0-3.3","63210b26bd58960c97b47ddc","bdp_rd","Thu Apr 13 2023 11:30:20 GMT+0100 (British Summer Time)","326278","","null","","","","offerFB","","<div class='trialBorder'><div class='vertical-center'><img style='vertical-align:center; align:center' src=img/fixation3.jpg></div><div class='cl'><div class='vertical-center'>$15<br>with a<br>50% chance</div></div><div class='cr'><div class='vertical-center'><font style='color:orange'>$6<br>for<br>sure</font></div></div><div class='respDivL'><div class='vertical-center'>(E)</div></div><div class='respDivR'><div class='vertical-center'><font style='color:orange'>(I)</font></div></div></div>","null","$6","$15","1","6","15",""
"html-keyboard-response","16","184287","0.0-5.0-1.4","63210b26bd58960c97b47ddc","bdp_rd","Thu Apr 13 2023 11:30:20 GMT+0100 (British Summer Time)","326278","","null","","","","FIX","","<div class='trialBorder'><div class='vertical-center'><img style='vertical-align:center; align:center' src=img/fixation3.jpg></div></div>","null","","","","","",""
"html-keyboard-response","17","187740","0.0-5.0-2.4","63210b26bd58960c97b47ddc","bdp_rd","Thu Apr 13 2023 11:30:20 GMT+0100 (British Summer Time)","326278","","3453","","","","offer","","<div class='trialBorder'><div class='vertical-center'><img style='vertical-align:center; align:center' src=img/fixation3.jpg></div><div class='cl'><div class='vertical-center'>$26<br>with a<br>50% chance</div></div><div class='cr'><div class='vertical-center'>$11<br>for<br>sure</div></div><div class='respDivL'><div class='vertical-center'>(E)</div></div><div class='respDivR'><div class='vertical-center'>(I)</div></div></div>","E","$11","$26","1","11","26","RISKY"
"html-keyboard-response","18","187992","0.0-5.0-3.4","63210b26bd58960c97b47ddc","bdp_rd","Thu Apr 13 2023 11:30:20 GMT+0100 (British Summer Time)","326278","","null","","","","offerFB","","<div class='trialBorder'><div class='vertical-center'><img style='vertical-align:center; align:center' src=img/fixation3.jpg></div><div class='cl'><div class='vertical-center'><font style='color:orange'>$26<br>with a<br>50% chance</font></div></div><div class='cr'><div class='vertical-center'>$11<br>for<br>sure</div></div><div class='respDivL'><div class='vertical-center'><font style='color:orange'>(E)</font></div></div><div class='respDivR'><div class='vertical-center'>(I)</div></div></div>","null","$11","$26","1","11","26",""
"html-keyboard-response","19","188494","0.0-5.0-1.5","63210b26bd58960c97b47ddc","bdp_rd","Thu Apr 13 2023 11:30:20 GMT+0100 (British Summer Time)","326278","","null","","","","FIX","","<div class='trialBorder'><div class='vertical-center'><img style='vertical-align:center; align:center' src=img/fixation3.jpg></div></div>","null","","","","","",""
"html-keyboard-response","20","189868","0.0-5.0-2.5","63210b26bd58960c97b47ddc","bdp_rd","Thu Apr 13 2023 11:30:20 GMT+0100 (British Summer Time)","326278","","1374","","","","offer","","<div class='trialBorder'><div class='vertical-center'><img style='vertical-align:center; align:center' src=img/fixation3.jpg></div><div class='cl'><div class='vertical-center'>$38<br>with a<br>50% chance</div></div><div class='cr'><div class='vertical-center'>$16<br>for<br>sure</div></div><div class='respDivL'><div class='vertical-center'>(E)</div></div><div class='respDivR'><div class='vertical-center'>(I)</div></div></div>","E","$16","$38","1","16","38","RISKY"
"html-keyboard-response","21","190120","0.0-5.0-3.5","63210b26bd58960c97b47ddc","bdp_rd","Thu Apr 13 2023 11:30:20 GMT+0100 (British Summer Time)","326278","","null","","","","offerFB","","<div class='trialBorder'><div class='vertical-center'><img style='vertical-align:center; align:center' src=img/fixation3.jpg></div><div class='cl'><div class='vertical-center'><font style='color:orange'>$38<br>with a<br>50% chance</font></div></div><div class='cr'><div class='vertical-center'>$16<br>for<br>sure</div></div><div class='respDivL'><div class='vertical-center'><font style='color:orange'>(E)</font></div></div><div class='respDivR'><div class='vertical-center'>(I)</div></div></div>","null","$16","$38","1","16","38",""
"html-keyboard-response","22","190622","0.0-5.0-1.6","63210b26bd58960c97b47ddc","bdp_rd","Thu Apr 13 2023 11:30:20 GMT+0100 (British Summer Time)","326278","","null","","","","FIX","","<div class='trialBorder'><div class='vertical-center'><img style='vertical-align:center; align:center' src=img/fixation3.jpg></div></div>","null","","","","","",""
"html-keyboard-response","23","193578","0.0-5.0-2.6","63210b26bd58960c97b47ddc","bdp_rd","Thu Apr 13 2023 11:30:20 GMT+0100 (British Summer Time)","326278","","2955","","","","offer","","<div class='trialBorder'><div class='vertical-center'><img style='vertical-align:center; align:center' src=img/fixation3.jpg></div><div class='cl'><div class='vertical-center'>$18<br>with a<br>50% chance</div></div><div class='cr'><div class='vertical-center'>$9<br>for<br>sure</div></div><div class='respDivL'><div class='vertical-center'>(E)</div></div><div class='respDivR'><div class='vertical-center'>(I)</div></div></div>","I","$9","$18","1","9","18","SURE"
"html-keyboard-response","24","193829","0.0-5.0-3.6","63210b26bd58960c97b47ddc","bdp_rd","Thu Apr 13 2023 11:30:20 GMT+0100 (British Summer Time)","326278","","null","","","","offerFB","","<div class='trialBorder'><div class='vertical-center'><img style='vertical-align:center; align:center' src=img/fixation3.jpg></div><div class='cl'><div class='vertical-center'>$18<br>with a<br>50% chance</div></div><div class='cr'><div class='vertical-center'><font style='color:orange'>$9<br>for<br>sure</font></div></div><div class='respDivL'><div class='vertical-center'>(E)</div></div><div class='respDivR'><div class='vertical-center'><font style='color:orange'>(I)</font></div></div></div>","null","$9","$18","1","9","18",""
"html-keyboard-response","25","194332","0.0-5.0-1.7","63210b26bd58960c97b47ddc","bdp_rd","Thu Apr 13 2023 11:30:20 GMT+0100 (British Summer Time)","326278","","null","","","","FIX","","<div class='trialBorder'><div class='vertical-center'><img style='vertical-align:center; align:center' src=img/fixation3.jpg></div></div>","null","","","","","",""
"html-keyboard-response","26","196003","0.0-5.0-2.7","63210b26bd58960c97b47ddc","bdp_rd","Thu Apr 13 2023 11:30:20 GMT+0100 (British Summer Time)","326278","","1671","","","","offer","","<div class='trialBorder'><div class='vertical-center'><img style='vertical-align:center; align:center' src=img/fixation3.jpg></div><div class='cl'><div class='vertical-center'>$39<br>with a<br>50% chance</div></div><div class='cr'><div class='vertical-center'>$18<br>for<br>sure</div></div><div class='respDivL'><div class='vertical-center'>(E)</div></div><div class='respDivR'><div class='vertical-center'>(I)</div></div></div>","E","$18","$39","1","18","39","RISKY"
"html-keyboard-response","27","196254","0.0-5.0-3.7","63210b26bd58960c97b47ddc","bdp_rd","Thu Apr 13 2023 11:30:20 GMT+0100 (British Summer Time)","326278","","null","","","","offerFB","","<div class='trialBorder'><div class='vertical-center'><img style='vertical-align:center; align:center' src=img/fixation3.jpg></div><div class='cl'><div class='vertical-center'><font style='color:orange'>$39<br>with a<br>50% chance</font></div></div><div class='cr'><div class='vertical-center'>$18<br>for<br>sure</div></div><div class='respDivL'><div class='vertical-center'><font style='color:orange'>(E)</font></div></div><div class='respDivR'><div class='vertical-center'>(I)</div></div></div>","null","$18","$39","1","18","39",""
"html-keyboard-response","28","196756","0.0-5.0-1.8","63210b26bd58960c97b47ddc","bdp_rd","Thu Apr 13 2023 11:30:20 GMT+0100 (British Summer Time)","326278","","null","","","","FIX","","<div class='trialBorder'><div class='vertical-center'><img style='vertical-align:center; align:center' src=img/fixation3.jpg></div></div>","null","","","","","",""
"html-keyboard-response","29","198166","0.0-5.0-2.8","63210b26bd58960c97b47ddc","bdp_rd","Thu Apr 13 2023 11:30:20 GMT+0100 (British Summer Time)","326278","","1410","","","","offer","","<div class='trialBorder'><div class='vertical-center'><img style='vertical-align:center; align:center' src=img/fixation3.jpg></div><div class='cl'><div class='vertical-center'>$40<br>for<br>sure</div></div><div class='cr'><div class='vertical-center'>$95<br>with a<br>50% chance</div></div><div class='respDivL'><div class='vertical-center'>(E)</div></div><div class='respDivR'><div class='vertical-center'>(I)</div></div></div>","I","$40","$95","0","40","95","RISKY"
"html-keyboard-response","30","198417","0.0-5.0-3.8","63210b26bd58960c97b47ddc","bdp_rd","Thu Apr 13 2023 11:30:20 GMT+0100 (British Summer Time)","326278","","null","","","","offerFB","","<div class='trialBorder'><div class='vertical-center'><img style='vertical-align:center; align:center' src=img/fixation3.jpg></div><div class='cl'><div class='vertical-center'>$40<br>for<br>sure</div></div><div class='cr'><div class='vertical-center'><font style='color:orange'>$95<br>with a<br>50% chance</font></div></div><div class='respDivL'><div class='vertical-center'>(E)</div></div><div class='respDivR'><div class='vertical-center'><font style='color:orange'>(I)</font></div></div></div>","null","$40","$95","0","40","95",""
"html-keyboard-response","31","198919","0.0-5.0-1.9","63210b26bd58960c97b47ddc","bdp_rd","Thu Apr 13 2023 11:30:20 GMT+0100 (British Summer Time)","326278","","null","","","","FIX","","<div class='trialBorder'><div class='vertical-center'><img style='vertical-align:center; align:center' src=img/fixation3.jpg></div></div>","null","","","","","",""
"html-keyboard-response","32","200530","0.0-5.0-2.9","63210b26bd58960c97b47ddc","bdp_rd","Thu Apr 13 2023 11:30:20 GMT+0100 (British Summer Time)","326278","","1611","","","","offer","","<div class='trialBorder'><div class='vertical-center'><img style='vertical-align:center; align:center' src=img/fixation3.jpg></div><div class='cl'><div class='vertical-center'>$34<br>with a<br>50% chance</div></div><div class='cr'><div class='vertical-center'>$15<br>for<br>sure</div></div><div class='respDivL'><div class='vertical-center'>(E)</div></div><div class='respDivR'><div class='vertical-center'>(I)</div></div></div>","E","$15","$34","1","15","34","RISKY"
"html-keyboard-response","33","200781","0.0-5.0-3.9","63210b26bd58960c97b47ddc","bdp_rd","Thu Apr 13 2023 11:30:20 GMT+0100 (British Summer Time)","326278","","null","","","","offerFB","","<div class='trialBorder'><div class='vertical-center'><img style='vertical-align:center; align:center' src=img/fixation3.jpg></div><div class='cl'><div class='vertical-center'><font style='color:orange'>$34<br>with a<br>50% chance</font></div></div><div class='cr'><div class='vertical-center'>$15<br>for<br>sure</div></div><div class='respDivL'><div class='vertical-center'><font style='color:orange'>(E)</font></div></div><div class='respDivR'><div class='vertical-center'>(I)</div></div></div>","null","$15","$34","1","15","34",""
"html-keyboard-response","34","201282","0.0-5.0-1.10","63210b26bd58960c97b47ddc","bdp_rd","Thu Apr 13 2023 11:30:20 GMT+0100 (British Summer Time)","326278","","null","","","","FIX","","<div class='trialBorder'><div class='vertical-center'><img style='vertical-align:center; align:center' src=img/fixation3.jpg></div></div>","null","","","","","",""
"html-keyboard-response","35","203702","0.0-5.0-2.10","63210b26bd58960c97b47ddc","bdp_rd","Thu Apr 13 2023 11:30:20 GMT+0100 (British Summer Time)","326278","","2419","","","","offer","","<div class='trialBorder'><div class='vertical-center'><img style='vertical-align:center; align:center' src=img/fixation3.jpg></div><div class='cl'><div class='vertical-center'>$21<br>for<br>sure</div></div><div class='cr'><div class='vertical-center'>$25<br>with a<br>50% chance</div></div><div class='respDivL'><div class='vertical-center'>(E)</div></div><div class='respDivR'><div class='vertical-center'>(I)</div></div></div>","E","$21","$25","0","21","25","SURE"
"html-keyboard-response","36","203954","0.0-5.0-3.10","63210b26bd58960c97b47ddc","bdp_rd","Thu Apr 13 2023 11:30:20 GMT+0100 (British Summer Time)","326278","","null","","","","offerFB","","<div class='trialBorder'><div class='vertical-center'><img style='vertical-align:center; align:center' src=img/fixation3.jpg></div><div class='cl'><div class='vertical-center'><font style='color:orange'>$21<br>for<br>sure</font></div></div><div class='cr'><div class='vertical-center'>$25<br>with a<br>50% chance</div></div><div class='respDivL'><div class='vertical-center'><font style='color:orange'>(E)</font></div></div><div class='respDivR'><div class='vertical-center'>(I)</div></div></div>","null","$21","$25","0","21","25",""
"html-keyboard-response","37","204456","0.0-5.0-1.11","63210b26bd58960c97b47ddc","bdp_rd","Thu Apr 13 2023 11:30:20 GMT+0100 (British Summer Time)","326278","","null","","","","FIX","","<div class='trialBorder'><div class='vertical-center'><img style='vertical-align:center; align:center' src=img/fixation3.jpg></div></div>","null","","","","","",""
"html-keyboard-response","38","207357","0.0-5.0-2.11","63210b26bd58960c97b47ddc","bdp_rd","Thu Apr 13 2023 11:30:20 GMT+0100 (British Summer Time)","326278","","2901","","","","offer","","<div class='trialBorder'><div class='vertical-center'><img style='vertical-align:center; align:center' src=img/fixation3.jpg></div><div class='cl'><div class='vertical-center'>$9<br>for<br>sure</div></div><div class='cr'><div class='vertical-center'>$32<br>with a<br>50% chance</div></div><div class='respDivL'><div class='vertical-center'>(E)</div></div><div class='respDivR'><div class='vertical-center'>(I)</div></div></div>","I","$9","$32","0","9","32","RISKY"
"html-keyboard-response","39","207609","0.0-5.0-3.11","63210b26bd58960c97b47ddc","bdp_rd","Thu Apr 13 2023 11:30:20 GMT+0100 (British Summer Time)","326278","","null","","","","offerFB","","<div class='trialBorder'><div class='vertical-center'><img style='vertical-align:center; align:center' src=img/fixation3.jpg></div><div class='cl'><div class='vertical-center'>$9<br>for<br>sure</div></div><div class='cr'><div class='vertical-center'><font style='color:orange'>$32<br>with a<br>50% chance</font></div></div><div class='respDivL'><div class='vertical-center'>(E)</div></div><div class='respDivR'><div class='vertical-center'><font style='color:orange'>(I)</font></div></div></div>","null","$9","$32","0","9","32",""
"html-keyboard-response","40","208111","0.0-5.0-1.12","63210b26bd58960c97b47ddc","bdp_rd","Thu Apr 13 2023 11:30:20 GMT+0100 (British Summer Time)","326278","","null","","","","FIX","","<div class='trialBorder'><div class='vertical-center'><img style='vertical-align:center; align:center' src=img/fixation3.jpg></div></div>","null","","","","","",""
"html-keyboard-response","41","210019","0.0-5.0-2.12","63210b26bd58960c97b47ddc","bdp_rd","Thu Apr 13 2023 11:30:20 GMT+0100 (British Summer Time)","326278","","1907","","","","offer","","<div class='trialBorder'><div class='vertical-center'><img style='vertical-align:center; align:center' src=img/fixation3.jpg></div><div class='cl'><div class='vertical-center'>$1<br>for<br>sure</div></div><div class='cr'><div class='vertical-center'>$33<br>with a<br>50% chance</div></div><div class='respDivL'><div class='vertical-center'>(E)</div></div><div class='respDivR'><div class='vertical-center'>(I)</div></div></div>","I","$1","$33","0","1","33","RISKY"
"html-keyboard-response","42","210270","0.0-5.0-3.12","63210b26bd58960c97b47ddc","bdp_rd","Thu Apr 13 2023 11:30:20 GMT+0100 (British Summer Time)","326278","","null","","","","offerFB","","<div class='trialBorder'><div class='vertical-center'><img style='vertical-align:center; align:center' src=img/fixation3.jpg></div><div class='cl'><div class='vertical-center'>$1<br>for<br>sure</div></div><div class='cr'><div class='vertical-center'><font style='color:orange'>$33<br>with a<br>50% chance</font></div></div><div class='respDivL'><div class='vertical-center'>(E)</div></div><div class='respDivR'><div class='vertical-center'><font style='color:orange'>(I)</font></div></div></div>","null","$1","$33","0","1","33",""
"html-keyboard-response","43","210772","0.0-5.0-1.13","63210b26bd58960c97b47ddc","bdp_rd","Thu Apr 13 2023 11:30:20 GMT+0100 (British Summer Time)","326278","","null","","","","FIX","","<div class='trialBorder'><div class='vertical-center'><img style='vertical-align:center; align:center' src=img/fixation3.jpg></div></div>","null","","","","","",""
"html-keyboard-response","44","212313","0.0-5.0-2.13","63210b26bd58960c97b47ddc","bdp_rd","Thu Apr 13 2023 11:30:20 GMT+0100 (British Summer Time)","326278","","1540","","","","offer","","<div class='trialBorder'><div class='vertical-center'><img style='vertical-align:center; align:center' src=img/fixation3.jpg></div><div class='cl'><div class='vertical-center'>$31<br>for<br>sure</div></div><div class='cr'><div class='vertical-center'>$78<br>with a<br>50% chance</div></div><div class='respDivL'><div class='vertical-center'>(E)</div></div><div class='respDivR'><div class='vertical-center'>(I)</div></div></div>","I","$31","$78","0","31","78","RISKY"
"html-keyboard-response","45","212565","0.0-5.0-3.13","63210b26bd58960c97b47ddc","bdp_rd","Thu Apr 13 2023 11:30:20 GMT+0100 (British Summer Time)","326278","","null","","","","offerFB","","<div class='trialBorder'><div class='vertical-center'><img style='vertical-align:center; align:center' src=img/fixation3.jpg></div><div class='cl'><div class='vertical-center'>$31<br>for<br>sure</div></div><div class='cr'><div class='vertical-center'><font style='color:orange'>$78<br>with a<br>50% chance</font></div></div><div class='respDivL'><div class='vertical-center'>(E)</div></div><div class='respDivR'><div class='vertical-center'><font style='color:orange'>(I)</font></div></div></div>","null","$31","$78","0","31","78",""
"html-keyboard-response","46","213066","0.0-5.0-1.14","63210b26bd58960c97b47ddc","bdp_rd","Thu Apr 13 2023 11:30:20 GMT+0100 (British Summer Time)","326278","","null","","","","FIX","","<div class='trialBorder'><div class='vertical-center'><img style='vertical-align:center; align:center' src=img/fixation3.jpg></div></div>","null","","","","","",""
"html-keyboard-response","47","215065","0.0-5.0-2.14","63210b26bd58960c97b47ddc","bdp_rd","Thu Apr 13 2023 11:30:20 GMT+0100 (British Summer Time)","326278","","1999","","","","offer","","<div class='trialBorder'><div class='vertical-center'><img style='vertical-align:center; align:center' src=img/fixation3.jpg></div><div class='cl'><div class='vertical-center'>$27<br>for<br>sure</div></div><div class='cr'><div class='vertical-center'>$47<br>with a<br>50% chance</div></div><div class='respDivL'><div class='vertical-center'>(E)</div></div><div class='respDivR'><div class='vertical-center'>(I)</div></div></div>","I","$27","$47","0","27","47","RISKY"
"html-keyboard-response","48","215317","0.0-5.0-3.14","63210b26bd58960c97b47ddc","bdp_rd","Thu Apr 13 2023 11:30:20 GMT+0100 (British Summer Time)","326278","","null","","","","offerFB","","<div class='trialBorder'><div class='vertical-center'><img style='vertical-align:center; align:center' src=img/fixation3.jpg></div><div class='cl'><div class='vertical-center'>$27<br>for<br>sure</div></div><div class='cr'><div class='vertical-center'><font style='color:orange'>$47<br>with a<br>50% chance</font></div></div><div class='respDivL'><div class='vertical-center'>(E)</div></div><div class='respDivR'><div class='vertical-center'><font style='color:orange'>(I)</font></div></div></div>","null","$27","$47","0","27","47",""
"html-keyboard-response","49","215818","0.0-5.0-1.15","63210b26bd58960c97b47ddc","bdp_rd","Thu Apr 13 2023 11:30:20 GMT+0100 (British Summer Time)","326278","","null","","","","FIX","","<div class='trialBorder'><div class='vertical-center'><img style='vertical-align:center; align:center' src=img/fixation3.jpg></div></div>","null","","","","","",""
"html-keyboard-response","50","219341","0.0-5.0-2.15","63210b26bd58960c97b47ddc","bdp_rd","Thu Apr 13 2023 11:30:20 GMT+0100 (British Summer Time)","326278","","3522","","","","offer","","<div class='trialBorder'><div class='vertical-center'><img style='vertical-align:center; align:center' src=img/fixation3.jpg></div><div class='cl'><div class='vertical-center'>$28<br>with a<br>50% chance</div></div><div class='cr'><div class='vertical-center'>$16<br>for<br>sure</div></div><div class='respDivL'><div class='vertical-center'>(E)</div></div><div class='respDivR'><div class='vertical-center'>(I)</div></div></div>","E","$16","$28","1","16","28","RISKY"
"html-keyboard-response","51","219593","0.0-5.0-3.15","63210b26bd58960c97b47ddc","bdp_rd","Thu Apr 13 2023 11:30:20 GMT+0100 (British Summer Time)","326278","","null","","","","offerFB","","<div class='trialBorder'><div class='vertical-center'><img style='vertical-align:center; align:center' src=img/fixation3.jpg></div><div class='cl'><div class='vertical-center'><font style='color:orange'>$28<br>with a<br>50% chance</font></div></div><div class='cr'><div class='vertical-center'>$16<br>for<br>sure</div></div><div class='respDivL'><div class='vertical-center'><font style='color:orange'>(E)</font></div></div><div class='respDivR'><div class='vertical-center'>(I)</div></div></div>","null","$16","$28","1","16","28",""
"html-keyboard-response","52","220094","0.0-5.0-1.16","63210b26bd58960c97b47ddc","bdp_rd","Thu Apr 13 2023 11:30:20 GMT+0100 (British Summer Time)","326278","","null","","","","FIX","","<div class='trialBorder'><div class='vertical-center'><img style='vertical-align:center; align:center' src=img/fixation3.jpg></div></div>","null","","","","","",""
"html-keyboard-response","53","221580","0.0-5.0-2.16","63210b26bd58960c97b47ddc","bdp_rd","Thu Apr 13 2023 11:30:20 GMT+0100 (British Summer Time)","326278","","1485","","","","offer","","<div class='trialBorder'><div class='vertical-center'><img style='vertical-align:center; align:center' src=img/fixation3.jpg></div><div class='cl'><div class='vertical-center'>$30<br>for<br>sure</div></div><div class='cr'><div class='vertical-center'>$68<br>with a<br>50% chance</div></div><div class='respDivL'><div class='vertical-center'>(E)</div></div><div class='respDivR'><div class='vertical-center'>(I)</div></div></div>","I","$30","$68","0","30","68","RISKY"
"html-keyboard-response","54","221832","0.0-5.0-3.16","63210b26bd58960c97b47ddc","bdp_rd","Thu Apr 13 2023 11:30:20 GMT+0100 (British Summer Time)","326278","","null","","","","offerFB","","<div class='trialBorder'><div class='vertical-center'><img style='vertical-align:center; align:center' src=img/fixation3.jpg></div><div class='cl'><div class='vertical-center'>$30<br>for<br>sure</div></div><div class='cr'><div class='vertical-center'><font style='color:orange'>$68<br>with a<br>50% chance</font></div></div><div class='respDivL'><div class='vertical-center'>(E)</div></div><div class='respDivR'><div class='vertical-center'><font style='color:orange'>(I)</font></div></div></div>","null","$30","$68","0","30","68",""
"html-keyboard-response","55","222333","0.0-5.0-1.17","63210b26bd58960c97b47ddc","bdp_rd","Thu Apr 13 2023 11:30:20 GMT+0100 (British Summer Time)","326278","","null","","","","FIX","","<div class='trialBorder'><div class='vertical-center'><img style='vertical-align:center; align:center' src=img/fixation3.jpg></div></div>","null","","","","","",""
"html-keyboard-response","56","225495","0.0-5.0-2.17","63210b26bd58960c97b47ddc","bdp_rd","Thu Apr 13 2023 11:30:20 GMT+0100 (British Summer Time)","326278","","3162","","","","offer","","<div class='trialBorder'><div class='vertical-center'><img style='vertical-align:center; align:center' src=img/fixation3.jpg></div><div class='cl'><div class='vertical-center'>$73<br>with a<br>50% chance</div></div><div class='cr'><div class='vertical-center'>$42<br>for<br>sure</div></div><div class='respDivL'><div class='vertical-center'>(E)</div></div><div class='respDivR'><div class='vertical-center'>(I)</div></div></div>","E","$42","$73","1","42","73","RISKY"
"html-keyboard-response","57","225746","0.0-5.0-3.17","63210b26bd58960c97b47ddc","bdp_rd","Thu Apr 13 2023 11:30:20 GMT+0100 (British Summer Time)","326278","","null","","","","offerFB","","<div class='trialBorder'><div class='vertical-center'><img style='vertical-align:center; align:center' src=img/fixation3.jpg></div><div class='cl'><div class='vertical-center'><font style='color:orange'>$73<br>with a<br>50% chance</font></div></div><div class='cr'><div class='vertical-center'>$42<br>for<br>sure</div></div><div class='respDivL'><div class='vertical-center'><font style='color:orange'>(E)</font></div></div><div class='respDivR'><div class='vertical-center'>(I)</div></div></div>","null","$42","$73","1","42","73",""
"html-keyboard-response","58","226247","0.0-5.0-1.18","63210b26bd58960c97b47ddc","bdp_rd","Thu Apr 13 2023 11:30:20 GMT+0100 (British Summer Time)","326278","","null","","","","FIX","","<div class='trialBorder'><div class='vertical-center'><img style='vertical-align:center; align:center' src=img/fixation3.jpg></div></div>","null","","","","","",""
"html-keyboard-response","59","227641","0.0-5.0-2.18","63210b26bd58960c97b47ddc","bdp_rd","Thu Apr 13 2023 11:30:20 GMT+0100 (British Summer Time)","326278","","1392","","","","offer","","<div class='trialBorder'><div class='vertical-center'><img style='vertical-align:center; align:center' src=img/fixation3.jpg></div><div class='cl'><div class='vertical-center'>$64<br>with a<br>50% chance</div></div><div class='cr'><div class='vertical-center'>$2<br>for<br>sure</div></div><div class='respDivL'><div class='vertical-center'>(E)</div></div><div class='respDivR'><div class='vertical-center'>(I)</div></div></div>","E","$2","$64","1","2","64","RISKY"
"html-keyboard-response","60","227892","0.0-5.0-3.18","63210b26bd58960c97b47ddc","bdp_rd","Thu Apr 13 2023 11:30:20 GMT+0100 (British Summer Time)","326278","","null","","","","offerFB","","<div class='trialBorder'><div class='vertical-center'><img style='vertical-align:center; align:center' src=img/fixation3.jpg></div><div class='cl'><div class='vertical-center'><font style='color:orange'>$64<br>with a<br>50% chance</font></div></div><div class='cr'><div class='vertical-center'>$2<br>for<br>sure</div></div><div class='respDivL'><div class='vertical-center'><font style='color:orange'>(E)</font></div></div><div class='respDivR'><div class='vertical-center'>(I)</div></div></div>","null","$2","$64","1","2","64",""
"html-keyboard-response","61","228393","0.0-5.0-1.19","63210b26bd58960c97b47ddc","bdp_rd","Thu Apr 13 2023 11:30:20 GMT+0100 (British Summer Time)","326278","","null","","","","FIX","","<div class='trialBorder'><div class='vertical-center'><img style='vertical-align:center; align:center' src=img/fixation3.jpg></div></div>","null","","","","","",""
"html-keyboard-response","62","230333","0.0-5.0-2.19","63210b26bd58960c97b47ddc","bdp_rd","Thu Apr 13 2023 11:30:20 GMT+0100 (British Summer Time)","326278","","1939","","","","offer","","<div class='trialBorder'><div class='vertical-center'><img style='vertical-align:center; align:center' src=img/fixation3.jpg></div><div class='cl'><div class='vertical-center'>$54<br>with a<br>50% chance</div></div><div class='cr'><div class='vertical-center'>$25<br>for<br>sure</div></div><div class='respDivL'><div class='vertical-center'>(E)</div></div><div class='respDivR'><div class='vertical-center'>(I)</div></div></div>","E","$25","$54","1","25","54","RISKY"
"html-keyboard-response","63","230584","0.0-5.0-3.19","63210b26bd58960c97b47ddc","bdp_rd","Thu Apr 13 2023 11:30:20 GMT+0100 (British Summer Time)","326278","","null","","","","offerFB","","<div class='trialBorder'><div class='vertical-center'><img style='vertical-align:center; align:center' src=img/fixation3.jpg></div><div class='cl'><div class='vertical-center'><font style='color:orange'>$54<br>with a<br>50% chance</font></div></div><div class='cr'><div class='vertical-center'>$25<br>for<br>sure</div></div><div class='respDivL'><div class='vertical-center'><font style='color:orange'>(E)</font></div></div><div class='respDivR'><div class='vertical-center'>(I)</div></div></div>","null","$25","$54","1","25","54",""
"html-keyboard-response","64","231085","0.0-5.0-1.20","63210b26bd58960c97b47ddc","bdp_rd","Thu Apr 13 2023 11:30:20 GMT+0100 (British Summer Time)","326278","","null","","","","FIX","","<div class='trialBorder'><div class='vertical-center'><img style='vertical-align:center; align:center' src=img/fixation3.jpg></div></div>","null","","","","","",""
"html-keyboard-response","65","232204","0.0-5.0-2.20","63210b26bd58960c97b47ddc","bdp_rd","Thu Apr 13 2023 11:30:20 GMT+0100 (British Summer Time)","326278","","1119","","","","offer","","<div class='trialBorder'><div class='vertical-center'><img style='vertical-align:center; align:center' src=img/fixation3.jpg></div><div class='cl'><div class='vertical-center'>$11<br>for<br>sure</div></div><div class='cr'><div class='vertical-center'>$62<br>with a<br>50% chance</div></div><div class='respDivL'><div class='vertical-center'>(E)</div></div><div class='respDivR'><div class='vertical-center'>(I)</div></div></div>","I","$11","$62","0","11","62","RISKY"
"html-keyboard-response","66","232455","0.0-5.0-3.20","63210b26bd58960c97b47ddc","bdp_rd","Thu Apr 13 2023 11:30:20 GMT+0100 (British Summer Time)","326278","","null","","","","offerFB","","<div class='trialBorder'><div class='vertical-center'><img style='vertical-align:center; align:center' src=img/fixation3.jpg></div><div class='cl'><div class='vertical-center'>$11<br>for<br>sure</div></div><div class='cr'><div class='vertical-center'><font style='color:orange'>$62<br>with a<br>50% chance</font></div></div><div class='respDivL'><div class='vertical-center'>(E)</div></div><div class='respDivR'><div class='vertical-center'><font style='color:orange'>(I)</font></div></div></div>","null","$11","$62","0","11","62",""
"html-keyboard-response","67","232957","0.0-5.0-1.21","63210b26bd58960c97b47ddc","bdp_rd","Thu Apr 13 2023 11:30:20 GMT+0100 (British Summer Time)","326278","","null","","","","FIX","","<div class='trialBorder'><div class='vertical-center'><img style='vertical-align:center; align:center' src=img/fixation3.jpg></div></div>","null","","","","","",""
"html-keyboard-response","68","234824","0.0-5.0-2.21","63210b26bd58960c97b47ddc","bdp_rd","Thu Apr 13 2023 11:30:20 GMT+0100 (British Summer Time)","326278","","1866","","","","offer","","<div class='trialBorder'><div class='vertical-center'><img style='vertical-align:center; align:center' src=img/fixation3.jpg></div><div class='cl'><div class='vertical-center'>$3<br>for<br>sure</div></div><div class='cr'><div class='vertical-center'>$12<br>with a<br>50% chance</div></div><div class='respDivL'><div class='vertical-center'>(E)</div></div><div class='respDivR'><div class='vertical-center'>(I)</div></div></div>","I","$3","$12","0","3","12","RISKY"
"html-keyboard-response","69","235076","0.0-5.0-3.21","63210b26bd58960c97b47ddc","bdp_rd","Thu Apr 13 2023 11:30:20 GMT+0100 (British Summer Time)","326278","","null","","","","offerFB","","<div class='trialBorder'><div class='vertical-center'><img style='vertical-align:center; align:center' src=img/fixation3.jpg></div><div class='cl'><div class='vertical-center'>$3<br>for<br>sure</div></div><div class='cr'><div class='vertical-center'><font style='color:orange'>$12<br>with a<br>50% chance</font></div></div><div class='respDivL'><div class='vertical-center'>(E)</div></div><div class='respDivR'><div class='vertical-center'><font style='color:orange'>(I)</font></div></div></div>","null","$3","$12","0","3","12",""
"html-keyboard-response","70","235579","0.0-5.0-1.22","63210b26bd58960c97b47ddc","bdp_rd","Thu Apr 13 2023 11:30:20 GMT+0100 (British Summer Time)","326278","","null","","","","FIX","","<div class='trialBorder'><div class='vertical-center'><img style='vertical-align:center; align:center' src=img/fixation3.jpg></div></div>","null","","","","","",""
"html-keyboard-response","71","237394","0.0-5.0-2.22","63210b26bd58960c97b47ddc","bdp_rd","Thu Apr 13 2023 11:30:20 GMT+0100 (British Summer Time)","326278","","1815","","","","offer","","<div class='trialBorder'><div class='vertical-center'><img style='vertical-align:center; align:center' src=img/fixation3.jpg></div><div class='cl'><div class='vertical-center'>$12<br>for<br>sure</div></div><div class='cr'><div class='vertical-center'>$35<br>with a<br>50% chance</div></div><div class='respDivL'><div class='vertical-center'>(E)</div></div><div class='respDivR'><div class='vertical-center'>(I)</div></div></div>","I","$12","$35","0","12","35","RISKY"
"html-keyboard-response","72","237646","0.0-5.0-3.22","63210b26bd58960c97b47ddc","bdp_rd","Thu Apr 13 2023 11:30:20 GMT+0100 (British Summer Time)","326278","","null","","","","offerFB","","<div class='trialBorder'><div class='vertical-center'><img style='vertical-align:center; align:center' src=img/fixation3.jpg></div><div class='cl'><div class='vertical-center'>$12<br>for<br>sure</div></div><div class='cr'><div class='vertical-center'><font style='color:orange'>$35<br>with a<br>50% chance</font></div></div><div class='respDivL'><div class='vertical-center'>(E)</div></div><div class='respDivR'><div class='vertical-center'><font style='color:orange'>(I)</font></div></div></div>","null","$12","$35","0","12","35",""
"html-keyboard-response","73","238147","0.0-5.0-1.23","63210b26bd58960c97b47ddc","bdp_rd","Thu Apr 13 2023 11:30:20 GMT+0100 (British Summer Time)","326278","","null","","","","FIX","","<div class='trialBorder'><div class='vertical-center'><img style='vertical-align:center; align:center' src=img/fixation3.jpg></div></div>","null","","","","","",""
"html-keyboard-response","74","239730","0.0-5.0-2.23","63210b26bd58960c97b47ddc","bdp_rd","Thu Apr 13 2023 11:30:20 GMT+0100 (British Summer Time)","326278","","1582","","","","offer","","<div class='trialBorder'><div class='vertical-center'><img style='vertical-align:center; align:center' src=img/fixation3.jpg></div><div class='cl'><div class='vertical-center'>$15<br>for<br>sure</div></div><div class='cr'><div class='vertical-center'>$31<br>with a<br>50% chance</div></div><div class='respDivL'><div class='vertical-center'>(E)</div></div><div class='respDivR'><div class='vertical-center'>(I)</div></div></div>","I","$15","$31","0","15","31","RISKY"
"html-keyboard-response","75","239982","0.0-5.0-3.23","63210b26bd58960c97b47ddc","bdp_rd","Thu Apr 13 2023 11:30:20 GMT+0100 (British Summer Time)","326278","","null","","","","offerFB","","<div class='trialBorder'><div class='vertical-center'><img style='vertical-align:center; align:center' src=img/fixation3.jpg></div><div class='cl'><div class='vertical-center'>$15<br>for<br>sure</div></div><div class='cr'><div class='vertical-center'><font style='color:orange'>$31<br>with a<br>50% chance</font></div></div><div class='respDivL'><div class='vertical-center'>(E)</div></div><div class='respDivR'><div class='vertical-center'><font style='color:orange'>(I)</font></div></div></div>","null","$15","$31","0","15","31",""
"html-keyboard-response","76","240483","0.0-5.0-1.24","63210b26bd58960c97b47ddc","bdp_rd","Thu Apr 13 2023 11:30:20 GMT+0100 (British Summer Time)","326278","","null","","","","FIX","","<div class='trialBorder'><div class='vertical-center'><img style='vertical-align:center; align:center' src=img/fixation3.jpg></div></div>","null","","","","","",""
"html-keyboard-response","77","242221","0.0-5.0-2.24","63210b26bd58960c97b47ddc","bdp_rd","Thu Apr 13 2023 11:30:20 GMT+0100 (British Summer Time)","326278","","1737","","","","offer","","<div class='trialBorder'><div class='vertical-center'><img style='vertical-align:center; align:center' src=img/fixation3.jpg></div><div class='cl'><div class='vertical-center'>$1<br>for<br>sure</div></div><div class='cr'><div class='vertical-center'>$30<br>with a<br>50% chance</div></div><div class='respDivL'><div class='vertical-center'>(E)</div></div><div class='respDivR'><div class='vertical-center'>(I)</div></div></div>","I","$1","$30","0","1","30","RISKY"
"html-keyboard-response","78","242473","0.0-5.0-3.24","63210b26bd58960c97b47ddc","bdp_rd","Thu Apr 13 2023 11:30:20 GMT+0100 (British Summer Time)","326278","","null","","","","offerFB","","<div class='trialBorder'><div class='vertical-center'><img style='vertical-align:center; align:center' src=img/fixation3.jpg></div><div class='cl'><div class='vertical-center'>$1<br>for<br>sure</div></div><div class='cr'><div class='vertical-center'><font style='color:orange'>$30<br>with a<br>50% chance</font></div></div><div class='respDivL'><div class='vertical-center'>(E)</div></div><div class='respDivR'><div class='vertical-center'><font style='color:orange'>(I)</font></div></div></div>","null","$1","$30","0","1","30",""
"html-keyboard-response","79","242975","0.0-5.0-1.25","63210b26bd58960c97b47ddc","bdp_rd","Thu Apr 13 2023 11:30:20 GMT+0100 (British Summer Time)","326278","","null","","","","FIX","","<div class='trialBorder'><div class='vertical-center'><img style='vertical-align:center; align:center' src=img/fixation3.jpg></div></div>","null","","","","","",""
"html-keyboard-response","80","244577","0.0-5.0-2.25","63210b26bd58960c97b47ddc","bdp_rd","Thu Apr 13 2023 11:30:20 GMT+0100 (British Summer Time)","326278","","1601","","","","offer","","<div class='trialBorder'><div class='vertical-center'><img style='vertical-align:center; align:center' src=img/fixation3.jpg></div><div class='cl'><div class='vertical-center'>$12<br>for<br>sure</div></div><div class='cr'><div class='vertical-center'>$27<br>with a<br>50% chance</div></div><div class='respDivL'><div class='vertical-center'>(E)</div></div><div class='respDivR'><div class='vertical-center'>(I)</div></div></div>","I","$12","$27","0","12","27","RISKY"
"html-keyboard-response","81","244829","0.0-5.0-3.25","63210b26bd58960c97b47ddc","bdp_rd","Thu Apr 13 2023 11:30:20 GMT+0100 (British Summer Time)","326278","","null","","","","offerFB","","<div class='trialBorder'><div class='vertical-center'><img style='vertical-align:center; align:center' src=img/fixation3.jpg></div><div class='cl'><div class='vertical-center'>$12<br>for<br>sure</div></div><div class='cr'><div class='vertical-center'><font style='color:orange'>$27<br>with a<br>50% chance</font></div></div><div class='respDivL'><div class='vertical-center'>(E)</div></div><div class='respDivR'><div class='vertical-center'><font style='color:orange'>(I)</font></div></div></div>","null","$12","$27","0","12","27",""
"html-keyboard-response","82","245330","0.0-5.0-1.26","63210b26bd58960c97b47ddc","bdp_rd","Thu Apr 13 2023 11:30:20 GMT+0100 (British Summer Time)","326278","","null","","","","FIX","","<div class='trialBorder'><div class='vertical-center'><img style='vertical-align:center; align:center' src=img/fixation3.jpg></div></div>","null","","","","","",""
"html-keyboard-response","83","246750","0.0-5.0-2.26","63210b26bd58960c97b47ddc","bdp_rd","Thu Apr 13 2023 11:30:20 GMT+0100 (British Summer Time)","326278","","1419","","","","offer","","<div class='trialBorder'><div class='vertical-center'><img style='vertical-align:center; align:center' src=img/fixation3.jpg></div><div class='cl'><div class='vertical-center'>$3<br>for<br>sure</div></div><div class='cr'><div class='vertical-center'>$17<br>with a<br>50% chance</div></div><div class='respDivL'><div class='vertical-center'>(E)</div></div><div class='respDivR'><div class='vertical-center'>(I)</div></div></div>","I","$3","$17","0","3","17","RISKY"
"html-keyboard-response","84","247002","0.0-5.0-3.26","63210b26bd58960c97b47ddc","bdp_rd","Thu Apr 13 2023 11:30:20 GMT+0100 (British Summer Time)","326278","","null","","","","offerFB","","<div class='trialBorder'><div class='vertical-center'><img style='vertical-align:center; align:center' src=img/fixation3.jpg></div><div class='cl'><div class='vertical-center'>$3<br>for<br>sure</div></div><div class='cr'><div class='vertical-center'><font style='color:orange'>$17<br>with a<br>50% chance</font></div></div><div class='respDivL'><div class='vertical-center'>(E)</div></div><div class='respDivR'><div class='vertical-center'><font style='color:orange'>(I)</font></div></div></div>","null","$3","$17","0","3","17",""
"html-keyboard-response","85","247504","0.0-5.0-1.27","63210b26bd58960c97b47ddc","bdp_rd","Thu Apr 13 2023 11:30:20 GMT+0100 (British Summer Time)","326278","","null","","","","FIX","","<div class='trialBorder'><div class='vertical-center'><img style='vertical-align:center; align:center' src=img/fixation3.jpg></div></div>","null","","","","","",""
"html-keyboard-response","86","248716","0.0-5.0-2.27","63210b26bd58960c97b47ddc","bdp_rd","Thu Apr 13 2023 11:30:20 GMT+0100 (British Summer Time)","326278","","1211","","","","offer","","<div class='trialBorder'><div class='vertical-center'><img style='vertical-align:center; align:center' src=img/fixation3.jpg></div><div class='cl'><div class='vertical-center'>$7<br>for<br>sure</div></div><div class='cr'><div class='vertical-center'>$10<br>with a<br>50% chance</div></div><div class='respDivL'><div class='vertical-center'>(E)</div></div><div class='respDivR'><div class='vertical-center'>(I)</div></div></div>","E","$7","$10","0","7","10","SURE"
"html-keyboard-response","87","248967","0.0-5.0-3.27","63210b26bd58960c97b47ddc","bdp_rd","Thu Apr 13 2023 11:30:20 GMT+0100 (British Summer Time)","326278","","null","","","","offerFB","","<div class='trialBorder'><div class='vertical-center'><img style='vertical-align:center; align:center' src=img/fixation3.jpg></div><div class='cl'><div class='vertical-center'><font style='color:orange'>$7<br>for<br>sure</font></div></div><div class='cr'><div class='vertical-center'>$10<br>with a<br>50% chance</div></div><div class='respDivL'><div class='vertical-center'><font style='color:orange'>(E)</font></div></div><div class='respDivR'><div class='vertical-center'>(I)</div></div></div>","null","$7","$10","0","7","10",""
"html-keyboard-response","88","249468","0.0-5.0-1.28","63210b26bd58960c97b47ddc","bdp_rd","Thu Apr 13 2023 11:30:20 GMT+0100 (British Summer Time)","326278","","null","","","","FIX","","<div class='trialBorder'><div class='vertical-center'><img style='vertical-align:center; align:center' src=img/fixation3.jpg></div></div>","null","","","","","",""
"html-keyboard-response","89","251110","0.0-5.0-2.28","63210b26bd58960c97b47ddc","bdp_rd","Thu Apr 13 2023 11:30:20 GMT+0100 (British Summer Time)","326278","","1641","","","","offer","","<div class='trialBorder'><div class='vertical-center'><img style='vertical-align:center; align:center' src=img/fixation3.jpg></div><div class='cl'><div class='vertical-center'>$33<br>for<br>sure</div></div><div class='cr'><div class='vertical-center'>$66<br>with a<br>50% chance</div></div><div class='respDivL'><div class='vertical-center'>(E)</div></div><div class='respDivR'><div class='vertical-center'>(I)</div></div></div>","I","$33","$66","0","33","66","RISKY"
"html-keyboard-response","90","251362","0.0-5.0-3.28","63210b26bd58960c97b47ddc","bdp_rd","Thu Apr 13 2023 11:30:20 GMT+0100 (British Summer Time)","326278","","null","","","","offerFB","","<div class='trialBorder'><div class='vertical-center'><img style='vertical-align:center; align:center' src=img/fixation3.jpg></div><div class='cl'><div class='vertical-center'>$33<br>for<br>sure</div></div><div class='cr'><div class='vertical-center'><font style='color:orange'>$66<br>with a<br>50% chance</font></div></div><div class='respDivL'><div class='vertical-center'>(E)</div></div><div class='respDivR'><div class='vertical-center'><font style='color:orange'>(I)</font></div></div></div>","null","$33","$66","0","33","66",""
"html-keyboard-response","91","251864","0.0-5.0-1.29","63210b26bd58960c97b47ddc","bdp_rd","Thu Apr 13 2023 11:30:20 GMT+0100 (British Summer Time)","326278","","null","","","","FIX","","<div class='trialBorder'><div class='vertical-center'><img style='vertical-align:center; align:center' src=img/fixation3.jpg></div></div>","null","","","","","",""
"html-keyboard-response","92","253964","0.0-5.0-2.29","63210b26bd58960c97b47ddc","bdp_rd","Thu Apr 13 2023 11:30:20 GMT+0100 (British Summer Time)","326278","","2099","","","","offer","","<div class='trialBorder'><div class='vertical-center'><img style='vertical-align:center; align:center' src=img/fixation3.jpg></div><div class='cl'><div class='vertical-center'>$21<br>with a<br>50% chance</div></div><div class='cr'><div class='vertical-center'>$2<br>for<br>sure</div></div><div class='respDivL'><div class='vertical-center'>(E)</div></div><div class='respDivR'><div class='vertical-center'>(I)</div></div></div>","E","$2","$21","1","2","21","RISKY"
"html-keyboard-response","93","254215","0.0-5.0-3.29","63210b26bd58960c97b47ddc","bdp_rd","Thu Apr 13 2023 11:30:20 GMT+0100 (British Summer Time)","326278","","null","","","","offerFB","","<div class='trialBorder'><div class='vertical-center'><img style='vertical-align:center; align:center' src=img/fixation3.jpg></div><div class='cl'><div class='vertical-center'><font style='color:orange'>$21<br>with a<br>50% chance</font></div></div><div class='cr'><div class='vertical-center'>$2<br>for<br>sure</div></div><div class='respDivL'><div class='vertical-center'><font style='color:orange'>(E)</font></div></div><div class='respDivR'><div class='vertical-center'>(I)</div></div></div>","null","$2","$21","1","2","21",""
"html-keyboard-response","94","254717","0.0-5.0-1.30","63210b26bd58960c97b47ddc","bdp_rd","Thu Apr 13 2023 11:30:20 GMT+0100 (British Summer Time)","326278","","null","","","","FIX","","<div class='trialBorder'><div class='vertical-center'><img style='vertical-align:center; align:center' src=img/fixation3.jpg></div></div>","null","","","","","",""
"html-keyboard-response","95","256676","0.0-5.0-2.30","63210b26bd58960c97b47ddc","bdp_rd","Thu Apr 13 2023 11:30:20 GMT+0100 (British Summer Time)","326278","","1957","","","","offer","","<div class='trialBorder'><div class='vertical-center'><img style='vertical-align:center; align:center' src=img/fixation3.jpg></div><div class='cl'><div class='vertical-center'>$20<br>for<br>sure</div></div><div class='cr'><div class='vertical-center'>$37<br>with a<br>50% chance</div></div><div class='respDivL'><div class='vertical-center'>(E)</div></div><div class='respDivR'><div class='vertical-center'>(I)</div></div></div>","I","$20","$37","0","20","37","RISKY"
"html-keyboard-response","96","256926","0.0-5.0-3.30","63210b26bd58960c97b47ddc","bdp_rd","Thu Apr 13 2023 11:30:20 GMT+0100 (British Summer Time)","326278","","null","","","","offerFB","","<div class='trialBorder'><div class='vertical-center'><img style='vertical-align:center; align:center' src=img/fixation3.jpg></div><div class='cl'><div class='vertical-center'>$20<br>for<br>sure</div></div><div class='cr'><div class='vertical-center'><font style='color:orange'>$37<br>with a<br>50% chance</font></div></div><div class='respDivL'><div class='vertical-center'>(E)</div></div><div class='respDivR'><div class='vertical-center'><font style='color:orange'>(I)</font></div></div></div>","null","$20","$37","0","20","37",""
"html-keyboard-response","97","257428","0.0-5.0-1.31","63210b26bd58960c97b47ddc","bdp_rd","Thu Apr 13 2023 11:30:20 GMT+0100 (British Summer Time)","326278","","null","","","","FIX","","<div class='trialBorder'><div class='vertical-center'><img style='vertical-align:center; align:center' src=img/fixation3.jpg></div></div>","null","","","","","",""
"html-keyboard-response","98","261297","0.0-5.0-2.31","63210b26bd58960c97b47ddc","bdp_rd","Thu Apr 13 2023 11:30:20 GMT+0100 (British Summer Time)","326278","","3869","","","","offer","","<div class='trialBorder'><div class='vertical-center'><img style='vertical-align:center; align:center' src=img/fixation3.jpg></div><div class='cl'><div class='vertical-center'>$19<br>with a<br>50% chance</div></div><div class='cr'><div class='vertical-center'>$10<br>for<br>sure</div></div><div class='respDivL'><div class='vertical-center'>(E)</div></div><div class='respDivR'><div class='vertical-center'>(I)</div></div></div>","I","$10","$19","1","10","19","SURE"
"html-keyboard-response","99","261549","0.0-5.0-3.31","63210b26bd58960c97b47ddc","bdp_rd","Thu Apr 13 2023 11:30:20 GMT+0100 (British Summer Time)","326278","","null","","","","offerFB","","<div class='trialBorder'><div class='vertical-center'><img style='vertical-align:center; align:center' src=img/fixation3.jpg></div><div class='cl'><div class='vertical-center'>$19<br>with a<br>50% chance</div></div><div class='cr'><div class='vertical-center'><font style='color:orange'>$10<br>for<br>sure</font></div></div><div class='respDivL'><div class='vertical-center'>(E)</div></div><div class='respDivR'><div class='vertical-center'><font style='color:orange'>(I)</font></div></div></div>","null","$10","$19","1","10","19",""
"html-keyboard-response","100","262051","0.0-5.0-1.32","63210b26bd58960c97b47ddc","bdp_rd","Thu Apr 13 2023 11:30:20 GMT+0100 (British Summer Time)","326278","","null","","","","FIX","","<div class='trialBorder'><div class='vertical-center'><img style='vertical-align:center; align:center' src=img/fixation3.jpg></div></div>","null","","","","","",""
"html-keyboard-response","101","264200","0.0-5.0-2.32","63210b26bd58960c97b47ddc","bdp_rd","Thu Apr 13 2023 11:30:20 GMT+0100 (British Summer Time)","326278","","2149","","","","offer","","<div class='trialBorder'><div class='vertical-center'><img style='vertical-align:center; align:center' src=img/fixation3.jpg></div><div class='cl'><div class='vertical-center'>$22<br>with a<br>50% chance</div></div><div class='cr'><div class='vertical-center'>$14<br>for<br>sure</div></div><div class='respDivL'><div class='vertical-center'>(E)</div></div><div class='respDivR'><div class='vertical-center'>(I)</div></div></div>","I","$14","$22","1","14","22","SURE"
"html-keyboard-response","102","264451","0.0-5.0-3.32","63210b26bd58960c97b47ddc","bdp_rd","Thu Apr 13 2023 11:30:20 GMT+0100 (British Summer Time)","326278","","null","","","","offerFB","","<div class='trialBorder'><div class='vertical-center'><img style='vertical-align:center; align:center' src=img/fixation3.jpg></div><div class='cl'><div class='vertical-center'>$22<br>with a<br>50% chance</div></div><div class='cr'><div class='vertical-center'><font style='color:orange'>$14<br>for<br>sure</font></div></div><div class='respDivL'><div class='vertical-center'>(E)</div></div><div class='respDivR'><div class='vertical-center'><font style='color:orange'>(I)</font></div></div></div>","null","$14","$22","1","14","22",""
"html-keyboard-response","103","264953","0.0-5.0-1.33","63210b26bd58960c97b47ddc","bdp_rd","Thu Apr 13 2023 11:30:20 GMT+0100 (British Summer Time)","326278","","null","","","","FIX","","<div class='trialBorder'><div class='vertical-center'><img style='vertical-align:center; align:center' src=img/fixation3.jpg></div></div>","null","","","","","",""
"html-keyboard-response","104","266140","0.0-5.0-2.33","63210b26bd58960c97b47ddc","bdp_rd","Thu Apr 13 2023 11:30:20 GMT+0100 (British Summer Time)","326278","","1187","","","","offer","","<div class='trialBorder'><div class='vertical-center'><img style='vertical-align:center; align:center' src=img/fixation3.jpg></div><div class='cl'><div class='vertical-center'>$40<br>with a<br>50% chance</div></div><div class='cr'><div class='vertical-center'>$10<br>for<br>sure</div></div><div class='respDivL'><div class='vertical-center'>(E)</div></div><div class='respDivR'><div class='vertical-center'>(I)</div></div></div>","E","$10","$40","1","10","40","RISKY"
"html-keyboard-response","105","266391","0.0-5.0-3.33","63210b26bd58960c97b47ddc","bdp_rd","Thu Apr 13 2023 11:30:20 GMT+0100 (British Summer Time)","326278","","null","","","","offerFB","","<div class='trialBorder'><div class='vertical-center'><img style='vertical-align:center; align:center' src=img/fixation3.jpg></div><div class='cl'><div class='vertical-center'><font style='color:orange'>$40<br>with a<br>50% chance</font></div></div><div class='cr'><div class='vertical-center'>$10<br>for<br>sure</div></div><div class='respDivL'><div class='vertical-center'><font style='color:orange'>(E)</font></div></div><div class='respDivR'><div class='vertical-center'>(I)</div></div></div>","null","$10","$40","1","10","40",""
"html-keyboard-response","106","266893","0.0-5.0-1.34","63210b26bd58960c97b47ddc","bdp_rd","Thu Apr 13 2023 11:30:20 GMT+0100 (British Summer Time)","326278","","null","","","","FIX","","<div class='trialBorder'><div class='vertical-center'><img style='vertical-align:center; align:center' src=img/fixation3.jpg></div></div>","null","","","","","",""
"html-keyboard-response","107","267852","0.0-5.0-2.34","63210b26bd58960c97b47ddc","bdp_rd","Thu Apr 13 2023 11:30:20 GMT+0100 (British Summer Time)","326278","","957","","","","offer","","<div class='trialBorder'><div class='vertical-center'><img style='vertical-align:center; align:center' src=img/fixation3.jpg></div><div class='cl'><div class='vertical-center'>$89<br>with a<br>50% chance</div></div><div class='cr'><div class='vertical-center'>$28<br>for<br>sure</div></div><div class='respDivL'><div class='vertical-center'>(E)</div></div><div class='respDivR'><div class='vertical-center'>(I)</div></div></div>","E","$28","$89","1","28","89","RISKY"
"html-keyboard-response","108","268103","0.0-5.0-3.34","63210b26bd58960c97b47ddc","bdp_rd","Thu Apr 13 2023 11:30:20 GMT+0100 (British Summer Time)","326278","","null","","","","offerFB","","<div class='trialBorder'><div class='vertical-center'><img style='vertical-align:center; align:center' src=img/fixation3.jpg></div><div class='cl'><div class='vertical-center'><font style='color:orange'>$89<br>with a<br>50% chance</font></div></div><div class='cr'><div class='vertical-center'>$28<br>for<br>sure</div></div><div class='respDivL'><div class='vertical-center'><font style='color:orange'>(E)</font></div></div><div class='respDivR'><div class='vertical-center'>(I)</div></div></div>","null","$28","$89","1","28","89",""
"html-keyboard-response","109","268604","0.0-5.0-1.35","63210b26bd58960c97b47ddc","bdp_rd","Thu Apr 13 2023 11:30:20 GMT+0100 (British Summer Time)","326278","","null","","","","FIX","","<div class='trialBorder'><div class='vertical-center'><img style='vertical-align:center; align:center' src=img/fixation3.jpg></div></div>","null","","","","","",""
"html-keyboard-response","110","270310","0.0-5.0-2.35","63210b26bd58960c97b47ddc","bdp_rd","Thu Apr 13 2023 11:30:20 GMT+0100 (British Summer Time)","326278","","1705","","","","offer","","<div class='trialBorder'><div class='vertical-center'><img style='vertical-align:center; align:center' src=img/fixation3.jpg></div><div class='cl'><div class='vertical-center'>$4<br>for<br>sure</div></div><div class='cr'><div class='vertical-center'>$11<br>with a<br>50% chance</div></div><div class='respDivL'><div class='vertical-center'>(E)</div></div><div class='respDivR'><div class='vertical-center'>(I)</div></div></div>","E","$4","$11","0","4","11","SURE"
"html-keyboard-response","111","270561","0.0-5.0-3.35","63210b26bd58960c97b47ddc","bdp_rd","Thu Apr 13 2023 11:30:20 GMT+0100 (British Summer Time)","326278","","null","","","","offerFB","","<div class='trialBorder'><div class='vertical-center'><img style='vertical-align:center; align:center' src=img/fixation3.jpg></div><div class='cl'><div class='vertical-center'><font style='color:orange'>$4<br>for<br>sure</font></div></div><div class='cr'><div class='vertical-center'>$11<br>with a<br>50% chance</div></div><div class='respDivL'><div class='vertical-center'><font style='color:orange'>(E)</font></div></div><div class='respDivR'><div class='vertical-center'>(I)</div></div></div>","null","$4","$11","0","4","11",""
"html-keyboard-response","112","271062","0.0-5.0-1.36","63210b26bd58960c97b47ddc","bdp_rd","Thu Apr 13 2023 11:30:20 GMT+0100 (British Summer Time)","326278","","null","","","","FIX","","<div class='trialBorder'><div class='vertical-center'><img style='vertical-align:center; align:center' src=img/fixation3.jpg></div></div>","null","","","","","",""
"html-keyboard-response","113","272127","0.0-5.0-2.36","63210b26bd58960c97b47ddc","bdp_rd","Thu Apr 13 2023 11:30:20 GMT+0100 (British Summer Time)","326278","","1064","","","","offer","","<div class='trialBorder'><div class='vertical-center'><img style='vertical-align:center; align:center' src=img/fixation3.jpg></div><div class='cl'><div class='vertical-center'>$98<br>with a<br>50% chance</div></div><div class='cr'><div class='vertical-center'>$53<br>for<br>sure</div></div><div class='respDivL'><div class='vertical-center'>(E)</div></div><div class='respDivR'><div class='vertical-center'>(I)</div></div></div>","E","$53","$98","1","53","98","RISKY"
"html-keyboard-response","114","272379","0.0-5.0-3.36","63210b26bd58960c97b47ddc","bdp_rd","Thu Apr 13 2023 11:30:20 GMT+0100 (British Summer Time)","326278","","null","","","","offerFB","","<div class='trialBorder'><div class='vertical-center'><img style='vertical-align:center; align:center' src=img/fixation3.jpg></div><div class='cl'><div class='vertical-center'><font style='color:orange'>$98<br>with a<br>50% chance</font></div></div><div class='cr'><div class='vertical-center'>$53<br>for<br>sure</div></div><div class='respDivL'><div class='vertical-center'><font style='color:orange'>(E)</font></div></div><div class='respDivR'><div class='vertical-center'>(I)</div></div></div>","null","$53","$98","1","53","98",""
"html-keyboard-response","115","272880","0.0-5.0-1.37","63210b26bd58960c97b47ddc","bdp_rd","Thu Apr 13 2023 11:30:20 GMT+0100 (British Summer Time)","326278","","null","","","","FIX","","<div class='trialBorder'><div class='vertical-center'><img style='vertical-align:center; align:center' src=img/fixation3.jpg></div></div>","null","","","","","",""
"html-keyboard-response","116","275284","0.0-5.0-2.37","63210b26bd58960c97b47ddc","bdp_rd","Thu Apr 13 2023 11:30:20 GMT+0100 (British Summer Time)","326278","","2404","","","","offer","","<div class='trialBorder'><div class='vertical-center'><img style='vertical-align:center; align:center' src=img/fixation3.jpg></div><div class='cl'><div class='vertical-center'>$13<br>with a<br>50% chance</div></div><div class='cr'><div class='vertical-center'>$6<br>for<br>sure</div></div><div class='respDivL'><div class='vertical-center'>(E)</div></div><div class='respDivR'><div class='vertical-center'>(I)</div></div></div>","I","$6","$13","1","6","13","SURE"
"html-keyboard-response","117","275535","0.0-5.0-3.37","63210b26bd58960c97b47ddc","bdp_rd","Thu Apr 13 2023 11:30:20 GMT+0100 (British Summer Time)","326278","","null","","","","offerFB","","<div class='trialBorder'><div class='vertical-center'><img style='vertical-align:center; align:center' src=img/fixation3.jpg></div><div class='cl'><div class='vertical-center'>$13<br>with a<br>50% chance</div></div><div class='cr'><div class='vertical-center'><font style='color:orange'>$6<br>for<br>sure</font></div></div><div class='respDivL'><div class='vertical-center'>(E)</div></div><div class='respDivR'><div class='vertical-center'><font style='color:orange'>(I)</font></div></div></div>","null","$6","$13","1","6","13",""
"html-keyboard-response","118","276037","0.0-5.0-1.38","63210b26bd58960c97b47ddc","bdp_rd","Thu Apr 13 2023 11:30:20 GMT+0100 (British Summer Time)","326278","","null","","","","FIX","","<div class='trialBorder'><div class='vertical-center'><img style='vertical-align:center; align:center' src=img/fixation3.jpg></div></div>","null","","","","","",""
"html-keyboard-response","119","277986","0.0-5.0-2.38","63210b26bd58960c97b47ddc","bdp_rd","Thu Apr 13 2023 11:30:20 GMT+0100 (British Summer Time)","326278","","1949","","","","offer","","<div class='trialBorder'><div class='vertical-center'><img style='vertical-align:center; align:center' src=img/fixation3.jpg></div><div class='cl'><div class='vertical-center'>$29<br>for<br>sure</div></div><div class='cr'><div class='vertical-center'>$46<br>with a<br>50% chance</div></div><div class='respDivL'><div class='vertical-center'>(E)</div></div><div class='respDivR'><div class='vertical-center'>(I)</div></div></div>","E","$29","$46","0","29","46","SURE"
"html-keyboard-response","120","278237","0.0-5.0-3.38","63210b26bd58960c97b47ddc","bdp_rd","Thu Apr 13 2023 11:30:20 GMT+0100 (British Summer Time)","326278","","null","","","","offerFB","","<div class='trialBorder'><div class='vertical-center'><img style='vertical-align:center; align:center' src=img/fixation3.jpg></div><div class='cl'><div class='vertical-center'><font style='color:orange'>$29<br>for<br>sure</font></div></div><div class='cr'><div class='vertical-center'>$46<br>with a<br>50% chance</div></div><div class='respDivL'><div class='vertical-center'><font style='color:orange'>(E)</font></div></div><div class='respDivR'><div class='vertical-center'>(I)</div></div></div>","null","$29","$46","0","29","46",""
"html-keyboard-response","121","278738","0.0-5.0-1.39","63210b26bd58960c97b47ddc","bdp_rd","Thu Apr 13 2023 11:30:20 GMT+0100 (British Summer Time)","326278","","null","","","","FIX","","<div class='trialBorder'><div class='vertical-center'><img style='vertical-align:center; align:center' src=img/fixation3.jpg></div></div>","null","","","","","",""
"html-keyboard-response","122","280566","0.0-5.0-2.39","63210b26bd58960c97b47ddc","bdp_rd","Thu Apr 13 2023 11:30:20 GMT+0100 (British Summer Time)","326278","","1828","","","","offer","","<div class='trialBorder'><div class='vertical-center'><img style='vertical-align:center; align:center' src=img/fixation3.jpg></div><div class='cl'><div class='vertical-center'>$39<br>for<br>sure</div></div><div class='cr'><div class='vertical-center'>$81<br>with a<br>50% chance</div></div><div class='respDivL'><div class='vertical-center'>(E)</div></div><div class='respDivR'><div class='vertical-center'>(I)</div></div></div>","I","$39","$81","0","39","81","RISKY"
"html-keyboard-response","123","280817","0.0-5.0-3.39","63210b26bd58960c97b47ddc","bdp_rd","Thu Apr 13 2023 11:30:20 GMT+0100 (British Summer Time)","326278","","null","","","","offerFB","","<div class='trialBorder'><div class='vertical-center'><img style='vertical-align:center; align:center' src=img/fixation3.jpg></div><div class='cl'><div class='vertical-center'>$39<br>for<br>sure</div></div><div class='cr'><div class='vertical-center'><font style='color:orange'>$81<br>with a<br>50% chance</font></div></div><div class='respDivL'><div class='vertical-center'>(E)</div></div><div class='respDivR'><div class='vertical-center'><font style='color:orange'>(I)</font></div></div></div>","null","$39","$81","0","39","81",""
"html-keyboard-response","124","281319","0.0-5.0-1.40","63210b26bd58960c97b47ddc","bdp_rd","Thu Apr 13 2023 11:30:20 GMT+0100 (British Summer Time)","326278","","null","","","","FIX","","<div class='trialBorder'><div class='vertical-center'><img style='vertical-align:center; align:center' src=img/fixation3.jpg></div></div>","null","","","","","",""
"html-keyboard-response","125","282439","0.0-5.0-2.40","63210b26bd58960c97b47ddc","bdp_rd","Thu Apr 13 2023 11:30:20 GMT+0100 (British Summer Time)","326278","","1120","","","","offer","","<div class='trialBorder'><div class='vertical-center'><img style='vertical-align:center; align:center' src=img/fixation3.jpg></div><div class='cl'><div class='vertical-center'>$100<br>with a<br>50% chance</div></div><div class='cr'><div class='vertical-center'>$63<br>for<br>sure</div></div><div class='respDivL'><div class='vertical-center'>(E)</div></div><div class='respDivR'><div class='vertical-center'>(I)</div></div></div>","E","$63","$100","1","63","10","RISKY"
"html-keyboard-response","126","282691","0.0-5.0-3.40","63210b26bd58960c97b47ddc","bdp_rd","Thu Apr 13 2023 11:30:20 GMT+0100 (British Summer Time)","326278","","null","","","","offerFB","","<div class='trialBorder'><div class='vertical-center'><img style='vertical-align:center; align:center' src=img/fixation3.jpg></div><div class='cl'><div class='vertical-center'><font style='color:orange'>$100<br>with a<br>50% chance</font></div></div><div class='cr'><div class='vertical-center'>$63<br>for<br>sure</div></div><div class='respDivL'><div class='vertical-center'><font style='color:orange'>(E)</font></div></div><div class='respDivR'><div class='vertical-center'>(I)</div></div></div>","null","$63","$100","1","63","10",""
"html-keyboard-response","127","283193","0.0-5.0-1.41","63210b26bd58960c97b47ddc","bdp_rd","Thu Apr 13 2023 11:30:20 GMT+0100 (British Summer Time)","326278","","null","","","","FIX","","<div class='trialBorder'><div class='vertical-center'><img style='vertical-align:center; align:center' src=img/fixation3.jpg></div></div>","null","","","","","",""
"html-keyboard-response","128","284795","0.0-5.0-2.41","63210b26bd58960c97b47ddc","bdp_rd","Thu Apr 13 2023 11:30:20 GMT+0100 (British Summer Time)","326278","","1602","","","","offer","","<div class='trialBorder'><div class='vertical-center'><img style='vertical-align:center; align:center' src=img/fixation3.jpg></div><div class='cl'><div class='vertical-center'>$14<br>with a<br>50% chance</div></div><div class='cr'><div class='vertical-center'>$4<br>for<br>sure</div></div><div class='respDivL'><div class='vertical-center'>(E)</div></div><div class='respDivR'><div class='vertical-center'>(I)</div></div></div>","I","$4","$14","1","4","14","SURE"
"html-keyboard-response","129","285047","0.0-5.0-3.41","63210b26bd58960c97b47ddc","bdp_rd","Thu Apr 13 2023 11:30:20 GMT+0100 (British Summer Time)","326278","","null","","","","offerFB","","<div class='trialBorder'><div class='vertical-center'><img style='vertical-align:center; align:center' src=img/fixation3.jpg></div><div class='cl'><div class='vertical-center'>$14<br>with a<br>50% chance</div></div><div class='cr'><div class='vertical-center'><font style='color:orange'>$4<br>for<br>sure</font></div></div><div class='respDivL'><div class='vertical-center'>(E)</div></div><div class='respDivR'><div class='vertical-center'><font style='color:orange'>(I)</font></div></div></div>","null","$4","$14","1","4","14",""
"html-keyboard-response","130","285549","0.0-5.0-1.42","63210b26bd58960c97b47ddc","bdp_rd","Thu Apr 13 2023 11:30:20 GMT+0100 (British Summer Time)","326278","","null","","","","FIX","","<div class='trialBorder'><div class='vertical-center'><img style='vertical-align:center; align:center' src=img/fixation3.jpg></div></div>","null","","","","","",""
"html-keyboard-response","131","286972","0.0-5.0-2.42","63210b26bd58960c97b47ddc","bdp_rd","Thu Apr 13 2023 11:30:20 GMT+0100 (British Summer Time)","326278","","1423","","","","offer","","<div class='trialBorder'><div class='vertical-center'><img style='vertical-align:center; align:center' src=img/fixation3.jpg></div><div class='cl'><div class='vertical-center'>$69<br>with a<br>50% chance</div></div><div class='cr'><div class='vertical-center'>$58<br>for<br>sure</div></div><div class='respDivL'><div class='vertical-center'>(E)</div></div><div class='respDivR'><div class='vertical-center'>(I)</div></div></div>","I","$58","$69","1","58","69","SURE"
"html-keyboard-response","132","287224","0.0-5.0-3.42","63210b26bd58960c97b47ddc","bdp_rd","Thu Apr 13 2023 11:30:20 GMT+0100 (British Summer Time)","326278","","null","","","","offerFB","","<div class='trialBorder'><div class='vertical-center'><img style='vertical-align:center; align:center' src=img/fixation3.jpg></div><div class='cl'><div class='vertical-center'>$69<br>with a<br>50% chance</div></div><div class='cr'><div class='vertical-center'><font style='color:orange'>$58<br>for<br>sure</font></div></div><div class='respDivL'><div class='vertical-center'>(E)</div></div><div class='respDivR'><div class='vertical-center'><font style='color:orange'>(I)</font></div></div></div>","null","$58","$69","1","58","69",""
"html-keyboard-response","133","287725","0.0-5.0-1.43","63210b26bd58960c97b47ddc","bdp_rd","Thu Apr 13 2023 11:30:20 GMT+0100 (British Summer Time)","326278","","null","","","","FIX","","<div class='trialBorder'><div class='vertical-center'><img style='vertical-align:center; align:center' src=img/fixation3.jpg></div></div>","null","","","","","",""
"html-keyboard-response","134","289296","0.0-5.0-2.43","63210b26bd58960c97b47ddc","bdp_rd","Thu Apr 13 2023 11:30:20 GMT+0100 (British Summer Time)","326278","","1571","","","","offer","","<div class='trialBorder'><div class='vertical-center'><img style='vertical-align:center; align:center' src=img/fixation3.jpg></div><div class='cl'><div class='vertical-center'>$45<br>for<br>sure</div></div><div class='cr'><div class='vertical-center'>$86<br>with a<br>50% chance</div></div><div class='respDivL'><div class='vertical-center'>(E)</div></div><div class='respDivR'><div class='vertical-center'>(I)</div></div></div>","I","$45","$86","0","45","86","RISKY"
"html-keyboard-response","135","289547","0.0-5.0-3.43","63210b26bd58960c97b47ddc","bdp_rd","Thu Apr 13 2023 11:30:20 GMT+0100 (British Summer Time)","326278","","null","","","","offerFB","","<div class='trialBorder'><div class='vertical-center'><img style='vertical-align:center; align:center' src=img/fixation3.jpg></div><div class='cl'><div class='vertical-center'>$45<br>for<br>sure</div></div><div class='cr'><div class='vertical-center'><font style='color:orange'>$86<br>with a<br>50% chance</font></div></div><div class='respDivL'><div class='vertical-center'>(E)</div></div><div class='respDivR'><div class='vertical-center'><font style='color:orange'>(I)</font></div></div></div>","null","$45","$86","0","45","86",""
"html-keyboard-response","136","290050","0.0-5.0-1.44","63210b26bd58960c97b47ddc","bdp_rd","Thu Apr 13 2023 11:30:20 GMT+0100 (British Summer Time)","326278","","null","","","","FIX","","<div class='trialBorder'><div class='vertical-center'><img style='vertical-align:center; align:center' src=img/fixation3.jpg></div></div>","null","","","","","",""
"html-keyboard-response","137","291391","0.0-5.0-2.44","63210b26bd58960c97b47ddc","bdp_rd","Thu Apr 13 2023 11:30:20 GMT+0100 (British Summer Time)","326278","","1341","","","","offer","","<div class='trialBorder'><div class='vertical-center'><img style='vertical-align:center; align:center' src=img/fixation3.jpg></div><div class='cl'><div class='vertical-center'>$5<br>for<br>sure</div></div><div class='cr'><div class='vertical-center'>$16<br>with a<br>50% chance</div></div><div class='respDivL'><div class='vertical-center'>(E)</div></div><div class='respDivR'><div class='vertical-center'>(I)</div></div></div>","I","$5","$16","0","5","16","RISKY"
"html-keyboard-response","138","291643","0.0-5.0-3.44","63210b26bd58960c97b47ddc","bdp_rd","Thu Apr 13 2023 11:30:20 GMT+0100 (British Summer Time)","326278","","null","","","","offerFB","","<div class='trialBorder'><div class='vertical-center'><img style='vertical-align:center; align:center' src=img/fixation3.jpg></div><div class='cl'><div class='vertical-center'>$5<br>for<br>sure</div></div><div class='cr'><div class='vertical-center'><font style='color:orange'>$16<br>with a<br>50% chance</font></div></div><div class='respDivL'><div class='vertical-center'>(E)</div></div><div class='respDivR'><div class='vertical-center'><font style='color:orange'>(I)</font></div></div></div>","null","$5","$16","0","5","16",""
"html-keyboard-response","139","292145","0.0-5.0-1.45","63210b26bd58960c97b47ddc","bdp_rd","Thu Apr 13 2023 11:30:20 GMT+0100 (British Summer Time)","326278","","null","","","","FIX","","<div class='trialBorder'><div class='vertical-center'><img style='vertical-align:center; align:center' src=img/fixation3.jpg></div></div>","null","","","","","",""
"html-keyboard-response","140","293264","0.0-5.0-2.45","63210b26bd58960c97b47ddc","bdp_rd","Thu Apr 13 2023 11:30:20 GMT+0100 (British Summer Time)","326278","","1118","","","","offer","","<div class='trialBorder'><div class='vertical-center'><img style='vertical-align:center; align:center' src=img/fixation3.jpg></div><div class='cl'><div class='vertical-center'>$42<br>with a<br>50% chance</div></div><div class='cr'><div class='vertical-center'>$22<br>for<br>sure</div></div><div class='respDivL'><div class='vertical-center'>(E)</div></div><div class='respDivR'><div class='vertical-center'>(I)</div></div></div>","E","$22","$42","1","22","42","RISKY"
"html-keyboard-response","141","293516","0.0-5.0-3.45","63210b26bd58960c97b47ddc","bdp_rd","Thu Apr 13 2023 11:30:20 GMT+0100 (British Summer Time)","326278","","null","","","","offerFB","","<div class='trialBorder'><div class='vertical-center'><img style='vertical-align:center; align:center' src=img/fixation3.jpg></div><div class='cl'><div class='vertical-center'><font style='color:orange'>$42<br>with a<br>50% chance</font></div></div><div class='cr'><div class='vertical-center'>$22<br>for<br>sure</div></div><div class='respDivL'><div class='vertical-center'><font style='color:orange'>(E)</font></div></div><div class='respDivR'><div class='vertical-center'>(I)</div></div></div>","null","$22","$42","1","22","42",""
"html-keyboard-response","142","294018","0.0-5.0-1.46","63210b26bd58960c97b47ddc","bdp_rd","Thu Apr 13 2023 11:30:20 GMT+0100 (British Summer Time)","326278","","null","","","","FIX","","<div class='trialBorder'><div class='vertical-center'><img style='vertical-align:center; align:center' src=img/fixation3.jpg></div></div>","null","","","","","",""
"html-keyboard-response","143","295364","0.0-5.0-2.46","63210b26bd58960c97b47ddc","bdp_rd","Thu Apr 13 2023 11:30:20 GMT+0100 (British Summer Time)","326278","","1346","","","","offer","","<div class='trialBorder'><div class='vertical-center'><img style='vertical-align:center; align:center' src=img/fixation3.jpg></div><div class='cl'><div class='vertical-center'>$41<br>with a<br>50% chance</div></div><div class='cr'><div class='vertical-center'>$13<br>for<br>sure</div></div><div class='respDivL'><div class='vertical-center'>(E)</div></div><div class='respDivR'><div class='vertical-center'>(I)</div></div></div>","E","$13","$41","1","13","41","RISKY"
"html-keyboard-response","144","295615","0.0-5.0-3.46","63210b26bd58960c97b47ddc","bdp_rd","Thu Apr 13 2023 11:30:20 GMT+0100 (British Summer Time)","326278","","null","","","","offerFB","","<div class='trialBorder'><div class='vertical-center'><img style='vertical-align:center; align:center' src=img/fixation3.jpg></div><div class='cl'><div class='vertical-center'><font style='color:orange'>$41<br>with a<br>50% chance</font></div></div><div class='cr'><div class='vertical-center'>$13<br>for<br>sure</div></div><div class='respDivL'><div class='vertical-center'><font style='color:orange'>(E)</font></div></div><div class='respDivR'><div class='vertical-center'>(I)</div></div></div>","null","$13","$41","1","13","41",""
"html-keyboard-response","145","296117","0.0-5.0-1.47","63210b26bd58960c97b47ddc","bdp_rd","Thu Apr 13 2023 11:30:20 GMT+0100 (British Summer Time)","326278","","null","","","","FIX","","<div class='trialBorder'><div class='vertical-center'><img style='vertical-align:center; align:center' src=img/fixation3.jpg></div></div>","null","","","","","",""
"html-keyboard-response","146","297326","0.0-5.0-2.47","63210b26bd58960c97b47ddc","bdp_rd","Thu Apr 13 2023 11:30:20 GMT+0100 (British Summer Time)","326278","","1209","","","","offer","","<div class='trialBorder'><div class='vertical-center'><img style='vertical-align:center; align:center' src=img/fixation3.jpg></div><div class='cl'><div class='vertical-center'>$51<br>with a<br>50% chance</div></div><div class='cr'><div class='vertical-center'>$19<br>for<br>sure</div></div><div class='respDivL'><div class='vertical-center'>(E)</div></div><div class='respDivR'><div class='vertical-center'>(I)</div></div></div>","E","$19","$51","1","19","51","RISKY"
"html-keyboard-response","147","297577","0.0-5.0-3.47","63210b26bd58960c97b47ddc","bdp_rd","Thu Apr 13 2023 11:30:20 GMT+0100 (British Summer Time)","326278","","null","","","","offerFB","","<div class='trialBorder'><div class='vertical-center'><img style='vertical-align:center; align:center' src=img/fixation3.jpg></div><div class='cl'><div class='vertical-center'><font style='color:orange'>$51<br>with a<br>50% chance</font></div></div><div class='cr'><div class='vertical-center'>$19<br>for<br>sure</div></div><div class='respDivL'><div class='vertical-center'><font style='color:orange'>(E)</font></div></div><div class='respDivR'><div class='vertical-center'>(I)</div></div></div>","null","$19","$51","1","19","51",""
"html-keyboard-response","148","298078","0.0-5.0-1.48","63210b26bd58960c97b47ddc","bdp_rd","Thu Apr 13 2023 11:30:20 GMT+0100 (British Summer Time)","326278","","null","","","","FIX","","<div class='trialBorder'><div class='vertical-center'><img style='vertical-align:center; align:center' src=img/fixation3.jpg></div></div>","null","","","","","",""
"html-keyboard-response","149","299069","0.0-5.0-2.48","63210b26bd58960c97b47ddc","bdp_rd","Thu Apr 13 2023 11:30:20 GMT+0100 (British Summer Time)","326278","","990","","","","offer","","<div class='trialBorder'><div class='vertical-center'><img style='vertical-align:center; align:center' src=img/fixation3.jpg></div><div class='cl'><div class='vertical-center'>$20<br>for<br>sure</div></div><div class='cr'><div class='vertical-center'>$80<br>with a<br>50% chance</div></div><div class='respDivL'><div class='vertical-center'>(E)</div></div><div class='respDivR'><div class='vertical-center'>(I)</div></div></div>","I","$20","$80","0","20","80","RISKY"
"html-keyboard-response","150","299321","0.0-5.0-3.48","63210b26bd58960c97b47ddc","bdp_rd","Thu Apr 13 2023 11:30:20 GMT+0100 (British Summer Time)","326278","","null","","","","offerFB","","<div class='trialBorder'><div class='vertical-center'><img style='vertical-align:center; align:center' src=img/fixation3.jpg></div><div class='cl'><div class='vertical-center'>$20<br>for<br>sure</div></div><div class='cr'><div class='vertical-center'><font style='color:orange'>$80<br>with a<br>50% chance</font></div></div><div class='respDivL'><div class='vertical-center'>(E)</div></div><div class='respDivR'><div class='vertical-center'><font style='color:orange'>(I)</font></div></div></div>","null","$20","$80","0","20","80",""
"html-keyboard-response","151","299823","0.0-5.0-1.49","63210b26bd58960c97b47ddc","bdp_rd","Thu Apr 13 2023 11:30:20 GMT+0100 (British Summer Time)","326278","","null","","","","FIX","","<div class='trialBorder'><div class='vertical-center'><img style='vertical-align:center; align:center' src=img/fixation3.jpg></div></div>","null","","","","","",""
"html-keyboard-response","152","301076","0.0-5.0-2.49","63210b26bd58960c97b47ddc","bdp_rd","Thu Apr 13 2023 11:30:20 GMT+0100 (British Summer Time)","326278","","1252","","","","offer","","<div class='trialBorder'><div class='vertical-center'><img style='vertical-align:center; align:center' src=img/fixation3.jpg></div><div class='cl'><div class='vertical-center'>$29<br>with a<br>50% chance</div></div><div class='cr'><div class='vertical-center'>$14<br>for<br>sure</div></div><div class='respDivL'><div class='vertical-center'>(E)</div></div><div class='respDivR'><div class='vertical-center'>(I)</div></div></div>","E","$14","$29","1","14","29","RISKY"
"html-keyboard-response","153","301328","0.0-5.0-3.49","63210b26bd58960c97b47ddc","bdp_rd","Thu Apr 13 2023 11:30:20 GMT+0100 (British Summer Time)","326278","","null","","","","offerFB","","<div class='trialBorder'><div class='vertical-center'><img style='vertical-align:center; align:center' src=img/fixation3.jpg></div><div class='cl'><div class='vertical-center'><font style='color:orange'>$29<br>with a<br>50% chance</font></div></div><div class='cr'><div class='vertical-center'>$14<br>for<br>sure</div></div><div class='respDivL'><div class='vertical-center'><font style='color:orange'>(E)</font></div></div><div class='respDivR'><div class='vertical-center'>(I)</div></div></div>","null","$14","$29","1","14","29",""
"html-keyboard-response","154","301829","0.0-5.0-1.50","63210b26bd58960c97b47ddc","bdp_rd","Thu Apr 13 2023 11:30:20 GMT+0100 (British Summer Time)","326278","","null","","","","FIX","","<div class='trialBorder'><div class='vertical-center'><img style='vertical-align:center; align:center' src=img/fixation3.jpg></div></div>","null","","","","","",""
"html-keyboard-response","155","302742","0.0-5.0-2.50","63210b26bd58960c97b47ddc","bdp_rd","Thu Apr 13 2023 11:30:20 GMT+0100 (British Summer Time)","326278","","912","","","","offer","","<div class='trialBorder'><div class='vertical-center'><img style='vertical-align:center; align:center' src=img/fixation3.jpg></div><div class='cl'><div class='vertical-center'>$26<br>for<br>sure</div></div><div class='cr'><div class='vertical-center'>$92<br>with a<br>50% chance</div></div><div class='respDivL'><div class='vertical-center'>(E)</div></div><div class='respDivR'><div class='vertical-center'>(I)</div></div></div>","I","$26","$92","0","26","92","RISKY"
"html-keyboard-response","156","302995","0.0-5.0-3.50","63210b26bd58960c97b47ddc","bdp_rd","Thu Apr 13 2023 11:30:20 GMT+0100 (British Summer Time)","326278","","null","","","","offerFB","","<div class='trialBorder'><div class='vertical-center'><img style='vertical-align:center; align:center' src=img/fixation3.jpg></div><div class='cl'><div class='vertical-center'>$26<br>for<br>sure</div></div><div class='cr'><div class='vertical-center'><font style='color:orange'>$92<br>with a<br>50% chance</font></div></div><div class='respDivL'><div class='vertical-center'>(E)</div></div><div class='respDivR'><div class='vertical-center'><font style='color:orange'>(I)</font></div></div></div>","null","$26","$92","0","26","92",""
"html-keyboard-response","157","303495","0.0-5.0-1.51","63210b26bd58960c97b47ddc","bdp_rd","Thu Apr 13 2023 11:30:20 GMT+0100 (British Summer Time)","326278","","null","","","","FIX","","<div class='trialBorder'><div class='vertical-center'><img style='vertical-align:center; align:center' src=img/fixation3.jpg></div></div>","null","","","","","",""
"html-keyboard-response","158","304595","0.0-5.0-2.51","63210b26bd58960c97b47ddc","bdp_rd","Thu Apr 13 2023 11:30:20 GMT+0100 (British Summer Time)","326278","","1099","","","","offer","","<div class='trialBorder'><div class='vertical-center'><img style='vertical-align:center; align:center' src=img/fixation3.jpg></div><div class='cl'><div class='vertical-center'>$17<br>for<br>sure</div></div><div class='cr'><div class='vertical-center'>$43<br>with a<br>50% chance</div></div><div class='respDivL'><div class='vertical-center'>(E)</div></div><div class='respDivR'><div class='vertical-center'>(I)</div></div></div>","I","$17","$43","0","17","43","RISKY"
"html-keyboard-response","159","304846","0.0-5.0-3.51","63210b26bd58960c97b47ddc","bdp_rd","Thu Apr 13 2023 11:30:20 GMT+0100 (British Summer Time)","326278","","null","","","","offerFB","","<div class='trialBorder'><div class='vertical-center'><img style='vertical-align:center; align:center' src=img/fixation3.jpg></div><div class='cl'><div class='vertical-center'>$17<br>for<br>sure</div></div><div class='cr'><div class='vertical-center'><font style='color:orange'>$43<br>with a<br>50% chance</font></div></div><div class='respDivL'><div class='vertical-center'>(E)</div></div><div class='respDivR'><div class='vertical-center'><font style='color:orange'>(I)</font></div></div></div>","null","$17","$43","0","17","43",""
"html-keyboard-response","160","305347","0.0-5.0-1.52","63210b26bd58960c97b47ddc","bdp_rd","Thu Apr 13 2023 11:30:20 GMT+0100 (British Summer Time)","326278","","null","","","","FIX","","<div class='trialBorder'><div class='vertical-center'><img style='vertical-align:center; align:center' src=img/fixation3.jpg></div></div>","null","","","","","",""
"html-keyboard-response","161","306695","0.0-5.0-2.52","63210b26bd58960c97b47ddc","bdp_rd","Thu Apr 13 2023 11:30:20 GMT+0100 (British Summer Time)","326278","","1347","","","","offer","","<div class='trialBorder'><div class='vertical-center'><img style='vertical-align:center; align:center' src=img/fixation3.jpg></div><div class='cl'><div class='vertical-center'>$45<br>with a<br>50% chance</div></div><div class='cr'><div class='vertical-center'>$8<br>for<br>sure</div></div><div class='respDivL'><div class='vertical-center'>(E)</div></div><div class='respDivR'><div class='vertical-center'>(I)</div></div></div>","E","$8","$45","1","8","45","RISKY"
"html-keyboard-response","162","306946","0.0-5.0-3.52","63210b26bd58960c97b47ddc","bdp_rd","Thu Apr 13 2023 11:30:20 GMT+0100 (British Summer Time)","326278","","null","","","","offerFB","","<div class='trialBorder'><div class='vertical-center'><img style='vertical-align:center; align:center' src=img/fixation3.jpg></div><div class='cl'><div class='vertical-center'><font style='color:orange'>$45<br>with a<br>50% chance</font></div></div><div class='cr'><div class='vertical-center'>$8<br>for<br>sure</div></div><div class='respDivL'><div class='vertical-center'><font style='color:orange'>(E)</font></div></div><div class='respDivR'><div class='vertical-center'>(I)</div></div></div>","null","$8","$45","1","8","45",""
"html-keyboard-response","163","307448","0.0-5.0-1.53","63210b26bd58960c97b47ddc","bdp_rd","Thu Apr 13 2023 11:30:20 GMT+0100 (British Summer Time)","326278","","null","","","","FIX","","<div class='trialBorder'><div class='vertical-center'><img style='vertical-align:center; align:center' src=img/fixation3.jpg></div></div>","null","","","","","",""
"html-keyboard-response","164","309158","0.0-5.0-2.53","63210b26bd58960c97b47ddc","bdp_rd","Thu Apr 13 2023 11:30:20 GMT+0100 (British Summer Time)","326278","","1710","","","","offer","","<div class='trialBorder'><div class='vertical-center'><img style='vertical-align:center; align:center' src=img/fixation3.jpg></div><div class='cl'><div class='vertical-center'>$34<br>for<br>sure</div></div><div class='cr'><div class='vertical-center'>$48<br>with a<br>50% chance</div></div><div class='respDivL'><div class='vertical-center'>(E)</div></div><div class='respDivR'><div class='vertical-center'>(I)</div></div></div>","E","$34","$48","0","34","48","SURE"
"html-keyboard-response","165","309409","0.0-5.0-3.53","63210b26bd58960c97b47ddc","bdp_rd","Thu Apr 13 2023 11:30:20 GMT+0100 (British Summer Time)","326278","","null","","","","offerFB","","<div class='trialBorder'><div class='vertical-center'><img style='vertical-align:center; align:center' src=img/fixation3.jpg></div><div class='cl'><div class='vertical-center'><font style='color:orange'>$34<br>for<br>sure</font></div></div><div class='cr'><div class='vertical-center'>$48<br>with a<br>50% chance</div></div><div class='respDivL'><div class='vertical-center'><font style='color:orange'>(E)</font></div></div><div class='respDivR'><div class='vertical-center'>(I)</div></div></div>","null","$34","$48","0","34","48",""
"html-keyboard-response","166","309910","0.0-5.0-1.54","63210b26bd58960c97b47ddc","bdp_rd","Thu Apr 13 2023 11:30:20 GMT+0100 (British Summer Time)","326278","","null","","","","FIX","","<div class='trialBorder'><div class='vertical-center'><img style='vertical-align:center; align:center' src=img/fixation3.jpg></div></div>","null","","","","","",""
"html-keyboard-response","167","310860","0.0-5.0-2.54","63210b26bd58960c97b47ddc","bdp_rd","Thu Apr 13 2023 11:30:20 GMT+0100 (British Summer Time)","326278","","949","","","","offer","","<div class='trialBorder'><div class='vertical-center'><img style='vertical-align:center; align:center' src=img/fixation3.jpg></div><div class='cl'><div class='vertical-center'>$71<br>with a<br>50% chance</div></div><div class='cr'><div class='vertical-center'>$7<br>for<br>sure</div></div><div class='respDivL'><div class='vertical-center'>(E)</div></div><div class='respDivR'><div class='vertical-center'>(I)</div></div></div>","E","$7","$71","1","7","71","RISKY"
"html-keyboard-response","168","311111","0.0-5.0-3.54","63210b26bd58960c97b47ddc","bdp_rd","Thu Apr 13 2023 11:30:20 GMT+0100 (British Summer Time)","326278","","null","","","","offerFB","","<div class='trialBorder'><div class='vertical-center'><img style='vertical-align:center; align:center' src=img/fixation3.jpg></div><div class='cl'><div class='vertical-center'><font style='color:orange'>$71<br>with a<br>50% chance</font></div></div><div class='cr'><div class='vertical-center'>$7<br>for<br>sure</div></div><div class='respDivL'><div class='vertical-center'><font style='color:orange'>(E)</font></div></div><div class='respDivR'><div class='vertical-center'>(I)</div></div></div>","null","$7","$71","1","7","71",""
"html-keyboard-response","169","311612","0.0-5.0-1.55","63210b26bd58960c97b47ddc","bdp_rd","Thu Apr 13 2023 11:30:20 GMT+0100 (British Summer Time)","326278","","null","","","","FIX","","<div class='trialBorder'><div class='vertical-center'><img style='vertical-align:center; align:center' src=img/fixation3.jpg></div></div>","null","","","","","",""
"html-keyboard-response","170","312421","0.0-5.0-2.55","63210b26bd58960c97b47ddc","bdp_rd","Thu Apr 13 2023 11:30:20 GMT+0100 (British Summer Time)","326278","","809","","","","offer","","<div class='trialBorder'><div class='vertical-center'><img style='vertical-align:center; align:center' src=img/fixation3.jpg></div><div class='cl'><div class='vertical-center'>$8<br>for<br>sure</div></div><div class='cr'><div class='vertical-center'>$23<br>with a<br>50% chance</div></div><div class='respDivL'><div class='vertical-center'>(E)</div></div><div class='respDivR'><div class='vertical-center'>(I)</div></div></div>","I","$8","$23","0","8","23","RISKY"
"html-keyboard-response","171","312673","0.0-5.0-3.55","63210b26bd58960c97b47ddc","bdp_rd","Thu Apr 13 2023 11:30:20 GMT+0100 (British Summer Time)","326278","","null","","","","offerFB","","<div class='trialBorder'><div class='vertical-center'><img style='vertical-align:center; align:center' src=img/fixation3.jpg></div><div class='cl'><div class='vertical-center'>$8<br>for<br>sure</div></div><div class='cr'><div class='vertical-center'><font style='color:orange'>$23<br>with a<br>50% chance</font></div></div><div class='respDivL'><div class='vertical-center'>(E)</div></div><div class='respDivR'><div class='vertical-center'><font style='color:orange'>(I)</font></div></div></div>","null","$8","$23","0","8","23",""
"html-keyboard-response","172","313175","0.0-5.0-1.56","63210b26bd58960c97b47ddc","bdp_rd","Thu Apr 13 2023 11:30:20 GMT+0100 (British Summer Time)","326278","","null","","","","FIX","","<div class='trialBorder'><div class='vertical-center'><img style='vertical-align:center; align:center' src=img/fixation3.jpg></div></div>","null","","","","","",""
"html-keyboard-response","173","314086","0.0-5.0-2.56","63210b26bd58960c97b47ddc","bdp_rd","Thu Apr 13 2023 11:30:20 GMT+0100 (British Summer Time)","326278","","911","","","","offer","","<div class='trialBorder'><div class='vertical-center'><img style='vertical-align:center; align:center' src=img/fixation3.jpg></div><div class='cl'><div class='vertical-center'>$24<br>for<br>sure</div></div><div class='cr'><div class='vertical-center'>$70<br>with a<br>50% chance</div></div><div class='respDivL'><div class='vertical-center'>(E)</div></div><div class='respDivR'><div class='vertical-center'>(I)</div></div></div>","I","$24","$70","0","24","70","RISKY"
"html-keyboard-response","174","314338","0.0-5.0-3.56","63210b26bd58960c97b47ddc","bdp_rd","Thu Apr 13 2023 11:30:20 GMT+0100 (British Summer Time)","326278","","null","","","","offerFB","","<div class='trialBorder'><div class='vertical-center'><img style='vertical-align:center; align:center' src=img/fixation3.jpg></div><div class='cl'><div class='vertical-center'>$24<br>for<br>sure</div></div><div class='cr'><div class='vertical-center'><font style='color:orange'>$70<br>with a<br>50% chance</font></div></div><div class='respDivL'><div class='vertical-center'>(E)</div></div><div class='respDivR'><div class='vertical-center'><font style='color:orange'>(I)</font></div></div></div>","null","$24","$70","0","24","70",""
