"trial_type","trial_index","time_elapsed","internal_node_id","subject_id","task","startTime","totalTime","view_history","rt","event","trial","time","trialtype","success","stimulus","key_press","sureOffer","riskyOffer","riskyLeft","sureAmt","riskyAmt","chosen"
"pavlovia","0","2","0.0-0.0","5c4275e526217400018bf1b4","bdp_rd","Sat Mar 25 2023 17:41:39 GMT-0600 (Mountain Daylight Time)","184308","","","","","","","","","","","","","","",""
"instructions","1","2060","0.0-1.0","5c4275e526217400018bf1b4","bdp_rd","Sat Mar 25 2023 17:41:39 GMT-0600 (Mountain Daylight Time)","184308","[{""page_index"":0,""viewing_time"":2058}]","2058","","","","","","","","","","","","",""
"","","","","5c4275e526217400018bf1b4","bdp_rd","Sat Mar 25 2023 17:41:39 GMT-0600 (Mountain Daylight Time)","184308","","","fullscreenenter","2","4014","fullscreenenter","","","","","","","","",""
"fullscreen","2","4981","0.0-2.0","5c4275e526217400018bf1b4","bdp_rd","Sat Mar 25 2023 17:41:39 GMT-0600 (Mountain Daylight Time)","184308","","","","","","","true","","","","","","","",""
"instructions","3","17972","0.0-4.0","5c4275e526217400018bf1b4","bdp_rd","Sat Mar 25 2023 17:41:39 GMT-0600 (Mountain Daylight Time)","184308","[{""page_index"":0,""viewing_time"":8036},{""page_index"":1,""viewing_time"":2891},{""page_index"":2,""viewing_time"":2063}]","12990","","","","","","","","","","","","",""
"html-keyboard-response","4","18474","0.0-5.0-1.0","5c4275e526217400018bf1b4","bdp_rd","Sat Mar 25 2023 17:41:39 GMT-0600 (Mountain Daylight Time)","184308","","null","","","","FIX","","<div class='trialBorder'><div class='vertical-center'><img style='vertical-align:center; align:center' src=img/fixation3.jpg></div></div>","null","","","","","",""
"html-keyboard-response","5","21818","0.0-5.0-2.0","5c4275e526217400018bf1b4","bdp_rd","Sat Mar 25 2023 17:41:39 GMT-0600 (Mountain Daylight Time)","184308","","3344","","","","offer","","<div class='trialBorder'><div class='vertical-center'><img style='vertical-align:center; align:center' src=img/fixation3.jpg></div><div class='cl'><div class='vertical-center'>$45<br>with a<br>50% chance</div></div><div class='cr'><div class='vertical-center'>$8<br>for<br>sure</div></div><div class='respDivL'><div class='vertical-center'>(E)</div></div><div class='respDivR'><div class='vertical-center'>(I)</div></div></div>","E","$8","$45","1","8","45","RISKY"
"html-keyboard-response","6","22069","0.0-5.0-3.0","5c4275e526217400018bf1b4","bdp_rd","Sat Mar 25 2023 17:41:39 GMT-0600 (Mountain Daylight Time)","184308","","null","","","","offerFB","","<div class='trialBorder'><div class='vertical-center'><img style='vertical-align:center; align:center' src=img/fixation3.jpg></div><div class='cl'><div class='vertical-center'><font style='color:orange'>$45<br>with a<br>50% chance</font></div></div><div class='cr'><div class='vertical-center'>$8<br>for<br>sure</div></div><div class='respDivL'><div class='vertical-center'><font style='color:orange'>(E)</font></div></div><div class='respDivR'><div class='vertical-center'>(I)</div></div></div>","null","$8","$45","1","8","45",""
"html-keyboard-response","7","22570","0.0-5.0-1.1","5c4275e526217400018bf1b4","bdp_rd","Sat Mar 25 2023 17:41:39 GMT-0600 (Mountain Daylight Time)","184308","","null","","","","FIX","","<div class='trialBorder'><div class='vertical-center'><img style='vertical-align:center; align:center' src=img/fixation3.jpg></div></div>","null","","","","","",""
"html-keyboard-response","8","26481","0.0-5.0-2.1","5c4275e526217400018bf1b4","bdp_rd","Sat Mar 25 2023 17:41:39 GMT-0600 (Mountain Daylight Time)","184308","","3910","","","","offer","","<div class='trialBorder'><div class='vertical-center'><img style='vertical-align:center; align:center' src=img/fixation3.jpg></div><div class='cl'><div class='vertical-center'>$80<br>with a<br>50% chance</div></div><div class='cr'><div class='vertical-center'>$20<br>for<br>sure</div></div><div class='respDivL'><div class='vertical-center'>(E)</div></div><div class='respDivR'><div class='vertical-center'>(I)</div></div></div>","E","$20","$80","1","20","80","RISKY"
"html-keyboard-response","9","26733","0.0-5.0-3.1","5c4275e526217400018bf1b4","bdp_rd","Sat Mar 25 2023 17:41:39 GMT-0600 (Mountain Daylight Time)","184308","","null","","","","offerFB","","<div class='trialBorder'><div class='vertical-center'><img style='vertical-align:center; align:center' src=img/fixation3.jpg></div><div class='cl'><div class='vertical-center'><font style='color:orange'>$80<br>with a<br>50% chance</font></div></div><div class='cr'><div class='vertical-center'>$20<br>for<br>sure</div></div><div class='respDivL'><div class='vertical-center'><font style='color:orange'>(E)</font></div></div><div class='respDivR'><div class='vertical-center'>(I)</div></div></div>","null","$20","$80","1","20","80",""
"html-keyboard-response","10","27235","0.0-5.0-1.2","5c4275e526217400018bf1b4","bdp_rd","Sat Mar 25 2023 17:41:39 GMT-0600 (Mountain Daylight Time)","184308","","null","","","","FIX","","<div class='trialBorder'><div class='vertical-center'><img style='vertical-align:center; align:center' src=img/fixation3.jpg></div></div>","null","","","","","",""
"html-keyboard-response","11","34216","0.0-5.0-2.2","5c4275e526217400018bf1b4","bdp_rd","Sat Mar 25 2023 17:41:39 GMT-0600 (Mountain Daylight Time)","184308","","6981","","","","offer","","<div class='trialBorder'><div class='vertical-center'><img style='vertical-align:center; align:center' src=img/fixation3.jpg></div><div class='cl'><div class='vertical-center'>$33<br>for<br>sure</div></div><div class='cr'><div class='vertical-center'>$66<br>with a<br>50% chance</div></div><div class='respDivL'><div class='vertical-center'>(E)</div></div><div class='respDivR'><div class='vertical-center'>(I)</div></div></div>","E","$33","$66","0","33","66","SURE"
"html-keyboard-response","12","34468","0.0-5.0-3.2","5c4275e526217400018bf1b4","bdp_rd","Sat Mar 25 2023 17:41:39 GMT-0600 (Mountain Daylight Time)","184308","","null","","","","offerFB","","<div class='trialBorder'><div class='vertical-center'><img style='vertical-align:center; align:center' src=img/fixation3.jpg></div><div class='cl'><div class='vertical-center'><font style='color:orange'>$33<br>for<br>sure</font></div></div><div class='cr'><div class='vertical-center'>$66<br>with a<br>50% chance</div></div><div class='respDivL'><div class='vertical-center'><font style='color:orange'>(E)</font></div></div><div class='respDivR'><div class='vertical-center'>(I)</div></div></div>","null","$33","$66","0","33","66",""
"html-keyboard-response","13","34970","0.0-5.0-1.3","5c4275e526217400018bf1b4","bdp_rd","Sat Mar 25 2023 17:41:39 GMT-0600 (Mountain Daylight Time)","184308","","null","","","","FIX","","<div class='trialBorder'><div class='vertical-center'><img style='vertical-align:center; align:center' src=img/fixation3.jpg></div></div>","null","","","","","",""
"html-keyboard-response","14","36970","0.0-5.0-2.3","5c4275e526217400018bf1b4","bdp_rd","Sat Mar 25 2023 17:41:39 GMT-0600 (Mountain Daylight Time)","184308","","1999","","","","offer","","<div class='trialBorder'><div class='vertical-center'><img style='vertical-align:center; align:center' src=img/fixation3.jpg></div><div class='cl'><div class='vertical-center'>$65<br>with a<br>50% chance</div></div><div class='cr'><div class='vertical-center'>$46<br>for<br>sure</div></div><div class='respDivL'><div class='vertical-center'>(E)</div></div><div class='respDivR'><div class='vertical-center'>(I)</div></div></div>","I","$46","$65","1","46","65","SURE"
"html-keyboard-response","15","37222","0.0-5.0-3.3","5c4275e526217400018bf1b4","bdp_rd","Sat Mar 25 2023 17:41:39 GMT-0600 (Mountain Daylight Time)","184308","","null","","","","offerFB","","<div class='trialBorder'><div class='vertical-center'><img style='vertical-align:center; align:center' src=img/fixation3.jpg></div><div class='cl'><div class='vertical-center'>$65<br>with a<br>50% chance</div></div><div class='cr'><div class='vertical-center'><font style='color:orange'>$46<br>for<br>sure</font></div></div><div class='respDivL'><div class='vertical-center'>(E)</div></div><div class='respDivR'><div class='vertical-center'><font style='color:orange'>(I)</font></div></div></div>","null","$46","$65","1","46","65",""
"html-keyboard-response","16","37723","0.0-5.0-1.4","5c4275e526217400018bf1b4","bdp_rd","Sat Mar 25 2023 17:41:39 GMT-0600 (Mountain Daylight Time)","184308","","null","","","","FIX","","<div class='trialBorder'><div class='vertical-center'><img style='vertical-align:center; align:center' src=img/fixation3.jpg></div></div>","null","","","","","",""
"html-keyboard-response","17","39472","0.0-5.0-2.4","5c4275e526217400018bf1b4","bdp_rd","Sat Mar 25 2023 17:41:39 GMT-0600 (Mountain Daylight Time)","184308","","1747","","","","offer","","<div class='trialBorder'><div class='vertical-center'><img style='vertical-align:center; align:center' src=img/fixation3.jpg></div><div class='cl'><div class='vertical-center'>$64<br>with a<br>50% chance</div></div><div class='cr'><div class='vertical-center'>$2<br>for<br>sure</div></div><div class='respDivL'><div class='vertical-center'>(E)</div></div><div class='respDivR'><div class='vertical-center'>(I)</div></div></div>","E","$2","$64","1","2","64","RISKY"
"html-keyboard-response","18","39723","0.0-5.0-3.4","5c4275e526217400018bf1b4","bdp_rd","Sat Mar 25 2023 17:41:39 GMT-0600 (Mountain Daylight Time)","184308","","null","","","","offerFB","","<div class='trialBorder'><div class='vertical-center'><img style='vertical-align:center; align:center' src=img/fixation3.jpg></div><div class='cl'><div class='vertical-center'><font style='color:orange'>$64<br>with a<br>50% chance</font></div></div><div class='cr'><div class='vertical-center'>$2<br>for<br>sure</div></div><div class='respDivL'><div class='vertical-center'><font style='color:orange'>(E)</font></div></div><div class='respDivR'><div class='vertical-center'>(I)</div></div></div>","null","$2","$64","1","2","64",""
"html-keyboard-response","19","40225","0.0-5.0-1.5","5c4275e526217400018bf1b4","bdp_rd","Sat Mar 25 2023 17:41:39 GMT-0600 (Mountain Daylight Time)","184308","","null","","","","FIX","","<div class='trialBorder'><div class='vertical-center'><img style='vertical-align:center; align:center' src=img/fixation3.jpg></div></div>","null","","","","","",""
"html-keyboard-response","20","44237","0.0-5.0-2.5","5c4275e526217400018bf1b4","bdp_rd","Sat Mar 25 2023 17:41:39 GMT-0600 (Mountain Daylight Time)","184308","","4011","","","","offer","","<div class='trialBorder'><div class='vertical-center'><img style='vertical-align:center; align:center' src=img/fixation3.jpg></div><div class='cl'><div class='vertical-center'>$4<br>for<br>sure</div></div><div class='cr'><div class='vertical-center'>$14<br>with a<br>50% chance</div></div><div class='respDivL'><div class='vertical-center'>(E)</div></div><div class='respDivR'><div class='vertical-center'>(I)</div></div></div>","I","$4","$14","0","4","14","RISKY"
"html-keyboard-response","21","44488","0.0-5.0-3.5","5c4275e526217400018bf1b4","bdp_rd","Sat Mar 25 2023 17:41:39 GMT-0600 (Mountain Daylight Time)","184308","","null","","","","offerFB","","<div class='trialBorder'><div class='vertical-center'><img style='vertical-align:center; align:center' src=img/fixation3.jpg></div><div class='cl'><div class='vertical-center'>$4<br>for<br>sure</div></div><div class='cr'><div class='vertical-center'><font style='color:orange'>$14<br>with a<br>50% chance</font></div></div><div class='respDivL'><div class='vertical-center'>(E)</div></div><div class='respDivR'><div class='vertical-center'><font style='color:orange'>(I)</font></div></div></div>","null","$4","$14","0","4","14",""
"html-keyboard-response","22","44989","0.0-5.0-1.6","5c4275e526217400018bf1b4","bdp_rd","Sat Mar 25 2023 17:41:39 GMT-0600 (Mountain Daylight Time)","184308","","null","","","","FIX","","<div class='trialBorder'><div class='vertical-center'><img style='vertical-align:center; align:center' src=img/fixation3.jpg></div></div>","null","","","","","",""
"html-keyboard-response","23","48140","0.0-5.0-2.6","5c4275e526217400018bf1b4","bdp_rd","Sat Mar 25 2023 17:41:39 GMT-0600 (Mountain Daylight Time)","184308","","3150","","","","offer","","<div class='trialBorder'><div class='vertical-center'><img style='vertical-align:center; align:center' src=img/fixation3.jpg></div><div class='cl'><div class='vertical-center'>$22<br>for<br>sure</div></div><div class='cr'><div class='vertical-center'>$42<br>with a<br>50% chance</div></div><div class='respDivL'><div class='vertical-center'>(E)</div></div><div class='respDivR'><div class='vertical-center'>(I)</div></div></div>","E","$22","$42","0","22","42","SURE"
"html-keyboard-response","24","48392","0.0-5.0-3.6","5c4275e526217400018bf1b4","bdp_rd","Sat Mar 25 2023 17:41:39 GMT-0600 (Mountain Daylight Time)","184308","","null","","","","offerFB","","<div class='trialBorder'><div class='vertical-center'><img style='vertical-align:center; align:center' src=img/fixation3.jpg></div><div class='cl'><div class='vertical-center'><font style='color:orange'>$22<br>for<br>sure</font></div></div><div class='cr'><div class='vertical-center'>$42<br>with a<br>50% chance</div></div><div class='respDivL'><div class='vertical-center'><font style='color:orange'>(E)</font></div></div><div class='respDivR'><div class='vertical-center'>(I)</div></div></div>","null","$22","$42","0","22","42",""
"html-keyboard-response","25","48894","0.0-5.0-1.7","5c4275e526217400018bf1b4","bdp_rd","Sat Mar 25 2023 17:41:39 GMT-0600 (Mountain Daylight Time)","184308","","null","","","","FIX","","<div class='trialBorder'><div class='vertical-center'><img style='vertical-align:center; align:center' src=img/fixation3.jpg></div></div>","null","","","","","",""
"html-keyboard-response","26","50643","0.0-5.0-2.7","5c4275e526217400018bf1b4","bdp_rd","Sat Mar 25 2023 17:41:39 GMT-0600 (Mountain Daylight Time)","184308","","1748","","","","offer","","<div class='trialBorder'><div class='vertical-center'><img style='vertical-align:center; align:center' src=img/fixation3.jpg></div><div class='cl'><div class='vertical-center'>$14<br>for<br>sure</div></div><div class='cr'><div class='vertical-center'>$29<br>with a<br>50% chance</div></div><div class='respDivL'><div class='vertical-center'>(E)</div></div><div class='respDivR'><div class='vertical-center'>(I)</div></div></div>","E","$14","$29","0","14","29","SURE"
"html-keyboard-response","27","50894","0.0-5.0-3.7","5c4275e526217400018bf1b4","bdp_rd","Sat Mar 25 2023 17:41:39 GMT-0600 (Mountain Daylight Time)","184308","","null","","","","offerFB","","<div class='trialBorder'><div class='vertical-center'><img style='vertical-align:center; align:center' src=img/fixation3.jpg></div><div class='cl'><div class='vertical-center'><font style='color:orange'>$14<br>for<br>sure</font></div></div><div class='cr'><div class='vertical-center'>$29<br>with a<br>50% chance</div></div><div class='respDivL'><div class='vertical-center'><font style='color:orange'>(E)</font></div></div><div class='respDivR'><div class='vertical-center'>(I)</div></div></div>","null","$14","$29","0","14","29",""
"html-keyboard-response","28","51396","0.0-5.0-1.8","5c4275e526217400018bf1b4","bdp_rd","Sat Mar 25 2023 17:41:39 GMT-0600 (Mountain Daylight Time)","184308","","null","","","","FIX","","<div class='trialBorder'><div class='vertical-center'><img style='vertical-align:center; align:center' src=img/fixation3.jpg></div></div>","null","","","","","",""
"html-keyboard-response","29","56188","0.0-5.0-2.8","5c4275e526217400018bf1b4","bdp_rd","Sat Mar 25 2023 17:41:39 GMT-0600 (Mountain Daylight Time)","184308","","4792","","","","offer","","<div class='trialBorder'><div class='vertical-center'><img style='vertical-align:center; align:center' src=img/fixation3.jpg></div><div class='cl'><div class='vertical-center'>$24<br>for<br>sure</div></div><div class='cr'><div class='vertical-center'>$70<br>with a<br>50% chance</div></div><div class='respDivL'><div class='vertical-center'>(E)</div></div><div class='respDivR'><div class='vertical-center'>(I)</div></div></div>","E","$24","$70","0","24","70","SURE"
"html-keyboard-response","30","56440","0.0-5.0-3.8","5c4275e526217400018bf1b4","bdp_rd","Sat Mar 25 2023 17:41:39 GMT-0600 (Mountain Daylight Time)","184308","","null","","","","offerFB","","<div class='trialBorder'><div class='vertical-center'><img style='vertical-align:center; align:center' src=img/fixation3.jpg></div><div class='cl'><div class='vertical-center'><font style='color:orange'>$24<br>for<br>sure</font></div></div><div class='cr'><div class='vertical-center'>$70<br>with a<br>50% chance</div></div><div class='respDivL'><div class='vertical-center'><font style='color:orange'>(E)</font></div></div><div class='respDivR'><div class='vertical-center'>(I)</div></div></div>","null","$24","$70","0","24","70",""
"html-keyboard-response","31","56941","0.0-5.0-1.9","5c4275e526217400018bf1b4","bdp_rd","Sat Mar 25 2023 17:41:39 GMT-0600 (Mountain Daylight Time)","184308","","null","","","","FIX","","<div class='trialBorder'><div class='vertical-center'><img style='vertical-align:center; align:center' src=img/fixation3.jpg></div></div>","null","","","","","",""
"html-keyboard-response","32","58749","0.0-5.0-2.9","5c4275e526217400018bf1b4","bdp_rd","Sat Mar 25 2023 17:41:39 GMT-0600 (Mountain Daylight Time)","184308","","1807","","","","offer","","<div class='trialBorder'><div class='vertical-center'><img style='vertical-align:center; align:center' src=img/fixation3.jpg></div><div class='cl'><div class='vertical-center'>$32<br>with a<br>50% chance</div></div><div class='cr'><div class='vertical-center'>$9<br>for<br>sure</div></div><div class='respDivL'><div class='vertical-center'>(E)</div></div><div class='respDivR'><div class='vertical-center'>(I)</div></div></div>","E","$9","$32","1","9","32","RISKY"
"html-keyboard-response","33","59001","0.0-5.0-3.9","5c4275e526217400018bf1b4","bdp_rd","Sat Mar 25 2023 17:41:39 GMT-0600 (Mountain Daylight Time)","184308","","null","","","","offerFB","","<div class='trialBorder'><div class='vertical-center'><img style='vertical-align:center; align:center' src=img/fixation3.jpg></div><div class='cl'><div class='vertical-center'><font style='color:orange'>$32<br>with a<br>50% chance</font></div></div><div class='cr'><div class='vertical-center'>$9<br>for<br>sure</div></div><div class='respDivL'><div class='vertical-center'><font style='color:orange'>(E)</font></div></div><div class='respDivR'><div class='vertical-center'>(I)</div></div></div>","null","$9","$32","1","9","32",""
"html-keyboard-response","34","59502","0.0-5.0-1.10","5c4275e526217400018bf1b4","bdp_rd","Sat Mar 25 2023 17:41:39 GMT-0600 (Mountain Daylight Time)","184308","","null","","","","FIX","","<div class='trialBorder'><div class='vertical-center'><img style='vertical-align:center; align:center' src=img/fixation3.jpg></div></div>","null","","","","","",""
"html-keyboard-response","35","61050","0.0-5.0-2.10","5c4275e526217400018bf1b4","bdp_rd","Sat Mar 25 2023 17:41:39 GMT-0600 (Mountain Daylight Time)","184308","","1548","","","","offer","","<div class='trialBorder'><div class='vertical-center'><img style='vertical-align:center; align:center' src=img/fixation3.jpg></div><div class='cl'><div class='vertical-center'>$10<br>with a<br>50% chance</div></div><div class='cr'><div class='vertical-center'>$7<br>for<br>sure</div></div><div class='respDivL'><div class='vertical-center'>(E)</div></div><div class='respDivR'><div class='vertical-center'>(I)</div></div></div>","I","$7","$10","1","7","10","SURE"
"html-keyboard-response","36","61301","0.0-5.0-3.10","5c4275e526217400018bf1b4","bdp_rd","Sat Mar 25 2023 17:41:39 GMT-0600 (Mountain Daylight Time)","184308","","null","","","","offerFB","","<div class='trialBorder'><div class='vertical-center'><img style='vertical-align:center; align:center' src=img/fixation3.jpg></div><div class='cl'><div class='vertical-center'>$10<br>with a<br>50% chance</div></div><div class='cr'><div class='vertical-center'><font style='color:orange'>$7<br>for<br>sure</font></div></div><div class='respDivL'><div class='vertical-center'>(E)</div></div><div class='respDivR'><div class='vertical-center'><font style='color:orange'>(I)</font></div></div></div>","null","$7","$10","1","7","10",""
"html-keyboard-response","37","61804","0.0-5.0-1.11","5c4275e526217400018bf1b4","bdp_rd","Sat Mar 25 2023 17:41:39 GMT-0600 (Mountain Daylight Time)","184308","","null","","","","FIX","","<div class='trialBorder'><div class='vertical-center'><img style='vertical-align:center; align:center' src=img/fixation3.jpg></div></div>","null","","","","","",""
"html-keyboard-response","38","64353","0.0-5.0-2.11","5c4275e526217400018bf1b4","bdp_rd","Sat Mar 25 2023 17:41:39 GMT-0600 (Mountain Daylight Time)","184308","","2548","","","","offer","","<div class='trialBorder'><div class='vertical-center'><img style='vertical-align:center; align:center' src=img/fixation3.jpg></div><div class='cl'><div class='vertical-center'>$54<br>with a<br>50% chance</div></div><div class='cr'><div class='vertical-center'>$25<br>for<br>sure</div></div><div class='respDivL'><div class='vertical-center'>(E)</div></div><div class='respDivR'><div class='vertical-center'>(I)</div></div></div>","I","$25","$54","1","25","54","SURE"
"html-keyboard-response","39","64604","0.0-5.0-3.11","5c4275e526217400018bf1b4","bdp_rd","Sat Mar 25 2023 17:41:39 GMT-0600 (Mountain Daylight Time)","184308","","null","","","","offerFB","","<div class='trialBorder'><div class='vertical-center'><img style='vertical-align:center; align:center' src=img/fixation3.jpg></div><div class='cl'><div class='vertical-center'>$54<br>with a<br>50% chance</div></div><div class='cr'><div class='vertical-center'><font style='color:orange'>$25<br>for<br>sure</font></div></div><div class='respDivL'><div class='vertical-center'>(E)</div></div><div class='respDivR'><div class='vertical-center'><font style='color:orange'>(I)</font></div></div></div>","null","$25","$54","1","25","54",""
"html-keyboard-response","40","65106","0.0-5.0-1.12","5c4275e526217400018bf1b4","bdp_rd","Sat Mar 25 2023 17:41:39 GMT-0600 (Mountain Daylight Time)","184308","","null","","","","FIX","","<div class='trialBorder'><div class='vertical-center'><img style='vertical-align:center; align:center' src=img/fixation3.jpg></div></div>","null","","","","","",""
"html-keyboard-response","41","67953","0.0-5.0-2.12","5c4275e526217400018bf1b4","bdp_rd","Sat Mar 25 2023 17:41:39 GMT-0600 (Mountain Daylight Time)","184308","","2847","","","","offer","","<div class='trialBorder'><div class='vertical-center'><img style='vertical-align:center; align:center' src=img/fixation3.jpg></div><div class='cl'><div class='vertical-center'>$42<br>for<br>sure</div></div><div class='cr'><div class='vertical-center'>$73<br>with a<br>50% chance</div></div><div class='respDivL'><div class='vertical-center'>(E)</div></div><div class='respDivR'><div class='vertical-center'>(I)</div></div></div>","E","$42","$73","0","42","73","SURE"
"html-keyboard-response","42","68204","0.0-5.0-3.12","5c4275e526217400018bf1b4","bdp_rd","Sat Mar 25 2023 17:41:39 GMT-0600 (Mountain Daylight Time)","184308","","null","","","","offerFB","","<div class='trialBorder'><div class='vertical-center'><img style='vertical-align:center; align:center' src=img/fixation3.jpg></div><div class='cl'><div class='vertical-center'><font style='color:orange'>$42<br>for<br>sure</font></div></div><div class='cr'><div class='vertical-center'>$73<br>with a<br>50% chance</div></div><div class='respDivL'><div class='vertical-center'><font style='color:orange'>(E)</font></div></div><div class='respDivR'><div class='vertical-center'>(I)</div></div></div>","null","$42","$73","0","42","73",""
"html-keyboard-response","43","68706","0.0-5.0-1.13","5c4275e526217400018bf1b4","bdp_rd","Sat Mar 25 2023 17:41:39 GMT-0600 (Mountain Daylight Time)","184308","","null","","","","FIX","","<div class='trialBorder'><div class='vertical-center'><img style='vertical-align:center; align:center' src=img/fixation3.jpg></div></div>","null","","","","","",""
"html-keyboard-response","44","71666","0.0-5.0-2.13","5c4275e526217400018bf1b4","bdp_rd","Sat Mar 25 2023 17:41:39 GMT-0600 (Mountain Daylight Time)","184308","","2959","","","","offer","","<div class='trialBorder'><div class='vertical-center'><img style='vertical-align:center; align:center' src=img/fixation3.jpg></div><div class='cl'><div class='vertical-center'>$36<br>with a<br>50% chance</div></div><div class='cr'><div class='vertical-center'>$18<br>for<br>sure</div></div><div class='respDivL'><div class='vertical-center'>(E)</div></div><div class='respDivR'><div class='vertical-center'>(I)</div></div></div>","I","$18","$36","1","18","36","SURE"
"html-keyboard-response","45","71917","0.0-5.0-3.13","5c4275e526217400018bf1b4","bdp_rd","Sat Mar 25 2023 17:41:39 GMT-0600 (Mountain Daylight Time)","184308","","null","","","","offerFB","","<div class='trialBorder'><div class='vertical-center'><img style='vertical-align:center; align:center' src=img/fixation3.jpg></div><div class='cl'><div class='vertical-center'>$36<br>with a<br>50% chance</div></div><div class='cr'><div class='vertical-center'><font style='color:orange'>$18<br>for<br>sure</font></div></div><div class='respDivL'><div class='vertical-center'>(E)</div></div><div class='respDivR'><div class='vertical-center'><font style='color:orange'>(I)</font></div></div></div>","null","$18","$36","1","18","36",""
"html-keyboard-response","46","72418","0.0-5.0-1.14","5c4275e526217400018bf1b4","bdp_rd","Sat Mar 25 2023 17:41:39 GMT-0600 (Mountain Daylight Time)","184308","","null","","","","FIX","","<div class='trialBorder'><div class='vertical-center'><img style='vertical-align:center; align:center' src=img/fixation3.jpg></div></div>","null","","","","","",""
"html-keyboard-response","47","74195","0.0-5.0-2.14","5c4275e526217400018bf1b4","bdp_rd","Sat Mar 25 2023 17:41:39 GMT-0600 (Mountain Daylight Time)","184308","","1776","","","","offer","","<div class='trialBorder'><div class='vertical-center'><img style='vertical-align:center; align:center' src=img/fixation3.jpg></div><div class='cl'><div class='vertical-center'>$11<br>for<br>sure</div></div><div class='cr'><div class='vertical-center'>$26<br>with a<br>50% chance</div></div><div class='respDivL'><div class='vertical-center'>(E)</div></div><div class='respDivR'><div class='vertical-center'>(I)</div></div></div>","I","$11","$26","0","11","26","RISKY"
"html-keyboard-response","48","74446","0.0-5.0-3.14","5c4275e526217400018bf1b4","bdp_rd","Sat Mar 25 2023 17:41:39 GMT-0600 (Mountain Daylight Time)","184308","","null","","","","offerFB","","<div class='trialBorder'><div class='vertical-center'><img style='vertical-align:center; align:center' src=img/fixation3.jpg></div><div class='cl'><div class='vertical-center'>$11<br>for<br>sure</div></div><div class='cr'><div class='vertical-center'><font style='color:orange'>$26<br>with a<br>50% chance</font></div></div><div class='respDivL'><div class='vertical-center'>(E)</div></div><div class='respDivR'><div class='vertical-center'><font style='color:orange'>(I)</font></div></div></div>","null","$11","$26","0","11","26",""
"html-keyboard-response","49","74948","0.0-5.0-1.15","5c4275e526217400018bf1b4","bdp_rd","Sat Mar 25 2023 17:41:39 GMT-0600 (Mountain Daylight Time)","184308","","null","","","","FIX","","<div class='trialBorder'><div class='vertical-center'><img style='vertical-align:center; align:center' src=img/fixation3.jpg></div></div>","null","","","","","",""
"html-keyboard-response","50","78249","0.0-5.0-2.15","5c4275e526217400018bf1b4","bdp_rd","Sat Mar 25 2023 17:41:39 GMT-0600 (Mountain Daylight Time)","184308","","3301","","","","offer","","<div class='trialBorder'><div class='vertical-center'><img style='vertical-align:center; align:center' src=img/fixation3.jpg></div><div class='cl'><div class='vertical-center'>$59<br>with a<br>50% chance</div></div><div class='cr'><div class='vertical-center'>$22<br>for<br>sure</div></div><div class='respDivL'><div class='vertical-center'>(E)</div></div><div class='respDivR'><div class='vertical-center'>(I)</div></div></div>","E","$22","$59","1","22","59","RISKY"
"html-keyboard-response","51","78500","0.0-5.0-3.15","5c4275e526217400018bf1b4","bdp_rd","Sat Mar 25 2023 17:41:39 GMT-0600 (Mountain Daylight Time)","184308","","null","","","","offerFB","","<div class='trialBorder'><div class='vertical-center'><img style='vertical-align:center; align:center' src=img/fixation3.jpg></div><div class='cl'><div class='vertical-center'><font style='color:orange'>$59<br>with a<br>50% chance</font></div></div><div class='cr'><div class='vertical-center'>$22<br>for<br>sure</div></div><div class='respDivL'><div class='vertical-center'><font style='color:orange'>(E)</font></div></div><div class='respDivR'><div class='vertical-center'>(I)</div></div></div>","null","$22","$59","1","22","59",""
"html-keyboard-response","52","79001","0.0-5.0-1.16","5c4275e526217400018bf1b4","bdp_rd","Sat Mar 25 2023 17:41:39 GMT-0600 (Mountain Daylight Time)","184308","","null","","","","FIX","","<div class='trialBorder'><div class='vertical-center'><img style='vertical-align:center; align:center' src=img/fixation3.jpg></div></div>","null","","","","","",""
"html-keyboard-response","53","81860","0.0-5.0-2.16","5c4275e526217400018bf1b4","bdp_rd","Sat Mar 25 2023 17:41:39 GMT-0600 (Mountain Daylight Time)","184308","","2858","","","","offer","","<div class='trialBorder'><div class='vertical-center'><img style='vertical-align:center; align:center' src=img/fixation3.jpg></div><div class='cl'><div class='vertical-center'>$15<br>for<br>sure</div></div><div class='cr'><div class='vertical-center'>$34<br>with a<br>50% chance</div></div><div class='respDivL'><div class='vertical-center'>(E)</div></div><div class='respDivR'><div class='vertical-center'>(I)</div></div></div>","E","$15","$34","0","15","34","SURE"
"html-keyboard-response","54","82111","0.0-5.0-3.16","5c4275e526217400018bf1b4","bdp_rd","Sat Mar 25 2023 17:41:39 GMT-0600 (Mountain Daylight Time)","184308","","null","","","","offerFB","","<div class='trialBorder'><div class='vertical-center'><img style='vertical-align:center; align:center' src=img/fixation3.jpg></div><div class='cl'><div class='vertical-center'><font style='color:orange'>$15<br>for<br>sure</font></div></div><div class='cr'><div class='vertical-center'>$34<br>with a<br>50% chance</div></div><div class='respDivL'><div class='vertical-center'><font style='color:orange'>(E)</font></div></div><div class='respDivR'><div class='vertical-center'>(I)</div></div></div>","null","$15","$34","0","15","34",""
"html-keyboard-response","55","82613","0.0-5.0-1.17","5c4275e526217400018bf1b4","bdp_rd","Sat Mar 25 2023 17:41:39 GMT-0600 (Mountain Daylight Time)","184308","","null","","","","FIX","","<div class='trialBorder'><div class='vertical-center'><img style='vertical-align:center; align:center' src=img/fixation3.jpg></div></div>","null","","","","","",""
"html-keyboard-response","56","86726","0.0-5.0-2.17","5c4275e526217400018bf1b4","bdp_rd","Sat Mar 25 2023 17:41:39 GMT-0600 (Mountain Daylight Time)","184308","","4113","","","","offer","","<div class='trialBorder'><div class='vertical-center'><img style='vertical-align:center; align:center' src=img/fixation3.jpg></div><div class='cl'><div class='vertical-center'>$39<br>for<br>sure</div></div><div class='cr'><div class='vertical-center'>$81<br>with a<br>50% chance</div></div><div class='respDivL'><div class='vertical-center'>(E)</div></div><div class='respDivR'><div class='vertical-center'>(I)</div></div></div>","E","$39","$81","0","39","81","SURE"
"html-keyboard-response","57","86978","0.0-5.0-3.17","5c4275e526217400018bf1b4","bdp_rd","Sat Mar 25 2023 17:41:39 GMT-0600 (Mountain Daylight Time)","184308","","null","","","","offerFB","","<div class='trialBorder'><div class='vertical-center'><img style='vertical-align:center; align:center' src=img/fixation3.jpg></div><div class='cl'><div class='vertical-center'><font style='color:orange'>$39<br>for<br>sure</font></div></div><div class='cr'><div class='vertical-center'>$81<br>with a<br>50% chance</div></div><div class='respDivL'><div class='vertical-center'><font style='color:orange'>(E)</font></div></div><div class='respDivR'><div class='vertical-center'>(I)</div></div></div>","null","$39","$81","0","39","81",""
"html-keyboard-response","58","87479","0.0-5.0-1.18","5c4275e526217400018bf1b4","bdp_rd","Sat Mar 25 2023 17:41:39 GMT-0600 (Mountain Daylight Time)","184308","","null","","","","FIX","","<div class='trialBorder'><div class='vertical-center'><img style='vertical-align:center; align:center' src=img/fixation3.jpg></div></div>","null","","","","","",""
"html-keyboard-response","59","88908","0.0-5.0-2.18","5c4275e526217400018bf1b4","bdp_rd","Sat Mar 25 2023 17:41:39 GMT-0600 (Mountain Daylight Time)","184308","","1427","","","","offer","","<div class='trialBorder'><div class='vertical-center'><img style='vertical-align:center; align:center' src=img/fixation3.jpg></div><div class='cl'><div class='vertical-center'>$22<br>with a<br>50% chance</div></div><div class='cr'><div class='vertical-center'>$14<br>for<br>sure</div></div><div class='respDivL'><div class='vertical-center'>(E)</div></div><div class='respDivR'><div class='vertical-center'>(I)</div></div></div>","I","$14","$22","1","14","22","SURE"
"html-keyboard-response","60","89159","0.0-5.0-3.18","5c4275e526217400018bf1b4","bdp_rd","Sat Mar 25 2023 17:41:39 GMT-0600 (Mountain Daylight Time)","184308","","null","","","","offerFB","","<div class='trialBorder'><div class='vertical-center'><img style='vertical-align:center; align:center' src=img/fixation3.jpg></div><div class='cl'><div class='vertical-center'>$22<br>with a<br>50% chance</div></div><div class='cr'><div class='vertical-center'><font style='color:orange'>$14<br>for<br>sure</font></div></div><div class='respDivL'><div class='vertical-center'>(E)</div></div><div class='respDivR'><div class='vertical-center'><font style='color:orange'>(I)</font></div></div></div>","null","$14","$22","1","14","22",""
"html-keyboard-response","61","89660","0.0-5.0-1.19","5c4275e526217400018bf1b4","bdp_rd","Sat Mar 25 2023 17:41:39 GMT-0600 (Mountain Daylight Time)","184308","","null","","","","FIX","","<div class='trialBorder'><div class='vertical-center'><img style='vertical-align:center; align:center' src=img/fixation3.jpg></div></div>","null","","","","","",""
"html-keyboard-response","62","91979","0.0-5.0-2.19","5c4275e526217400018bf1b4","bdp_rd","Sat Mar 25 2023 17:41:39 GMT-0600 (Mountain Daylight Time)","184308","","2318","","","","offer","","<div class='trialBorder'><div class='vertical-center'><img style='vertical-align:center; align:center' src=img/fixation3.jpg></div><div class='cl'><div class='vertical-center'>$63<br>for<br>sure</div></div><div class='cr'><div class='vertical-center'>$100<br>with a<br>50% chance</div></div><div class='respDivL'><div class='vertical-center'>(E)</div></div><div class='respDivR'><div class='vertical-center'>(I)</div></div></div>","E","$63","$100","0","63","10","SURE"
"html-keyboard-response","63","92231","0.0-5.0-3.19","5c4275e526217400018bf1b4","bdp_rd","Sat Mar 25 2023 17:41:39 GMT-0600 (Mountain Daylight Time)","184308","","null","","","","offerFB","","<div class='trialBorder'><div class='vertical-center'><img style='vertical-align:center; align:center' src=img/fixation3.jpg></div><div class='cl'><div class='vertical-center'><font style='color:orange'>$63<br>for<br>sure</font></div></div><div class='cr'><div class='vertical-center'>$100<br>with a<br>50% chance</div></div><div class='respDivL'><div class='vertical-center'><font style='color:orange'>(E)</font></div></div><div class='respDivR'><div class='vertical-center'>(I)</div></div></div>","null","$63","$100","0","63","10",""
"html-keyboard-response","64","92733","0.0-5.0-1.20","5c4275e526217400018bf1b4","bdp_rd","Sat Mar 25 2023 17:41:39 GMT-0600 (Mountain Daylight Time)","184308","","null","","","","FIX","","<div class='trialBorder'><div class='vertical-center'><img style='vertical-align:center; align:center' src=img/fixation3.jpg></div></div>","null","","","","","",""
"html-keyboard-response","65","94663","0.0-5.0-2.20","5c4275e526217400018bf1b4","bdp_rd","Sat Mar 25 2023 17:41:39 GMT-0600 (Mountain Daylight Time)","184308","","1930","","","","offer","","<div class='trialBorder'><div class='vertical-center'><img style='vertical-align:center; align:center' src=img/fixation3.jpg></div><div class='cl'><div class='vertical-center'>$30<br>for<br>sure</div></div><div class='cr'><div class='vertical-center'>$68<br>with a<br>50% chance</div></div><div class='respDivL'><div class='vertical-center'>(E)</div></div><div class='respDivR'><div class='vertical-center'>(I)</div></div></div>","E","$30","$68","0","30","68","SURE"
"html-keyboard-response","66","94915","0.0-5.0-3.20","5c4275e526217400018bf1b4","bdp_rd","Sat Mar 25 2023 17:41:39 GMT-0600 (Mountain Daylight Time)","184308","","null","","","","offerFB","","<div class='trialBorder'><div class='vertical-center'><img style='vertical-align:center; align:center' src=img/fixation3.jpg></div><div class='cl'><div class='vertical-center'><font style='color:orange'>$30<br>for<br>sure</font></div></div><div class='cr'><div class='vertical-center'>$68<br>with a<br>50% chance</div></div><div class='respDivL'><div class='vertical-center'><font style='color:orange'>(E)</font></div></div><div class='respDivR'><div class='vertical-center'>(I)</div></div></div>","null","$30","$68","0","30","68",""
"html-keyboard-response","67","95416","0.0-5.0-1.21","5c4275e526217400018bf1b4","bdp_rd","Sat Mar 25 2023 17:41:39 GMT-0600 (Mountain Daylight Time)","184308","","null","","","","FIX","","<div class='trialBorder'><div class='vertical-center'><img style='vertical-align:center; align:center' src=img/fixation3.jpg></div></div>","null","","","","","",""
"html-keyboard-response","68","96897","0.0-5.0-2.21","5c4275e526217400018bf1b4","bdp_rd","Sat Mar 25 2023 17:41:39 GMT-0600 (Mountain Daylight Time)","184308","","1480","","","","offer","","<div class='trialBorder'><div class='vertical-center'><img style='vertical-align:center; align:center' src=img/fixation3.jpg></div><div class='cl'><div class='vertical-center'>$26<br>for<br>sure</div></div><div class='cr'><div class='vertical-center'>$92<br>with a<br>50% chance</div></div><div class='respDivL'><div class='vertical-center'>(E)</div></div><div class='respDivR'><div class='vertical-center'>(I)</div></div></div>","I","$26","$92","0","26","92","RISKY"
"html-keyboard-response","69","97149","0.0-5.0-3.21","5c4275e526217400018bf1b4","bdp_rd","Sat Mar 25 2023 17:41:39 GMT-0600 (Mountain Daylight Time)","184308","","null","","","","offerFB","","<div class='trialBorder'><div class='vertical-center'><img style='vertical-align:center; align:center' src=img/fixation3.jpg></div><div class='cl'><div class='vertical-center'>$26<br>for<br>sure</div></div><div class='cr'><div class='vertical-center'><font style='color:orange'>$92<br>with a<br>50% chance</font></div></div><div class='respDivL'><div class='vertical-center'>(E)</div></div><div class='respDivR'><div class='vertical-center'><font style='color:orange'>(I)</font></div></div></div>","null","$26","$92","0","26","92",""
"html-keyboard-response","70","97650","0.0-5.0-1.22","5c4275e526217400018bf1b4","bdp_rd","Sat Mar 25 2023 17:41:39 GMT-0600 (Mountain Daylight Time)","184308","","null","","","","FIX","","<div class='trialBorder'><div class='vertical-center'><img style='vertical-align:center; align:center' src=img/fixation3.jpg></div></div>","null","","","","","",""
"html-keyboard-response","71","98870","0.0-5.0-2.22","5c4275e526217400018bf1b4","bdp_rd","Sat Mar 25 2023 17:41:39 GMT-0600 (Mountain Daylight Time)","184308","","1219","","","","offer","","<div class='trialBorder'><div class='vertical-center'><img style='vertical-align:center; align:center' src=img/fixation3.jpg></div><div class='cl'><div class='vertical-center'>$13<br>for<br>sure</div></div><div class='cr'><div class='vertical-center'>$24<br>with a<br>50% chance</div></div><div class='respDivL'><div class='vertical-center'>(E)</div></div><div class='respDivR'><div class='vertical-center'>(I)</div></div></div>","E","$13","$24","0","13","24","SURE"
"html-keyboard-response","72","99121","0.0-5.0-3.22","5c4275e526217400018bf1b4","bdp_rd","Sat Mar 25 2023 17:41:39 GMT-0600 (Mountain Daylight Time)","184308","","null","","","","offerFB","","<div class='trialBorder'><div class='vertical-center'><img style='vertical-align:center; align:center' src=img/fixation3.jpg></div><div class='cl'><div class='vertical-center'><font style='color:orange'>$13<br>for<br>sure</font></div></div><div class='cr'><div class='vertical-center'>$24<br>with a<br>50% chance</div></div><div class='respDivL'><div class='vertical-center'><font style='color:orange'>(E)</font></div></div><div class='respDivR'><div class='vertical-center'>(I)</div></div></div>","null","$13","$24","0","13","24",""
"html-keyboard-response","73","99622","0.0-5.0-1.23","5c4275e526217400018bf1b4","bdp_rd","Sat Mar 25 2023 17:41:39 GMT-0600 (Mountain Daylight Time)","184308","","null","","","","FIX","","<div class='trialBorder'><div class='vertical-center'><img style='vertical-align:center; align:center' src=img/fixation3.jpg></div></div>","null","","","","","",""
"html-keyboard-response","74","101004","0.0-5.0-2.23","5c4275e526217400018bf1b4","bdp_rd","Sat Mar 25 2023 17:41:39 GMT-0600 (Mountain Daylight Time)","184308","","1380","","","","offer","","<div class='trialBorder'><div class='vertical-center'><img style='vertical-align:center; align:center' src=img/fixation3.jpg></div><div class='cl'><div class='vertical-center'>$39<br>with a<br>50% chance</div></div><div class='cr'><div class='vertical-center'>$18<br>for<br>sure</div></div><div class='respDivL'><div class='vertical-center'>(E)</div></div><div class='respDivR'><div class='vertical-center'>(I)</div></div></div>","I","$18","$39","1","18","39","SURE"
"html-keyboard-response","75","101255","0.0-5.0-3.23","5c4275e526217400018bf1b4","bdp_rd","Sat Mar 25 2023 17:41:39 GMT-0600 (Mountain Daylight Time)","184308","","null","","","","offerFB","","<div class='trialBorder'><div class='vertical-center'><img style='vertical-align:center; align:center' src=img/fixation3.jpg></div><div class='cl'><div class='vertical-center'>$39<br>with a<br>50% chance</div></div><div class='cr'><div class='vertical-center'><font style='color:orange'>$18<br>for<br>sure</font></div></div><div class='respDivL'><div class='vertical-center'>(E)</div></div><div class='respDivR'><div class='vertical-center'><font style='color:orange'>(I)</font></div></div></div>","null","$18","$39","1","18","39",""
"html-keyboard-response","76","101756","0.0-5.0-1.24","5c4275e526217400018bf1b4","bdp_rd","Sat Mar 25 2023 17:41:39 GMT-0600 (Mountain Daylight Time)","184308","","null","","","","FIX","","<div class='trialBorder'><div class='vertical-center'><img style='vertical-align:center; align:center' src=img/fixation3.jpg></div></div>","null","","","","","",""
"html-keyboard-response","77","103997","0.0-5.0-2.24","5c4275e526217400018bf1b4","bdp_rd","Sat Mar 25 2023 17:41:39 GMT-0600 (Mountain Daylight Time)","184308","","2241","","","","offer","","<div class='trialBorder'><div class='vertical-center'><img style='vertical-align:center; align:center' src=img/fixation3.jpg></div><div class='cl'><div class='vertical-center'>$15<br>with a<br>50% chance</div></div><div class='cr'><div class='vertical-center'>$6<br>for<br>sure</div></div><div class='respDivL'><div class='vertical-center'>(E)</div></div><div class='respDivR'><div class='vertical-center'>(I)</div></div></div>","E","$6","$15","1","6","15","RISKY"
"html-keyboard-response","78","104248","0.0-5.0-3.24","5c4275e526217400018bf1b4","bdp_rd","Sat Mar 25 2023 17:41:39 GMT-0600 (Mountain Daylight Time)","184308","","null","","","","offerFB","","<div class='trialBorder'><div class='vertical-center'><img style='vertical-align:center; align:center' src=img/fixation3.jpg></div><div class='cl'><div class='vertical-center'><font style='color:orange'>$15<br>with a<br>50% chance</font></div></div><div class='cr'><div class='vertical-center'>$6<br>for<br>sure</div></div><div class='respDivL'><div class='vertical-center'><font style='color:orange'>(E)</font></div></div><div class='respDivR'><div class='vertical-center'>(I)</div></div></div>","null","$6","$15","1","6","15",""
"html-keyboard-response","79","104749","0.0-5.0-1.25","5c4275e526217400018bf1b4","bdp_rd","Sat Mar 25 2023 17:41:39 GMT-0600 (Mountain Daylight Time)","184308","","null","","","","FIX","","<div class='trialBorder'><div class='vertical-center'><img style='vertical-align:center; align:center' src=img/fixation3.jpg></div></div>","null","","","","","",""
"html-keyboard-response","80","106338","0.0-5.0-2.25","5c4275e526217400018bf1b4","bdp_rd","Sat Mar 25 2023 17:41:39 GMT-0600 (Mountain Daylight Time)","184308","","1588","","","","offer","","<div class='trialBorder'><div class='vertical-center'><img style='vertical-align:center; align:center' src=img/fixation3.jpg></div><div class='cl'><div class='vertical-center'>$1<br>for<br>sure</div></div><div class='cr'><div class='vertical-center'>$33<br>with a<br>50% chance</div></div><div class='respDivL'><div class='vertical-center'>(E)</div></div><div class='respDivR'><div class='vertical-center'>(I)</div></div></div>","I","$1","$33","0","1","33","RISKY"
"html-keyboard-response","81","106590","0.0-5.0-3.25","5c4275e526217400018bf1b4","bdp_rd","Sat Mar 25 2023 17:41:39 GMT-0600 (Mountain Daylight Time)","184308","","null","","","","offerFB","","<div class='trialBorder'><div class='vertical-center'><img style='vertical-align:center; align:center' src=img/fixation3.jpg></div><div class='cl'><div class='vertical-center'>$1<br>for<br>sure</div></div><div class='cr'><div class='vertical-center'><font style='color:orange'>$33<br>with a<br>50% chance</font></div></div><div class='respDivL'><div class='vertical-center'>(E)</div></div><div class='respDivR'><div class='vertical-center'><font style='color:orange'>(I)</font></div></div></div>","null","$1","$33","0","1","33",""
"html-keyboard-response","82","107091","0.0-5.0-1.26","5c4275e526217400018bf1b4","bdp_rd","Sat Mar 25 2023 17:41:39 GMT-0600 (Mountain Daylight Time)","184308","","null","","","","FIX","","<div class='trialBorder'><div class='vertical-center'><img style='vertical-align:center; align:center' src=img/fixation3.jpg></div></div>","null","","","","","",""
"html-keyboard-response","83","109744","0.0-5.0-2.26","5c4275e526217400018bf1b4","bdp_rd","Sat Mar 25 2023 17:41:39 GMT-0600 (Mountain Daylight Time)","184308","","2652","","","","offer","","<div class='trialBorder'><div class='vertical-center'><img style='vertical-align:center; align:center' src=img/fixation3.jpg></div><div class='cl'><div class='vertical-center'>$40<br>for<br>sure</div></div><div class='cr'><div class='vertical-center'>$95<br>with a<br>50% chance</div></div><div class='respDivL'><div class='vertical-center'>(E)</div></div><div class='respDivR'><div class='vertical-center'>(I)</div></div></div>","E","$40","$95","0","40","95","SURE"
"html-keyboard-response","84","109996","0.0-5.0-3.26","5c4275e526217400018bf1b4","bdp_rd","Sat Mar 25 2023 17:41:39 GMT-0600 (Mountain Daylight Time)","184308","","null","","","","offerFB","","<div class='trialBorder'><div class='vertical-center'><img style='vertical-align:center; align:center' src=img/fixation3.jpg></div><div class='cl'><div class='vertical-center'><font style='color:orange'>$40<br>for<br>sure</font></div></div><div class='cr'><div class='vertical-center'>$95<br>with a<br>50% chance</div></div><div class='respDivL'><div class='vertical-center'><font style='color:orange'>(E)</font></div></div><div class='respDivR'><div class='vertical-center'>(I)</div></div></div>","null","$40","$95","0","40","95",""
"html-keyboard-response","85","110497","0.0-5.0-1.27","5c4275e526217400018bf1b4","bdp_rd","Sat Mar 25 2023 17:41:39 GMT-0600 (Mountain Daylight Time)","184308","","null","","","","FIX","","<div class='trialBorder'><div class='vertical-center'><img style='vertical-align:center; align:center' src=img/fixation3.jpg></div></div>","null","","","","","",""
"html-keyboard-response","86","111615","0.0-5.0-2.27","5c4275e526217400018bf1b4","bdp_rd","Sat Mar 25 2023 17:41:39 GMT-0600 (Mountain Daylight Time)","184308","","1117","","","","offer","","<div class='trialBorder'><div class='vertical-center'><img style='vertical-align:center; align:center' src=img/fixation3.jpg></div><div class='cl'><div class='vertical-center'>$69<br>with a<br>50% chance</div></div><div class='cr'><div class='vertical-center'>$58<br>for<br>sure</div></div><div class='respDivL'><div class='vertical-center'>(E)</div></div><div class='respDivR'><div class='vertical-center'>(I)</div></div></div>","I","$58","$69","1","58","69","SURE"
"html-keyboard-response","87","111867","0.0-5.0-3.27","5c4275e526217400018bf1b4","bdp_rd","Sat Mar 25 2023 17:41:39 GMT-0600 (Mountain Daylight Time)","184308","","null","","","","offerFB","","<div class='trialBorder'><div class='vertical-center'><img style='vertical-align:center; align:center' src=img/fixation3.jpg></div><div class='cl'><div class='vertical-center'>$69<br>with a<br>50% chance</div></div><div class='cr'><div class='vertical-center'><font style='color:orange'>$58<br>for<br>sure</font></div></div><div class='respDivL'><div class='vertical-center'>(E)</div></div><div class='respDivR'><div class='vertical-center'><font style='color:orange'>(I)</font></div></div></div>","null","$58","$69","1","58","69",""
"html-keyboard-response","88","112368","0.0-5.0-1.28","5c4275e526217400018bf1b4","bdp_rd","Sat Mar 25 2023 17:41:39 GMT-0600 (Mountain Daylight Time)","184308","","null","","","","FIX","","<div class='trialBorder'><div class='vertical-center'><img style='vertical-align:center; align:center' src=img/fixation3.jpg></div></div>","null","","","","","",""
"html-keyboard-response","89","113817","0.0-5.0-2.28","5c4275e526217400018bf1b4","bdp_rd","Sat Mar 25 2023 17:41:39 GMT-0600 (Mountain Daylight Time)","184308","","1449","","","","offer","","<div class='trialBorder'><div class='vertical-center'><img style='vertical-align:center; align:center' src=img/fixation3.jpg></div><div class='cl'><div class='vertical-center'>$31<br>for<br>sure</div></div><div class='cr'><div class='vertical-center'>$78<br>with a<br>50% chance</div></div><div class='respDivL'><div class='vertical-center'>(E)</div></div><div class='respDivR'><div class='vertical-center'>(I)</div></div></div>","E","$31","$78","0","31","78","SURE"
"html-keyboard-response","90","114068","0.0-5.0-3.28","5c4275e526217400018bf1b4","bdp_rd","Sat Mar 25 2023 17:41:39 GMT-0600 (Mountain Daylight Time)","184308","","null","","","","offerFB","","<div class='trialBorder'><div class='vertical-center'><img style='vertical-align:center; align:center' src=img/fixation3.jpg></div><div class='cl'><div class='vertical-center'><font style='color:orange'>$31<br>for<br>sure</font></div></div><div class='cr'><div class='vertical-center'>$78<br>with a<br>50% chance</div></div><div class='respDivL'><div class='vertical-center'><font style='color:orange'>(E)</font></div></div><div class='respDivR'><div class='vertical-center'>(I)</div></div></div>","null","$31","$78","0","31","78",""
"html-keyboard-response","91","114571","0.0-5.0-1.29","5c4275e526217400018bf1b4","bdp_rd","Sat Mar 25 2023 17:41:39 GMT-0600 (Mountain Daylight Time)","184308","","null","","","","FIX","","<div class='trialBorder'><div class='vertical-center'><img style='vertical-align:center; align:center' src=img/fixation3.jpg></div></div>","null","","","","","",""
"html-keyboard-response","92","115821","0.0-5.0-2.29","5c4275e526217400018bf1b4","bdp_rd","Sat Mar 25 2023 17:41:39 GMT-0600 (Mountain Daylight Time)","184308","","1250","","","","offer","","<div class='trialBorder'><div class='vertical-center'><img style='vertical-align:center; align:center' src=img/fixation3.jpg></div><div class='cl'><div class='vertical-center'>$23<br>with a<br>50% chance</div></div><div class='cr'><div class='vertical-center'>$8<br>for<br>sure</div></div><div class='respDivL'><div class='vertical-center'>(E)</div></div><div class='respDivR'><div class='vertical-center'>(I)</div></div></div>","E","$8","$23","1","8","23","RISKY"
"html-keyboard-response","93","116072","0.0-5.0-3.29","5c4275e526217400018bf1b4","bdp_rd","Sat Mar 25 2023 17:41:39 GMT-0600 (Mountain Daylight Time)","184308","","null","","","","offerFB","","<div class='trialBorder'><div class='vertical-center'><img style='vertical-align:center; align:center' src=img/fixation3.jpg></div><div class='cl'><div class='vertical-center'><font style='color:orange'>$23<br>with a<br>50% chance</font></div></div><div class='cr'><div class='vertical-center'>$8<br>for<br>sure</div></div><div class='respDivL'><div class='vertical-center'><font style='color:orange'>(E)</font></div></div><div class='respDivR'><div class='vertical-center'>(I)</div></div></div>","null","$8","$23","1","8","23",""
"html-keyboard-response","94","116573","0.0-5.0-1.30","5c4275e526217400018bf1b4","bdp_rd","Sat Mar 25 2023 17:41:39 GMT-0600 (Mountain Daylight Time)","184308","","null","","","","FIX","","<div class='trialBorder'><div class='vertical-center'><img style='vertical-align:center; align:center' src=img/fixation3.jpg></div></div>","null","","","","","",""
"html-keyboard-response","95","117694","0.0-5.0-2.30","5c4275e526217400018bf1b4","bdp_rd","Sat Mar 25 2023 17:41:39 GMT-0600 (Mountain Daylight Time)","184308","","1120","","","","offer","","<div class='trialBorder'><div class='vertical-center'><img style='vertical-align:center; align:center' src=img/fixation3.jpg></div><div class='cl'><div class='vertical-center'>$98<br>with a<br>50% chance</div></div><div class='cr'><div class='vertical-center'>$53<br>for<br>sure</div></div><div class='respDivL'><div class='vertical-center'>(E)</div></div><div class='respDivR'><div class='vertical-center'>(I)</div></div></div>","I","$53","$98","1","53","98","SURE"
"html-keyboard-response","96","117945","0.0-5.0-3.30","5c4275e526217400018bf1b4","bdp_rd","Sat Mar 25 2023 17:41:39 GMT-0600 (Mountain Daylight Time)","184308","","null","","","","offerFB","","<div class='trialBorder'><div class='vertical-center'><img style='vertical-align:center; align:center' src=img/fixation3.jpg></div><div class='cl'><div class='vertical-center'>$98<br>with a<br>50% chance</div></div><div class='cr'><div class='vertical-center'><font style='color:orange'>$53<br>for<br>sure</font></div></div><div class='respDivL'><div class='vertical-center'>(E)</div></div><div class='respDivR'><div class='vertical-center'><font style='color:orange'>(I)</font></div></div></div>","null","$53","$98","1","53","98",""
"html-keyboard-response","97","118447","0.0-5.0-1.31","5c4275e526217400018bf1b4","bdp_rd","Sat Mar 25 2023 17:41:39 GMT-0600 (Mountain Daylight Time)","184308","","null","","","","FIX","","<div class='trialBorder'><div class='vertical-center'><img style='vertical-align:center; align:center' src=img/fixation3.jpg></div></div>","null","","","","","",""
"html-keyboard-response","98","119996","0.0-5.0-2.31","5c4275e526217400018bf1b4","bdp_rd","Sat Mar 25 2023 17:41:39 GMT-0600 (Mountain Daylight Time)","184308","","1549","","","","offer","","<div class='trialBorder'><div class='vertical-center'><img style='vertical-align:center; align:center' src=img/fixation3.jpg></div><div class='cl'><div class='vertical-center'>$15<br>for<br>sure</div></div><div class='cr'><div class='vertical-center'>$31<br>with a<br>50% chance</div></div><div class='respDivL'><div class='vertical-center'>(E)</div></div><div class='respDivR'><div class='vertical-center'>(I)</div></div></div>","E","$15","$31","0","15","31","SURE"
"html-keyboard-response","99","120247","0.0-5.0-3.31","5c4275e526217400018bf1b4","bdp_rd","Sat Mar 25 2023 17:41:39 GMT-0600 (Mountain Daylight Time)","184308","","null","","","","offerFB","","<div class='trialBorder'><div class='vertical-center'><img style='vertical-align:center; align:center' src=img/fixation3.jpg></div><div class='cl'><div class='vertical-center'><font style='color:orange'>$15<br>for<br>sure</font></div></div><div class='cr'><div class='vertical-center'>$31<br>with a<br>50% chance</div></div><div class='respDivL'><div class='vertical-center'><font style='color:orange'>(E)</font></div></div><div class='respDivR'><div class='vertical-center'>(I)</div></div></div>","null","$15","$31","0","15","31",""
"html-keyboard-response","100","120749","0.0-5.0-1.32","5c4275e526217400018bf1b4","bdp_rd","Sat Mar 25 2023 17:41:39 GMT-0600 (Mountain Daylight Time)","184308","","null","","","","FIX","","<div class='trialBorder'><div class='vertical-center'><img style='vertical-align:center; align:center' src=img/fixation3.jpg></div></div>","null","","","","","",""
"html-keyboard-response","101","122110","0.0-5.0-2.32","5c4275e526217400018bf1b4","bdp_rd","Sat Mar 25 2023 17:41:39 GMT-0600 (Mountain Daylight Time)","184308","","1361","","","","offer","","<div class='trialBorder'><div class='vertical-center'><img style='vertical-align:center; align:center' src=img/fixation3.jpg></div><div class='cl'><div class='vertical-center'>$40<br>with a<br>50% chance</div></div><div class='cr'><div class='vertical-center'>$10<br>for<br>sure</div></div><div class='respDivL'><div class='vertical-center'>(E)</div></div><div class='respDivR'><div class='vertical-center'>(I)</div></div></div>","E","$10","$40","1","10","40","RISKY"
"html-keyboard-response","102","122361","0.0-5.0-3.32","5c4275e526217400018bf1b4","bdp_rd","Sat Mar 25 2023 17:41:39 GMT-0600 (Mountain Daylight Time)","184308","","null","","","","offerFB","","<div class='trialBorder'><div class='vertical-center'><img style='vertical-align:center; align:center' src=img/fixation3.jpg></div><div class='cl'><div class='vertical-center'><font style='color:orange'>$40<br>with a<br>50% chance</font></div></div><div class='cr'><div class='vertical-center'>$10<br>for<br>sure</div></div><div class='respDivL'><div class='vertical-center'><font style='color:orange'>(E)</font></div></div><div class='respDivR'><div class='vertical-center'>(I)</div></div></div>","null","$10","$40","1","10","40",""
"html-keyboard-response","103","122863","0.0-5.0-1.33","5c4275e526217400018bf1b4","bdp_rd","Sat Mar 25 2023 17:41:39 GMT-0600 (Mountain Daylight Time)","184308","","null","","","","FIX","","<div class='trialBorder'><div class='vertical-center'><img style='vertical-align:center; align:center' src=img/fixation3.jpg></div></div>","null","","","","","",""
"html-keyboard-response","104","124664","0.0-5.0-2.33","5c4275e526217400018bf1b4","bdp_rd","Sat Mar 25 2023 17:41:39 GMT-0600 (Mountain Daylight Time)","184308","","1801","","","","offer","","<div class='trialBorder'><div class='vertical-center'><img style='vertical-align:center; align:center' src=img/fixation3.jpg></div><div class='cl'><div class='vertical-center'>$45<br>for<br>sure</div></div><div class='cr'><div class='vertical-center'>$86<br>with a<br>50% chance</div></div><div class='respDivL'><div class='vertical-center'>(E)</div></div><div class='respDivR'><div class='vertical-center'>(I)</div></div></div>","E","$45","$86","0","45","86","SURE"
"html-keyboard-response","105","124915","0.0-5.0-3.33","5c4275e526217400018bf1b4","bdp_rd","Sat Mar 25 2023 17:41:39 GMT-0600 (Mountain Daylight Time)","184308","","null","","","","offerFB","","<div class='trialBorder'><div class='vertical-center'><img style='vertical-align:center; align:center' src=img/fixation3.jpg></div><div class='cl'><div class='vertical-center'><font style='color:orange'>$45<br>for<br>sure</font></div></div><div class='cr'><div class='vertical-center'>$86<br>with a<br>50% chance</div></div><div class='respDivL'><div class='vertical-center'><font style='color:orange'>(E)</font></div></div><div class='respDivR'><div class='vertical-center'>(I)</div></div></div>","null","$45","$86","0","45","86",""
"html-keyboard-response","106","125417","0.0-5.0-1.34","5c4275e526217400018bf1b4","bdp_rd","Sat Mar 25 2023 17:41:39 GMT-0600 (Mountain Daylight Time)","184308","","null","","","","FIX","","<div class='trialBorder'><div class='vertical-center'><img style='vertical-align:center; align:center' src=img/fixation3.jpg></div></div>","null","","","","","",""
"html-keyboard-response","107","126518","0.0-5.0-2.34","5c4275e526217400018bf1b4","bdp_rd","Sat Mar 25 2023 17:41:39 GMT-0600 (Mountain Daylight Time)","184308","","1101","","","","offer","","<div class='trialBorder'><div class='vertical-center'><img style='vertical-align:center; align:center' src=img/fixation3.jpg></div><div class='cl'><div class='vertical-center'>$47<br>with a<br>50% chance</div></div><div class='cr'><div class='vertical-center'>$27<br>for<br>sure</div></div><div class='respDivL'><div class='vertical-center'>(E)</div></div><div class='respDivR'><div class='vertical-center'>(I)</div></div></div>","I","$27","$47","1","27","47","SURE"
"html-keyboard-response","108","126770","0.0-5.0-3.34","5c4275e526217400018bf1b4","bdp_rd","Sat Mar 25 2023 17:41:39 GMT-0600 (Mountain Daylight Time)","184308","","null","","","","offerFB","","<div class='trialBorder'><div class='vertical-center'><img style='vertical-align:center; align:center' src=img/fixation3.jpg></div><div class='cl'><div class='vertical-center'>$47<br>with a<br>50% chance</div></div><div class='cr'><div class='vertical-center'><font style='color:orange'>$27<br>for<br>sure</font></div></div><div class='respDivL'><div class='vertical-center'>(E)</div></div><div class='respDivR'><div class='vertical-center'><font style='color:orange'>(I)</font></div></div></div>","null","$27","$47","1","27","47",""
"html-keyboard-response","109","127271","0.0-5.0-1.35","5c4275e526217400018bf1b4","bdp_rd","Sat Mar 25 2023 17:41:39 GMT-0600 (Mountain Daylight Time)","184308","","null","","","","FIX","","<div class='trialBorder'><div class='vertical-center'><img style='vertical-align:center; align:center' src=img/fixation3.jpg></div></div>","null","","","","","",""
"html-keyboard-response","110","128470","0.0-5.0-2.35","5c4275e526217400018bf1b4","bdp_rd","Sat Mar 25 2023 17:41:39 GMT-0600 (Mountain Daylight Time)","184308","","1198","","","","offer","","<div class='trialBorder'><div class='vertical-center'><img style='vertical-align:center; align:center' src=img/fixation3.jpg></div><div class='cl'><div class='vertical-center'>$11<br>with a<br>50% chance</div></div><div class='cr'><div class='vertical-center'>$4<br>for<br>sure</div></div><div class='respDivL'><div class='vertical-center'>(E)</div></div><div class='respDivR'><div class='vertical-center'>(I)</div></div></div>","E","$4","$11","1","4","11","RISKY"
"html-keyboard-response","111","128721","0.0-5.0-3.35","5c4275e526217400018bf1b4","bdp_rd","Sat Mar 25 2023 17:41:39 GMT-0600 (Mountain Daylight Time)","184308","","null","","","","offerFB","","<div class='trialBorder'><div class='vertical-center'><img style='vertical-align:center; align:center' src=img/fixation3.jpg></div><div class='cl'><div class='vertical-center'><font style='color:orange'>$11<br>with a<br>50% chance</font></div></div><div class='cr'><div class='vertical-center'>$4<br>for<br>sure</div></div><div class='respDivL'><div class='vertical-center'><font style='color:orange'>(E)</font></div></div><div class='respDivR'><div class='vertical-center'>(I)</div></div></div>","null","$4","$11","1","4","11",""
"html-keyboard-response","112","129222","0.0-5.0-1.36","5c4275e526217400018bf1b4","bdp_rd","Sat Mar 25 2023 17:41:39 GMT-0600 (Mountain Daylight Time)","184308","","null","","","","FIX","","<div class='trialBorder'><div class='vertical-center'><img style='vertical-align:center; align:center' src=img/fixation3.jpg></div></div>","null","","","","","",""
"html-keyboard-response","113","130640","0.0-5.0-2.36","5c4275e526217400018bf1b4","bdp_rd","Sat Mar 25 2023 17:41:39 GMT-0600 (Mountain Daylight Time)","184308","","1417","","","","offer","","<div class='trialBorder'><div class='vertical-center'><img style='vertical-align:center; align:center' src=img/fixation3.jpg></div><div class='cl'><div class='vertical-center'>$12<br>for<br>sure</div></div><div class='cr'><div class='vertical-center'>$35<br>with a<br>50% chance</div></div><div class='respDivL'><div class='vertical-center'>(E)</div></div><div class='respDivR'><div class='vertical-center'>(I)</div></div></div>","I","$12","$35","0","12","35","RISKY"
"html-keyboard-response","114","130892","0.0-5.0-3.36","5c4275e526217400018bf1b4","bdp_rd","Sat Mar 25 2023 17:41:39 GMT-0600 (Mountain Daylight Time)","184308","","null","","","","offerFB","","<div class='trialBorder'><div class='vertical-center'><img style='vertical-align:center; align:center' src=img/fixation3.jpg></div><div class='cl'><div class='vertical-center'>$12<br>for<br>sure</div></div><div class='cr'><div class='vertical-center'><font style='color:orange'>$35<br>with a<br>50% chance</font></div></div><div class='respDivL'><div class='vertical-center'>(E)</div></div><div class='respDivR'><div class='vertical-center'><font style='color:orange'>(I)</font></div></div></div>","null","$12","$35","0","12","35",""
"html-keyboard-response","115","131393","0.0-5.0-1.37","5c4275e526217400018bf1b4","bdp_rd","Sat Mar 25 2023 17:41:39 GMT-0600 (Mountain Daylight Time)","184308","","null","","","","FIX","","<div class='trialBorder'><div class='vertical-center'><img style='vertical-align:center; align:center' src=img/fixation3.jpg></div></div>","null","","","","","",""
"html-keyboard-response","116","133274","0.0-5.0-2.37","5c4275e526217400018bf1b4","bdp_rd","Sat Mar 25 2023 17:41:39 GMT-0600 (Mountain Daylight Time)","184308","","1879","","","","offer","","<div class='trialBorder'><div class='vertical-center'><img style='vertical-align:center; align:center' src=img/fixation3.jpg></div><div class='cl'><div class='vertical-center'>$28<br>with a<br>50% chance</div></div><div class='cr'><div class='vertical-center'>$16<br>for<br>sure</div></div><div class='respDivL'><div class='vertical-center'>(E)</div></div><div class='respDivR'><div class='vertical-center'>(I)</div></div></div>","I","$16","$28","1","16","28","SURE"
"html-keyboard-response","117","133525","0.0-5.0-3.37","5c4275e526217400018bf1b4","bdp_rd","Sat Mar 25 2023 17:41:39 GMT-0600 (Mountain Daylight Time)","184308","","null","","","","offerFB","","<div class='trialBorder'><div class='vertical-center'><img style='vertical-align:center; align:center' src=img/fixation3.jpg></div><div class='cl'><div class='vertical-center'>$28<br>with a<br>50% chance</div></div><div class='cr'><div class='vertical-center'><font style='color:orange'>$16<br>for<br>sure</font></div></div><div class='respDivL'><div class='vertical-center'>(E)</div></div><div class='respDivR'><div class='vertical-center'><font style='color:orange'>(I)</font></div></div></div>","null","$16","$28","1","16","28",""
"html-keyboard-response","118","134027","0.0-5.0-1.38","5c4275e526217400018bf1b4","bdp_rd","Sat Mar 25 2023 17:41:39 GMT-0600 (Mountain Daylight Time)","184308","","null","","","","FIX","","<div class='trialBorder'><div class='vertical-center'><img style='vertical-align:center; align:center' src=img/fixation3.jpg></div></div>","null","","","","","",""
"html-keyboard-response","119","134885","0.0-5.0-2.38","5c4275e526217400018bf1b4","bdp_rd","Sat Mar 25 2023 17:41:39 GMT-0600 (Mountain Daylight Time)","184308","","858","","","","offer","","<div class='trialBorder'><div class='vertical-center'><img style='vertical-align:center; align:center' src=img/fixation3.jpg></div><div class='cl'><div class='vertical-center'>$21<br>for<br>sure</div></div><div class='cr'><div class='vertical-center'>$25<br>with a<br>50% chance</div></div><div class='respDivL'><div class='vertical-center'>(E)</div></div><div class='respDivR'><div class='vertical-center'>(I)</div></div></div>","E","$21","$25","0","21","25","SURE"
"html-keyboard-response","120","135137","0.0-5.0-3.38","5c4275e526217400018bf1b4","bdp_rd","Sat Mar 25 2023 17:41:39 GMT-0600 (Mountain Daylight Time)","184308","","null","","","","offerFB","","<div class='trialBorder'><div class='vertical-center'><img style='vertical-align:center; align:center' src=img/fixation3.jpg></div><div class='cl'><div class='vertical-center'><font style='color:orange'>$21<br>for<br>sure</font></div></div><div class='cr'><div class='vertical-center'>$25<br>with a<br>50% chance</div></div><div class='respDivL'><div class='vertical-center'><font style='color:orange'>(E)</font></div></div><div class='respDivR'><div class='vertical-center'>(I)</div></div></div>","null","$21","$25","0","21","25",""
"html-keyboard-response","121","135638","0.0-5.0-1.39","5c4275e526217400018bf1b4","bdp_rd","Sat Mar 25 2023 17:41:39 GMT-0600 (Mountain Daylight Time)","184308","","null","","","","FIX","","<div class='trialBorder'><div class='vertical-center'><img style='vertical-align:center; align:center' src=img/fixation3.jpg></div></div>","null","","","","","",""
"html-keyboard-response","122","137578","0.0-5.0-2.39","5c4275e526217400018bf1b4","bdp_rd","Sat Mar 25 2023 17:41:39 GMT-0600 (Mountain Daylight Time)","184308","","1940","","","","offer","","<div class='trialBorder'><div class='vertical-center'><img style='vertical-align:center; align:center' src=img/fixation3.jpg></div><div class='cl'><div class='vertical-center'>$12<br>with a<br>50% chance</div></div><div class='cr'><div class='vertical-center'>$3<br>for<br>sure</div></div><div class='respDivL'><div class='vertical-center'>(E)</div></div><div class='respDivR'><div class='vertical-center'>(I)</div></div></div>","E","$3","$12","1","3","12","RISKY"
"html-keyboard-response","123","137829","0.0-5.0-3.39","5c4275e526217400018bf1b4","bdp_rd","Sat Mar 25 2023 17:41:39 GMT-0600 (Mountain Daylight Time)","184308","","null","","","","offerFB","","<div class='trialBorder'><div class='vertical-center'><img style='vertical-align:center; align:center' src=img/fixation3.jpg></div><div class='cl'><div class='vertical-center'><font style='color:orange'>$12<br>with a<br>50% chance</font></div></div><div class='cr'><div class='vertical-center'>$3<br>for<br>sure</div></div><div class='respDivL'><div class='vertical-center'><font style='color:orange'>(E)</font></div></div><div class='respDivR'><div class='vertical-center'>(I)</div></div></div>","null","$3","$12","1","3","12",""
"html-keyboard-response","124","138330","0.0-5.0-1.40","5c4275e526217400018bf1b4","bdp_rd","Sat Mar 25 2023 17:41:39 GMT-0600 (Mountain Daylight Time)","184308","","null","","","","FIX","","<div class='trialBorder'><div class='vertical-center'><img style='vertical-align:center; align:center' src=img/fixation3.jpg></div></div>","null","","","","","",""
"html-keyboard-response","125","140422","0.0-5.0-2.40","5c4275e526217400018bf1b4","bdp_rd","Sat Mar 25 2023 17:41:39 GMT-0600 (Mountain Daylight Time)","184308","","2091","","","","offer","","<div class='trialBorder'><div class='vertical-center'><img style='vertical-align:center; align:center' src=img/fixation3.jpg></div><div class='cl'><div class='vertical-center'>$89<br>with a<br>50% chance</div></div><div class='cr'><div class='vertical-center'>$28<br>for<br>sure</div></div><div class='respDivL'><div class='vertical-center'>(E)</div></div><div class='respDivR'><div class='vertical-center'>(I)</div></div></div>","E","$28","$89","1","28","89","RISKY"
"html-keyboard-response","126","140673","0.0-5.0-3.40","5c4275e526217400018bf1b4","bdp_rd","Sat Mar 25 2023 17:41:39 GMT-0600 (Mountain Daylight Time)","184308","","null","","","","offerFB","","<div class='trialBorder'><div class='vertical-center'><img style='vertical-align:center; align:center' src=img/fixation3.jpg></div><div class='cl'><div class='vertical-center'><font style='color:orange'>$89<br>with a<br>50% chance</font></div></div><div class='cr'><div class='vertical-center'>$28<br>for<br>sure</div></div><div class='respDivL'><div class='vertical-center'><font style='color:orange'>(E)</font></div></div><div class='respDivR'><div class='vertical-center'>(I)</div></div></div>","null","$28","$89","1","28","89",""
"html-keyboard-response","127","141174","0.0-5.0-1.41","5c4275e526217400018bf1b4","bdp_rd","Sat Mar 25 2023 17:41:39 GMT-0600 (Mountain Daylight Time)","184308","","null","","","","FIX","","<div class='trialBorder'><div class='vertical-center'><img style='vertical-align:center; align:center' src=img/fixation3.jpg></div></div>","null","","","","","",""
"html-keyboard-response","128","142835","0.0-5.0-2.41","5c4275e526217400018bf1b4","bdp_rd","Sat Mar 25 2023 17:41:39 GMT-0600 (Mountain Daylight Time)","184308","","1660","","","","offer","","<div class='trialBorder'><div class='vertical-center'><img style='vertical-align:center; align:center' src=img/fixation3.jpg></div><div class='cl'><div class='vertical-center'>$50<br>with a<br>50% chance</div></div><div class='cr'><div class='vertical-center'>$5<br>for<br>sure</div></div><div class='respDivL'><div class='vertical-center'>(E)</div></div><div class='respDivR'><div class='vertical-center'>(I)</div></div></div>","E","$5","$50","1","5","50","RISKY"
"html-keyboard-response","129","143086","0.0-5.0-3.41","5c4275e526217400018bf1b4","bdp_rd","Sat Mar 25 2023 17:41:39 GMT-0600 (Mountain Daylight Time)","184308","","null","","","","offerFB","","<div class='trialBorder'><div class='vertical-center'><img style='vertical-align:center; align:center' src=img/fixation3.jpg></div><div class='cl'><div class='vertical-center'><font style='color:orange'>$50<br>with a<br>50% chance</font></div></div><div class='cr'><div class='vertical-center'>$5<br>for<br>sure</div></div><div class='respDivL'><div class='vertical-center'><font style='color:orange'>(E)</font></div></div><div class='respDivR'><div class='vertical-center'>(I)</div></div></div>","null","$5","$50","1","5","50",""
"html-keyboard-response","130","143588","0.0-5.0-1.42","5c4275e526217400018bf1b4","bdp_rd","Sat Mar 25 2023 17:41:39 GMT-0600 (Mountain Daylight Time)","184308","","null","","","","FIX","","<div class='trialBorder'><div class='vertical-center'><img style='vertical-align:center; align:center' src=img/fixation3.jpg></div></div>","null","","","","","",""
"html-keyboard-response","131","144999","0.0-5.0-2.42","5c4275e526217400018bf1b4","bdp_rd","Sat Mar 25 2023 17:41:39 GMT-0600 (Mountain Daylight Time)","184308","","1410","","","","offer","","<div class='trialBorder'><div class='vertical-center'><img style='vertical-align:center; align:center' src=img/fixation3.jpg></div><div class='cl'><div class='vertical-center'>$16<br>with a<br>50% chance</div></div><div class='cr'><div class='vertical-center'>$5<br>for<br>sure</div></div><div class='respDivL'><div class='vertical-center'>(E)</div></div><div class='respDivR'><div class='vertical-center'>(I)</div></div></div>","I","$5","$16","1","5","16","SURE"
"html-keyboard-response","132","145250","0.0-5.0-3.42","5c4275e526217400018bf1b4","bdp_rd","Sat Mar 25 2023 17:41:39 GMT-0600 (Mountain Daylight Time)","184308","","null","","","","offerFB","","<div class='trialBorder'><div class='vertical-center'><img style='vertical-align:center; align:center' src=img/fixation3.jpg></div><div class='cl'><div class='vertical-center'>$16<br>with a<br>50% chance</div></div><div class='cr'><div class='vertical-center'><font style='color:orange'>$5<br>for<br>sure</font></div></div><div class='respDivL'><div class='vertical-center'>(E)</div></div><div class='respDivR'><div class='vertical-center'><font style='color:orange'>(I)</font></div></div></div>","null","$5","$16","1","5","16",""
"html-keyboard-response","133","145751","0.0-5.0-1.43","5c4275e526217400018bf1b4","bdp_rd","Sat Mar 25 2023 17:41:39 GMT-0600 (Mountain Daylight Time)","184308","","null","","","","FIX","","<div class='trialBorder'><div class='vertical-center'><img style='vertical-align:center; align:center' src=img/fixation3.jpg></div></div>","null","","","","","",""
"html-keyboard-response","134","147679","0.0-5.0-2.43","5c4275e526217400018bf1b4","bdp_rd","Sat Mar 25 2023 17:41:39 GMT-0600 (Mountain Daylight Time)","184308","","1927","","","","offer","","<div class='trialBorder'><div class='vertical-center'><img style='vertical-align:center; align:center' src=img/fixation3.jpg></div><div class='cl'><div class='vertical-center'>$27<br>with a<br>50% chance</div></div><div class='cr'><div class='vertical-center'>$12<br>for<br>sure</div></div><div class='respDivL'><div class='vertical-center'>(E)</div></div><div class='respDivR'><div class='vertical-center'>(I)</div></div></div>","I","$12","$27","1","12","27","SURE"
"html-keyboard-response","135","147930","0.0-5.0-3.43","5c4275e526217400018bf1b4","bdp_rd","Sat Mar 25 2023 17:41:39 GMT-0600 (Mountain Daylight Time)","184308","","null","","","","offerFB","","<div class='trialBorder'><div class='vertical-center'><img style='vertical-align:center; align:center' src=img/fixation3.jpg></div><div class='cl'><div class='vertical-center'>$27<br>with a<br>50% chance</div></div><div class='cr'><div class='vertical-center'><font style='color:orange'>$12<br>for<br>sure</font></div></div><div class='respDivL'><div class='vertical-center'>(E)</div></div><div class='respDivR'><div class='vertical-center'><font style='color:orange'>(I)</font></div></div></div>","null","$12","$27","1","12","27",""
"html-keyboard-response","136","148432","0.0-5.0-1.44","5c4275e526217400018bf1b4","bdp_rd","Sat Mar 25 2023 17:41:39 GMT-0600 (Mountain Daylight Time)","184308","","null","","","","FIX","","<div class='trialBorder'><div class='vertical-center'><img style='vertical-align:center; align:center' src=img/fixation3.jpg></div></div>","null","","","","","",""
"html-keyboard-response","137","149940","0.0-5.0-2.44","5c4275e526217400018bf1b4","bdp_rd","Sat Mar 25 2023 17:41:39 GMT-0600 (Mountain Daylight Time)","184308","","1508","","","","offer","","<div class='trialBorder'><div class='vertical-center'><img style='vertical-align:center; align:center' src=img/fixation3.jpg></div><div class='cl'><div class='vertical-center'>$37<br>for<br>sure</div></div><div class='cr'><div class='vertical-center'>$44<br>with a<br>50% chance</div></div><div class='respDivL'><div class='vertical-center'>(E)</div></div><div class='respDivR'><div class='vertical-center'>(I)</div></div></div>","E","$37","$44","0","37","44","SURE"
"html-keyboard-response","138","150193","0.0-5.0-3.44","5c4275e526217400018bf1b4","bdp_rd","Sat Mar 25 2023 17:41:39 GMT-0600 (Mountain Daylight Time)","184308","","null","","","","offerFB","","<div class='trialBorder'><div class='vertical-center'><img style='vertical-align:center; align:center' src=img/fixation3.jpg></div><div class='cl'><div class='vertical-center'><font style='color:orange'>$37<br>for<br>sure</font></div></div><div class='cr'><div class='vertical-center'>$44<br>with a<br>50% chance</div></div><div class='respDivL'><div class='vertical-center'><font style='color:orange'>(E)</font></div></div><div class='respDivR'><div class='vertical-center'>(I)</div></div></div>","null","$37","$44","0","37","44",""
"html-keyboard-response","139","150694","0.0-5.0-1.45","5c4275e526217400018bf1b4","bdp_rd","Sat Mar 25 2023 17:41:39 GMT-0600 (Mountain Daylight Time)","184308","","null","","","","FIX","","<div class='trialBorder'><div class='vertical-center'><img style='vertical-align:center; align:center' src=img/fixation3.jpg></div></div>","null","","","","","",""
"html-keyboard-response","140","152395","0.0-5.0-2.45","5c4275e526217400018bf1b4","bdp_rd","Sat Mar 25 2023 17:41:39 GMT-0600 (Mountain Daylight Time)","184308","","1701","","","","offer","","<div class='trialBorder'><div class='vertical-center'><img style='vertical-align:center; align:center' src=img/fixation3.jpg></div><div class='cl'><div class='vertical-center'>$19<br>for<br>sure</div></div><div class='cr'><div class='vertical-center'>$51<br>with a<br>50% chance</div></div><div class='respDivL'><div class='vertical-center'>(E)</div></div><div class='respDivR'><div class='vertical-center'>(I)</div></div></div>","E","$19","$51","0","19","51","SURE"
"html-keyboard-response","141","152647","0.0-5.0-3.45","5c4275e526217400018bf1b4","bdp_rd","Sat Mar 25 2023 17:41:39 GMT-0600 (Mountain Daylight Time)","184308","","null","","","","offerFB","","<div class='trialBorder'><div class='vertical-center'><img style='vertical-align:center; align:center' src=img/fixation3.jpg></div><div class='cl'><div class='vertical-center'><font style='color:orange'>$19<br>for<br>sure</font></div></div><div class='cr'><div class='vertical-center'>$51<br>with a<br>50% chance</div></div><div class='respDivL'><div class='vertical-center'><font style='color:orange'>(E)</font></div></div><div class='respDivR'><div class='vertical-center'>(I)</div></div></div>","null","$19","$51","0","19","51",""
"html-keyboard-response","142","153148","0.0-5.0-1.46","5c4275e526217400018bf1b4","bdp_rd","Sat Mar 25 2023 17:41:39 GMT-0600 (Mountain Daylight Time)","184308","","null","","","","FIX","","<div class='trialBorder'><div class='vertical-center'><img style='vertical-align:center; align:center' src=img/fixation3.jpg></div></div>","null","","","","","",""
"html-keyboard-response","143","154608","0.0-5.0-2.46","5c4275e526217400018bf1b4","bdp_rd","Sat Mar 25 2023 17:41:39 GMT-0600 (Mountain Daylight Time)","184308","","1459","","","","offer","","<div class='trialBorder'><div class='vertical-center'><img style='vertical-align:center; align:center' src=img/fixation3.jpg></div><div class='cl'><div class='vertical-center'>$13<br>for<br>sure</div></div><div class='cr'><div class='vertical-center'>$41<br>with a<br>50% chance</div></div><div class='respDivL'><div class='vertical-center'>(E)</div></div><div class='respDivR'><div class='vertical-center'>(I)</div></div></div>","I","$13","$41","0","13","41","RISKY"
"html-keyboard-response","144","154860","0.0-5.0-3.46","5c4275e526217400018bf1b4","bdp_rd","Sat Mar 25 2023 17:41:39 GMT-0600 (Mountain Daylight Time)","184308","","null","","","","offerFB","","<div class='trialBorder'><div class='vertical-center'><img style='vertical-align:center; align:center' src=img/fixation3.jpg></div><div class='cl'><div class='vertical-center'>$13<br>for<br>sure</div></div><div class='cr'><div class='vertical-center'><font style='color:orange'>$41<br>with a<br>50% chance</font></div></div><div class='respDivL'><div class='vertical-center'>(E)</div></div><div class='respDivR'><div class='vertical-center'><font style='color:orange'>(I)</font></div></div></div>","null","$13","$41","0","13","41",""
"html-keyboard-response","145","155361","0.0-5.0-1.47","5c4275e526217400018bf1b4","bdp_rd","Sat Mar 25 2023 17:41:39 GMT-0600 (Mountain Daylight Time)","184308","","null","","","","FIX","","<div class='trialBorder'><div class='vertical-center'><img style='vertical-align:center; align:center' src=img/fixation3.jpg></div></div>","null","","","","","",""
"html-keyboard-response","146","156662","0.0-5.0-2.47","5c4275e526217400018bf1b4","bdp_rd","Sat Mar 25 2023 17:41:39 GMT-0600 (Mountain Daylight Time)","184308","","1300","","","","offer","","<div class='trialBorder'><div class='vertical-center'><img style='vertical-align:center; align:center' src=img/fixation3.jpg></div><div class='cl'><div class='vertical-center'>$20<br>for<br>sure</div></div><div class='cr'><div class='vertical-center'>$37<br>with a<br>50% chance</div></div><div class='respDivL'><div class='vertical-center'>(E)</div></div><div class='respDivR'><div class='vertical-center'>(I)</div></div></div>","E","$20","$37","0","20","37","SURE"
"html-keyboard-response","147","156914","0.0-5.0-3.47","5c4275e526217400018bf1b4","bdp_rd","Sat Mar 25 2023 17:41:39 GMT-0600 (Mountain Daylight Time)","184308","","null","","","","offerFB","","<div class='trialBorder'><div class='vertical-center'><img style='vertical-align:center; align:center' src=img/fixation3.jpg></div><div class='cl'><div class='vertical-center'><font style='color:orange'>$20<br>for<br>sure</font></div></div><div class='cr'><div class='vertical-center'>$37<br>with a<br>50% chance</div></div><div class='respDivL'><div class='vertical-center'><font style='color:orange'>(E)</font></div></div><div class='respDivR'><div class='vertical-center'>(I)</div></div></div>","null","$20","$37","0","20","37",""
"html-keyboard-response","148","157415","0.0-5.0-1.48","5c4275e526217400018bf1b4","bdp_rd","Sat Mar 25 2023 17:41:39 GMT-0600 (Mountain Daylight Time)","184308","","null","","","","FIX","","<div class='trialBorder'><div class='vertical-center'><img style='vertical-align:center; align:center' src=img/fixation3.jpg></div></div>","null","","","","","",""
"html-keyboard-response","149","158793","0.0-5.0-2.48","5c4275e526217400018bf1b4","bdp_rd","Sat Mar 25 2023 17:41:39 GMT-0600 (Mountain Daylight Time)","184308","","1378","","","","offer","","<div class='trialBorder'><div class='vertical-center'><img style='vertical-align:center; align:center' src=img/fixation3.jpg></div><div class='cl'><div class='vertical-center'>$29<br>for<br>sure</div></div><div class='cr'><div class='vertical-center'>$46<br>with a<br>50% chance</div></div><div class='respDivL'><div class='vertical-center'>(E)</div></div><div class='respDivR'><div class='vertical-center'>(I)</div></div></div>","E","$29","$46","0","29","46","SURE"
"html-keyboard-response","150","159045","0.0-5.0-3.48","5c4275e526217400018bf1b4","bdp_rd","Sat Mar 25 2023 17:41:39 GMT-0600 (Mountain Daylight Time)","184308","","null","","","","offerFB","","<div class='trialBorder'><div class='vertical-center'><img style='vertical-align:center; align:center' src=img/fixation3.jpg></div><div class='cl'><div class='vertical-center'><font style='color:orange'>$29<br>for<br>sure</font></div></div><div class='cr'><div class='vertical-center'>$46<br>with a<br>50% chance</div></div><div class='respDivL'><div class='vertical-center'><font style='color:orange'>(E)</font></div></div><div class='respDivR'><div class='vertical-center'>(I)</div></div></div>","null","$29","$46","0","29","46",""
"html-keyboard-response","151","159546","0.0-5.0-1.49","5c4275e526217400018bf1b4","bdp_rd","Sat Mar 25 2023 17:41:39 GMT-0600 (Mountain Daylight Time)","184308","","null","","","","FIX","","<div class='trialBorder'><div class='vertical-center'><img style='vertical-align:center; align:center' src=img/fixation3.jpg></div></div>","null","","","","","",""
"html-keyboard-response","152","160375","0.0-5.0-2.49","5c4275e526217400018bf1b4","bdp_rd","Sat Mar 25 2023 17:41:39 GMT-0600 (Mountain Daylight Time)","184308","","829","","","","offer","","<div class='trialBorder'><div class='vertical-center'><img style='vertical-align:center; align:center' src=img/fixation3.jpg></div><div class='cl'><div class='vertical-center'>$7<br>for<br>sure</div></div><div class='cr'><div class='vertical-center'>$71<br>with a<br>50% chance</div></div><div class='respDivL'><div class='vertical-center'>(E)</div></div><div class='respDivR'><div class='vertical-center'>(I)</div></div></div>","I","$7","$71","0","7","71","RISKY"
"html-keyboard-response","153","160627","0.0-5.0-3.49","5c4275e526217400018bf1b4","bdp_rd","Sat Mar 25 2023 17:41:39 GMT-0600 (Mountain Daylight Time)","184308","","null","","","","offerFB","","<div class='trialBorder'><div class='vertical-center'><img style='vertical-align:center; align:center' src=img/fixation3.jpg></div><div class='cl'><div class='vertical-center'>$7<br>for<br>sure</div></div><div class='cr'><div class='vertical-center'><font style='color:orange'>$71<br>with a<br>50% chance</font></div></div><div class='respDivL'><div class='vertical-center'>(E)</div></div><div class='respDivR'><div class='vertical-center'><font style='color:orange'>(I)</font></div></div></div>","null","$7","$71","0","7","71",""
"html-keyboard-response","154","161129","0.0-5.0-1.50","5c4275e526217400018bf1b4","bdp_rd","Sat Mar 25 2023 17:41:39 GMT-0600 (Mountain Daylight Time)","184308","","null","","","","FIX","","<div class='trialBorder'><div class='vertical-center'><img style='vertical-align:center; align:center' src=img/fixation3.jpg></div></div>","null","","","","","",""
"html-keyboard-response","155","162708","0.0-5.0-2.50","5c4275e526217400018bf1b4","bdp_rd","Sat Mar 25 2023 17:41:39 GMT-0600 (Mountain Daylight Time)","184308","","1578","","","","offer","","<div class='trialBorder'><div class='vertical-center'><img style='vertical-align:center; align:center' src=img/fixation3.jpg></div><div class='cl'><div class='vertical-center'>$62<br>with a<br>50% chance</div></div><div class='cr'><div class='vertical-center'>$11<br>for<br>sure</div></div><div class='respDivL'><div class='vertical-center'>(E)</div></div><div class='respDivR'><div class='vertical-center'>(I)</div></div></div>","E","$11","$62","1","11","62","RISKY"
"html-keyboard-response","156","162959","0.0-5.0-3.50","5c4275e526217400018bf1b4","bdp_rd","Sat Mar 25 2023 17:41:39 GMT-0600 (Mountain Daylight Time)","184308","","null","","","","offerFB","","<div class='trialBorder'><div class='vertical-center'><img style='vertical-align:center; align:center' src=img/fixation3.jpg></div><div class='cl'><div class='vertical-center'><font style='color:orange'>$62<br>with a<br>50% chance</font></div></div><div class='cr'><div class='vertical-center'>$11<br>for<br>sure</div></div><div class='respDivL'><div class='vertical-center'><font style='color:orange'>(E)</font></div></div><div class='respDivR'><div class='vertical-center'>(I)</div></div></div>","null","$11","$62","1","11","62",""
"html-keyboard-response","157","163461","0.0-5.0-1.51","5c4275e526217400018bf1b4","bdp_rd","Sat Mar 25 2023 17:41:39 GMT-0600 (Mountain Daylight Time)","184308","","null","","","","FIX","","<div class='trialBorder'><div class='vertical-center'><img style='vertical-align:center; align:center' src=img/fixation3.jpg></div></div>","null","","","","","",""
"html-keyboard-response","158","164631","0.0-5.0-2.51","5c4275e526217400018bf1b4","bdp_rd","Sat Mar 25 2023 17:41:39 GMT-0600 (Mountain Daylight Time)","184308","","1170","","","","offer","","<div class='trialBorder'><div class='vertical-center'><img style='vertical-align:center; align:center' src=img/fixation3.jpg></div><div class='cl'><div class='vertical-center'>$2<br>for<br>sure</div></div><div class='cr'><div class='vertical-center'>$21<br>with a<br>50% chance</div></div><div class='respDivL'><div class='vertical-center'>(E)</div></div><div class='respDivR'><div class='vertical-center'>(I)</div></div></div>","I","$2","$21","0","2","21","RISKY"
"html-keyboard-response","159","164882","0.0-5.0-3.51","5c4275e526217400018bf1b4","bdp_rd","Sat Mar 25 2023 17:41:39 GMT-0600 (Mountain Daylight Time)","184308","","null","","","","offerFB","","<div class='trialBorder'><div class='vertical-center'><img style='vertical-align:center; align:center' src=img/fixation3.jpg></div><div class='cl'><div class='vertical-center'>$2<br>for<br>sure</div></div><div class='cr'><div class='vertical-center'><font style='color:orange'>$21<br>with a<br>50% chance</font></div></div><div class='respDivL'><div class='vertical-center'>(E)</div></div><div class='respDivR'><div class='vertical-center'><font style='color:orange'>(I)</font></div></div></div>","null","$2","$21","0","2","21",""
"html-keyboard-response","160","165384","0.0-5.0-1.52","5c4275e526217400018bf1b4","bdp_rd","Sat Mar 25 2023 17:41:39 GMT-0600 (Mountain Daylight Time)","184308","","null","","","","FIX","","<div class='trialBorder'><div class='vertical-center'><img style='vertical-align:center; align:center' src=img/fixation3.jpg></div></div>","null","","","","","",""
"html-keyboard-response","161","166875","0.0-5.0-2.52","5c4275e526217400018bf1b4","bdp_rd","Sat Mar 25 2023 17:41:39 GMT-0600 (Mountain Daylight Time)","184308","","1491","","","","offer","","<div class='trialBorder'><div class='vertical-center'><img style='vertical-align:center; align:center' src=img/fixation3.jpg></div><div class='cl'><div class='vertical-center'>$6<br>for<br>sure</div></div><div class='cr'><div class='vertical-center'>$13<br>with a<br>50% chance</div></div><div class='respDivL'><div class='vertical-center'>(E)</div></div><div class='respDivR'><div class='vertical-center'>(I)</div></div></div>","E","$6","$13","0","6","13","SURE"
"html-keyboard-response","162","167126","0.0-5.0-3.52","5c4275e526217400018bf1b4","bdp_rd","Sat Mar 25 2023 17:41:39 GMT-0600 (Mountain Daylight Time)","184308","","null","","","","offerFB","","<div class='trialBorder'><div class='vertical-center'><img style='vertical-align:center; align:center' src=img/fixation3.jpg></div><div class='cl'><div class='vertical-center'><font style='color:orange'>$6<br>for<br>sure</font></div></div><div class='cr'><div class='vertical-center'>$13<br>with a<br>50% chance</div></div><div class='respDivL'><div class='vertical-center'><font style='color:orange'>(E)</font></div></div><div class='respDivR'><div class='vertical-center'>(I)</div></div></div>","null","$6","$13","0","6","13",""
"html-keyboard-response","163","167628","0.0-5.0-1.53","5c4275e526217400018bf1b4","bdp_rd","Sat Mar 25 2023 17:41:39 GMT-0600 (Mountain Daylight Time)","184308","","null","","","","FIX","","<div class='trialBorder'><div class='vertical-center'><img style='vertical-align:center; align:center' src=img/fixation3.jpg></div></div>","null","","","","","",""
"html-keyboard-response","164","169970","0.0-5.0-2.53","5c4275e526217400018bf1b4","bdp_rd","Sat Mar 25 2023 17:41:39 GMT-0600 (Mountain Daylight Time)","184308","","2342","","","","offer","","<div class='trialBorder'><div class='vertical-center'><img style='vertical-align:center; align:center' src=img/fixation3.jpg></div><div class='cl'><div class='vertical-center'>$43<br>with a<br>50% chance</div></div><div class='cr'><div class='vertical-center'>$17<br>for<br>sure</div></div><div class='respDivL'><div class='vertical-center'>(E)</div></div><div class='respDivR'><div class='vertical-center'>(I)</div></div></div>","I","$17","$43","1","17","43","SURE"
"html-keyboard-response","165","170221","0.0-5.0-3.53","5c4275e526217400018bf1b4","bdp_rd","Sat Mar 25 2023 17:41:39 GMT-0600 (Mountain Daylight Time)","184308","","null","","","","offerFB","","<div class='trialBorder'><div class='vertical-center'><img style='vertical-align:center; align:center' src=img/fixation3.jpg></div><div class='cl'><div class='vertical-center'>$43<br>with a<br>50% chance</div></div><div class='cr'><div class='vertical-center'><font style='color:orange'>$17<br>for<br>sure</font></div></div><div class='respDivL'><div class='vertical-center'>(E)</div></div><div class='respDivR'><div class='vertical-center'><font style='color:orange'>(I)</font></div></div></div>","null","$17","$43","1","17","43",""
"html-keyboard-response","166","170723","0.0-5.0-1.54","5c4275e526217400018bf1b4","bdp_rd","Sat Mar 25 2023 17:41:39 GMT-0600 (Mountain Daylight Time)","184308","","null","","","","FIX","","<div class='trialBorder'><div class='vertical-center'><img style='vertical-align:center; align:center' src=img/fixation3.jpg></div></div>","null","","","","","",""
"html-keyboard-response","167","172032","0.0-5.0-2.54","5c4275e526217400018bf1b4","bdp_rd","Sat Mar 25 2023 17:41:39 GMT-0600 (Mountain Daylight Time)","184308","","1309","","","","offer","","<div class='trialBorder'><div class='vertical-center'><img style='vertical-align:center; align:center' src=img/fixation3.jpg></div><div class='cl'><div class='vertical-center'>$18<br>with a<br>50% chance</div></div><div class='cr'><div class='vertical-center'>$9<br>for<br>sure</div></div><div class='respDivL'><div class='vertical-center'>(E)</div></div><div class='respDivR'><div class='vertical-center'>(I)</div></div></div>","E","$9","$18","1","9","18","RISKY"
"html-keyboard-response","168","172283","0.0-5.0-3.54","5c4275e526217400018bf1b4","bdp_rd","Sat Mar 25 2023 17:41:39 GMT-0600 (Mountain Daylight Time)","184308","","null","","","","offerFB","","<div class='trialBorder'><div class='vertical-center'><img style='vertical-align:center; align:center' src=img/fixation3.jpg></div><div class='cl'><div class='vertical-center'><font style='color:orange'>$18<br>with a<br>50% chance</font></div></div><div class='cr'><div class='vertical-center'>$9<br>for<br>sure</div></div><div class='respDivL'><div class='vertical-center'><font style='color:orange'>(E)</font></div></div><div class='respDivR'><div class='vertical-center'>(I)</div></div></div>","null","$9","$18","1","9","18",""
"html-keyboard-response","169","172784","0.0-5.0-1.55","5c4275e526217400018bf1b4","bdp_rd","Sat Mar 25 2023 17:41:39 GMT-0600 (Mountain Daylight Time)","184308","","null","","","","FIX","","<div class='trialBorder'><div class='vertical-center'><img style='vertical-align:center; align:center' src=img/fixation3.jpg></div></div>","null","","","","","",""
"html-keyboard-response","170","173812","0.0-5.0-2.55","5c4275e526217400018bf1b4","bdp_rd","Sat Mar 25 2023 17:41:39 GMT-0600 (Mountain Daylight Time)","184308","","1028","","","","offer","","<div class='trialBorder'><div class='vertical-center'><img style='vertical-align:center; align:center' src=img/fixation3.jpg></div><div class='cl'><div class='vertical-center'>$30<br>with a<br>50% chance</div></div><div class='cr'><div class='vertical-center'>$1<br>for<br>sure</div></div><div class='respDivL'><div class='vertical-center'>(E)</div></div><div class='respDivR'><div class='vertical-center'>(I)</div></div></div>","E","$1","$30","1","1","30","RISKY"
"html-keyboard-response","171","174063","0.0-5.0-3.55","5c4275e526217400018bf1b4","bdp_rd","Sat Mar 25 2023 17:41:39 GMT-0600 (Mountain Daylight Time)","184308","","null","","","","offerFB","","<div class='trialBorder'><div class='vertical-center'><img style='vertical-align:center; align:center' src=img/fixation3.jpg></div><div class='cl'><div class='vertical-center'><font style='color:orange'>$30<br>with a<br>50% chance</font></div></div><div class='cr'><div class='vertical-center'>$1<br>for<br>sure</div></div><div class='respDivL'><div class='vertical-center'><font style='color:orange'>(E)</font></div></div><div class='respDivR'><div class='vertical-center'>(I)</div></div></div>","null","$1","$30","1","1","30",""
"html-keyboard-response","172","174565","0.0-5.0-1.56","5c4275e526217400018bf1b4","bdp_rd","Sat Mar 25 2023 17:41:39 GMT-0600 (Mountain Daylight Time)","184308","","null","","","","FIX","","<div class='trialBorder'><div class='vertical-center'><img style='vertical-align:center; align:center' src=img/fixation3.jpg></div></div>","null","","","","","",""
"html-keyboard-response","173","175835","0.0-5.0-2.56","5c4275e526217400018bf1b4","bdp_rd","Sat Mar 25 2023 17:41:39 GMT-0600 (Mountain Daylight Time)","184308","","1270","","","","offer","","<div class='trialBorder'><div class='vertical-center'><img style='vertical-align:center; align:center' src=img/fixation3.jpg></div><div class='cl'><div class='vertical-center'>$10<br>for<br>sure</div></div><div class='cr'><div class='vertical-center'>$19<br>with a<br>50% chance</div></div><div class='respDivL'><div class='vertical-center'>(E)</div></div><div class='respDivR'><div class='vertical-center'>(I)</div></div></div>","E","$10","$19","0","10","19","SURE"
