"trial_type","trial_index","time_elapsed","internal_node_id","subject_id","task","startTime","totalTime","view_history","rt","event","trial","time","trialtype","success","stimulus","key_press","sureOffer","riskyOffer","riskyLeft","sureAmt","riskyAmt","chosen"
"pavlovia","0","3","0.0-0.0","63d418d4229ed6c0712ce5bb","bdp_rd","Tue Mar 28 2023 10:57:36 GMT-0400 (Eastern Daylight Time)","166335","","","","","","","","","","","","","","",""
"instructions","1","808","0.0-1.0","63d418d4229ed6c0712ce5bb","bdp_rd","Tue Mar 28 2023 10:57:36 GMT-0400 (Eastern Daylight Time)","166335","[{""page_index"":0,""viewing_time"":804}]","804","","","","","","","","","","","","",""
"","","","","63d418d4229ed6c0712ce5bb","bdp_rd","Tue Mar 28 2023 10:57:36 GMT-0400 (Eastern Daylight Time)","166335","","","fullscreenenter","2","1857","fullscreenenter","","","","","","","","",""
"fullscreen","2","2853","0.0-2.0","63d418d4229ed6c0712ce5bb","bdp_rd","Tue Mar 28 2023 10:57:36 GMT-0400 (Eastern Daylight Time)","166335","","","","","","","true","","","","","","","",""
"instructions","3","18968","0.0-4.0","63d418d4229ed6c0712ce5bb","bdp_rd","Tue Mar 28 2023 10:57:36 GMT-0400 (Eastern Daylight Time)","166335","[{""page_index"":0,""viewing_time"":10691},{""page_index"":1,""viewing_time"":2760},{""page_index"":2,""viewing_time"":2664}]","16115","","","","","","","","","","","","",""
"html-keyboard-response","4","19482","0.0-5.0-1.0","63d418d4229ed6c0712ce5bb","bdp_rd","Tue Mar 28 2023 10:57:36 GMT-0400 (Eastern Daylight Time)","166335","","null","","","","FIX","","<div class='trialBorder'><div class='vertical-center'><img style='vertical-align:center; align:center' src=img/fixation3.jpg></div></div>","null","","","","","",""
"html-keyboard-response","5","24689","0.0-5.0-2.0","63d418d4229ed6c0712ce5bb","bdp_rd","Tue Mar 28 2023 10:57:36 GMT-0400 (Eastern Daylight Time)","166335","","5206","","","","offer","","<div class='trialBorder'><div class='vertical-center'><img style='vertical-align:center; align:center' src=img/fixation3.jpg></div><div class='cl'><div class='vertical-center'>$24<br>for<br>sure</div></div><div class='cr'><div class='vertical-center'>$70<br>with a<br>50% chance</div></div><div class='respDivL'><div class='vertical-center'>(E)</div></div><div class='respDivR'><div class='vertical-center'>(I)</div></div></div>","E","$24","$70","0","24","70","SURE"
"html-keyboard-response","6","24941","0.0-5.0-3.0","63d418d4229ed6c0712ce5bb","bdp_rd","Tue Mar 28 2023 10:57:36 GMT-0400 (Eastern Daylight Time)","166335","","null","","","","offerFB","","<div class='trialBorder'><div class='vertical-center'><img style='vertical-align:center; align:center' src=img/fixation3.jpg></div><div class='cl'><div class='vertical-center'><font style='color:orange'>$24<br>for<br>sure</font></div></div><div class='cr'><div class='vertical-center'>$70<br>with a<br>50% chance</div></div><div class='respDivL'><div class='vertical-center'><font style='color:orange'>(E)</font></div></div><div class='respDivR'><div class='vertical-center'>(I)</div></div></div>","null","$24","$70","0","24","70",""
"html-keyboard-response","7","25444","0.0-5.0-1.1","63d418d4229ed6c0712ce5bb","bdp_rd","Tue Mar 28 2023 10:57:36 GMT-0400 (Eastern Daylight Time)","166335","","null","","","","FIX","","<div class='trialBorder'><div class='vertical-center'><img style='vertical-align:center; align:center' src=img/fixation3.jpg></div></div>","null","","","","","",""
"html-keyboard-response","8","26617","0.0-5.0-2.1","63d418d4229ed6c0712ce5bb","bdp_rd","Tue Mar 28 2023 10:57:36 GMT-0400 (Eastern Daylight Time)","166335","","1172","","","","offer","","<div class='trialBorder'><div class='vertical-center'><img style='vertical-align:center; align:center' src=img/fixation3.jpg></div><div class='cl'><div class='vertical-center'>$29<br>for<br>sure</div></div><div class='cr'><div class='vertical-center'>$46<br>with a<br>50% chance</div></div><div class='respDivL'><div class='vertical-center'>(E)</div></div><div class='respDivR'><div class='vertical-center'>(I)</div></div></div>","E","$29","$46","0","29","46","SURE"
"html-keyboard-response","9","26869","0.0-5.0-3.1","63d418d4229ed6c0712ce5bb","bdp_rd","Tue Mar 28 2023 10:57:36 GMT-0400 (Eastern Daylight Time)","166335","","null","","","","offerFB","","<div class='trialBorder'><div class='vertical-center'><img style='vertical-align:center; align:center' src=img/fixation3.jpg></div><div class='cl'><div class='vertical-center'><font style='color:orange'>$29<br>for<br>sure</font></div></div><div class='cr'><div class='vertical-center'>$46<br>with a<br>50% chance</div></div><div class='respDivL'><div class='vertical-center'><font style='color:orange'>(E)</font></div></div><div class='respDivR'><div class='vertical-center'>(I)</div></div></div>","null","$29","$46","0","29","46",""
"html-keyboard-response","10","27371","0.0-5.0-1.2","63d418d4229ed6c0712ce5bb","bdp_rd","Tue Mar 28 2023 10:57:36 GMT-0400 (Eastern Daylight Time)","166335","","null","","","","FIX","","<div class='trialBorder'><div class='vertical-center'><img style='vertical-align:center; align:center' src=img/fixation3.jpg></div></div>","null","","","","","",""
"html-keyboard-response","11","30017","0.0-5.0-2.2","63d418d4229ed6c0712ce5bb","bdp_rd","Tue Mar 28 2023 10:57:36 GMT-0400 (Eastern Daylight Time)","166335","","2645","","","","offer","","<div class='trialBorder'><div class='vertical-center'><img style='vertical-align:center; align:center' src=img/fixation3.jpg></div><div class='cl'><div class='vertical-center'>$98<br>with a<br>50% chance</div></div><div class='cr'><div class='vertical-center'>$53<br>for<br>sure</div></div><div class='respDivL'><div class='vertical-center'>(E)</div></div><div class='respDivR'><div class='vertical-center'>(I)</div></div></div>","I","$53","$98","1","53","98","SURE"
"html-keyboard-response","12","30269","0.0-5.0-3.2","63d418d4229ed6c0712ce5bb","bdp_rd","Tue Mar 28 2023 10:57:36 GMT-0400 (Eastern Daylight Time)","166335","","null","","","","offerFB","","<div class='trialBorder'><div class='vertical-center'><img style='vertical-align:center; align:center' src=img/fixation3.jpg></div><div class='cl'><div class='vertical-center'>$98<br>with a<br>50% chance</div></div><div class='cr'><div class='vertical-center'><font style='color:orange'>$53<br>for<br>sure</font></div></div><div class='respDivL'><div class='vertical-center'>(E)</div></div><div class='respDivR'><div class='vertical-center'><font style='color:orange'>(I)</font></div></div></div>","null","$53","$98","1","53","98",""
"html-keyboard-response","13","30771","0.0-5.0-1.3","63d418d4229ed6c0712ce5bb","bdp_rd","Tue Mar 28 2023 10:57:36 GMT-0400 (Eastern Daylight Time)","166335","","null","","","","FIX","","<div class='trialBorder'><div class='vertical-center'><img style='vertical-align:center; align:center' src=img/fixation3.jpg></div></div>","null","","","","","",""
"html-keyboard-response","14","32033","0.0-5.0-2.3","63d418d4229ed6c0712ce5bb","bdp_rd","Tue Mar 28 2023 10:57:36 GMT-0400 (Eastern Daylight Time)","166335","","1261","","","","offer","","<div class='trialBorder'><div class='vertical-center'><img style='vertical-align:center; align:center' src=img/fixation3.jpg></div><div class='cl'><div class='vertical-center'>$81<br>with a<br>50% chance</div></div><div class='cr'><div class='vertical-center'>$39<br>for<br>sure</div></div><div class='respDivL'><div class='vertical-center'>(E)</div></div><div class='respDivR'><div class='vertical-center'>(I)</div></div></div>","I","$39","$81","1","39","81","SURE"
"html-keyboard-response","15","32285","0.0-5.0-3.3","63d418d4229ed6c0712ce5bb","bdp_rd","Tue Mar 28 2023 10:57:36 GMT-0400 (Eastern Daylight Time)","166335","","null","","","","offerFB","","<div class='trialBorder'><div class='vertical-center'><img style='vertical-align:center; align:center' src=img/fixation3.jpg></div><div class='cl'><div class='vertical-center'>$81<br>with a<br>50% chance</div></div><div class='cr'><div class='vertical-center'><font style='color:orange'>$39<br>for<br>sure</font></div></div><div class='respDivL'><div class='vertical-center'>(E)</div></div><div class='respDivR'><div class='vertical-center'><font style='color:orange'>(I)</font></div></div></div>","null","$39","$81","1","39","81",""
"html-keyboard-response","16","32787","0.0-5.0-1.4","63d418d4229ed6c0712ce5bb","bdp_rd","Tue Mar 28 2023 10:57:36 GMT-0400 (Eastern Daylight Time)","166335","","null","","","","FIX","","<div class='trialBorder'><div class='vertical-center'><img style='vertical-align:center; align:center' src=img/fixation3.jpg></div></div>","null","","","","","",""
"html-keyboard-response","17","33913","0.0-5.0-2.4","63d418d4229ed6c0712ce5bb","bdp_rd","Tue Mar 28 2023 10:57:36 GMT-0400 (Eastern Daylight Time)","166335","","1125","","","","offer","","<div class='trialBorder'><div class='vertical-center'><img style='vertical-align:center; align:center' src=img/fixation3.jpg></div><div class='cl'><div class='vertical-center'>$9<br>for<br>sure</div></div><div class='cr'><div class='vertical-center'>$18<br>with a<br>50% chance</div></div><div class='respDivL'><div class='vertical-center'>(E)</div></div><div class='respDivR'><div class='vertical-center'>(I)</div></div></div>","I","$9","$18","0","9","18","RISKY"
"html-keyboard-response","18","34165","0.0-5.0-3.4","63d418d4229ed6c0712ce5bb","bdp_rd","Tue Mar 28 2023 10:57:36 GMT-0400 (Eastern Daylight Time)","166335","","null","","","","offerFB","","<div class='trialBorder'><div class='vertical-center'><img style='vertical-align:center; align:center' src=img/fixation3.jpg></div><div class='cl'><div class='vertical-center'>$9<br>for<br>sure</div></div><div class='cr'><div class='vertical-center'><font style='color:orange'>$18<br>with a<br>50% chance</font></div></div><div class='respDivL'><div class='vertical-center'>(E)</div></div><div class='respDivR'><div class='vertical-center'><font style='color:orange'>(I)</font></div></div></div>","null","$9","$18","0","9","18",""
"html-keyboard-response","19","34667","0.0-5.0-1.5","63d418d4229ed6c0712ce5bb","bdp_rd","Tue Mar 28 2023 10:57:36 GMT-0400 (Eastern Daylight Time)","166335","","null","","","","FIX","","<div class='trialBorder'><div class='vertical-center'><img style='vertical-align:center; align:center' src=img/fixation3.jpg></div></div>","null","","","","","",""
"html-keyboard-response","20","37442","0.0-5.0-2.5","63d418d4229ed6c0712ce5bb","bdp_rd","Tue Mar 28 2023 10:57:36 GMT-0400 (Eastern Daylight Time)","166335","","2774","","","","offer","","<div class='trialBorder'><div class='vertical-center'><img style='vertical-align:center; align:center' src=img/fixation3.jpg></div><div class='cl'><div class='vertical-center'>$16<br>for<br>sure</div></div><div class='cr'><div class='vertical-center'>$28<br>with a<br>50% chance</div></div><div class='respDivL'><div class='vertical-center'>(E)</div></div><div class='respDivR'><div class='vertical-center'>(I)</div></div></div>","I","$16","$28","0","16","28","RISKY"
"html-keyboard-response","21","37693","0.0-5.0-3.5","63d418d4229ed6c0712ce5bb","bdp_rd","Tue Mar 28 2023 10:57:36 GMT-0400 (Eastern Daylight Time)","166335","","null","","","","offerFB","","<div class='trialBorder'><div class='vertical-center'><img style='vertical-align:center; align:center' src=img/fixation3.jpg></div><div class='cl'><div class='vertical-center'>$16<br>for<br>sure</div></div><div class='cr'><div class='vertical-center'><font style='color:orange'>$28<br>with a<br>50% chance</font></div></div><div class='respDivL'><div class='vertical-center'>(E)</div></div><div class='respDivR'><div class='vertical-center'><font style='color:orange'>(I)</font></div></div></div>","null","$16","$28","0","16","28",""
"html-keyboard-response","22","38195","0.0-5.0-1.6","63d418d4229ed6c0712ce5bb","bdp_rd","Tue Mar 28 2023 10:57:36 GMT-0400 (Eastern Daylight Time)","166335","","null","","","","FIX","","<div class='trialBorder'><div class='vertical-center'><img style='vertical-align:center; align:center' src=img/fixation3.jpg></div></div>","null","","","","","",""
"html-keyboard-response","23","39794","0.0-5.0-2.6","63d418d4229ed6c0712ce5bb","bdp_rd","Tue Mar 28 2023 10:57:36 GMT-0400 (Eastern Daylight Time)","166335","","1599","","","","offer","","<div class='trialBorder'><div class='vertical-center'><img style='vertical-align:center; align:center' src=img/fixation3.jpg></div><div class='cl'><div class='vertical-center'>$37<br>with a<br>50% chance</div></div><div class='cr'><div class='vertical-center'>$20<br>for<br>sure</div></div><div class='respDivL'><div class='vertical-center'>(E)</div></div><div class='respDivR'><div class='vertical-center'>(I)</div></div></div>","I","$20","$37","1","20","37","SURE"
"html-keyboard-response","24","40045","0.0-5.0-3.6","63d418d4229ed6c0712ce5bb","bdp_rd","Tue Mar 28 2023 10:57:36 GMT-0400 (Eastern Daylight Time)","166335","","null","","","","offerFB","","<div class='trialBorder'><div class='vertical-center'><img style='vertical-align:center; align:center' src=img/fixation3.jpg></div><div class='cl'><div class='vertical-center'>$37<br>with a<br>50% chance</div></div><div class='cr'><div class='vertical-center'><font style='color:orange'>$20<br>for<br>sure</font></div></div><div class='respDivL'><div class='vertical-center'>(E)</div></div><div class='respDivR'><div class='vertical-center'><font style='color:orange'>(I)</font></div></div></div>","null","$20","$37","1","20","37",""
"html-keyboard-response","25","40547","0.0-5.0-1.7","63d418d4229ed6c0712ce5bb","bdp_rd","Tue Mar 28 2023 10:57:36 GMT-0400 (Eastern Daylight Time)","166335","","null","","","","FIX","","<div class='trialBorder'><div class='vertical-center'><img style='vertical-align:center; align:center' src=img/fixation3.jpg></div></div>","null","","","","","",""
"html-keyboard-response","26","42410","0.0-5.0-2.7","63d418d4229ed6c0712ce5bb","bdp_rd","Tue Mar 28 2023 10:57:36 GMT-0400 (Eastern Daylight Time)","166335","","1862","","","","offer","","<div class='trialBorder'><div class='vertical-center'><img style='vertical-align:center; align:center' src=img/fixation3.jpg></div><div class='cl'><div class='vertical-center'>$22<br>with a<br>50% chance</div></div><div class='cr'><div class='vertical-center'>$14<br>for<br>sure</div></div><div class='respDivL'><div class='vertical-center'>(E)</div></div><div class='respDivR'><div class='vertical-center'>(I)</div></div></div>","I","$14","$22","1","14","22","SURE"
"html-keyboard-response","27","42662","0.0-5.0-3.7","63d418d4229ed6c0712ce5bb","bdp_rd","Tue Mar 28 2023 10:57:36 GMT-0400 (Eastern Daylight Time)","166335","","null","","","","offerFB","","<div class='trialBorder'><div class='vertical-center'><img style='vertical-align:center; align:center' src=img/fixation3.jpg></div><div class='cl'><div class='vertical-center'>$22<br>with a<br>50% chance</div></div><div class='cr'><div class='vertical-center'><font style='color:orange'>$14<br>for<br>sure</font></div></div><div class='respDivL'><div class='vertical-center'>(E)</div></div><div class='respDivR'><div class='vertical-center'><font style='color:orange'>(I)</font></div></div></div>","null","$14","$22","1","14","22",""
"html-keyboard-response","28","43163","0.0-5.0-1.8","63d418d4229ed6c0712ce5bb","bdp_rd","Tue Mar 28 2023 10:57:36 GMT-0400 (Eastern Daylight Time)","166335","","null","","","","FIX","","<div class='trialBorder'><div class='vertical-center'><img style='vertical-align:center; align:center' src=img/fixation3.jpg></div></div>","null","","","","","",""
"html-keyboard-response","29","45090","0.0-5.0-2.8","63d418d4229ed6c0712ce5bb","bdp_rd","Tue Mar 28 2023 10:57:36 GMT-0400 (Eastern Daylight Time)","166335","","1926","","","","offer","","<div class='trialBorder'><div class='vertical-center'><img style='vertical-align:center; align:center' src=img/fixation3.jpg></div><div class='cl'><div class='vertical-center'>$62<br>with a<br>50% chance</div></div><div class='cr'><div class='vertical-center'>$11<br>for<br>sure</div></div><div class='respDivL'><div class='vertical-center'>(E)</div></div><div class='respDivR'><div class='vertical-center'>(I)</div></div></div>","E","$11","$62","1","11","62","RISKY"
"html-keyboard-response","30","45357","0.0-5.0-3.8","63d418d4229ed6c0712ce5bb","bdp_rd","Tue Mar 28 2023 10:57:36 GMT-0400 (Eastern Daylight Time)","166335","","null","","","","offerFB","","<div class='trialBorder'><div class='vertical-center'><img style='vertical-align:center; align:center' src=img/fixation3.jpg></div><div class='cl'><div class='vertical-center'><font style='color:orange'>$62<br>with a<br>50% chance</font></div></div><div class='cr'><div class='vertical-center'>$11<br>for<br>sure</div></div><div class='respDivL'><div class='vertical-center'><font style='color:orange'>(E)</font></div></div><div class='respDivR'><div class='vertical-center'>(I)</div></div></div>","null","$11","$62","1","11","62",""
"html-keyboard-response","31","45880","0.0-5.0-1.9","63d418d4229ed6c0712ce5bb","bdp_rd","Tue Mar 28 2023 10:57:36 GMT-0400 (Eastern Daylight Time)","166335","","null","","","","FIX","","<div class='trialBorder'><div class='vertical-center'><img style='vertical-align:center; align:center' src=img/fixation3.jpg></div></div>","null","","","","","",""
"html-keyboard-response","32","48258","0.0-5.0-2.9","63d418d4229ed6c0712ce5bb","bdp_rd","Tue Mar 28 2023 10:57:36 GMT-0400 (Eastern Daylight Time)","166335","","2377","","","","offer","","<div class='trialBorder'><div class='vertical-center'><img style='vertical-align:center; align:center' src=img/fixation3.jpg></div><div class='cl'><div class='vertical-center'>$13<br>for<br>sure</div></div><div class='cr'><div class='vertical-center'>$41<br>with a<br>50% chance</div></div><div class='respDivL'><div class='vertical-center'>(E)</div></div><div class='respDivR'><div class='vertical-center'>(I)</div></div></div>","I","$13","$41","0","13","41","RISKY"
"html-keyboard-response","33","48509","0.0-5.0-3.9","63d418d4229ed6c0712ce5bb","bdp_rd","Tue Mar 28 2023 10:57:36 GMT-0400 (Eastern Daylight Time)","166335","","null","","","","offerFB","","<div class='trialBorder'><div class='vertical-center'><img style='vertical-align:center; align:center' src=img/fixation3.jpg></div><div class='cl'><div class='vertical-center'>$13<br>for<br>sure</div></div><div class='cr'><div class='vertical-center'><font style='color:orange'>$41<br>with a<br>50% chance</font></div></div><div class='respDivL'><div class='vertical-center'>(E)</div></div><div class='respDivR'><div class='vertical-center'><font style='color:orange'>(I)</font></div></div></div>","null","$13","$41","0","13","41",""
"html-keyboard-response","34","49021","0.0-5.0-1.10","63d418d4229ed6c0712ce5bb","bdp_rd","Tue Mar 28 2023 10:57:36 GMT-0400 (Eastern Daylight Time)","166335","","null","","","","FIX","","<div class='trialBorder'><div class='vertical-center'><img style='vertical-align:center; align:center' src=img/fixation3.jpg></div></div>","null","","","","","",""
"html-keyboard-response","35","50267","0.0-5.0-2.10","63d418d4229ed6c0712ce5bb","bdp_rd","Tue Mar 28 2023 10:57:36 GMT-0400 (Eastern Daylight Time)","166335","","1244","","","","offer","","<div class='trialBorder'><div class='vertical-center'><img style='vertical-align:center; align:center' src=img/fixation3.jpg></div><div class='cl'><div class='vertical-center'>$48<br>with a<br>50% chance</div></div><div class='cr'><div class='vertical-center'>$34<br>for<br>sure</div></div><div class='respDivL'><div class='vertical-center'>(E)</div></div><div class='respDivR'><div class='vertical-center'>(I)</div></div></div>","I","$34","$48","1","34","48","SURE"
"html-keyboard-response","36","50519","0.0-5.0-3.10","63d418d4229ed6c0712ce5bb","bdp_rd","Tue Mar 28 2023 10:57:36 GMT-0400 (Eastern Daylight Time)","166335","","null","","","","offerFB","","<div class='trialBorder'><div class='vertical-center'><img style='vertical-align:center; align:center' src=img/fixation3.jpg></div><div class='cl'><div class='vertical-center'>$48<br>with a<br>50% chance</div></div><div class='cr'><div class='vertical-center'><font style='color:orange'>$34<br>for<br>sure</font></div></div><div class='respDivL'><div class='vertical-center'>(E)</div></div><div class='respDivR'><div class='vertical-center'><font style='color:orange'>(I)</font></div></div></div>","null","$34","$48","1","34","48",""
"html-keyboard-response","37","51021","0.0-5.0-1.11","63d418d4229ed6c0712ce5bb","bdp_rd","Tue Mar 28 2023 10:57:36 GMT-0400 (Eastern Daylight Time)","166335","","null","","","","FIX","","<div class='trialBorder'><div class='vertical-center'><img style='vertical-align:center; align:center' src=img/fixation3.jpg></div></div>","null","","","","","",""
"html-keyboard-response","38","52235","0.0-5.0-2.11","63d418d4229ed6c0712ce5bb","bdp_rd","Tue Mar 28 2023 10:57:36 GMT-0400 (Eastern Daylight Time)","166335","","1214","","","","offer","","<div class='trialBorder'><div class='vertical-center'><img style='vertical-align:center; align:center' src=img/fixation3.jpg></div><div class='cl'><div class='vertical-center'>$9<br>for<br>sure</div></div><div class='cr'><div class='vertical-center'>$32<br>with a<br>50% chance</div></div><div class='respDivL'><div class='vertical-center'>(E)</div></div><div class='respDivR'><div class='vertical-center'>(I)</div></div></div>","I","$9","$32","0","9","32","RISKY"
"html-keyboard-response","39","52487","0.0-5.0-3.11","63d418d4229ed6c0712ce5bb","bdp_rd","Tue Mar 28 2023 10:57:36 GMT-0400 (Eastern Daylight Time)","166335","","null","","","","offerFB","","<div class='trialBorder'><div class='vertical-center'><img style='vertical-align:center; align:center' src=img/fixation3.jpg></div><div class='cl'><div class='vertical-center'>$9<br>for<br>sure</div></div><div class='cr'><div class='vertical-center'><font style='color:orange'>$32<br>with a<br>50% chance</font></div></div><div class='respDivL'><div class='vertical-center'>(E)</div></div><div class='respDivR'><div class='vertical-center'><font style='color:orange'>(I)</font></div></div></div>","null","$9","$32","0","9","32",""
"html-keyboard-response","40","52989","0.0-5.0-1.12","63d418d4229ed6c0712ce5bb","bdp_rd","Tue Mar 28 2023 10:57:36 GMT-0400 (Eastern Daylight Time)","166335","","null","","","","FIX","","<div class='trialBorder'><div class='vertical-center'><img style='vertical-align:center; align:center' src=img/fixation3.jpg></div></div>","null","","","","","",""
"html-keyboard-response","41","54515","0.0-5.0-2.12","63d418d4229ed6c0712ce5bb","bdp_rd","Tue Mar 28 2023 10:57:36 GMT-0400 (Eastern Daylight Time)","166335","","1524","","","","offer","","<div class='trialBorder'><div class='vertical-center'><img style='vertical-align:center; align:center' src=img/fixation3.jpg></div><div class='cl'><div class='vertical-center'>$15<br>for<br>sure</div></div><div class='cr'><div class='vertical-center'>$31<br>with a<br>50% chance</div></div><div class='respDivL'><div class='vertical-center'>(E)</div></div><div class='respDivR'><div class='vertical-center'>(I)</div></div></div>","I","$15","$31","0","15","31","RISKY"
"html-keyboard-response","42","54766","0.0-5.0-3.12","63d418d4229ed6c0712ce5bb","bdp_rd","Tue Mar 28 2023 10:57:36 GMT-0400 (Eastern Daylight Time)","166335","","null","","","","offerFB","","<div class='trialBorder'><div class='vertical-center'><img style='vertical-align:center; align:center' src=img/fixation3.jpg></div><div class='cl'><div class='vertical-center'>$15<br>for<br>sure</div></div><div class='cr'><div class='vertical-center'><font style='color:orange'>$31<br>with a<br>50% chance</font></div></div><div class='respDivL'><div class='vertical-center'>(E)</div></div><div class='respDivR'><div class='vertical-center'><font style='color:orange'>(I)</font></div></div></div>","null","$15","$31","0","15","31",""
"html-keyboard-response","43","55268","0.0-5.0-1.13","63d418d4229ed6c0712ce5bb","bdp_rd","Tue Mar 28 2023 10:57:36 GMT-0400 (Eastern Daylight Time)","166335","","null","","","","FIX","","<div class='trialBorder'><div class='vertical-center'><img style='vertical-align:center; align:center' src=img/fixation3.jpg></div></div>","null","","","","","",""
"html-keyboard-response","44","56715","0.0-5.0-2.13","63d418d4229ed6c0712ce5bb","bdp_rd","Tue Mar 28 2023 10:57:36 GMT-0400 (Eastern Daylight Time)","166335","","1447","","","","offer","","<div class='trialBorder'><div class='vertical-center'><img style='vertical-align:center; align:center' src=img/fixation3.jpg></div><div class='cl'><div class='vertical-center'>$17<br>with a<br>50% chance</div></div><div class='cr'><div class='vertical-center'>$3<br>for<br>sure</div></div><div class='respDivL'><div class='vertical-center'>(E)</div></div><div class='respDivR'><div class='vertical-center'>(I)</div></div></div>","E","$3","$17","1","3","17","RISKY"
"html-keyboard-response","45","56967","0.0-5.0-3.13","63d418d4229ed6c0712ce5bb","bdp_rd","Tue Mar 28 2023 10:57:36 GMT-0400 (Eastern Daylight Time)","166335","","null","","","","offerFB","","<div class='trialBorder'><div class='vertical-center'><img style='vertical-align:center; align:center' src=img/fixation3.jpg></div><div class='cl'><div class='vertical-center'><font style='color:orange'>$17<br>with a<br>50% chance</font></div></div><div class='cr'><div class='vertical-center'>$3<br>for<br>sure</div></div><div class='respDivL'><div class='vertical-center'><font style='color:orange'>(E)</font></div></div><div class='respDivR'><div class='vertical-center'>(I)</div></div></div>","null","$3","$17","1","3","17",""
"html-keyboard-response","46","57468","0.0-5.0-1.14","63d418d4229ed6c0712ce5bb","bdp_rd","Tue Mar 28 2023 10:57:36 GMT-0400 (Eastern Daylight Time)","166335","","null","","","","FIX","","<div class='trialBorder'><div class='vertical-center'><img style='vertical-align:center; align:center' src=img/fixation3.jpg></div></div>","null","","","","","",""
"html-keyboard-response","47","60076","0.0-5.0-2.14","63d418d4229ed6c0712ce5bb","bdp_rd","Tue Mar 28 2023 10:57:36 GMT-0400 (Eastern Daylight Time)","166335","","2607","","","","offer","","<div class='trialBorder'><div class='vertical-center'><img style='vertical-align:center; align:center' src=img/fixation3.jpg></div><div class='cl'><div class='vertical-center'>$89<br>with a<br>50% chance</div></div><div class='cr'><div class='vertical-center'>$28<br>for<br>sure</div></div><div class='respDivL'><div class='vertical-center'>(E)</div></div><div class='respDivR'><div class='vertical-center'>(I)</div></div></div>","E","$28","$89","1","28","89","RISKY"
"html-keyboard-response","48","60327","0.0-5.0-3.14","63d418d4229ed6c0712ce5bb","bdp_rd","Tue Mar 28 2023 10:57:36 GMT-0400 (Eastern Daylight Time)","166335","","null","","","","offerFB","","<div class='trialBorder'><div class='vertical-center'><img style='vertical-align:center; align:center' src=img/fixation3.jpg></div><div class='cl'><div class='vertical-center'><font style='color:orange'>$89<br>with a<br>50% chance</font></div></div><div class='cr'><div class='vertical-center'>$28<br>for<br>sure</div></div><div class='respDivL'><div class='vertical-center'><font style='color:orange'>(E)</font></div></div><div class='respDivR'><div class='vertical-center'>(I)</div></div></div>","null","$28","$89","1","28","89",""
"html-keyboard-response","49","60828","0.0-5.0-1.15","63d418d4229ed6c0712ce5bb","bdp_rd","Tue Mar 28 2023 10:57:36 GMT-0400 (Eastern Daylight Time)","166335","","null","","","","FIX","","<div class='trialBorder'><div class='vertical-center'><img style='vertical-align:center; align:center' src=img/fixation3.jpg></div></div>","null","","","","","",""
"html-keyboard-response","50","61988","0.0-5.0-2.15","63d418d4229ed6c0712ce5bb","bdp_rd","Tue Mar 28 2023 10:57:36 GMT-0400 (Eastern Daylight Time)","166335","","1159","","","","offer","","<div class='trialBorder'><div class='vertical-center'><img style='vertical-align:center; align:center' src=img/fixation3.jpg></div><div class='cl'><div class='vertical-center'>$40<br>with a<br>50% chance</div></div><div class='cr'><div class='vertical-center'>$10<br>for<br>sure</div></div><div class='respDivL'><div class='vertical-center'>(E)</div></div><div class='respDivR'><div class='vertical-center'>(I)</div></div></div>","I","$10","$40","1","10","40","SURE"
"html-keyboard-response","51","62240","0.0-5.0-3.15","63d418d4229ed6c0712ce5bb","bdp_rd","Tue Mar 28 2023 10:57:36 GMT-0400 (Eastern Daylight Time)","166335","","null","","","","offerFB","","<div class='trialBorder'><div class='vertical-center'><img style='vertical-align:center; align:center' src=img/fixation3.jpg></div><div class='cl'><div class='vertical-center'>$40<br>with a<br>50% chance</div></div><div class='cr'><div class='vertical-center'><font style='color:orange'>$10<br>for<br>sure</font></div></div><div class='respDivL'><div class='vertical-center'>(E)</div></div><div class='respDivR'><div class='vertical-center'><font style='color:orange'>(I)</font></div></div></div>","null","$10","$40","1","10","40",""
"html-keyboard-response","52","62741","0.0-5.0-1.16","63d418d4229ed6c0712ce5bb","bdp_rd","Tue Mar 28 2023 10:57:36 GMT-0400 (Eastern Daylight Time)","166335","","null","","","","FIX","","<div class='trialBorder'><div class='vertical-center'><img style='vertical-align:center; align:center' src=img/fixation3.jpg></div></div>","null","","","","","",""
"html-keyboard-response","53","64515","0.0-5.0-2.16","63d418d4229ed6c0712ce5bb","bdp_rd","Tue Mar 28 2023 10:57:36 GMT-0400 (Eastern Daylight Time)","166335","","1772","","","","offer","","<div class='trialBorder'><div class='vertical-center'><img style='vertical-align:center; align:center' src=img/fixation3.jpg></div><div class='cl'><div class='vertical-center'>$14<br>for<br>sure</div></div><div class='cr'><div class='vertical-center'>$29<br>with a<br>50% chance</div></div><div class='respDivL'><div class='vertical-center'>(E)</div></div><div class='respDivR'><div class='vertical-center'>(I)</div></div></div>","I","$14","$29","0","14","29","RISKY"
"html-keyboard-response","54","64767","0.0-5.0-3.16","63d418d4229ed6c0712ce5bb","bdp_rd","Tue Mar 28 2023 10:57:36 GMT-0400 (Eastern Daylight Time)","166335","","null","","","","offerFB","","<div class='trialBorder'><div class='vertical-center'><img style='vertical-align:center; align:center' src=img/fixation3.jpg></div><div class='cl'><div class='vertical-center'>$14<br>for<br>sure</div></div><div class='cr'><div class='vertical-center'><font style='color:orange'>$29<br>with a<br>50% chance</font></div></div><div class='respDivL'><div class='vertical-center'>(E)</div></div><div class='respDivR'><div class='vertical-center'><font style='color:orange'>(I)</font></div></div></div>","null","$14","$29","0","14","29",""
"html-keyboard-response","55","65269","0.0-5.0-1.17","63d418d4229ed6c0712ce5bb","bdp_rd","Tue Mar 28 2023 10:57:36 GMT-0400 (Eastern Daylight Time)","166335","","null","","","","FIX","","<div class='trialBorder'><div class='vertical-center'><img style='vertical-align:center; align:center' src=img/fixation3.jpg></div></div>","null","","","","","",""
"html-keyboard-response","56","66260","0.0-5.0-2.17","63d418d4229ed6c0712ce5bb","bdp_rd","Tue Mar 28 2023 10:57:36 GMT-0400 (Eastern Daylight Time)","166335","","990","","","","offer","","<div class='trialBorder'><div class='vertical-center'><img style='vertical-align:center; align:center' src=img/fixation3.jpg></div><div class='cl'><div class='vertical-center'>$73<br>with a<br>50% chance</div></div><div class='cr'><div class='vertical-center'>$42<br>for<br>sure</div></div><div class='respDivL'><div class='vertical-center'>(E)</div></div><div class='respDivR'><div class='vertical-center'>(I)</div></div></div>","E","$42","$73","1","42","73","RISKY"
"html-keyboard-response","57","66511","0.0-5.0-3.17","63d418d4229ed6c0712ce5bb","bdp_rd","Tue Mar 28 2023 10:57:36 GMT-0400 (Eastern Daylight Time)","166335","","null","","","","offerFB","","<div class='trialBorder'><div class='vertical-center'><img style='vertical-align:center; align:center' src=img/fixation3.jpg></div><div class='cl'><div class='vertical-center'><font style='color:orange'>$73<br>with a<br>50% chance</font></div></div><div class='cr'><div class='vertical-center'>$42<br>for<br>sure</div></div><div class='respDivL'><div class='vertical-center'><font style='color:orange'>(E)</font></div></div><div class='respDivR'><div class='vertical-center'>(I)</div></div></div>","null","$42","$73","1","42","73",""
"html-keyboard-response","58","67012","0.0-5.0-1.18","63d418d4229ed6c0712ce5bb","bdp_rd","Tue Mar 28 2023 10:57:36 GMT-0400 (Eastern Daylight Time)","166335","","null","","","","FIX","","<div class='trialBorder'><div class='vertical-center'><img style='vertical-align:center; align:center' src=img/fixation3.jpg></div></div>","null","","","","","",""
"html-keyboard-response","59","68156","0.0-5.0-2.18","63d418d4229ed6c0712ce5bb","bdp_rd","Tue Mar 28 2023 10:57:36 GMT-0400 (Eastern Daylight Time)","166335","","1143","","","","offer","","<div class='trialBorder'><div class='vertical-center'><img style='vertical-align:center; align:center' src=img/fixation3.jpg></div><div class='cl'><div class='vertical-center'>$17<br>for<br>sure</div></div><div class='cr'><div class='vertical-center'>$43<br>with a<br>50% chance</div></div><div class='respDivL'><div class='vertical-center'>(E)</div></div><div class='respDivR'><div class='vertical-center'>(I)</div></div></div>","E","$17","$43","0","17","43","SURE"
"html-keyboard-response","60","68408","0.0-5.0-3.18","63d418d4229ed6c0712ce5bb","bdp_rd","Tue Mar 28 2023 10:57:36 GMT-0400 (Eastern Daylight Time)","166335","","null","","","","offerFB","","<div class='trialBorder'><div class='vertical-center'><img style='vertical-align:center; align:center' src=img/fixation3.jpg></div><div class='cl'><div class='vertical-center'><font style='color:orange'>$17<br>for<br>sure</font></div></div><div class='cr'><div class='vertical-center'>$43<br>with a<br>50% chance</div></div><div class='respDivL'><div class='vertical-center'><font style='color:orange'>(E)</font></div></div><div class='respDivR'><div class='vertical-center'>(I)</div></div></div>","null","$17","$43","0","17","43",""
"html-keyboard-response","61","68910","0.0-5.0-1.19","63d418d4229ed6c0712ce5bb","bdp_rd","Tue Mar 28 2023 10:57:36 GMT-0400 (Eastern Daylight Time)","166335","","null","","","","FIX","","<div class='trialBorder'><div class='vertical-center'><img style='vertical-align:center; align:center' src=img/fixation3.jpg></div></div>","null","","","","","",""
"html-keyboard-response","62","70877","0.0-5.0-2.19","63d418d4229ed6c0712ce5bb","bdp_rd","Tue Mar 28 2023 10:57:36 GMT-0400 (Eastern Daylight Time)","166335","","1967","","","","offer","","<div class='trialBorder'><div class='vertical-center'><img style='vertical-align:center; align:center' src=img/fixation3.jpg></div><div class='cl'><div class='vertical-center'>$13<br>with a<br>50% chance</div></div><div class='cr'><div class='vertical-center'>$6<br>for<br>sure</div></div><div class='respDivL'><div class='vertical-center'>(E)</div></div><div class='respDivR'><div class='vertical-center'>(I)</div></div></div>","E","$6","$13","1","6","13","RISKY"
"html-keyboard-response","63","71128","0.0-5.0-3.19","63d418d4229ed6c0712ce5bb","bdp_rd","Tue Mar 28 2023 10:57:36 GMT-0400 (Eastern Daylight Time)","166335","","null","","","","offerFB","","<div class='trialBorder'><div class='vertical-center'><img style='vertical-align:center; align:center' src=img/fixation3.jpg></div><div class='cl'><div class='vertical-center'><font style='color:orange'>$13<br>with a<br>50% chance</font></div></div><div class='cr'><div class='vertical-center'>$6<br>for<br>sure</div></div><div class='respDivL'><div class='vertical-center'><font style='color:orange'>(E)</font></div></div><div class='respDivR'><div class='vertical-center'>(I)</div></div></div>","null","$6","$13","1","6","13",""
"html-keyboard-response","64","71629","0.0-5.0-1.20","63d418d4229ed6c0712ce5bb","bdp_rd","Tue Mar 28 2023 10:57:36 GMT-0400 (Eastern Daylight Time)","166335","","null","","","","FIX","","<div class='trialBorder'><div class='vertical-center'><img style='vertical-align:center; align:center' src=img/fixation3.jpg></div></div>","null","","","","","",""
"html-keyboard-response","65","76380","0.0-5.0-2.20","63d418d4229ed6c0712ce5bb","bdp_rd","Tue Mar 28 2023 10:57:36 GMT-0400 (Eastern Daylight Time)","166335","","4750","","","","offer","","<div class='trialBorder'><div class='vertical-center'><img style='vertical-align:center; align:center' src=img/fixation3.jpg></div><div class='cl'><div class='vertical-center'>$22<br>for<br>sure</div></div><div class='cr'><div class='vertical-center'>$59<br>with a<br>50% chance</div></div><div class='respDivL'><div class='vertical-center'>(E)</div></div><div class='respDivR'><div class='vertical-center'>(I)</div></div></div>","I","$22","$59","0","22","59","RISKY"
"html-keyboard-response","66","76633","0.0-5.0-3.20","63d418d4229ed6c0712ce5bb","bdp_rd","Tue Mar 28 2023 10:57:36 GMT-0400 (Eastern Daylight Time)","166335","","null","","","","offerFB","","<div class='trialBorder'><div class='vertical-center'><img style='vertical-align:center; align:center' src=img/fixation3.jpg></div><div class='cl'><div class='vertical-center'>$22<br>for<br>sure</div></div><div class='cr'><div class='vertical-center'><font style='color:orange'>$59<br>with a<br>50% chance</font></div></div><div class='respDivL'><div class='vertical-center'>(E)</div></div><div class='respDivR'><div class='vertical-center'><font style='color:orange'>(I)</font></div></div></div>","null","$22","$59","0","22","59",""
"html-keyboard-response","67","77134","0.0-5.0-1.21","63d418d4229ed6c0712ce5bb","bdp_rd","Tue Mar 28 2023 10:57:36 GMT-0400 (Eastern Daylight Time)","166335","","null","","","","FIX","","<div class='trialBorder'><div class='vertical-center'><img style='vertical-align:center; align:center' src=img/fixation3.jpg></div></div>","null","","","","","",""
"html-keyboard-response","68","78812","0.0-5.0-2.21","63d418d4229ed6c0712ce5bb","bdp_rd","Tue Mar 28 2023 10:57:36 GMT-0400 (Eastern Daylight Time)","166335","","1677","","","","offer","","<div class='trialBorder'><div class='vertical-center'><img style='vertical-align:center; align:center' src=img/fixation3.jpg></div><div class='cl'><div class='vertical-center'>$16<br>with a<br>50% chance</div></div><div class='cr'><div class='vertical-center'>$5<br>for<br>sure</div></div><div class='respDivL'><div class='vertical-center'>(E)</div></div><div class='respDivR'><div class='vertical-center'>(I)</div></div></div>","E","$5","$16","1","5","16","RISKY"
"html-keyboard-response","69","79076","0.0-5.0-3.21","63d418d4229ed6c0712ce5bb","bdp_rd","Tue Mar 28 2023 10:57:36 GMT-0400 (Eastern Daylight Time)","166335","","null","","","","offerFB","","<div class='trialBorder'><div class='vertical-center'><img style='vertical-align:center; align:center' src=img/fixation3.jpg></div><div class='cl'><div class='vertical-center'><font style='color:orange'>$16<br>with a<br>50% chance</font></div></div><div class='cr'><div class='vertical-center'>$5<br>for<br>sure</div></div><div class='respDivL'><div class='vertical-center'><font style='color:orange'>(E)</font></div></div><div class='respDivR'><div class='vertical-center'>(I)</div></div></div>","null","$5","$16","1","5","16",""
"html-keyboard-response","70","79578","0.0-5.0-1.22","63d418d4229ed6c0712ce5bb","bdp_rd","Tue Mar 28 2023 10:57:36 GMT-0400 (Eastern Daylight Time)","166335","","null","","","","FIX","","<div class='trialBorder'><div class='vertical-center'><img style='vertical-align:center; align:center' src=img/fixation3.jpg></div></div>","null","","","","","",""
"html-keyboard-response","71","82517","0.0-5.0-2.22","63d418d4229ed6c0712ce5bb","bdp_rd","Tue Mar 28 2023 10:57:36 GMT-0400 (Eastern Daylight Time)","166335","","2939","","","","offer","","<div class='trialBorder'><div class='vertical-center'><img style='vertical-align:center; align:center' src=img/fixation3.jpg></div><div class='cl'><div class='vertical-center'>$27<br>for<br>sure</div></div><div class='cr'><div class='vertical-center'>$47<br>with a<br>50% chance</div></div><div class='respDivL'><div class='vertical-center'>(E)</div></div><div class='respDivR'><div class='vertical-center'>(I)</div></div></div>","E","$27","$47","0","27","47","SURE"
"html-keyboard-response","72","82768","0.0-5.0-3.22","63d418d4229ed6c0712ce5bb","bdp_rd","Tue Mar 28 2023 10:57:36 GMT-0400 (Eastern Daylight Time)","166335","","null","","","","offerFB","","<div class='trialBorder'><div class='vertical-center'><img style='vertical-align:center; align:center' src=img/fixation3.jpg></div><div class='cl'><div class='vertical-center'><font style='color:orange'>$27<br>for<br>sure</font></div></div><div class='cr'><div class='vertical-center'>$47<br>with a<br>50% chance</div></div><div class='respDivL'><div class='vertical-center'><font style='color:orange'>(E)</font></div></div><div class='respDivR'><div class='vertical-center'>(I)</div></div></div>","null","$27","$47","0","27","47",""
"html-keyboard-response","73","83269","0.0-5.0-1.23","63d418d4229ed6c0712ce5bb","bdp_rd","Tue Mar 28 2023 10:57:36 GMT-0400 (Eastern Daylight Time)","166335","","null","","","","FIX","","<div class='trialBorder'><div class='vertical-center'><img style='vertical-align:center; align:center' src=img/fixation3.jpg></div></div>","null","","","","","",""
"html-keyboard-response","74","85501","0.0-5.0-2.23","63d418d4229ed6c0712ce5bb","bdp_rd","Tue Mar 28 2023 10:57:36 GMT-0400 (Eastern Daylight Time)","166335","","2231","","","","offer","","<div class='trialBorder'><div class='vertical-center'><img style='vertical-align:center; align:center' src=img/fixation3.jpg></div><div class='cl'><div class='vertical-center'>$68<br>with a<br>50% chance</div></div><div class='cr'><div class='vertical-center'>$30<br>for<br>sure</div></div><div class='respDivL'><div class='vertical-center'>(E)</div></div><div class='respDivR'><div class='vertical-center'>(I)</div></div></div>","I","$30","$68","1","30","68","SURE"
"html-keyboard-response","75","85752","0.0-5.0-3.23","63d418d4229ed6c0712ce5bb","bdp_rd","Tue Mar 28 2023 10:57:36 GMT-0400 (Eastern Daylight Time)","166335","","null","","","","offerFB","","<div class='trialBorder'><div class='vertical-center'><img style='vertical-align:center; align:center' src=img/fixation3.jpg></div><div class='cl'><div class='vertical-center'>$68<br>with a<br>50% chance</div></div><div class='cr'><div class='vertical-center'><font style='color:orange'>$30<br>for<br>sure</font></div></div><div class='respDivL'><div class='vertical-center'>(E)</div></div><div class='respDivR'><div class='vertical-center'><font style='color:orange'>(I)</font></div></div></div>","null","$30","$68","1","30","68",""
"html-keyboard-response","76","86255","0.0-5.0-1.24","63d418d4229ed6c0712ce5bb","bdp_rd","Tue Mar 28 2023 10:57:36 GMT-0400 (Eastern Daylight Time)","166335","","null","","","","FIX","","<div class='trialBorder'><div class='vertical-center'><img style='vertical-align:center; align:center' src=img/fixation3.jpg></div></div>","null","","","","","",""
"html-keyboard-response","77","87725","0.0-5.0-2.24","63d418d4229ed6c0712ce5bb","bdp_rd","Tue Mar 28 2023 10:57:36 GMT-0400 (Eastern Daylight Time)","166335","","1470","","","","offer","","<div class='trialBorder'><div class='vertical-center'><img style='vertical-align:center; align:center' src=img/fixation3.jpg></div><div class='cl'><div class='vertical-center'>$100<br>with a<br>50% chance</div></div><div class='cr'><div class='vertical-center'>$63<br>for<br>sure</div></div><div class='respDivL'><div class='vertical-center'>(E)</div></div><div class='respDivR'><div class='vertical-center'>(I)</div></div></div>","I","$63","$100","1","63","10","SURE"
"html-keyboard-response","78","87977","0.0-5.0-3.24","63d418d4229ed6c0712ce5bb","bdp_rd","Tue Mar 28 2023 10:57:36 GMT-0400 (Eastern Daylight Time)","166335","","null","","","","offerFB","","<div class='trialBorder'><div class='vertical-center'><img style='vertical-align:center; align:center' src=img/fixation3.jpg></div><div class='cl'><div class='vertical-center'>$100<br>with a<br>50% chance</div></div><div class='cr'><div class='vertical-center'><font style='color:orange'>$63<br>for<br>sure</font></div></div><div class='respDivL'><div class='vertical-center'>(E)</div></div><div class='respDivR'><div class='vertical-center'><font style='color:orange'>(I)</font></div></div></div>","null","$63","$100","1","63","10",""
"html-keyboard-response","79","88480","0.0-5.0-1.25","63d418d4229ed6c0712ce5bb","bdp_rd","Tue Mar 28 2023 10:57:36 GMT-0400 (Eastern Daylight Time)","166335","","null","","","","FIX","","<div class='trialBorder'><div class='vertical-center'><img style='vertical-align:center; align:center' src=img/fixation3.jpg></div></div>","null","","","","","",""
"html-keyboard-response","80","90806","0.0-5.0-2.25","63d418d4229ed6c0712ce5bb","bdp_rd","Tue Mar 28 2023 10:57:36 GMT-0400 (Eastern Daylight Time)","166335","","2324","","","","offer","","<div class='trialBorder'><div class='vertical-center'><img style='vertical-align:center; align:center' src=img/fixation3.jpg></div><div class='cl'><div class='vertical-center'>$80<br>with a<br>50% chance</div></div><div class='cr'><div class='vertical-center'>$20<br>for<br>sure</div></div><div class='respDivL'><div class='vertical-center'>(E)</div></div><div class='respDivR'><div class='vertical-center'>(I)</div></div></div>","I","$20","$80","1","20","80","SURE"
"html-keyboard-response","81","91058","0.0-5.0-3.25","63d418d4229ed6c0712ce5bb","bdp_rd","Tue Mar 28 2023 10:57:36 GMT-0400 (Eastern Daylight Time)","166335","","null","","","","offerFB","","<div class='trialBorder'><div class='vertical-center'><img style='vertical-align:center; align:center' src=img/fixation3.jpg></div><div class='cl'><div class='vertical-center'>$80<br>with a<br>50% chance</div></div><div class='cr'><div class='vertical-center'><font style='color:orange'>$20<br>for<br>sure</font></div></div><div class='respDivL'><div class='vertical-center'>(E)</div></div><div class='respDivR'><div class='vertical-center'><font style='color:orange'>(I)</font></div></div></div>","null","$20","$80","1","20","80",""
"html-keyboard-response","82","91560","0.0-5.0-1.26","63d418d4229ed6c0712ce5bb","bdp_rd","Tue Mar 28 2023 10:57:36 GMT-0400 (Eastern Daylight Time)","166335","","null","","","","FIX","","<div class='trialBorder'><div class='vertical-center'><img style='vertical-align:center; align:center' src=img/fixation3.jpg></div></div>","null","","","","","",""
"html-keyboard-response","83","92710","0.0-5.0-2.26","63d418d4229ed6c0712ce5bb","bdp_rd","Tue Mar 28 2023 10:57:36 GMT-0400 (Eastern Daylight Time)","166335","","1149","","","","offer","","<div class='trialBorder'><div class='vertical-center'><img style='vertical-align:center; align:center' src=img/fixation3.jpg></div><div class='cl'><div class='vertical-center'>$86<br>with a<br>50% chance</div></div><div class='cr'><div class='vertical-center'>$45<br>for<br>sure</div></div><div class='respDivL'><div class='vertical-center'>(E)</div></div><div class='respDivR'><div class='vertical-center'>(I)</div></div></div>","I","$45","$86","1","45","86","SURE"
"html-keyboard-response","84","92961","0.0-5.0-3.26","63d418d4229ed6c0712ce5bb","bdp_rd","Tue Mar 28 2023 10:57:36 GMT-0400 (Eastern Daylight Time)","166335","","null","","","","offerFB","","<div class='trialBorder'><div class='vertical-center'><img style='vertical-align:center; align:center' src=img/fixation3.jpg></div><div class='cl'><div class='vertical-center'>$86<br>with a<br>50% chance</div></div><div class='cr'><div class='vertical-center'><font style='color:orange'>$45<br>for<br>sure</font></div></div><div class='respDivL'><div class='vertical-center'>(E)</div></div><div class='respDivR'><div class='vertical-center'><font style='color:orange'>(I)</font></div></div></div>","null","$45","$86","1","45","86",""
"html-keyboard-response","85","93462","0.0-5.0-1.27","63d418d4229ed6c0712ce5bb","bdp_rd","Tue Mar 28 2023 10:57:36 GMT-0400 (Eastern Daylight Time)","166335","","null","","","","FIX","","<div class='trialBorder'><div class='vertical-center'><img style='vertical-align:center; align:center' src=img/fixation3.jpg></div></div>","null","","","","","",""
"html-keyboard-response","86","94798","0.0-5.0-2.27","63d418d4229ed6c0712ce5bb","bdp_rd","Tue Mar 28 2023 10:57:36 GMT-0400 (Eastern Daylight Time)","166335","","1336","","","","offer","","<div class='trialBorder'><div class='vertical-center'><img style='vertical-align:center; align:center' src=img/fixation3.jpg></div><div class='cl'><div class='vertical-center'>$78<br>with a<br>50% chance</div></div><div class='cr'><div class='vertical-center'>$31<br>for<br>sure</div></div><div class='respDivL'><div class='vertical-center'>(E)</div></div><div class='respDivR'><div class='vertical-center'>(I)</div></div></div>","E","$31","$78","1","31","78","RISKY"
"html-keyboard-response","87","95050","0.0-5.0-3.27","63d418d4229ed6c0712ce5bb","bdp_rd","Tue Mar 28 2023 10:57:36 GMT-0400 (Eastern Daylight Time)","166335","","null","","","","offerFB","","<div class='trialBorder'><div class='vertical-center'><img style='vertical-align:center; align:center' src=img/fixation3.jpg></div><div class='cl'><div class='vertical-center'><font style='color:orange'>$78<br>with a<br>50% chance</font></div></div><div class='cr'><div class='vertical-center'>$31<br>for<br>sure</div></div><div class='respDivL'><div class='vertical-center'><font style='color:orange'>(E)</font></div></div><div class='respDivR'><div class='vertical-center'>(I)</div></div></div>","null","$31","$78","1","31","78",""
"html-keyboard-response","88","95551","0.0-5.0-1.28","63d418d4229ed6c0712ce5bb","bdp_rd","Tue Mar 28 2023 10:57:36 GMT-0400 (Eastern Daylight Time)","166335","","null","","","","FIX","","<div class='trialBorder'><div class='vertical-center'><img style='vertical-align:center; align:center' src=img/fixation3.jpg></div></div>","null","","","","","",""
"html-keyboard-response","89","96958","0.0-5.0-2.28","63d418d4229ed6c0712ce5bb","bdp_rd","Tue Mar 28 2023 10:57:36 GMT-0400 (Eastern Daylight Time)","166335","","1405","","","","offer","","<div class='trialBorder'><div class='vertical-center'><img style='vertical-align:center; align:center' src=img/fixation3.jpg></div><div class='cl'><div class='vertical-center'>$50<br>with a<br>50% chance</div></div><div class='cr'><div class='vertical-center'>$5<br>for<br>sure</div></div><div class='respDivL'><div class='vertical-center'>(E)</div></div><div class='respDivR'><div class='vertical-center'>(I)</div></div></div>","E","$5","$50","1","5","50","RISKY"
"html-keyboard-response","90","97210","0.0-5.0-3.28","63d418d4229ed6c0712ce5bb","bdp_rd","Tue Mar 28 2023 10:57:36 GMT-0400 (Eastern Daylight Time)","166335","","null","","","","offerFB","","<div class='trialBorder'><div class='vertical-center'><img style='vertical-align:center; align:center' src=img/fixation3.jpg></div><div class='cl'><div class='vertical-center'><font style='color:orange'>$50<br>with a<br>50% chance</font></div></div><div class='cr'><div class='vertical-center'>$5<br>for<br>sure</div></div><div class='respDivL'><div class='vertical-center'><font style='color:orange'>(E)</font></div></div><div class='respDivR'><div class='vertical-center'>(I)</div></div></div>","null","$5","$50","1","5","50",""
"html-keyboard-response","91","97711","0.0-5.0-1.29","63d418d4229ed6c0712ce5bb","bdp_rd","Tue Mar 28 2023 10:57:36 GMT-0400 (Eastern Daylight Time)","166335","","null","","","","FIX","","<div class='trialBorder'><div class='vertical-center'><img style='vertical-align:center; align:center' src=img/fixation3.jpg></div></div>","null","","","","","",""
"html-keyboard-response","92","99174","0.0-5.0-2.29","63d418d4229ed6c0712ce5bb","bdp_rd","Tue Mar 28 2023 10:57:36 GMT-0400 (Eastern Daylight Time)","166335","","1462","","","","offer","","<div class='trialBorder'><div class='vertical-center'><img style='vertical-align:center; align:center' src=img/fixation3.jpg></div><div class='cl'><div class='vertical-center'>$6<br>for<br>sure</div></div><div class='cr'><div class='vertical-center'>$15<br>with a<br>50% chance</div></div><div class='respDivL'><div class='vertical-center'>(E)</div></div><div class='respDivR'><div class='vertical-center'>(I)</div></div></div>","E","$6","$15","0","6","15","SURE"
"html-keyboard-response","93","99426","0.0-5.0-3.29","63d418d4229ed6c0712ce5bb","bdp_rd","Tue Mar 28 2023 10:57:36 GMT-0400 (Eastern Daylight Time)","166335","","null","","","","offerFB","","<div class='trialBorder'><div class='vertical-center'><img style='vertical-align:center; align:center' src=img/fixation3.jpg></div><div class='cl'><div class='vertical-center'><font style='color:orange'>$6<br>for<br>sure</font></div></div><div class='cr'><div class='vertical-center'>$15<br>with a<br>50% chance</div></div><div class='respDivL'><div class='vertical-center'><font style='color:orange'>(E)</font></div></div><div class='respDivR'><div class='vertical-center'>(I)</div></div></div>","null","$6","$15","0","6","15",""
"html-keyboard-response","94","99927","0.0-5.0-1.30","63d418d4229ed6c0712ce5bb","bdp_rd","Tue Mar 28 2023 10:57:36 GMT-0400 (Eastern Daylight Time)","166335","","null","","","","FIX","","<div class='trialBorder'><div class='vertical-center'><img style='vertical-align:center; align:center' src=img/fixation3.jpg></div></div>","null","","","","","",""
"html-keyboard-response","95","100950","0.0-5.0-2.30","63d418d4229ed6c0712ce5bb","bdp_rd","Tue Mar 28 2023 10:57:36 GMT-0400 (Eastern Daylight Time)","166335","","1023","","","","offer","","<div class='trialBorder'><div class='vertical-center'><img style='vertical-align:center; align:center' src=img/fixation3.jpg></div><div class='cl'><div class='vertical-center'>$36<br>with a<br>50% chance</div></div><div class='cr'><div class='vertical-center'>$18<br>for<br>sure</div></div><div class='respDivL'><div class='vertical-center'>(E)</div></div><div class='respDivR'><div class='vertical-center'>(I)</div></div></div>","I","$18","$36","1","18","36","SURE"
"html-keyboard-response","96","101202","0.0-5.0-3.30","63d418d4229ed6c0712ce5bb","bdp_rd","Tue Mar 28 2023 10:57:36 GMT-0400 (Eastern Daylight Time)","166335","","null","","","","offerFB","","<div class='trialBorder'><div class='vertical-center'><img style='vertical-align:center; align:center' src=img/fixation3.jpg></div><div class='cl'><div class='vertical-center'>$36<br>with a<br>50% chance</div></div><div class='cr'><div class='vertical-center'><font style='color:orange'>$18<br>for<br>sure</font></div></div><div class='respDivL'><div class='vertical-center'>(E)</div></div><div class='respDivR'><div class='vertical-center'><font style='color:orange'>(I)</font></div></div></div>","null","$18","$36","1","18","36",""
"html-keyboard-response","97","101704","0.0-5.0-1.31","63d418d4229ed6c0712ce5bb","bdp_rd","Tue Mar 28 2023 10:57:36 GMT-0400 (Eastern Daylight Time)","166335","","null","","","","FIX","","<div class='trialBorder'><div class='vertical-center'><img style='vertical-align:center; align:center' src=img/fixation3.jpg></div></div>","null","","","","","",""
"html-keyboard-response","98","103134","0.0-5.0-2.31","63d418d4229ed6c0712ce5bb","bdp_rd","Tue Mar 28 2023 10:57:36 GMT-0400 (Eastern Daylight Time)","166335","","1430","","","","offer","","<div class='trialBorder'><div class='vertical-center'><img style='vertical-align:center; align:center' src=img/fixation3.jpg></div><div class='cl'><div class='vertical-center'>$69<br>with a<br>50% chance</div></div><div class='cr'><div class='vertical-center'>$58<br>for<br>sure</div></div><div class='respDivL'><div class='vertical-center'>(E)</div></div><div class='respDivR'><div class='vertical-center'>(I)</div></div></div>","I","$58","$69","1","58","69","SURE"
"html-keyboard-response","99","103386","0.0-5.0-3.31","63d418d4229ed6c0712ce5bb","bdp_rd","Tue Mar 28 2023 10:57:36 GMT-0400 (Eastern Daylight Time)","166335","","null","","","","offerFB","","<div class='trialBorder'><div class='vertical-center'><img style='vertical-align:center; align:center' src=img/fixation3.jpg></div><div class='cl'><div class='vertical-center'>$69<br>with a<br>50% chance</div></div><div class='cr'><div class='vertical-center'><font style='color:orange'>$58<br>for<br>sure</font></div></div><div class='respDivL'><div class='vertical-center'>(E)</div></div><div class='respDivR'><div class='vertical-center'><font style='color:orange'>(I)</font></div></div></div>","null","$58","$69","1","58","69",""
"html-keyboard-response","100","103888","0.0-5.0-1.32","63d418d4229ed6c0712ce5bb","bdp_rd","Tue Mar 28 2023 10:57:36 GMT-0400 (Eastern Daylight Time)","166335","","null","","","","FIX","","<div class='trialBorder'><div class='vertical-center'><img style='vertical-align:center; align:center' src=img/fixation3.jpg></div></div>","null","","","","","",""
"html-keyboard-response","101","106151","0.0-5.0-2.32","63d418d4229ed6c0712ce5bb","bdp_rd","Tue Mar 28 2023 10:57:36 GMT-0400 (Eastern Daylight Time)","166335","","2262","","","","offer","","<div class='trialBorder'><div class='vertical-center'><img style='vertical-align:center; align:center' src=img/fixation3.jpg></div><div class='cl'><div class='vertical-center'>$18<br>for<br>sure</div></div><div class='cr'><div class='vertical-center'>$39<br>with a<br>50% chance</div></div><div class='respDivL'><div class='vertical-center'>(E)</div></div><div class='respDivR'><div class='vertical-center'>(I)</div></div></div>","I","$18","$39","0","18","39","RISKY"
"html-keyboard-response","102","106403","0.0-5.0-3.32","63d418d4229ed6c0712ce5bb","bdp_rd","Tue Mar 28 2023 10:57:36 GMT-0400 (Eastern Daylight Time)","166335","","null","","","","offerFB","","<div class='trialBorder'><div class='vertical-center'><img style='vertical-align:center; align:center' src=img/fixation3.jpg></div><div class='cl'><div class='vertical-center'>$18<br>for<br>sure</div></div><div class='cr'><div class='vertical-center'><font style='color:orange'>$39<br>with a<br>50% chance</font></div></div><div class='respDivL'><div class='vertical-center'>(E)</div></div><div class='respDivR'><div class='vertical-center'><font style='color:orange'>(I)</font></div></div></div>","null","$18","$39","0","18","39",""
"html-keyboard-response","103","106904","0.0-5.0-1.33","63d418d4229ed6c0712ce5bb","bdp_rd","Tue Mar 28 2023 10:57:36 GMT-0400 (Eastern Daylight Time)","166335","","null","","","","FIX","","<div class='trialBorder'><div class='vertical-center'><img style='vertical-align:center; align:center' src=img/fixation3.jpg></div></div>","null","","","","","",""
"html-keyboard-response","104","107990","0.0-5.0-2.33","63d418d4229ed6c0712ce5bb","bdp_rd","Tue Mar 28 2023 10:57:36 GMT-0400 (Eastern Daylight Time)","166335","","1085","","","","offer","","<div class='trialBorder'><div class='vertical-center'><img style='vertical-align:center; align:center' src=img/fixation3.jpg></div><div class='cl'><div class='vertical-center'>$8<br>for<br>sure</div></div><div class='cr'><div class='vertical-center'>$45<br>with a<br>50% chance</div></div><div class='respDivL'><div class='vertical-center'>(E)</div></div><div class='respDivR'><div class='vertical-center'>(I)</div></div></div>","I","$8","$45","0","8","45","RISKY"
"html-keyboard-response","105","108241","0.0-5.0-3.33","63d418d4229ed6c0712ce5bb","bdp_rd","Tue Mar 28 2023 10:57:36 GMT-0400 (Eastern Daylight Time)","166335","","null","","","","offerFB","","<div class='trialBorder'><div class='vertical-center'><img style='vertical-align:center; align:center' src=img/fixation3.jpg></div><div class='cl'><div class='vertical-center'>$8<br>for<br>sure</div></div><div class='cr'><div class='vertical-center'><font style='color:orange'>$45<br>with a<br>50% chance</font></div></div><div class='respDivL'><div class='vertical-center'>(E)</div></div><div class='respDivR'><div class='vertical-center'><font style='color:orange'>(I)</font></div></div></div>","null","$8","$45","0","8","45",""
"html-keyboard-response","106","108743","0.0-5.0-1.34","63d418d4229ed6c0712ce5bb","bdp_rd","Tue Mar 28 2023 10:57:36 GMT-0400 (Eastern Daylight Time)","166335","","null","","","","FIX","","<div class='trialBorder'><div class='vertical-center'><img style='vertical-align:center; align:center' src=img/fixation3.jpg></div></div>","null","","","","","",""
"html-keyboard-response","107","109934","0.0-5.0-2.34","63d418d4229ed6c0712ce5bb","bdp_rd","Tue Mar 28 2023 10:57:36 GMT-0400 (Eastern Daylight Time)","166335","","1190","","","","offer","","<div class='trialBorder'><div class='vertical-center'><img style='vertical-align:center; align:center' src=img/fixation3.jpg></div><div class='cl'><div class='vertical-center'>$4<br>for<br>sure</div></div><div class='cr'><div class='vertical-center'>$11<br>with a<br>50% chance</div></div><div class='respDivL'><div class='vertical-center'>(E)</div></div><div class='respDivR'><div class='vertical-center'>(I)</div></div></div>","I","$4","$11","0","4","11","RISKY"
"html-keyboard-response","108","110186","0.0-5.0-3.34","63d418d4229ed6c0712ce5bb","bdp_rd","Tue Mar 28 2023 10:57:36 GMT-0400 (Eastern Daylight Time)","166335","","null","","","","offerFB","","<div class='trialBorder'><div class='vertical-center'><img style='vertical-align:center; align:center' src=img/fixation3.jpg></div><div class='cl'><div class='vertical-center'>$4<br>for<br>sure</div></div><div class='cr'><div class='vertical-center'><font style='color:orange'>$11<br>with a<br>50% chance</font></div></div><div class='respDivL'><div class='vertical-center'>(E)</div></div><div class='respDivR'><div class='vertical-center'><font style='color:orange'>(I)</font></div></div></div>","null","$4","$11","0","4","11",""
"html-keyboard-response","109","110688","0.0-5.0-1.35","63d418d4229ed6c0712ce5bb","bdp_rd","Tue Mar 28 2023 10:57:36 GMT-0400 (Eastern Daylight Time)","166335","","null","","","","FIX","","<div class='trialBorder'><div class='vertical-center'><img style='vertical-align:center; align:center' src=img/fixation3.jpg></div></div>","null","","","","","",""
"html-keyboard-response","110","111695","0.0-5.0-2.35","63d418d4229ed6c0712ce5bb","bdp_rd","Tue Mar 28 2023 10:57:36 GMT-0400 (Eastern Daylight Time)","166335","","1006","","","","offer","","<div class='trialBorder'><div class='vertical-center'><img style='vertical-align:center; align:center' src=img/fixation3.jpg></div><div class='cl'><div class='vertical-center'>$2<br>for<br>sure</div></div><div class='cr'><div class='vertical-center'>$21<br>with a<br>50% chance</div></div><div class='respDivL'><div class='vertical-center'>(E)</div></div><div class='respDivR'><div class='vertical-center'>(I)</div></div></div>","I","$2","$21","0","2","21","RISKY"
"html-keyboard-response","111","111945","0.0-5.0-3.35","63d418d4229ed6c0712ce5bb","bdp_rd","Tue Mar 28 2023 10:57:36 GMT-0400 (Eastern Daylight Time)","166335","","null","","","","offerFB","","<div class='trialBorder'><div class='vertical-center'><img style='vertical-align:center; align:center' src=img/fixation3.jpg></div><div class='cl'><div class='vertical-center'>$2<br>for<br>sure</div></div><div class='cr'><div class='vertical-center'><font style='color:orange'>$21<br>with a<br>50% chance</font></div></div><div class='respDivL'><div class='vertical-center'>(E)</div></div><div class='respDivR'><div class='vertical-center'><font style='color:orange'>(I)</font></div></div></div>","null","$2","$21","0","2","21",""
"html-keyboard-response","112","112447","0.0-5.0-1.36","63d418d4229ed6c0712ce5bb","bdp_rd","Tue Mar 28 2023 10:57:36 GMT-0400 (Eastern Daylight Time)","166335","","null","","","","FIX","","<div class='trialBorder'><div class='vertical-center'><img style='vertical-align:center; align:center' src=img/fixation3.jpg></div></div>","null","","","","","",""
"html-keyboard-response","113","113319","0.0-5.0-2.36","63d418d4229ed6c0712ce5bb","bdp_rd","Tue Mar 28 2023 10:57:36 GMT-0400 (Eastern Daylight Time)","166335","","872","","","","offer","","<div class='trialBorder'><div class='vertical-center'><img style='vertical-align:center; align:center' src=img/fixation3.jpg></div><div class='cl'><div class='vertical-center'>$40<br>for<br>sure</div></div><div class='cr'><div class='vertical-center'>$95<br>with a<br>50% chance</div></div><div class='respDivL'><div class='vertical-center'>(E)</div></div><div class='respDivR'><div class='vertical-center'>(I)</div></div></div>","I","$40","$95","0","40","95","RISKY"
"html-keyboard-response","114","113585","0.0-5.0-3.36","63d418d4229ed6c0712ce5bb","bdp_rd","Tue Mar 28 2023 10:57:36 GMT-0400 (Eastern Daylight Time)","166335","","null","","","","offerFB","","<div class='trialBorder'><div class='vertical-center'><img style='vertical-align:center; align:center' src=img/fixation3.jpg></div><div class='cl'><div class='vertical-center'>$40<br>for<br>sure</div></div><div class='cr'><div class='vertical-center'><font style='color:orange'>$95<br>with a<br>50% chance</font></div></div><div class='respDivL'><div class='vertical-center'>(E)</div></div><div class='respDivR'><div class='vertical-center'><font style='color:orange'>(I)</font></div></div></div>","null","$40","$95","0","40","95",""
"html-keyboard-response","115","114086","0.0-5.0-1.37","63d418d4229ed6c0712ce5bb","bdp_rd","Tue Mar 28 2023 10:57:36 GMT-0400 (Eastern Daylight Time)","166335","","null","","","","FIX","","<div class='trialBorder'><div class='vertical-center'><img style='vertical-align:center; align:center' src=img/fixation3.jpg></div></div>","null","","","","","",""
"html-keyboard-response","116","114951","0.0-5.0-2.37","63d418d4229ed6c0712ce5bb","bdp_rd","Tue Mar 28 2023 10:57:36 GMT-0400 (Eastern Daylight Time)","166335","","865","","","","offer","","<div class='trialBorder'><div class='vertical-center'><img style='vertical-align:center; align:center' src=img/fixation3.jpg></div><div class='cl'><div class='vertical-center'>$10<br>with a<br>50% chance</div></div><div class='cr'><div class='vertical-center'>$7<br>for<br>sure</div></div><div class='respDivL'><div class='vertical-center'>(E)</div></div><div class='respDivR'><div class='vertical-center'>(I)</div></div></div>","I","$7","$10","1","7","10","SURE"
"html-keyboard-response","117","115203","0.0-5.0-3.37","63d418d4229ed6c0712ce5bb","bdp_rd","Tue Mar 28 2023 10:57:36 GMT-0400 (Eastern Daylight Time)","166335","","null","","","","offerFB","","<div class='trialBorder'><div class='vertical-center'><img style='vertical-align:center; align:center' src=img/fixation3.jpg></div><div class='cl'><div class='vertical-center'>$10<br>with a<br>50% chance</div></div><div class='cr'><div class='vertical-center'><font style='color:orange'>$7<br>for<br>sure</font></div></div><div class='respDivL'><div class='vertical-center'>(E)</div></div><div class='respDivR'><div class='vertical-center'><font style='color:orange'>(I)</font></div></div></div>","null","$7","$10","1","7","10",""
"html-keyboard-response","118","115704","0.0-5.0-1.38","63d418d4229ed6c0712ce5bb","bdp_rd","Tue Mar 28 2023 10:57:36 GMT-0400 (Eastern Daylight Time)","166335","","null","","","","FIX","","<div class='trialBorder'><div class='vertical-center'><img style='vertical-align:center; align:center' src=img/fixation3.jpg></div></div>","null","","","","","",""
"html-keyboard-response","119","117975","0.0-5.0-2.38","63d418d4229ed6c0712ce5bb","bdp_rd","Tue Mar 28 2023 10:57:36 GMT-0400 (Eastern Daylight Time)","166335","","2270","","","","offer","","<div class='trialBorder'><div class='vertical-center'><img style='vertical-align:center; align:center' src=img/fixation3.jpg></div><div class='cl'><div class='vertical-center'>$33<br>for<br>sure</div></div><div class='cr'><div class='vertical-center'>$66<br>with a<br>50% chance</div></div><div class='respDivL'><div class='vertical-center'>(E)</div></div><div class='respDivR'><div class='vertical-center'>(I)</div></div></div>","I","$33","$66","0","33","66","RISKY"
"html-keyboard-response","120","118227","0.0-5.0-3.38","63d418d4229ed6c0712ce5bb","bdp_rd","Tue Mar 28 2023 10:57:36 GMT-0400 (Eastern Daylight Time)","166335","","null","","","","offerFB","","<div class='trialBorder'><div class='vertical-center'><img style='vertical-align:center; align:center' src=img/fixation3.jpg></div><div class='cl'><div class='vertical-center'>$33<br>for<br>sure</div></div><div class='cr'><div class='vertical-center'><font style='color:orange'>$66<br>with a<br>50% chance</font></div></div><div class='respDivL'><div class='vertical-center'>(E)</div></div><div class='respDivR'><div class='vertical-center'><font style='color:orange'>(I)</font></div></div></div>","null","$33","$66","0","33","66",""
"html-keyboard-response","121","118729","0.0-5.0-1.39","63d418d4229ed6c0712ce5bb","bdp_rd","Tue Mar 28 2023 10:57:36 GMT-0400 (Eastern Daylight Time)","166335","","null","","","","FIX","","<div class='trialBorder'><div class='vertical-center'><img style='vertical-align:center; align:center' src=img/fixation3.jpg></div></div>","null","","","","","",""
"html-keyboard-response","122","121207","0.0-5.0-2.39","63d418d4229ed6c0712ce5bb","bdp_rd","Tue Mar 28 2023 10:57:36 GMT-0400 (Eastern Daylight Time)","166335","","2478","","","","offer","","<div class='trialBorder'><div class='vertical-center'><img style='vertical-align:center; align:center' src=img/fixation3.jpg></div><div class='cl'><div class='vertical-center'>$3<br>for<br>sure</div></div><div class='cr'><div class='vertical-center'>$12<br>with a<br>50% chance</div></div><div class='respDivL'><div class='vertical-center'>(E)</div></div><div class='respDivR'><div class='vertical-center'>(I)</div></div></div>","I","$3","$12","0","3","12","RISKY"
"html-keyboard-response","123","121460","0.0-5.0-3.39","63d418d4229ed6c0712ce5bb","bdp_rd","Tue Mar 28 2023 10:57:36 GMT-0400 (Eastern Daylight Time)","166335","","null","","","","offerFB","","<div class='trialBorder'><div class='vertical-center'><img style='vertical-align:center; align:center' src=img/fixation3.jpg></div><div class='cl'><div class='vertical-center'>$3<br>for<br>sure</div></div><div class='cr'><div class='vertical-center'><font style='color:orange'>$12<br>with a<br>50% chance</font></div></div><div class='respDivL'><div class='vertical-center'>(E)</div></div><div class='respDivR'><div class='vertical-center'><font style='color:orange'>(I)</font></div></div></div>","null","$3","$12","0","3","12",""
"html-keyboard-response","124","121961","0.0-5.0-1.40","63d418d4229ed6c0712ce5bb","bdp_rd","Tue Mar 28 2023 10:57:36 GMT-0400 (Eastern Daylight Time)","166335","","null","","","","FIX","","<div class='trialBorder'><div class='vertical-center'><img style='vertical-align:center; align:center' src=img/fixation3.jpg></div></div>","null","","","","","",""
"html-keyboard-response","125","123336","0.0-5.0-2.40","63d418d4229ed6c0712ce5bb","bdp_rd","Tue Mar 28 2023 10:57:36 GMT-0400 (Eastern Daylight Time)","166335","","1374","","","","offer","","<div class='trialBorder'><div class='vertical-center'><img style='vertical-align:center; align:center' src=img/fixation3.jpg></div><div class='cl'><div class='vertical-center'>$34<br>with a<br>50% chance</div></div><div class='cr'><div class='vertical-center'>$15<br>for<br>sure</div></div><div class='respDivL'><div class='vertical-center'>(E)</div></div><div class='respDivR'><div class='vertical-center'>(I)</div></div></div>","I","$15","$34","1","15","34","SURE"
"html-keyboard-response","126","123588","0.0-5.0-3.40","63d418d4229ed6c0712ce5bb","bdp_rd","Tue Mar 28 2023 10:57:36 GMT-0400 (Eastern Daylight Time)","166335","","null","","","","offerFB","","<div class='trialBorder'><div class='vertical-center'><img style='vertical-align:center; align:center' src=img/fixation3.jpg></div><div class='cl'><div class='vertical-center'>$34<br>with a<br>50% chance</div></div><div class='cr'><div class='vertical-center'><font style='color:orange'>$15<br>for<br>sure</font></div></div><div class='respDivL'><div class='vertical-center'>(E)</div></div><div class='respDivR'><div class='vertical-center'><font style='color:orange'>(I)</font></div></div></div>","null","$15","$34","1","15","34",""
"html-keyboard-response","127","124090","0.0-5.0-1.41","63d418d4229ed6c0712ce5bb","bdp_rd","Tue Mar 28 2023 10:57:36 GMT-0400 (Eastern Daylight Time)","166335","","null","","","","FIX","","<div class='trialBorder'><div class='vertical-center'><img style='vertical-align:center; align:center' src=img/fixation3.jpg></div></div>","null","","","","","",""
"html-keyboard-response","128","125248","0.0-5.0-2.41","63d418d4229ed6c0712ce5bb","bdp_rd","Tue Mar 28 2023 10:57:36 GMT-0400 (Eastern Daylight Time)","166335","","1158","","","","offer","","<div class='trialBorder'><div class='vertical-center'><img style='vertical-align:center; align:center' src=img/fixation3.jpg></div><div class='cl'><div class='vertical-center'>$54<br>with a<br>50% chance</div></div><div class='cr'><div class='vertical-center'>$25<br>for<br>sure</div></div><div class='respDivL'><div class='vertical-center'>(E)</div></div><div class='respDivR'><div class='vertical-center'>(I)</div></div></div>","I","$25","$54","1","25","54","SURE"
"html-keyboard-response","129","125500","0.0-5.0-3.41","63d418d4229ed6c0712ce5bb","bdp_rd","Tue Mar 28 2023 10:57:36 GMT-0400 (Eastern Daylight Time)","166335","","null","","","","offerFB","","<div class='trialBorder'><div class='vertical-center'><img style='vertical-align:center; align:center' src=img/fixation3.jpg></div><div class='cl'><div class='vertical-center'>$54<br>with a<br>50% chance</div></div><div class='cr'><div class='vertical-center'><font style='color:orange'>$25<br>for<br>sure</font></div></div><div class='respDivL'><div class='vertical-center'>(E)</div></div><div class='respDivR'><div class='vertical-center'><font style='color:orange'>(I)</font></div></div></div>","null","$25","$54","1","25","54",""
"html-keyboard-response","130","126013","0.0-5.0-1.42","63d418d4229ed6c0712ce5bb","bdp_rd","Tue Mar 28 2023 10:57:36 GMT-0400 (Eastern Daylight Time)","166335","","null","","","","FIX","","<div class='trialBorder'><div class='vertical-center'><img style='vertical-align:center; align:center' src=img/fixation3.jpg></div></div>","null","","","","","",""
"html-keyboard-response","131","127208","0.0-5.0-2.42","63d418d4229ed6c0712ce5bb","bdp_rd","Tue Mar 28 2023 10:57:36 GMT-0400 (Eastern Daylight Time)","166335","","1195","","","","offer","","<div class='trialBorder'><div class='vertical-center'><img style='vertical-align:center; align:center' src=img/fixation3.jpg></div><div class='cl'><div class='vertical-center'>$35<br>with a<br>50% chance</div></div><div class='cr'><div class='vertical-center'>$12<br>for<br>sure</div></div><div class='respDivL'><div class='vertical-center'>(E)</div></div><div class='respDivR'><div class='vertical-center'>(I)</div></div></div>","I","$12","$35","1","12","35","SURE"
"html-keyboard-response","132","127459","0.0-5.0-3.42","63d418d4229ed6c0712ce5bb","bdp_rd","Tue Mar 28 2023 10:57:36 GMT-0400 (Eastern Daylight Time)","166335","","null","","","","offerFB","","<div class='trialBorder'><div class='vertical-center'><img style='vertical-align:center; align:center' src=img/fixation3.jpg></div><div class='cl'><div class='vertical-center'>$35<br>with a<br>50% chance</div></div><div class='cr'><div class='vertical-center'><font style='color:orange'>$12<br>for<br>sure</font></div></div><div class='respDivL'><div class='vertical-center'>(E)</div></div><div class='respDivR'><div class='vertical-center'><font style='color:orange'>(I)</font></div></div></div>","null","$12","$35","1","12","35",""
"html-keyboard-response","133","127961","0.0-5.0-1.43","63d418d4229ed6c0712ce5bb","bdp_rd","Tue Mar 28 2023 10:57:36 GMT-0400 (Eastern Daylight Time)","166335","","null","","","","FIX","","<div class='trialBorder'><div class='vertical-center'><img style='vertical-align:center; align:center' src=img/fixation3.jpg></div></div>","null","","","","","",""
"html-keyboard-response","134","129919","0.0-5.0-2.43","63d418d4229ed6c0712ce5bb","bdp_rd","Tue Mar 28 2023 10:57:36 GMT-0400 (Eastern Daylight Time)","166335","","1958","","","","offer","","<div class='trialBorder'><div class='vertical-center'><img style='vertical-align:center; align:center' src=img/fixation3.jpg></div><div class='cl'><div class='vertical-center'>$46<br>for<br>sure</div></div><div class='cr'><div class='vertical-center'>$65<br>with a<br>50% chance</div></div><div class='respDivL'><div class='vertical-center'>(E)</div></div><div class='respDivR'><div class='vertical-center'>(I)</div></div></div>","E","$46","$65","0","46","65","SURE"
"html-keyboard-response","135","130171","0.0-5.0-3.43","63d418d4229ed6c0712ce5bb","bdp_rd","Tue Mar 28 2023 10:57:36 GMT-0400 (Eastern Daylight Time)","166335","","null","","","","offerFB","","<div class='trialBorder'><div class='vertical-center'><img style='vertical-align:center; align:center' src=img/fixation3.jpg></div><div class='cl'><div class='vertical-center'><font style='color:orange'>$46<br>for<br>sure</font></div></div><div class='cr'><div class='vertical-center'>$65<br>with a<br>50% chance</div></div><div class='respDivL'><div class='vertical-center'><font style='color:orange'>(E)</font></div></div><div class='respDivR'><div class='vertical-center'>(I)</div></div></div>","null","$46","$65","0","46","65",""
"html-keyboard-response","136","130673","0.0-5.0-1.44","63d418d4229ed6c0712ce5bb","bdp_rd","Tue Mar 28 2023 10:57:36 GMT-0400 (Eastern Daylight Time)","166335","","null","","","","FIX","","<div class='trialBorder'><div class='vertical-center'><img style='vertical-align:center; align:center' src=img/fixation3.jpg></div></div>","null","","","","","",""
"html-keyboard-response","137","132352","0.0-5.0-2.44","63d418d4229ed6c0712ce5bb","bdp_rd","Tue Mar 28 2023 10:57:36 GMT-0400 (Eastern Daylight Time)","166335","","1679","","","","offer","","<div class='trialBorder'><div class='vertical-center'><img style='vertical-align:center; align:center' src=img/fixation3.jpg></div><div class='cl'><div class='vertical-center'>$12<br>for<br>sure</div></div><div class='cr'><div class='vertical-center'>$27<br>with a<br>50% chance</div></div><div class='respDivL'><div class='vertical-center'>(E)</div></div><div class='respDivR'><div class='vertical-center'>(I)</div></div></div>","E","$12","$27","0","12","27","SURE"
"html-keyboard-response","138","132604","0.0-5.0-3.44","63d418d4229ed6c0712ce5bb","bdp_rd","Tue Mar 28 2023 10:57:36 GMT-0400 (Eastern Daylight Time)","166335","","null","","","","offerFB","","<div class='trialBorder'><div class='vertical-center'><img style='vertical-align:center; align:center' src=img/fixation3.jpg></div><div class='cl'><div class='vertical-center'><font style='color:orange'>$12<br>for<br>sure</font></div></div><div class='cr'><div class='vertical-center'>$27<br>with a<br>50% chance</div></div><div class='respDivL'><div class='vertical-center'><font style='color:orange'>(E)</font></div></div><div class='respDivR'><div class='vertical-center'>(I)</div></div></div>","null","$12","$27","0","12","27",""
"html-keyboard-response","139","133106","0.0-5.0-1.45","63d418d4229ed6c0712ce5bb","bdp_rd","Tue Mar 28 2023 10:57:36 GMT-0400 (Eastern Daylight Time)","166335","","null","","","","FIX","","<div class='trialBorder'><div class='vertical-center'><img style='vertical-align:center; align:center' src=img/fixation3.jpg></div></div>","null","","","","","",""
"html-keyboard-response","140","133800","0.0-5.0-2.45","63d418d4229ed6c0712ce5bb","bdp_rd","Tue Mar 28 2023 10:57:36 GMT-0400 (Eastern Daylight Time)","166335","","693","","","","offer","","<div class='trialBorder'><div class='vertical-center'><img style='vertical-align:center; align:center' src=img/fixation3.jpg></div><div class='cl'><div class='vertical-center'>$38<br>with a<br>50% chance</div></div><div class='cr'><div class='vertical-center'>$16<br>for<br>sure</div></div><div class='respDivL'><div class='vertical-center'>(E)</div></div><div class='respDivR'><div class='vertical-center'>(I)</div></div></div>","I","$16","$38","1","16","38","SURE"
"html-keyboard-response","141","134051","0.0-5.0-3.45","63d418d4229ed6c0712ce5bb","bdp_rd","Tue Mar 28 2023 10:57:36 GMT-0400 (Eastern Daylight Time)","166335","","null","","","","offerFB","","<div class='trialBorder'><div class='vertical-center'><img style='vertical-align:center; align:center' src=img/fixation3.jpg></div><div class='cl'><div class='vertical-center'>$38<br>with a<br>50% chance</div></div><div class='cr'><div class='vertical-center'><font style='color:orange'>$16<br>for<br>sure</font></div></div><div class='respDivL'><div class='vertical-center'>(E)</div></div><div class='respDivR'><div class='vertical-center'><font style='color:orange'>(I)</font></div></div></div>","null","$16","$38","1","16","38",""
"html-keyboard-response","142","134553","0.0-5.0-1.46","63d418d4229ed6c0712ce5bb","bdp_rd","Tue Mar 28 2023 10:57:36 GMT-0400 (Eastern Daylight Time)","166335","","null","","","","FIX","","<div class='trialBorder'><div class='vertical-center'><img style='vertical-align:center; align:center' src=img/fixation3.jpg></div></div>","null","","","","","",""
"html-keyboard-response","143","136448","0.0-5.0-2.46","63d418d4229ed6c0712ce5bb","bdp_rd","Tue Mar 28 2023 10:57:36 GMT-0400 (Eastern Daylight Time)","166335","","1895","","","","offer","","<div class='trialBorder'><div class='vertical-center'><img style='vertical-align:center; align:center' src=img/fixation3.jpg></div><div class='cl'><div class='vertical-center'>$14<br>with a<br>50% chance</div></div><div class='cr'><div class='vertical-center'>$4<br>for<br>sure</div></div><div class='respDivL'><div class='vertical-center'>(E)</div></div><div class='respDivR'><div class='vertical-center'>(I)</div></div></div>","E","$4","$14","1","4","14","RISKY"
"html-keyboard-response","144","136699","0.0-5.0-3.46","63d418d4229ed6c0712ce5bb","bdp_rd","Tue Mar 28 2023 10:57:36 GMT-0400 (Eastern Daylight Time)","166335","","null","","","","offerFB","","<div class='trialBorder'><div class='vertical-center'><img style='vertical-align:center; align:center' src=img/fixation3.jpg></div><div class='cl'><div class='vertical-center'><font style='color:orange'>$14<br>with a<br>50% chance</font></div></div><div class='cr'><div class='vertical-center'>$4<br>for<br>sure</div></div><div class='respDivL'><div class='vertical-center'><font style='color:orange'>(E)</font></div></div><div class='respDivR'><div class='vertical-center'>(I)</div></div></div>","null","$4","$14","1","4","14",""
"html-keyboard-response","145","137200","0.0-5.0-1.47","63d418d4229ed6c0712ce5bb","bdp_rd","Tue Mar 28 2023 10:57:36 GMT-0400 (Eastern Daylight Time)","166335","","null","","","","FIX","","<div class='trialBorder'><div class='vertical-center'><img style='vertical-align:center; align:center' src=img/fixation3.jpg></div></div>","null","","","","","",""
"html-keyboard-response","146","138377","0.0-5.0-2.47","63d418d4229ed6c0712ce5bb","bdp_rd","Tue Mar 28 2023 10:57:36 GMT-0400 (Eastern Daylight Time)","166335","","1177","","","","offer","","<div class='trialBorder'><div class='vertical-center'><img style='vertical-align:center; align:center' src=img/fixation3.jpg></div><div class='cl'><div class='vertical-center'>$42<br>with a<br>50% chance</div></div><div class='cr'><div class='vertical-center'>$22<br>for<br>sure</div></div><div class='respDivL'><div class='vertical-center'>(E)</div></div><div class='respDivR'><div class='vertical-center'>(I)</div></div></div>","I","$22","$42","1","22","42","SURE"
"html-keyboard-response","147","138628","0.0-5.0-3.47","63d418d4229ed6c0712ce5bb","bdp_rd","Tue Mar 28 2023 10:57:36 GMT-0400 (Eastern Daylight Time)","166335","","null","","","","offerFB","","<div class='trialBorder'><div class='vertical-center'><img style='vertical-align:center; align:center' src=img/fixation3.jpg></div><div class='cl'><div class='vertical-center'>$42<br>with a<br>50% chance</div></div><div class='cr'><div class='vertical-center'><font style='color:orange'>$22<br>for<br>sure</font></div></div><div class='respDivL'><div class='vertical-center'>(E)</div></div><div class='respDivR'><div class='vertical-center'><font style='color:orange'>(I)</font></div></div></div>","null","$22","$42","1","22","42",""
"html-keyboard-response","148","139131","0.0-5.0-1.48","63d418d4229ed6c0712ce5bb","bdp_rd","Tue Mar 28 2023 10:57:36 GMT-0400 (Eastern Daylight Time)","166335","","null","","","","FIX","","<div class='trialBorder'><div class='vertical-center'><img style='vertical-align:center; align:center' src=img/fixation3.jpg></div></div>","null","","","","","",""
"html-keyboard-response","149","140360","0.0-5.0-2.48","63d418d4229ed6c0712ce5bb","bdp_rd","Tue Mar 28 2023 10:57:36 GMT-0400 (Eastern Daylight Time)","166335","","1229","","","","offer","","<div class='trialBorder'><div class='vertical-center'><img style='vertical-align:center; align:center' src=img/fixation3.jpg></div><div class='cl'><div class='vertical-center'>$71<br>with a<br>50% chance</div></div><div class='cr'><div class='vertical-center'>$7<br>for<br>sure</div></div><div class='respDivL'><div class='vertical-center'>(E)</div></div><div class='respDivR'><div class='vertical-center'>(I)</div></div></div>","E","$7","$71","1","7","71","RISKY"
"html-keyboard-response","150","140630","0.0-5.0-3.48","63d418d4229ed6c0712ce5bb","bdp_rd","Tue Mar 28 2023 10:57:36 GMT-0400 (Eastern Daylight Time)","166335","","null","","","","offerFB","","<div class='trialBorder'><div class='vertical-center'><img style='vertical-align:center; align:center' src=img/fixation3.jpg></div><div class='cl'><div class='vertical-center'><font style='color:orange'>$71<br>with a<br>50% chance</font></div></div><div class='cr'><div class='vertical-center'>$7<br>for<br>sure</div></div><div class='respDivL'><div class='vertical-center'><font style='color:orange'>(E)</font></div></div><div class='respDivR'><div class='vertical-center'>(I)</div></div></div>","null","$7","$71","1","7","71",""
"html-keyboard-response","151","141141","0.0-5.0-1.49","63d418d4229ed6c0712ce5bb","bdp_rd","Tue Mar 28 2023 10:57:36 GMT-0400 (Eastern Daylight Time)","166335","","null","","","","FIX","","<div class='trialBorder'><div class='vertical-center'><img style='vertical-align:center; align:center' src=img/fixation3.jpg></div></div>","null","","","","","",""
"html-keyboard-response","152","143529","0.0-5.0-2.49","63d418d4229ed6c0712ce5bb","bdp_rd","Tue Mar 28 2023 10:57:36 GMT-0400 (Eastern Daylight Time)","166335","","2387","","","","offer","","<div class='trialBorder'><div class='vertical-center'><img style='vertical-align:center; align:center' src=img/fixation3.jpg></div><div class='cl'><div class='vertical-center'>$26<br>for<br>sure</div></div><div class='cr'><div class='vertical-center'>$92<br>with a<br>50% chance</div></div><div class='respDivL'><div class='vertical-center'>(E)</div></div><div class='respDivR'><div class='vertical-center'>(I)</div></div></div>","I","$26","$92","0","26","92","RISKY"
"html-keyboard-response","153","143780","0.0-5.0-3.49","63d418d4229ed6c0712ce5bb","bdp_rd","Tue Mar 28 2023 10:57:36 GMT-0400 (Eastern Daylight Time)","166335","","null","","","","offerFB","","<div class='trialBorder'><div class='vertical-center'><img style='vertical-align:center; align:center' src=img/fixation3.jpg></div><div class='cl'><div class='vertical-center'>$26<br>for<br>sure</div></div><div class='cr'><div class='vertical-center'><font style='color:orange'>$92<br>with a<br>50% chance</font></div></div><div class='respDivL'><div class='vertical-center'>(E)</div></div><div class='respDivR'><div class='vertical-center'><font style='color:orange'>(I)</font></div></div></div>","null","$26","$92","0","26","92",""
"html-keyboard-response","154","144282","0.0-5.0-1.50","63d418d4229ed6c0712ce5bb","bdp_rd","Tue Mar 28 2023 10:57:36 GMT-0400 (Eastern Daylight Time)","166335","","null","","","","FIX","","<div class='trialBorder'><div class='vertical-center'><img style='vertical-align:center; align:center' src=img/fixation3.jpg></div></div>","null","","","","","",""
"html-keyboard-response","155","145697","0.0-5.0-2.50","63d418d4229ed6c0712ce5bb","bdp_rd","Tue Mar 28 2023 10:57:36 GMT-0400 (Eastern Daylight Time)","166335","","1414","","","","offer","","<div class='trialBorder'><div class='vertical-center'><img style='vertical-align:center; align:center' src=img/fixation3.jpg></div><div class='cl'><div class='vertical-center'>$11<br>for<br>sure</div></div><div class='cr'><div class='vertical-center'>$26<br>with a<br>50% chance</div></div><div class='respDivL'><div class='vertical-center'>(E)</div></div><div class='respDivR'><div class='vertical-center'>(I)</div></div></div>","E","$11","$26","0","11","26","SURE"
"html-keyboard-response","156","145949","0.0-5.0-3.50","63d418d4229ed6c0712ce5bb","bdp_rd","Tue Mar 28 2023 10:57:36 GMT-0400 (Eastern Daylight Time)","166335","","null","","","","offerFB","","<div class='trialBorder'><div class='vertical-center'><img style='vertical-align:center; align:center' src=img/fixation3.jpg></div><div class='cl'><div class='vertical-center'><font style='color:orange'>$11<br>for<br>sure</font></div></div><div class='cr'><div class='vertical-center'>$26<br>with a<br>50% chance</div></div><div class='respDivL'><div class='vertical-center'><font style='color:orange'>(E)</font></div></div><div class='respDivR'><div class='vertical-center'>(I)</div></div></div>","null","$11","$26","0","11","26",""
"html-keyboard-response","157","146451","0.0-5.0-1.51","63d418d4229ed6c0712ce5bb","bdp_rd","Tue Mar 28 2023 10:57:36 GMT-0400 (Eastern Daylight Time)","166335","","null","","","","FIX","","<div class='trialBorder'><div class='vertical-center'><img style='vertical-align:center; align:center' src=img/fixation3.jpg></div></div>","null","","","","","",""
"html-keyboard-response","158","147057","0.0-5.0-2.51","63d418d4229ed6c0712ce5bb","bdp_rd","Tue Mar 28 2023 10:57:36 GMT-0400 (Eastern Daylight Time)","166335","","605","","","","offer","","<div class='trialBorder'><div class='vertical-center'><img style='vertical-align:center; align:center' src=img/fixation3.jpg></div><div class='cl'><div class='vertical-center'>$25<br>with a<br>50% chance</div></div><div class='cr'><div class='vertical-center'>$21<br>for<br>sure</div></div><div class='respDivL'><div class='vertical-center'>(E)</div></div><div class='respDivR'><div class='vertical-center'>(I)</div></div></div>","I","$21","$25","1","21","25","SURE"
"html-keyboard-response","159","147310","0.0-5.0-3.51","63d418d4229ed6c0712ce5bb","bdp_rd","Tue Mar 28 2023 10:57:36 GMT-0400 (Eastern Daylight Time)","166335","","null","","","","offerFB","","<div class='trialBorder'><div class='vertical-center'><img style='vertical-align:center; align:center' src=img/fixation3.jpg></div><div class='cl'><div class='vertical-center'>$25<br>with a<br>50% chance</div></div><div class='cr'><div class='vertical-center'><font style='color:orange'>$21<br>for<br>sure</font></div></div><div class='respDivL'><div class='vertical-center'>(E)</div></div><div class='respDivR'><div class='vertical-center'><font style='color:orange'>(I)</font></div></div></div>","null","$21","$25","1","21","25",""
"html-keyboard-response","160","147811","0.0-5.0-1.52","63d418d4229ed6c0712ce5bb","bdp_rd","Tue Mar 28 2023 10:57:36 GMT-0400 (Eastern Daylight Time)","166335","","null","","","","FIX","","<div class='trialBorder'><div class='vertical-center'><img style='vertical-align:center; align:center' src=img/fixation3.jpg></div></div>","null","","","","","",""
"html-keyboard-response","161","149185","0.0-5.0-2.52","63d418d4229ed6c0712ce5bb","bdp_rd","Tue Mar 28 2023 10:57:36 GMT-0400 (Eastern Daylight Time)","166335","","1374","","","","offer","","<div class='trialBorder'><div class='vertical-center'><img style='vertical-align:center; align:center' src=img/fixation3.jpg></div><div class='cl'><div class='vertical-center'>$33<br>with a<br>50% chance</div></div><div class='cr'><div class='vertical-center'>$1<br>for<br>sure</div></div><div class='respDivL'><div class='vertical-center'>(E)</div></div><div class='respDivR'><div class='vertical-center'>(I)</div></div></div>","E","$1","$33","1","1","33","RISKY"
"html-keyboard-response","162","149438","0.0-5.0-3.52","63d418d4229ed6c0712ce5bb","bdp_rd","Tue Mar 28 2023 10:57:36 GMT-0400 (Eastern Daylight Time)","166335","","null","","","","offerFB","","<div class='trialBorder'><div class='vertical-center'><img style='vertical-align:center; align:center' src=img/fixation3.jpg></div><div class='cl'><div class='vertical-center'><font style='color:orange'>$33<br>with a<br>50% chance</font></div></div><div class='cr'><div class='vertical-center'>$1<br>for<br>sure</div></div><div class='respDivL'><div class='vertical-center'><font style='color:orange'>(E)</font></div></div><div class='respDivR'><div class='vertical-center'>(I)</div></div></div>","null","$1","$33","1","1","33",""
"html-keyboard-response","163","149939","0.0-5.0-1.53","63d418d4229ed6c0712ce5bb","bdp_rd","Tue Mar 28 2023 10:57:36 GMT-0400 (Eastern Daylight Time)","166335","","null","","","","FIX","","<div class='trialBorder'><div class='vertical-center'><img style='vertical-align:center; align:center' src=img/fixation3.jpg></div></div>","null","","","","","",""
"html-keyboard-response","164","152257","0.0-5.0-2.53","63d418d4229ed6c0712ce5bb","bdp_rd","Tue Mar 28 2023 10:57:36 GMT-0400 (Eastern Daylight Time)","166335","","2318","","","","offer","","<div class='trialBorder'><div class='vertical-center'><img style='vertical-align:center; align:center' src=img/fixation3.jpg></div><div class='cl'><div class='vertical-center'>$8<br>for<br>sure</div></div><div class='cr'><div class='vertical-center'>$23<br>with a<br>50% chance</div></div><div class='respDivL'><div class='vertical-center'>(E)</div></div><div class='respDivR'><div class='vertical-center'>(I)</div></div></div>","I","$8","$23","0","8","23","RISKY"
"html-keyboard-response","165","152522","0.0-5.0-3.53","63d418d4229ed6c0712ce5bb","bdp_rd","Tue Mar 28 2023 10:57:36 GMT-0400 (Eastern Daylight Time)","166335","","null","","","","offerFB","","<div class='trialBorder'><div class='vertical-center'><img style='vertical-align:center; align:center' src=img/fixation3.jpg></div><div class='cl'><div class='vertical-center'>$8<br>for<br>sure</div></div><div class='cr'><div class='vertical-center'><font style='color:orange'>$23<br>with a<br>50% chance</font></div></div><div class='respDivL'><div class='vertical-center'>(E)</div></div><div class='respDivR'><div class='vertical-center'><font style='color:orange'>(I)</font></div></div></div>","null","$8","$23","0","8","23",""
"html-keyboard-response","166","153025","0.0-5.0-1.54","63d418d4229ed6c0712ce5bb","bdp_rd","Tue Mar 28 2023 10:57:36 GMT-0400 (Eastern Daylight Time)","166335","","null","","","","FIX","","<div class='trialBorder'><div class='vertical-center'><img style='vertical-align:center; align:center' src=img/fixation3.jpg></div></div>","null","","","","","",""
"html-keyboard-response","167","154529","0.0-5.0-2.54","63d418d4229ed6c0712ce5bb","bdp_rd","Tue Mar 28 2023 10:57:36 GMT-0400 (Eastern Daylight Time)","166335","","1504","","","","offer","","<div class='trialBorder'><div class='vertical-center'><img style='vertical-align:center; align:center' src=img/fixation3.jpg></div><div class='cl'><div class='vertical-center'>$37<br>for<br>sure</div></div><div class='cr'><div class='vertical-center'>$44<br>with a<br>50% chance</div></div><div class='respDivL'><div class='vertical-center'>(E)</div></div><div class='respDivR'><div class='vertical-center'>(I)</div></div></div>","E","$37","$44","0","37","44","SURE"
"html-keyboard-response","168","154810","0.0-5.0-3.54","63d418d4229ed6c0712ce5bb","bdp_rd","Tue Mar 28 2023 10:57:36 GMT-0400 (Eastern Daylight Time)","166335","","null","","","","offerFB","","<div class='trialBorder'><div class='vertical-center'><img style='vertical-align:center; align:center' src=img/fixation3.jpg></div><div class='cl'><div class='vertical-center'><font style='color:orange'>$37<br>for<br>sure</font></div></div><div class='cr'><div class='vertical-center'>$44<br>with a<br>50% chance</div></div><div class='respDivL'><div class='vertical-center'><font style='color:orange'>(E)</font></div></div><div class='respDivR'><div class='vertical-center'>(I)</div></div></div>","null","$37","$44","0","37","44",""
"html-keyboard-response","169","155322","0.0-5.0-1.55","63d418d4229ed6c0712ce5bb","bdp_rd","Tue Mar 28 2023 10:57:36 GMT-0400 (Eastern Daylight Time)","166335","","null","","","","FIX","","<div class='trialBorder'><div class='vertical-center'><img style='vertical-align:center; align:center' src=img/fixation3.jpg></div></div>","null","","","","","",""
"html-keyboard-response","170","157338","0.0-5.0-2.55","63d418d4229ed6c0712ce5bb","bdp_rd","Tue Mar 28 2023 10:57:36 GMT-0400 (Eastern Daylight Time)","166335","","2016","","","","offer","","<div class='trialBorder'><div class='vertical-center'><img style='vertical-align:center; align:center' src=img/fixation3.jpg></div><div class='cl'><div class='vertical-center'>$2<br>for<br>sure</div></div><div class='cr'><div class='vertical-center'>$64<br>with a<br>50% chance</div></div><div class='respDivL'><div class='vertical-center'>(E)</div></div><div class='respDivR'><div class='vertical-center'>(I)</div></div></div>","I","$2","$64","0","2","64","RISKY"
"html-keyboard-response","171","157590","0.0-5.0-3.55","63d418d4229ed6c0712ce5bb","bdp_rd","Tue Mar 28 2023 10:57:36 GMT-0400 (Eastern Daylight Time)","166335","","null","","","","offerFB","","<div class='trialBorder'><div class='vertical-center'><img style='vertical-align:center; align:center' src=img/fixation3.jpg></div><div class='cl'><div class='vertical-center'>$2<br>for<br>sure</div></div><div class='cr'><div class='vertical-center'><font style='color:orange'>$64<br>with a<br>50% chance</font></div></div><div class='respDivL'><div class='vertical-center'>(E)</div></div><div class='respDivR'><div class='vertical-center'><font style='color:orange'>(I)</font></div></div></div>","null","$2","$64","0","2","64",""
"html-keyboard-response","172","158096","0.0-5.0-1.56","63d418d4229ed6c0712ce5bb","bdp_rd","Tue Mar 28 2023 10:57:36 GMT-0400 (Eastern Daylight Time)","166335","","null","","","","FIX","","<div class='trialBorder'><div class='vertical-center'><img style='vertical-align:center; align:center' src=img/fixation3.jpg></div></div>","null","","","","","",""
"html-keyboard-response","173","159794","0.0-5.0-2.56","63d418d4229ed6c0712ce5bb","bdp_rd","Tue Mar 28 2023 10:57:36 GMT-0400 (Eastern Daylight Time)","166335","","1697","","","","offer","","<div class='trialBorder'><div class='vertical-center'><img style='vertical-align:center; align:center' src=img/fixation3.jpg></div><div class='cl'><div class='vertical-center'>$19<br>for<br>sure</div></div><div class='cr'><div class='vertical-center'>$51<br>with a<br>50% chance</div></div><div class='respDivL'><div class='vertical-center'>(E)</div></div><div class='respDivR'><div class='vertical-center'>(I)</div></div></div>","E","$19","$51","0","19","51","SURE"
