"trial_type","trial_index","time_elapsed","internal_node_id","subject_id","task","startTime","totalTime","view_history","rt","event","trial","time","trialtype","success","stimulus","key_press","sureOffer","riskyOffer","riskyLeft","sureAmt","riskyAmt","chosen"
"pavlovia","0","2","0.0-0.0","63f049c2d78b2bc822a16dac","bdp_rd","Sun Apr 02 2023 08:37:54 GMT-0500 (Central Daylight Time)","220512","","","","","","","","","","","","","","",""
"instructions","1","3476","0.0-1.0","63f049c2d78b2bc822a16dac","bdp_rd","Sun Apr 02 2023 08:37:54 GMT-0500 (Central Daylight Time)","220512","[{""page_index"":0,""viewing_time"":3474}]","3474","","","","","","","","","","","","",""
"","","","","63f049c2d78b2bc822a16dac","bdp_rd","Sun Apr 02 2023 08:37:54 GMT-0500 (Central Daylight Time)","220512","","","fullscreenenter","2","7157","fullscreenenter","","","","","","","","",""
"fullscreen","2","8131","0.0-2.0","63f049c2d78b2bc822a16dac","bdp_rd","Sun Apr 02 2023 08:37:54 GMT-0500 (Central Daylight Time)","220512","","","","","","","true","","","","","","","",""
"instructions","3","38140","0.0-4.0","63f049c2d78b2bc822a16dac","bdp_rd","Sun Apr 02 2023 08:37:54 GMT-0500 (Central Daylight Time)","220512","[{""page_index"":0,""viewing_time"":16389},{""page_index"":1,""viewing_time"":6626},{""page_index"":2,""viewing_time"":6994}]","30009","","","","","","","","","","","","",""
"html-keyboard-response","4","38642","0.0-5.0-1.0","63f049c2d78b2bc822a16dac","bdp_rd","Sun Apr 02 2023 08:37:54 GMT-0500 (Central Daylight Time)","220512","","null","","","","FIX","","<div class='trialBorder'><div class='vertical-center'><img style='vertical-align:center; align:center' src=img/fixation3.jpg></div></div>","null","","","","","",""
"html-keyboard-response","5","41604","0.0-5.0-2.0","63f049c2d78b2bc822a16dac","bdp_rd","Sun Apr 02 2023 08:37:54 GMT-0500 (Central Daylight Time)","220512","","2961","","","","offer","","<div class='trialBorder'><div class='vertical-center'><img style='vertical-align:center; align:center' src=img/fixation3.jpg></div><div class='cl'><div class='vertical-center'>$26<br>for<br>sure</div></div><div class='cr'><div class='vertical-center'>$92<br>with a<br>50% chance</div></div><div class='respDivL'><div class='vertical-center'>(E)</div></div><div class='respDivR'><div class='vertical-center'>(I)</div></div></div>","E","$26","$92","0","26","92","SURE"
"html-keyboard-response","6","41855","0.0-5.0-3.0","63f049c2d78b2bc822a16dac","bdp_rd","Sun Apr 02 2023 08:37:54 GMT-0500 (Central Daylight Time)","220512","","null","","","","offerFB","","<div class='trialBorder'><div class='vertical-center'><img style='vertical-align:center; align:center' src=img/fixation3.jpg></div><div class='cl'><div class='vertical-center'><font style='color:orange'>$26<br>for<br>sure</font></div></div><div class='cr'><div class='vertical-center'>$92<br>with a<br>50% chance</div></div><div class='respDivL'><div class='vertical-center'><font style='color:orange'>(E)</font></div></div><div class='respDivR'><div class='vertical-center'>(I)</div></div></div>","null","$26","$92","0","26","92",""
"html-keyboard-response","7","42357","0.0-5.0-1.1","63f049c2d78b2bc822a16dac","bdp_rd","Sun Apr 02 2023 08:37:54 GMT-0500 (Central Daylight Time)","220512","","null","","","","FIX","","<div class='trialBorder'><div class='vertical-center'><img style='vertical-align:center; align:center' src=img/fixation3.jpg></div></div>","null","","","","","",""
"html-keyboard-response","8","44772","0.0-5.0-2.1","63f049c2d78b2bc822a16dac","bdp_rd","Sun Apr 02 2023 08:37:54 GMT-0500 (Central Daylight Time)","220512","","2414","","","","offer","","<div class='trialBorder'><div class='vertical-center'><img style='vertical-align:center; align:center' src=img/fixation3.jpg></div><div class='cl'><div class='vertical-center'>$30<br>with a<br>50% chance</div></div><div class='cr'><div class='vertical-center'>$1<br>for<br>sure</div></div><div class='respDivL'><div class='vertical-center'>(E)</div></div><div class='respDivR'><div class='vertical-center'>(I)</div></div></div>","E","$1","$30","1","1","30","RISKY"
"html-keyboard-response","9","45024","0.0-5.0-3.1","63f049c2d78b2bc822a16dac","bdp_rd","Sun Apr 02 2023 08:37:54 GMT-0500 (Central Daylight Time)","220512","","null","","","","offerFB","","<div class='trialBorder'><div class='vertical-center'><img style='vertical-align:center; align:center' src=img/fixation3.jpg></div><div class='cl'><div class='vertical-center'><font style='color:orange'>$30<br>with a<br>50% chance</font></div></div><div class='cr'><div class='vertical-center'>$1<br>for<br>sure</div></div><div class='respDivL'><div class='vertical-center'><font style='color:orange'>(E)</font></div></div><div class='respDivR'><div class='vertical-center'>(I)</div></div></div>","null","$1","$30","1","1","30",""
"html-keyboard-response","10","45525","0.0-5.0-1.2","63f049c2d78b2bc822a16dac","bdp_rd","Sun Apr 02 2023 08:37:54 GMT-0500 (Central Daylight Time)","220512","","null","","","","FIX","","<div class='trialBorder'><div class='vertical-center'><img style='vertical-align:center; align:center' src=img/fixation3.jpg></div></div>","null","","","","","",""
"html-keyboard-response","11","47258","0.0-5.0-2.2","63f049c2d78b2bc822a16dac","bdp_rd","Sun Apr 02 2023 08:37:54 GMT-0500 (Central Daylight Time)","220512","","1732","","","","offer","","<div class='trialBorder'><div class='vertical-center'><img style='vertical-align:center; align:center' src=img/fixation3.jpg></div><div class='cl'><div class='vertical-center'>$10<br>for<br>sure</div></div><div class='cr'><div class='vertical-center'>$19<br>with a<br>50% chance</div></div><div class='respDivL'><div class='vertical-center'>(E)</div></div><div class='respDivR'><div class='vertical-center'>(I)</div></div></div>","E","$10","$19","0","10","19","SURE"
"html-keyboard-response","12","47509","0.0-5.0-3.2","63f049c2d78b2bc822a16dac","bdp_rd","Sun Apr 02 2023 08:37:54 GMT-0500 (Central Daylight Time)","220512","","null","","","","offerFB","","<div class='trialBorder'><div class='vertical-center'><img style='vertical-align:center; align:center' src=img/fixation3.jpg></div><div class='cl'><div class='vertical-center'><font style='color:orange'>$10<br>for<br>sure</font></div></div><div class='cr'><div class='vertical-center'>$19<br>with a<br>50% chance</div></div><div class='respDivL'><div class='vertical-center'><font style='color:orange'>(E)</font></div></div><div class='respDivR'><div class='vertical-center'>(I)</div></div></div>","null","$10","$19","0","10","19",""
"html-keyboard-response","13","48010","0.0-5.0-1.3","63f049c2d78b2bc822a16dac","bdp_rd","Sun Apr 02 2023 08:37:54 GMT-0500 (Central Daylight Time)","220512","","null","","","","FIX","","<div class='trialBorder'><div class='vertical-center'><img style='vertical-align:center; align:center' src=img/fixation3.jpg></div></div>","null","","","","","",""
"html-keyboard-response","14","49947","0.0-5.0-2.3","63f049c2d78b2bc822a16dac","bdp_rd","Sun Apr 02 2023 08:37:54 GMT-0500 (Central Daylight Time)","220512","","1937","","","","offer","","<div class='trialBorder'><div class='vertical-center'><img style='vertical-align:center; align:center' src=img/fixation3.jpg></div><div class='cl'><div class='vertical-center'>$44<br>with a<br>50% chance</div></div><div class='cr'><div class='vertical-center'>$37<br>for<br>sure</div></div><div class='respDivL'><div class='vertical-center'>(E)</div></div><div class='respDivR'><div class='vertical-center'>(I)</div></div></div>","I","$37","$44","1","37","44","SURE"
"html-keyboard-response","15","50199","0.0-5.0-3.3","63f049c2d78b2bc822a16dac","bdp_rd","Sun Apr 02 2023 08:37:54 GMT-0500 (Central Daylight Time)","220512","","null","","","","offerFB","","<div class='trialBorder'><div class='vertical-center'><img style='vertical-align:center; align:center' src=img/fixation3.jpg></div><div class='cl'><div class='vertical-center'>$44<br>with a<br>50% chance</div></div><div class='cr'><div class='vertical-center'><font style='color:orange'>$37<br>for<br>sure</font></div></div><div class='respDivL'><div class='vertical-center'>(E)</div></div><div class='respDivR'><div class='vertical-center'><font style='color:orange'>(I)</font></div></div></div>","null","$37","$44","1","37","44",""
"html-keyboard-response","16","50700","0.0-5.0-1.4","63f049c2d78b2bc822a16dac","bdp_rd","Sun Apr 02 2023 08:37:54 GMT-0500 (Central Daylight Time)","220512","","null","","","","FIX","","<div class='trialBorder'><div class='vertical-center'><img style='vertical-align:center; align:center' src=img/fixation3.jpg></div></div>","null","","","","","",""
"html-keyboard-response","17","52454","0.0-5.0-2.4","63f049c2d78b2bc822a16dac","bdp_rd","Sun Apr 02 2023 08:37:54 GMT-0500 (Central Daylight Time)","220512","","1753","","","","offer","","<div class='trialBorder'><div class='vertical-center'><img style='vertical-align:center; align:center' src=img/fixation3.jpg></div><div class='cl'><div class='vertical-center'>$51<br>with a<br>50% chance</div></div><div class='cr'><div class='vertical-center'>$19<br>for<br>sure</div></div><div class='respDivL'><div class='vertical-center'>(E)</div></div><div class='respDivR'><div class='vertical-center'>(I)</div></div></div>","I","$19","$51","1","19","51","SURE"
"html-keyboard-response","18","52705","0.0-5.0-3.4","63f049c2d78b2bc822a16dac","bdp_rd","Sun Apr 02 2023 08:37:54 GMT-0500 (Central Daylight Time)","220512","","null","","","","offerFB","","<div class='trialBorder'><div class='vertical-center'><img style='vertical-align:center; align:center' src=img/fixation3.jpg></div><div class='cl'><div class='vertical-center'>$51<br>with a<br>50% chance</div></div><div class='cr'><div class='vertical-center'><font style='color:orange'>$19<br>for<br>sure</font></div></div><div class='respDivL'><div class='vertical-center'>(E)</div></div><div class='respDivR'><div class='vertical-center'><font style='color:orange'>(I)</font></div></div></div>","null","$19","$51","1","19","51",""
"html-keyboard-response","19","53207","0.0-5.0-1.5","63f049c2d78b2bc822a16dac","bdp_rd","Sun Apr 02 2023 08:37:54 GMT-0500 (Central Daylight Time)","220512","","null","","","","FIX","","<div class='trialBorder'><div class='vertical-center'><img style='vertical-align:center; align:center' src=img/fixation3.jpg></div></div>","null","","","","","",""
"html-keyboard-response","20","55276","0.0-5.0-2.5","63f049c2d78b2bc822a16dac","bdp_rd","Sun Apr 02 2023 08:37:54 GMT-0500 (Central Daylight Time)","220512","","2069","","","","offer","","<div class='trialBorder'><div class='vertical-center'><img style='vertical-align:center; align:center' src=img/fixation3.jpg></div><div class='cl'><div class='vertical-center'>$23<br>with a<br>50% chance</div></div><div class='cr'><div class='vertical-center'>$8<br>for<br>sure</div></div><div class='respDivL'><div class='vertical-center'>(E)</div></div><div class='respDivR'><div class='vertical-center'>(I)</div></div></div>","I","$8","$23","1","8","23","SURE"
"html-keyboard-response","21","55527","0.0-5.0-3.5","63f049c2d78b2bc822a16dac","bdp_rd","Sun Apr 02 2023 08:37:54 GMT-0500 (Central Daylight Time)","220512","","null","","","","offerFB","","<div class='trialBorder'><div class='vertical-center'><img style='vertical-align:center; align:center' src=img/fixation3.jpg></div><div class='cl'><div class='vertical-center'>$23<br>with a<br>50% chance</div></div><div class='cr'><div class='vertical-center'><font style='color:orange'>$8<br>for<br>sure</font></div></div><div class='respDivL'><div class='vertical-center'>(E)</div></div><div class='respDivR'><div class='vertical-center'><font style='color:orange'>(I)</font></div></div></div>","null","$8","$23","1","8","23",""
"html-keyboard-response","22","56029","0.0-5.0-1.6","63f049c2d78b2bc822a16dac","bdp_rd","Sun Apr 02 2023 08:37:54 GMT-0500 (Central Daylight Time)","220512","","null","","","","FIX","","<div class='trialBorder'><div class='vertical-center'><img style='vertical-align:center; align:center' src=img/fixation3.jpg></div></div>","null","","","","","",""
"html-keyboard-response","23","57786","0.0-5.0-2.6","63f049c2d78b2bc822a16dac","bdp_rd","Sun Apr 02 2023 08:37:54 GMT-0500 (Central Daylight Time)","220512","","1757","","","","offer","","<div class='trialBorder'><div class='vertical-center'><img style='vertical-align:center; align:center' src=img/fixation3.jpg></div><div class='cl'><div class='vertical-center'>$9<br>for<br>sure</div></div><div class='cr'><div class='vertical-center'>$32<br>with a<br>50% chance</div></div><div class='respDivL'><div class='vertical-center'>(E)</div></div><div class='respDivR'><div class='vertical-center'>(I)</div></div></div>","E","$9","$32","0","9","32","SURE"
"html-keyboard-response","24","58037","0.0-5.0-3.6","63f049c2d78b2bc822a16dac","bdp_rd","Sun Apr 02 2023 08:37:54 GMT-0500 (Central Daylight Time)","220512","","null","","","","offerFB","","<div class='trialBorder'><div class='vertical-center'><img style='vertical-align:center; align:center' src=img/fixation3.jpg></div><div class='cl'><div class='vertical-center'><font style='color:orange'>$9<br>for<br>sure</font></div></div><div class='cr'><div class='vertical-center'>$32<br>with a<br>50% chance</div></div><div class='respDivL'><div class='vertical-center'><font style='color:orange'>(E)</font></div></div><div class='respDivR'><div class='vertical-center'>(I)</div></div></div>","null","$9","$32","0","9","32",""
"html-keyboard-response","25","58539","0.0-5.0-1.7","63f049c2d78b2bc822a16dac","bdp_rd","Sun Apr 02 2023 08:37:54 GMT-0500 (Central Daylight Time)","220512","","null","","","","FIX","","<div class='trialBorder'><div class='vertical-center'><img style='vertical-align:center; align:center' src=img/fixation3.jpg></div></div>","null","","","","","",""
"html-keyboard-response","26","60180","0.0-5.0-2.7","63f049c2d78b2bc822a16dac","bdp_rd","Sun Apr 02 2023 08:37:54 GMT-0500 (Central Daylight Time)","220512","","1641","","","","offer","","<div class='trialBorder'><div class='vertical-center'><img style='vertical-align:center; align:center' src=img/fixation3.jpg></div><div class='cl'><div class='vertical-center'>$18<br>for<br>sure</div></div><div class='cr'><div class='vertical-center'>$36<br>with a<br>50% chance</div></div><div class='respDivL'><div class='vertical-center'>(E)</div></div><div class='respDivR'><div class='vertical-center'>(I)</div></div></div>","E","$18","$36","0","18","36","SURE"
"html-keyboard-response","27","60431","0.0-5.0-3.7","63f049c2d78b2bc822a16dac","bdp_rd","Sun Apr 02 2023 08:37:54 GMT-0500 (Central Daylight Time)","220512","","null","","","","offerFB","","<div class='trialBorder'><div class='vertical-center'><img style='vertical-align:center; align:center' src=img/fixation3.jpg></div><div class='cl'><div class='vertical-center'><font style='color:orange'>$18<br>for<br>sure</font></div></div><div class='cr'><div class='vertical-center'>$36<br>with a<br>50% chance</div></div><div class='respDivL'><div class='vertical-center'><font style='color:orange'>(E)</font></div></div><div class='respDivR'><div class='vertical-center'>(I)</div></div></div>","null","$18","$36","0","18","36",""
"html-keyboard-response","28","60932","0.0-5.0-1.8","63f049c2d78b2bc822a16dac","bdp_rd","Sun Apr 02 2023 08:37:54 GMT-0500 (Central Daylight Time)","220512","","null","","","","FIX","","<div class='trialBorder'><div class='vertical-center'><img style='vertical-align:center; align:center' src=img/fixation3.jpg></div></div>","null","","","","","",""
"html-keyboard-response","29","62182","0.0-5.0-2.8","63f049c2d78b2bc822a16dac","bdp_rd","Sun Apr 02 2023 08:37:54 GMT-0500 (Central Daylight Time)","220512","","1249","","","","offer","","<div class='trialBorder'><div class='vertical-center'><img style='vertical-align:center; align:center' src=img/fixation3.jpg></div><div class='cl'><div class='vertical-center'>$42<br>for<br>sure</div></div><div class='cr'><div class='vertical-center'>$73<br>with a<br>50% chance</div></div><div class='respDivL'><div class='vertical-center'>(E)</div></div><div class='respDivR'><div class='vertical-center'>(I)</div></div></div>","E","$42","$73","0","42","73","SURE"
"html-keyboard-response","30","62433","0.0-5.0-3.8","63f049c2d78b2bc822a16dac","bdp_rd","Sun Apr 02 2023 08:37:54 GMT-0500 (Central Daylight Time)","220512","","null","","","","offerFB","","<div class='trialBorder'><div class='vertical-center'><img style='vertical-align:center; align:center' src=img/fixation3.jpg></div><div class='cl'><div class='vertical-center'><font style='color:orange'>$42<br>for<br>sure</font></div></div><div class='cr'><div class='vertical-center'>$73<br>with a<br>50% chance</div></div><div class='respDivL'><div class='vertical-center'><font style='color:orange'>(E)</font></div></div><div class='respDivR'><div class='vertical-center'>(I)</div></div></div>","null","$42","$73","0","42","73",""
"html-keyboard-response","31","62934","0.0-5.0-1.9","63f049c2d78b2bc822a16dac","bdp_rd","Sun Apr 02 2023 08:37:54 GMT-0500 (Central Daylight Time)","220512","","null","","","","FIX","","<div class='trialBorder'><div class='vertical-center'><img style='vertical-align:center; align:center' src=img/fixation3.jpg></div></div>","null","","","","","",""
"html-keyboard-response","32","64168","0.0-5.0-2.9","63f049c2d78b2bc822a16dac","bdp_rd","Sun Apr 02 2023 08:37:54 GMT-0500 (Central Daylight Time)","220512","","1234","","","","offer","","<div class='trialBorder'><div class='vertical-center'><img style='vertical-align:center; align:center' src=img/fixation3.jpg></div><div class='cl'><div class='vertical-center'>$18<br>with a<br>50% chance</div></div><div class='cr'><div class='vertical-center'>$9<br>for<br>sure</div></div><div class='respDivL'><div class='vertical-center'>(E)</div></div><div class='respDivR'><div class='vertical-center'>(I)</div></div></div>","I","$9","$18","1","9","18","SURE"
"html-keyboard-response","33","64419","0.0-5.0-3.9","63f049c2d78b2bc822a16dac","bdp_rd","Sun Apr 02 2023 08:37:54 GMT-0500 (Central Daylight Time)","220512","","null","","","","offerFB","","<div class='trialBorder'><div class='vertical-center'><img style='vertical-align:center; align:center' src=img/fixation3.jpg></div><div class='cl'><div class='vertical-center'>$18<br>with a<br>50% chance</div></div><div class='cr'><div class='vertical-center'><font style='color:orange'>$9<br>for<br>sure</font></div></div><div class='respDivL'><div class='vertical-center'>(E)</div></div><div class='respDivR'><div class='vertical-center'><font style='color:orange'>(I)</font></div></div></div>","null","$9","$18","1","9","18",""
"html-keyboard-response","34","64920","0.0-5.0-1.10","63f049c2d78b2bc822a16dac","bdp_rd","Sun Apr 02 2023 08:37:54 GMT-0500 (Central Daylight Time)","220512","","null","","","","FIX","","<div class='trialBorder'><div class='vertical-center'><img style='vertical-align:center; align:center' src=img/fixation3.jpg></div></div>","null","","","","","",""
"html-keyboard-response","35","68630","0.0-5.0-2.10","63f049c2d78b2bc822a16dac","bdp_rd","Sun Apr 02 2023 08:37:54 GMT-0500 (Central Daylight Time)","220512","","3708","","","","offer","","<div class='trialBorder'><div class='vertical-center'><img style='vertical-align:center; align:center' src=img/fixation3.jpg></div><div class='cl'><div class='vertical-center'>$98<br>with a<br>50% chance</div></div><div class='cr'><div class='vertical-center'>$53<br>for<br>sure</div></div><div class='respDivL'><div class='vertical-center'>(E)</div></div><div class='respDivR'><div class='vertical-center'>(I)</div></div></div>","I","$53","$98","1","53","98","SURE"
"html-keyboard-response","36","68881","0.0-5.0-3.10","63f049c2d78b2bc822a16dac","bdp_rd","Sun Apr 02 2023 08:37:54 GMT-0500 (Central Daylight Time)","220512","","null","","","","offerFB","","<div class='trialBorder'><div class='vertical-center'><img style='vertical-align:center; align:center' src=img/fixation3.jpg></div><div class='cl'><div class='vertical-center'>$98<br>with a<br>50% chance</div></div><div class='cr'><div class='vertical-center'><font style='color:orange'>$53<br>for<br>sure</font></div></div><div class='respDivL'><div class='vertical-center'>(E)</div></div><div class='respDivR'><div class='vertical-center'><font style='color:orange'>(I)</font></div></div></div>","null","$53","$98","1","53","98",""
"html-keyboard-response","37","69383","0.0-5.0-1.11","63f049c2d78b2bc822a16dac","bdp_rd","Sun Apr 02 2023 08:37:54 GMT-0500 (Central Daylight Time)","220512","","null","","","","FIX","","<div class='trialBorder'><div class='vertical-center'><img style='vertical-align:center; align:center' src=img/fixation3.jpg></div></div>","null","","","","","",""
"html-keyboard-response","38","71976","0.0-5.0-2.11","63f049c2d78b2bc822a16dac","bdp_rd","Sun Apr 02 2023 08:37:54 GMT-0500 (Central Daylight Time)","220512","","2593","","","","offer","","<div class='trialBorder'><div class='vertical-center'><img style='vertical-align:center; align:center' src=img/fixation3.jpg></div><div class='cl'><div class='vertical-center'>$70<br>with a<br>50% chance</div></div><div class='cr'><div class='vertical-center'>$24<br>for<br>sure</div></div><div class='respDivL'><div class='vertical-center'>(E)</div></div><div class='respDivR'><div class='vertical-center'>(I)</div></div></div>","I","$24","$70","1","24","70","SURE"
"html-keyboard-response","39","72228","0.0-5.0-3.11","63f049c2d78b2bc822a16dac","bdp_rd","Sun Apr 02 2023 08:37:54 GMT-0500 (Central Daylight Time)","220512","","null","","","","offerFB","","<div class='trialBorder'><div class='vertical-center'><img style='vertical-align:center; align:center' src=img/fixation3.jpg></div><div class='cl'><div class='vertical-center'>$70<br>with a<br>50% chance</div></div><div class='cr'><div class='vertical-center'><font style='color:orange'>$24<br>for<br>sure</font></div></div><div class='respDivL'><div class='vertical-center'>(E)</div></div><div class='respDivR'><div class='vertical-center'><font style='color:orange'>(I)</font></div></div></div>","null","$24","$70","1","24","70",""
"html-keyboard-response","40","72730","0.0-5.0-1.12","63f049c2d78b2bc822a16dac","bdp_rd","Sun Apr 02 2023 08:37:54 GMT-0500 (Central Daylight Time)","220512","","null","","","","FIX","","<div class='trialBorder'><div class='vertical-center'><img style='vertical-align:center; align:center' src=img/fixation3.jpg></div></div>","null","","","","","",""
"html-keyboard-response","41","76028","0.0-5.0-2.12","63f049c2d78b2bc822a16dac","bdp_rd","Sun Apr 02 2023 08:37:54 GMT-0500 (Central Daylight Time)","220512","","3298","","","","offer","","<div class='trialBorder'><div class='vertical-center'><img style='vertical-align:center; align:center' src=img/fixation3.jpg></div><div class='cl'><div class='vertical-center'>$30<br>for<br>sure</div></div><div class='cr'><div class='vertical-center'>$68<br>with a<br>50% chance</div></div><div class='respDivL'><div class='vertical-center'>(E)</div></div><div class='respDivR'><div class='vertical-center'>(I)</div></div></div>","E","$30","$68","0","30","68","SURE"
"html-keyboard-response","42","76279","0.0-5.0-3.12","63f049c2d78b2bc822a16dac","bdp_rd","Sun Apr 02 2023 08:37:54 GMT-0500 (Central Daylight Time)","220512","","null","","","","offerFB","","<div class='trialBorder'><div class='vertical-center'><img style='vertical-align:center; align:center' src=img/fixation3.jpg></div><div class='cl'><div class='vertical-center'><font style='color:orange'>$30<br>for<br>sure</font></div></div><div class='cr'><div class='vertical-center'>$68<br>with a<br>50% chance</div></div><div class='respDivL'><div class='vertical-center'><font style='color:orange'>(E)</font></div></div><div class='respDivR'><div class='vertical-center'>(I)</div></div></div>","null","$30","$68","0","30","68",""
"html-keyboard-response","43","76781","0.0-5.0-1.13","63f049c2d78b2bc822a16dac","bdp_rd","Sun Apr 02 2023 08:37:54 GMT-0500 (Central Daylight Time)","220512","","null","","","","FIX","","<div class='trialBorder'><div class='vertical-center'><img style='vertical-align:center; align:center' src=img/fixation3.jpg></div></div>","null","","","","","",""
"html-keyboard-response","44","77898","0.0-5.0-2.13","63f049c2d78b2bc822a16dac","bdp_rd","Sun Apr 02 2023 08:37:54 GMT-0500 (Central Daylight Time)","220512","","1117","","","","offer","","<div class='trialBorder'><div class='vertical-center'><img style='vertical-align:center; align:center' src=img/fixation3.jpg></div><div class='cl'><div class='vertical-center'>$22<br>with a<br>50% chance</div></div><div class='cr'><div class='vertical-center'>$14<br>for<br>sure</div></div><div class='respDivL'><div class='vertical-center'>(E)</div></div><div class='respDivR'><div class='vertical-center'>(I)</div></div></div>","I","$14","$22","1","14","22","SURE"
"html-keyboard-response","45","78150","0.0-5.0-3.13","63f049c2d78b2bc822a16dac","bdp_rd","Sun Apr 02 2023 08:37:54 GMT-0500 (Central Daylight Time)","220512","","null","","","","offerFB","","<div class='trialBorder'><div class='vertical-center'><img style='vertical-align:center; align:center' src=img/fixation3.jpg></div><div class='cl'><div class='vertical-center'>$22<br>with a<br>50% chance</div></div><div class='cr'><div class='vertical-center'><font style='color:orange'>$14<br>for<br>sure</font></div></div><div class='respDivL'><div class='vertical-center'>(E)</div></div><div class='respDivR'><div class='vertical-center'><font style='color:orange'>(I)</font></div></div></div>","null","$14","$22","1","14","22",""
"html-keyboard-response","46","78651","0.0-5.0-1.14","63f049c2d78b2bc822a16dac","bdp_rd","Sun Apr 02 2023 08:37:54 GMT-0500 (Central Daylight Time)","220512","","null","","","","FIX","","<div class='trialBorder'><div class='vertical-center'><img style='vertical-align:center; align:center' src=img/fixation3.jpg></div></div>","null","","","","","",""
"html-keyboard-response","47","79810","0.0-5.0-2.14","63f049c2d78b2bc822a16dac","bdp_rd","Sun Apr 02 2023 08:37:54 GMT-0500 (Central Daylight Time)","220512","","1159","","","","offer","","<div class='trialBorder'><div class='vertical-center'><img style='vertical-align:center; align:center' src=img/fixation3.jpg></div><div class='cl'><div class='vertical-center'>$58<br>for<br>sure</div></div><div class='cr'><div class='vertical-center'>$69<br>with a<br>50% chance</div></div><div class='respDivL'><div class='vertical-center'>(E)</div></div><div class='respDivR'><div class='vertical-center'>(I)</div></div></div>","E","$58","$69","0","58","69","SURE"
"html-keyboard-response","48","80061","0.0-5.0-3.14","63f049c2d78b2bc822a16dac","bdp_rd","Sun Apr 02 2023 08:37:54 GMT-0500 (Central Daylight Time)","220512","","null","","","","offerFB","","<div class='trialBorder'><div class='vertical-center'><img style='vertical-align:center; align:center' src=img/fixation3.jpg></div><div class='cl'><div class='vertical-center'><font style='color:orange'>$58<br>for<br>sure</font></div></div><div class='cr'><div class='vertical-center'>$69<br>with a<br>50% chance</div></div><div class='respDivL'><div class='vertical-center'><font style='color:orange'>(E)</font></div></div><div class='respDivR'><div class='vertical-center'>(I)</div></div></div>","null","$58","$69","0","58","69",""
"html-keyboard-response","49","80563","0.0-5.0-1.15","63f049c2d78b2bc822a16dac","bdp_rd","Sun Apr 02 2023 08:37:54 GMT-0500 (Central Daylight Time)","220512","","null","","","","FIX","","<div class='trialBorder'><div class='vertical-center'><img style='vertical-align:center; align:center' src=img/fixation3.jpg></div></div>","null","","","","","",""
"html-keyboard-response","50","82104","0.0-5.0-2.15","63f049c2d78b2bc822a16dac","bdp_rd","Sun Apr 02 2023 08:37:54 GMT-0500 (Central Daylight Time)","220512","","1541","","","","offer","","<div class='trialBorder'><div class='vertical-center'><img style='vertical-align:center; align:center' src=img/fixation3.jpg></div><div class='cl'><div class='vertical-center'>$7<br>for<br>sure</div></div><div class='cr'><div class='vertical-center'>$10<br>with a<br>50% chance</div></div><div class='respDivL'><div class='vertical-center'>(E)</div></div><div class='respDivR'><div class='vertical-center'>(I)</div></div></div>","E","$7","$10","0","7","10","SURE"
"html-keyboard-response","51","82355","0.0-5.0-3.15","63f049c2d78b2bc822a16dac","bdp_rd","Sun Apr 02 2023 08:37:54 GMT-0500 (Central Daylight Time)","220512","","null","","","","offerFB","","<div class='trialBorder'><div class='vertical-center'><img style='vertical-align:center; align:center' src=img/fixation3.jpg></div><div class='cl'><div class='vertical-center'><font style='color:orange'>$7<br>for<br>sure</font></div></div><div class='cr'><div class='vertical-center'>$10<br>with a<br>50% chance</div></div><div class='respDivL'><div class='vertical-center'><font style='color:orange'>(E)</font></div></div><div class='respDivR'><div class='vertical-center'>(I)</div></div></div>","null","$7","$10","0","7","10",""
"html-keyboard-response","52","82857","0.0-5.0-1.16","63f049c2d78b2bc822a16dac","bdp_rd","Sun Apr 02 2023 08:37:54 GMT-0500 (Central Daylight Time)","220512","","null","","","","FIX","","<div class='trialBorder'><div class='vertical-center'><img style='vertical-align:center; align:center' src=img/fixation3.jpg></div></div>","null","","","","","",""
"html-keyboard-response","53","84372","0.0-5.0-2.16","63f049c2d78b2bc822a16dac","bdp_rd","Sun Apr 02 2023 08:37:54 GMT-0500 (Central Daylight Time)","220512","","1514","","","","offer","","<div class='trialBorder'><div class='vertical-center'><img style='vertical-align:center; align:center' src=img/fixation3.jpg></div><div class='cl'><div class='vertical-center'>$46<br>for<br>sure</div></div><div class='cr'><div class='vertical-center'>$65<br>with a<br>50% chance</div></div><div class='respDivL'><div class='vertical-center'>(E)</div></div><div class='respDivR'><div class='vertical-center'>(I)</div></div></div>","E","$46","$65","0","46","65","SURE"
"html-keyboard-response","54","84623","0.0-5.0-3.16","63f049c2d78b2bc822a16dac","bdp_rd","Sun Apr 02 2023 08:37:54 GMT-0500 (Central Daylight Time)","220512","","null","","","","offerFB","","<div class='trialBorder'><div class='vertical-center'><img style='vertical-align:center; align:center' src=img/fixation3.jpg></div><div class='cl'><div class='vertical-center'><font style='color:orange'>$46<br>for<br>sure</font></div></div><div class='cr'><div class='vertical-center'>$65<br>with a<br>50% chance</div></div><div class='respDivL'><div class='vertical-center'><font style='color:orange'>(E)</font></div></div><div class='respDivR'><div class='vertical-center'>(I)</div></div></div>","null","$46","$65","0","46","65",""
"html-keyboard-response","55","85124","0.0-5.0-1.17","63f049c2d78b2bc822a16dac","bdp_rd","Sun Apr 02 2023 08:37:54 GMT-0500 (Central Daylight Time)","220512","","null","","","","FIX","","<div class='trialBorder'><div class='vertical-center'><img style='vertical-align:center; align:center' src=img/fixation3.jpg></div></div>","null","","","","","",""
"html-keyboard-response","56","86516","0.0-5.0-2.17","63f049c2d78b2bc822a16dac","bdp_rd","Sun Apr 02 2023 08:37:54 GMT-0500 (Central Daylight Time)","220512","","1390","","","","offer","","<div class='trialBorder'><div class='vertical-center'><img style='vertical-align:center; align:center' src=img/fixation3.jpg></div><div class='cl'><div class='vertical-center'>$6<br>for<br>sure</div></div><div class='cr'><div class='vertical-center'>$15<br>with a<br>50% chance</div></div><div class='respDivL'><div class='vertical-center'>(E)</div></div><div class='respDivR'><div class='vertical-center'>(I)</div></div></div>","E","$6","$15","0","6","15","SURE"
"html-keyboard-response","57","86768","0.0-5.0-3.17","63f049c2d78b2bc822a16dac","bdp_rd","Sun Apr 02 2023 08:37:54 GMT-0500 (Central Daylight Time)","220512","","null","","","","offerFB","","<div class='trialBorder'><div class='vertical-center'><img style='vertical-align:center; align:center' src=img/fixation3.jpg></div><div class='cl'><div class='vertical-center'><font style='color:orange'>$6<br>for<br>sure</font></div></div><div class='cr'><div class='vertical-center'>$15<br>with a<br>50% chance</div></div><div class='respDivL'><div class='vertical-center'><font style='color:orange'>(E)</font></div></div><div class='respDivR'><div class='vertical-center'>(I)</div></div></div>","null","$6","$15","0","6","15",""
"html-keyboard-response","58","87269","0.0-5.0-1.18","63f049c2d78b2bc822a16dac","bdp_rd","Sun Apr 02 2023 08:37:54 GMT-0500 (Central Daylight Time)","220512","","null","","","","FIX","","<div class='trialBorder'><div class='vertical-center'><img style='vertical-align:center; align:center' src=img/fixation3.jpg></div></div>","null","","","","","",""
"html-keyboard-response","59","89444","0.0-5.0-2.18","63f049c2d78b2bc822a16dac","bdp_rd","Sun Apr 02 2023 08:37:54 GMT-0500 (Central Daylight Time)","220512","","2175","","","","offer","","<div class='trialBorder'><div class='vertical-center'><img style='vertical-align:center; align:center' src=img/fixation3.jpg></div><div class='cl'><div class='vertical-center'>$33<br>with a<br>50% chance</div></div><div class='cr'><div class='vertical-center'>$1<br>for<br>sure</div></div><div class='respDivL'><div class='vertical-center'>(E)</div></div><div class='respDivR'><div class='vertical-center'>(I)</div></div></div>","E","$1","$33","1","1","33","RISKY"
"html-keyboard-response","60","89695","0.0-5.0-3.18","63f049c2d78b2bc822a16dac","bdp_rd","Sun Apr 02 2023 08:37:54 GMT-0500 (Central Daylight Time)","220512","","null","","","","offerFB","","<div class='trialBorder'><div class='vertical-center'><img style='vertical-align:center; align:center' src=img/fixation3.jpg></div><div class='cl'><div class='vertical-center'><font style='color:orange'>$33<br>with a<br>50% chance</font></div></div><div class='cr'><div class='vertical-center'>$1<br>for<br>sure</div></div><div class='respDivL'><div class='vertical-center'><font style='color:orange'>(E)</font></div></div><div class='respDivR'><div class='vertical-center'>(I)</div></div></div>","null","$1","$33","1","1","33",""
"html-keyboard-response","61","90197","0.0-5.0-1.19","63f049c2d78b2bc822a16dac","bdp_rd","Sun Apr 02 2023 08:37:54 GMT-0500 (Central Daylight Time)","220512","","null","","","","FIX","","<div class='trialBorder'><div class='vertical-center'><img style='vertical-align:center; align:center' src=img/fixation3.jpg></div></div>","null","","","","","",""
"html-keyboard-response","62","93398","0.0-5.0-2.19","63f049c2d78b2bc822a16dac","bdp_rd","Sun Apr 02 2023 08:37:54 GMT-0500 (Central Daylight Time)","220512","","3201","","","","offer","","<div class='trialBorder'><div class='vertical-center'><img style='vertical-align:center; align:center' src=img/fixation3.jpg></div><div class='cl'><div class='vertical-center'>$12<br>with a<br>50% chance</div></div><div class='cr'><div class='vertical-center'>$3<br>for<br>sure</div></div><div class='respDivL'><div class='vertical-center'>(E)</div></div><div class='respDivR'><div class='vertical-center'>(I)</div></div></div>","E","$3","$12","1","3","12","RISKY"
"html-keyboard-response","63","93649","0.0-5.0-3.19","63f049c2d78b2bc822a16dac","bdp_rd","Sun Apr 02 2023 08:37:54 GMT-0500 (Central Daylight Time)","220512","","null","","","","offerFB","","<div class='trialBorder'><div class='vertical-center'><img style='vertical-align:center; align:center' src=img/fixation3.jpg></div><div class='cl'><div class='vertical-center'><font style='color:orange'>$12<br>with a<br>50% chance</font></div></div><div class='cr'><div class='vertical-center'>$3<br>for<br>sure</div></div><div class='respDivL'><div class='vertical-center'><font style='color:orange'>(E)</font></div></div><div class='respDivR'><div class='vertical-center'>(I)</div></div></div>","null","$3","$12","1","3","12",""
"html-keyboard-response","64","94151","0.0-5.0-1.20","63f049c2d78b2bc822a16dac","bdp_rd","Sun Apr 02 2023 08:37:54 GMT-0500 (Central Daylight Time)","220512","","null","","","","FIX","","<div class='trialBorder'><div class='vertical-center'><img style='vertical-align:center; align:center' src=img/fixation3.jpg></div></div>","null","","","","","",""
"html-keyboard-response","65","95520","0.0-5.0-2.20","63f049c2d78b2bc822a16dac","bdp_rd","Sun Apr 02 2023 08:37:54 GMT-0500 (Central Daylight Time)","220512","","1368","","","","offer","","<div class='trialBorder'><div class='vertical-center'><img style='vertical-align:center; align:center' src=img/fixation3.jpg></div><div class='cl'><div class='vertical-center'>$37<br>with a<br>50% chance</div></div><div class='cr'><div class='vertical-center'>$20<br>for<br>sure</div></div><div class='respDivL'><div class='vertical-center'>(E)</div></div><div class='respDivR'><div class='vertical-center'>(I)</div></div></div>","I","$20","$37","1","20","37","SURE"
"html-keyboard-response","66","95771","0.0-5.0-3.20","63f049c2d78b2bc822a16dac","bdp_rd","Sun Apr 02 2023 08:37:54 GMT-0500 (Central Daylight Time)","220512","","null","","","","offerFB","","<div class='trialBorder'><div class='vertical-center'><img style='vertical-align:center; align:center' src=img/fixation3.jpg></div><div class='cl'><div class='vertical-center'>$37<br>with a<br>50% chance</div></div><div class='cr'><div class='vertical-center'><font style='color:orange'>$20<br>for<br>sure</font></div></div><div class='respDivL'><div class='vertical-center'>(E)</div></div><div class='respDivR'><div class='vertical-center'><font style='color:orange'>(I)</font></div></div></div>","null","$20","$37","1","20","37",""
"html-keyboard-response","67","96272","0.0-5.0-1.21","63f049c2d78b2bc822a16dac","bdp_rd","Sun Apr 02 2023 08:37:54 GMT-0500 (Central Daylight Time)","220512","","null","","","","FIX","","<div class='trialBorder'><div class='vertical-center'><img style='vertical-align:center; align:center' src=img/fixation3.jpg></div></div>","null","","","","","",""
"html-keyboard-response","68","100042","0.0-5.0-2.21","63f049c2d78b2bc822a16dac","bdp_rd","Sun Apr 02 2023 08:37:54 GMT-0500 (Central Daylight Time)","220512","","3769","","","","offer","","<div class='trialBorder'><div class='vertical-center'><img style='vertical-align:center; align:center' src=img/fixation3.jpg></div><div class='cl'><div class='vertical-center'>$22<br>for<br>sure</div></div><div class='cr'><div class='vertical-center'>$42<br>with a<br>50% chance</div></div><div class='respDivL'><div class='vertical-center'>(E)</div></div><div class='respDivR'><div class='vertical-center'>(I)</div></div></div>","E","$22","$42","0","22","42","SURE"
"html-keyboard-response","69","100293","0.0-5.0-3.21","63f049c2d78b2bc822a16dac","bdp_rd","Sun Apr 02 2023 08:37:54 GMT-0500 (Central Daylight Time)","220512","","null","","","","offerFB","","<div class='trialBorder'><div class='vertical-center'><img style='vertical-align:center; align:center' src=img/fixation3.jpg></div><div class='cl'><div class='vertical-center'><font style='color:orange'>$22<br>for<br>sure</font></div></div><div class='cr'><div class='vertical-center'>$42<br>with a<br>50% chance</div></div><div class='respDivL'><div class='vertical-center'><font style='color:orange'>(E)</font></div></div><div class='respDivR'><div class='vertical-center'>(I)</div></div></div>","null","$22","$42","0","22","42",""
"html-keyboard-response","70","100795","0.0-5.0-1.22","63f049c2d78b2bc822a16dac","bdp_rd","Sun Apr 02 2023 08:37:54 GMT-0500 (Central Daylight Time)","220512","","null","","","","FIX","","<div class='trialBorder'><div class='vertical-center'><img style='vertical-align:center; align:center' src=img/fixation3.jpg></div></div>","null","","","","","",""
"html-keyboard-response","71","102016","0.0-5.0-2.22","63f049c2d78b2bc822a16dac","bdp_rd","Sun Apr 02 2023 08:37:54 GMT-0500 (Central Daylight Time)","220512","","1220","","","","offer","","<div class='trialBorder'><div class='vertical-center'><img style='vertical-align:center; align:center' src=img/fixation3.jpg></div><div class='cl'><div class='vertical-center'>$12<br>for<br>sure</div></div><div class='cr'><div class='vertical-center'>$35<br>with a<br>50% chance</div></div><div class='respDivL'><div class='vertical-center'>(E)</div></div><div class='respDivR'><div class='vertical-center'>(I)</div></div></div>","E","$12","$35","0","12","35","SURE"
"html-keyboard-response","72","102267","0.0-5.0-3.22","63f049c2d78b2bc822a16dac","bdp_rd","Sun Apr 02 2023 08:37:54 GMT-0500 (Central Daylight Time)","220512","","null","","","","offerFB","","<div class='trialBorder'><div class='vertical-center'><img style='vertical-align:center; align:center' src=img/fixation3.jpg></div><div class='cl'><div class='vertical-center'><font style='color:orange'>$12<br>for<br>sure</font></div></div><div class='cr'><div class='vertical-center'>$35<br>with a<br>50% chance</div></div><div class='respDivL'><div class='vertical-center'><font style='color:orange'>(E)</font></div></div><div class='respDivR'><div class='vertical-center'>(I)</div></div></div>","null","$12","$35","0","12","35",""
"html-keyboard-response","73","102768","0.0-5.0-1.23","63f049c2d78b2bc822a16dac","bdp_rd","Sun Apr 02 2023 08:37:54 GMT-0500 (Central Daylight Time)","220512","","null","","","","FIX","","<div class='trialBorder'><div class='vertical-center'><img style='vertical-align:center; align:center' src=img/fixation3.jpg></div></div>","null","","","","","",""
"html-keyboard-response","74","103780","0.0-5.0-2.23","63f049c2d78b2bc822a16dac","bdp_rd","Sun Apr 02 2023 08:37:54 GMT-0500 (Central Daylight Time)","220512","","1011","","","","offer","","<div class='trialBorder'><div class='vertical-center'><img style='vertical-align:center; align:center' src=img/fixation3.jpg></div><div class='cl'><div class='vertical-center'>$18<br>for<br>sure</div></div><div class='cr'><div class='vertical-center'>$39<br>with a<br>50% chance</div></div><div class='respDivL'><div class='vertical-center'>(E)</div></div><div class='respDivR'><div class='vertical-center'>(I)</div></div></div>","E","$18","$39","0","18","39","SURE"
"html-keyboard-response","75","104031","0.0-5.0-3.23","63f049c2d78b2bc822a16dac","bdp_rd","Sun Apr 02 2023 08:37:54 GMT-0500 (Central Daylight Time)","220512","","null","","","","offerFB","","<div class='trialBorder'><div class='vertical-center'><img style='vertical-align:center; align:center' src=img/fixation3.jpg></div><div class='cl'><div class='vertical-center'><font style='color:orange'>$18<br>for<br>sure</font></div></div><div class='cr'><div class='vertical-center'>$39<br>with a<br>50% chance</div></div><div class='respDivL'><div class='vertical-center'><font style='color:orange'>(E)</font></div></div><div class='respDivR'><div class='vertical-center'>(I)</div></div></div>","null","$18","$39","0","18","39",""
"html-keyboard-response","76","104532","0.0-5.0-1.24","63f049c2d78b2bc822a16dac","bdp_rd","Sun Apr 02 2023 08:37:54 GMT-0500 (Central Daylight Time)","220512","","null","","","","FIX","","<div class='trialBorder'><div class='vertical-center'><img style='vertical-align:center; align:center' src=img/fixation3.jpg></div></div>","null","","","","","",""
"html-keyboard-response","77","105798","0.0-5.0-2.24","63f049c2d78b2bc822a16dac","bdp_rd","Sun Apr 02 2023 08:37:54 GMT-0500 (Central Daylight Time)","220512","","1265","","","","offer","","<div class='trialBorder'><div class='vertical-center'><img style='vertical-align:center; align:center' src=img/fixation3.jpg></div><div class='cl'><div class='vertical-center'>$29<br>for<br>sure</div></div><div class='cr'><div class='vertical-center'>$46<br>with a<br>50% chance</div></div><div class='respDivL'><div class='vertical-center'>(E)</div></div><div class='respDivR'><div class='vertical-center'>(I)</div></div></div>","E","$29","$46","0","29","46","SURE"
"html-keyboard-response","78","106049","0.0-5.0-3.24","63f049c2d78b2bc822a16dac","bdp_rd","Sun Apr 02 2023 08:37:54 GMT-0500 (Central Daylight Time)","220512","","null","","","","offerFB","","<div class='trialBorder'><div class='vertical-center'><img style='vertical-align:center; align:center' src=img/fixation3.jpg></div><div class='cl'><div class='vertical-center'><font style='color:orange'>$29<br>for<br>sure</font></div></div><div class='cr'><div class='vertical-center'>$46<br>with a<br>50% chance</div></div><div class='respDivL'><div class='vertical-center'><font style='color:orange'>(E)</font></div></div><div class='respDivR'><div class='vertical-center'>(I)</div></div></div>","null","$29","$46","0","29","46",""
"html-keyboard-response","79","106550","0.0-5.0-1.25","63f049c2d78b2bc822a16dac","bdp_rd","Sun Apr 02 2023 08:37:54 GMT-0500 (Central Daylight Time)","220512","","null","","","","FIX","","<div class='trialBorder'><div class='vertical-center'><img style='vertical-align:center; align:center' src=img/fixation3.jpg></div></div>","null","","","","","",""
"html-keyboard-response","80","108026","0.0-5.0-2.25","63f049c2d78b2bc822a16dac","bdp_rd","Sun Apr 02 2023 08:37:54 GMT-0500 (Central Daylight Time)","220512","","1474","","","","offer","","<div class='trialBorder'><div class='vertical-center'><img style='vertical-align:center; align:center' src=img/fixation3.jpg></div><div class='cl'><div class='vertical-center'>$2<br>for<br>sure</div></div><div class='cr'><div class='vertical-center'>$64<br>with a<br>50% chance</div></div><div class='respDivL'><div class='vertical-center'>(E)</div></div><div class='respDivR'><div class='vertical-center'>(I)</div></div></div>","I","$2","$64","0","2","64","RISKY"
"html-keyboard-response","81","108277","0.0-5.0-3.25","63f049c2d78b2bc822a16dac","bdp_rd","Sun Apr 02 2023 08:37:54 GMT-0500 (Central Daylight Time)","220512","","null","","","","offerFB","","<div class='trialBorder'><div class='vertical-center'><img style='vertical-align:center; align:center' src=img/fixation3.jpg></div><div class='cl'><div class='vertical-center'>$2<br>for<br>sure</div></div><div class='cr'><div class='vertical-center'><font style='color:orange'>$64<br>with a<br>50% chance</font></div></div><div class='respDivL'><div class='vertical-center'>(E)</div></div><div class='respDivR'><div class='vertical-center'><font style='color:orange'>(I)</font></div></div></div>","null","$2","$64","0","2","64",""
"html-keyboard-response","82","108779","0.0-5.0-1.26","63f049c2d78b2bc822a16dac","bdp_rd","Sun Apr 02 2023 08:37:54 GMT-0500 (Central Daylight Time)","220512","","null","","","","FIX","","<div class='trialBorder'><div class='vertical-center'><img style='vertical-align:center; align:center' src=img/fixation3.jpg></div></div>","null","","","","","",""
"html-keyboard-response","83","109976","0.0-5.0-2.26","63f049c2d78b2bc822a16dac","bdp_rd","Sun Apr 02 2023 08:37:54 GMT-0500 (Central Daylight Time)","220512","","1196","","","","offer","","<div class='trialBorder'><div class='vertical-center'><img style='vertical-align:center; align:center' src=img/fixation3.jpg></div><div class='cl'><div class='vertical-center'>$59<br>with a<br>50% chance</div></div><div class='cr'><div class='vertical-center'>$22<br>for<br>sure</div></div><div class='respDivL'><div class='vertical-center'>(E)</div></div><div class='respDivR'><div class='vertical-center'>(I)</div></div></div>","I","$22","$59","1","22","59","SURE"
"html-keyboard-response","84","110227","0.0-5.0-3.26","63f049c2d78b2bc822a16dac","bdp_rd","Sun Apr 02 2023 08:37:54 GMT-0500 (Central Daylight Time)","220512","","null","","","","offerFB","","<div class='trialBorder'><div class='vertical-center'><img style='vertical-align:center; align:center' src=img/fixation3.jpg></div><div class='cl'><div class='vertical-center'>$59<br>with a<br>50% chance</div></div><div class='cr'><div class='vertical-center'><font style='color:orange'>$22<br>for<br>sure</font></div></div><div class='respDivL'><div class='vertical-center'>(E)</div></div><div class='respDivR'><div class='vertical-center'><font style='color:orange'>(I)</font></div></div></div>","null","$22","$59","1","22","59",""
"html-keyboard-response","85","110728","0.0-5.0-1.27","63f049c2d78b2bc822a16dac","bdp_rd","Sun Apr 02 2023 08:37:54 GMT-0500 (Central Daylight Time)","220512","","null","","","","FIX","","<div class='trialBorder'><div class='vertical-center'><img style='vertical-align:center; align:center' src=img/fixation3.jpg></div></div>","null","","","","","",""
"html-keyboard-response","86","113995","0.0-5.0-2.27","63f049c2d78b2bc822a16dac","bdp_rd","Sun Apr 02 2023 08:37:54 GMT-0500 (Central Daylight Time)","220512","","3266","","","","offer","","<div class='trialBorder'><div class='vertical-center'><img style='vertical-align:center; align:center' src=img/fixation3.jpg></div><div class='cl'><div class='vertical-center'>$43<br>with a<br>50% chance</div></div><div class='cr'><div class='vertical-center'>$17<br>for<br>sure</div></div><div class='respDivL'><div class='vertical-center'>(E)</div></div><div class='respDivR'><div class='vertical-center'>(I)</div></div></div>","I","$17","$43","1","17","43","SURE"
"html-keyboard-response","87","114246","0.0-5.0-3.27","63f049c2d78b2bc822a16dac","bdp_rd","Sun Apr 02 2023 08:37:54 GMT-0500 (Central Daylight Time)","220512","","null","","","","offerFB","","<div class='trialBorder'><div class='vertical-center'><img style='vertical-align:center; align:center' src=img/fixation3.jpg></div><div class='cl'><div class='vertical-center'>$43<br>with a<br>50% chance</div></div><div class='cr'><div class='vertical-center'><font style='color:orange'>$17<br>for<br>sure</font></div></div><div class='respDivL'><div class='vertical-center'>(E)</div></div><div class='respDivR'><div class='vertical-center'><font style='color:orange'>(I)</font></div></div></div>","null","$17","$43","1","17","43",""
"html-keyboard-response","88","114747","0.0-5.0-1.28","63f049c2d78b2bc822a16dac","bdp_rd","Sun Apr 02 2023 08:37:54 GMT-0500 (Central Daylight Time)","220512","","null","","","","FIX","","<div class='trialBorder'><div class='vertical-center'><img style='vertical-align:center; align:center' src=img/fixation3.jpg></div></div>","null","","","","","",""
"html-keyboard-response","89","115628","0.0-5.0-2.28","63f049c2d78b2bc822a16dac","bdp_rd","Sun Apr 02 2023 08:37:54 GMT-0500 (Central Daylight Time)","220512","","880","","","","offer","","<div class='trialBorder'><div class='vertical-center'><img style='vertical-align:center; align:center' src=img/fixation3.jpg></div><div class='cl'><div class='vertical-center'>$11<br>for<br>sure</div></div><div class='cr'><div class='vertical-center'>$26<br>with a<br>50% chance</div></div><div class='respDivL'><div class='vertical-center'>(E)</div></div><div class='respDivR'><div class='vertical-center'>(I)</div></div></div>","E","$11","$26","0","11","26","SURE"
"html-keyboard-response","90","115879","0.0-5.0-3.28","63f049c2d78b2bc822a16dac","bdp_rd","Sun Apr 02 2023 08:37:54 GMT-0500 (Central Daylight Time)","220512","","null","","","","offerFB","","<div class='trialBorder'><div class='vertical-center'><img style='vertical-align:center; align:center' src=img/fixation3.jpg></div><div class='cl'><div class='vertical-center'><font style='color:orange'>$11<br>for<br>sure</font></div></div><div class='cr'><div class='vertical-center'>$26<br>with a<br>50% chance</div></div><div class='respDivL'><div class='vertical-center'><font style='color:orange'>(E)</font></div></div><div class='respDivR'><div class='vertical-center'>(I)</div></div></div>","null","$11","$26","0","11","26",""
"html-keyboard-response","91","116380","0.0-5.0-1.29","63f049c2d78b2bc822a16dac","bdp_rd","Sun Apr 02 2023 08:37:54 GMT-0500 (Central Daylight Time)","220512","","null","","","","FIX","","<div class='trialBorder'><div class='vertical-center'><img style='vertical-align:center; align:center' src=img/fixation3.jpg></div></div>","null","","","","","",""
"html-keyboard-response","92","118118","0.0-5.0-2.29","63f049c2d78b2bc822a16dac","bdp_rd","Sun Apr 02 2023 08:37:54 GMT-0500 (Central Daylight Time)","220512","","1737","","","","offer","","<div class='trialBorder'><div class='vertical-center'><img style='vertical-align:center; align:center' src=img/fixation3.jpg></div><div class='cl'><div class='vertical-center'>$78<br>with a<br>50% chance</div></div><div class='cr'><div class='vertical-center'>$31<br>for<br>sure</div></div><div class='respDivL'><div class='vertical-center'>(E)</div></div><div class='respDivR'><div class='vertical-center'>(I)</div></div></div>","I","$31","$78","1","31","78","SURE"
"html-keyboard-response","93","118369","0.0-5.0-3.29","63f049c2d78b2bc822a16dac","bdp_rd","Sun Apr 02 2023 08:37:54 GMT-0500 (Central Daylight Time)","220512","","null","","","","offerFB","","<div class='trialBorder'><div class='vertical-center'><img style='vertical-align:center; align:center' src=img/fixation3.jpg></div><div class='cl'><div class='vertical-center'>$78<br>with a<br>50% chance</div></div><div class='cr'><div class='vertical-center'><font style='color:orange'>$31<br>for<br>sure</font></div></div><div class='respDivL'><div class='vertical-center'>(E)</div></div><div class='respDivR'><div class='vertical-center'><font style='color:orange'>(I)</font></div></div></div>","null","$31","$78","1","31","78",""
"html-keyboard-response","94","118870","0.0-5.0-1.30","63f049c2d78b2bc822a16dac","bdp_rd","Sun Apr 02 2023 08:37:54 GMT-0500 (Central Daylight Time)","220512","","null","","","","FIX","","<div class='trialBorder'><div class='vertical-center'><img style='vertical-align:center; align:center' src=img/fixation3.jpg></div></div>","null","","","","","",""
"html-keyboard-response","95","120334","0.0-5.0-2.30","63f049c2d78b2bc822a16dac","bdp_rd","Sun Apr 02 2023 08:37:54 GMT-0500 (Central Daylight Time)","220512","","1463","","","","offer","","<div class='trialBorder'><div class='vertical-center'><img style='vertical-align:center; align:center' src=img/fixation3.jpg></div><div class='cl'><div class='vertical-center'>$4<br>for<br>sure</div></div><div class='cr'><div class='vertical-center'>$11<br>with a<br>50% chance</div></div><div class='respDivL'><div class='vertical-center'>(E)</div></div><div class='respDivR'><div class='vertical-center'>(I)</div></div></div>","E","$4","$11","0","4","11","SURE"
"html-keyboard-response","96","120585","0.0-5.0-3.30","63f049c2d78b2bc822a16dac","bdp_rd","Sun Apr 02 2023 08:37:54 GMT-0500 (Central Daylight Time)","220512","","null","","","","offerFB","","<div class='trialBorder'><div class='vertical-center'><img style='vertical-align:center; align:center' src=img/fixation3.jpg></div><div class='cl'><div class='vertical-center'><font style='color:orange'>$4<br>for<br>sure</font></div></div><div class='cr'><div class='vertical-center'>$11<br>with a<br>50% chance</div></div><div class='respDivL'><div class='vertical-center'><font style='color:orange'>(E)</font></div></div><div class='respDivR'><div class='vertical-center'>(I)</div></div></div>","null","$4","$11","0","4","11",""
"html-keyboard-response","97","121087","0.0-5.0-1.31","63f049c2d78b2bc822a16dac","bdp_rd","Sun Apr 02 2023 08:37:54 GMT-0500 (Central Daylight Time)","220512","","null","","","","FIX","","<div class='trialBorder'><div class='vertical-center'><img style='vertical-align:center; align:center' src=img/fixation3.jpg></div></div>","null","","","","","",""
"html-keyboard-response","98","122154","0.0-5.0-2.31","63f049c2d78b2bc822a16dac","bdp_rd","Sun Apr 02 2023 08:37:54 GMT-0500 (Central Daylight Time)","220512","","1066","","","","offer","","<div class='trialBorder'><div class='vertical-center'><img style='vertical-align:center; align:center' src=img/fixation3.jpg></div><div class='cl'><div class='vertical-center'>$13<br>for<br>sure</div></div><div class='cr'><div class='vertical-center'>$41<br>with a<br>50% chance</div></div><div class='respDivL'><div class='vertical-center'>(E)</div></div><div class='respDivR'><div class='vertical-center'>(I)</div></div></div>","E","$13","$41","0","13","41","SURE"
"html-keyboard-response","99","122405","0.0-5.0-3.31","63f049c2d78b2bc822a16dac","bdp_rd","Sun Apr 02 2023 08:37:54 GMT-0500 (Central Daylight Time)","220512","","null","","","","offerFB","","<div class='trialBorder'><div class='vertical-center'><img style='vertical-align:center; align:center' src=img/fixation3.jpg></div><div class='cl'><div class='vertical-center'><font style='color:orange'>$13<br>for<br>sure</font></div></div><div class='cr'><div class='vertical-center'>$41<br>with a<br>50% chance</div></div><div class='respDivL'><div class='vertical-center'><font style='color:orange'>(E)</font></div></div><div class='respDivR'><div class='vertical-center'>(I)</div></div></div>","null","$13","$41","0","13","41",""
"html-keyboard-response","100","122906","0.0-5.0-1.32","63f049c2d78b2bc822a16dac","bdp_rd","Sun Apr 02 2023 08:37:54 GMT-0500 (Central Daylight Time)","220512","","null","","","","FIX","","<div class='trialBorder'><div class='vertical-center'><img style='vertical-align:center; align:center' src=img/fixation3.jpg></div></div>","null","","","","","",""
"html-keyboard-response","101","125428","0.0-5.0-2.32","63f049c2d78b2bc822a16dac","bdp_rd","Sun Apr 02 2023 08:37:54 GMT-0500 (Central Daylight Time)","220512","","2522","","","","offer","","<div class='trialBorder'><div class='vertical-center'><img style='vertical-align:center; align:center' src=img/fixation3.jpg></div><div class='cl'><div class='vertical-center'>$10<br>for<br>sure</div></div><div class='cr'><div class='vertical-center'>$40<br>with a<br>50% chance</div></div><div class='respDivL'><div class='vertical-center'>(E)</div></div><div class='respDivR'><div class='vertical-center'>(I)</div></div></div>","E","$10","$40","0","10","40","SURE"
"html-keyboard-response","102","125679","0.0-5.0-3.32","63f049c2d78b2bc822a16dac","bdp_rd","Sun Apr 02 2023 08:37:54 GMT-0500 (Central Daylight Time)","220512","","null","","","","offerFB","","<div class='trialBorder'><div class='vertical-center'><img style='vertical-align:center; align:center' src=img/fixation3.jpg></div><div class='cl'><div class='vertical-center'><font style='color:orange'>$10<br>for<br>sure</font></div></div><div class='cr'><div class='vertical-center'>$40<br>with a<br>50% chance</div></div><div class='respDivL'><div class='vertical-center'><font style='color:orange'>(E)</font></div></div><div class='respDivR'><div class='vertical-center'>(I)</div></div></div>","null","$10","$40","0","10","40",""
"html-keyboard-response","103","126180","0.0-5.0-1.33","63f049c2d78b2bc822a16dac","bdp_rd","Sun Apr 02 2023 08:37:54 GMT-0500 (Central Daylight Time)","220512","","null","","","","FIX","","<div class='trialBorder'><div class='vertical-center'><img style='vertical-align:center; align:center' src=img/fixation3.jpg></div></div>","null","","","","","",""
"html-keyboard-response","104","127580","0.0-5.0-2.33","63f049c2d78b2bc822a16dac","bdp_rd","Sun Apr 02 2023 08:37:54 GMT-0500 (Central Daylight Time)","220512","","1399","","","","offer","","<div class='trialBorder'><div class='vertical-center'><img style='vertical-align:center; align:center' src=img/fixation3.jpg></div><div class='cl'><div class='vertical-center'>$45<br>with a<br>50% chance</div></div><div class='cr'><div class='vertical-center'>$8<br>for<br>sure</div></div><div class='respDivL'><div class='vertical-center'>(E)</div></div><div class='respDivR'><div class='vertical-center'>(I)</div></div></div>","I","$8","$45","1","8","45","SURE"
"html-keyboard-response","105","127831","0.0-5.0-3.33","63f049c2d78b2bc822a16dac","bdp_rd","Sun Apr 02 2023 08:37:54 GMT-0500 (Central Daylight Time)","220512","","null","","","","offerFB","","<div class='trialBorder'><div class='vertical-center'><img style='vertical-align:center; align:center' src=img/fixation3.jpg></div><div class='cl'><div class='vertical-center'>$45<br>with a<br>50% chance</div></div><div class='cr'><div class='vertical-center'><font style='color:orange'>$8<br>for<br>sure</font></div></div><div class='respDivL'><div class='vertical-center'>(E)</div></div><div class='respDivR'><div class='vertical-center'><font style='color:orange'>(I)</font></div></div></div>","null","$8","$45","1","8","45",""
"html-keyboard-response","106","128332","0.0-5.0-1.34","63f049c2d78b2bc822a16dac","bdp_rd","Sun Apr 02 2023 08:37:54 GMT-0500 (Central Daylight Time)","220512","","null","","","","FIX","","<div class='trialBorder'><div class='vertical-center'><img style='vertical-align:center; align:center' src=img/fixation3.jpg></div></div>","null","","","","","",""
"html-keyboard-response","107","129656","0.0-5.0-2.34","63f049c2d78b2bc822a16dac","bdp_rd","Sun Apr 02 2023 08:37:54 GMT-0500 (Central Daylight Time)","220512","","1322","","","","offer","","<div class='trialBorder'><div class='vertical-center'><img style='vertical-align:center; align:center' src=img/fixation3.jpg></div><div class='cl'><div class='vertical-center'>$24<br>with a<br>50% chance</div></div><div class='cr'><div class='vertical-center'>$13<br>for<br>sure</div></div><div class='respDivL'><div class='vertical-center'>(E)</div></div><div class='respDivR'><div class='vertical-center'>(I)</div></div></div>","I","$13","$24","1","13","24","SURE"
"html-keyboard-response","108","129907","0.0-5.0-3.34","63f049c2d78b2bc822a16dac","bdp_rd","Sun Apr 02 2023 08:37:54 GMT-0500 (Central Daylight Time)","220512","","null","","","","offerFB","","<div class='trialBorder'><div class='vertical-center'><img style='vertical-align:center; align:center' src=img/fixation3.jpg></div><div class='cl'><div class='vertical-center'>$24<br>with a<br>50% chance</div></div><div class='cr'><div class='vertical-center'><font style='color:orange'>$13<br>for<br>sure</font></div></div><div class='respDivL'><div class='vertical-center'>(E)</div></div><div class='respDivR'><div class='vertical-center'><font style='color:orange'>(I)</font></div></div></div>","null","$13","$24","1","13","24",""
"html-keyboard-response","109","130408","0.0-5.0-1.35","63f049c2d78b2bc822a16dac","bdp_rd","Sun Apr 02 2023 08:37:54 GMT-0500 (Central Daylight Time)","220512","","null","","","","FIX","","<div class='trialBorder'><div class='vertical-center'><img style='vertical-align:center; align:center' src=img/fixation3.jpg></div></div>","null","","","","","",""
"html-keyboard-response","110","131416","0.0-5.0-2.35","63f049c2d78b2bc822a16dac","bdp_rd","Sun Apr 02 2023 08:37:54 GMT-0500 (Central Daylight Time)","220512","","1006","","","","offer","","<div class='trialBorder'><div class='vertical-center'><img style='vertical-align:center; align:center' src=img/fixation3.jpg></div><div class='cl'><div class='vertical-center'>$7<br>for<br>sure</div></div><div class='cr'><div class='vertical-center'>$71<br>with a<br>50% chance</div></div><div class='respDivL'><div class='vertical-center'>(E)</div></div><div class='respDivR'><div class='vertical-center'>(I)</div></div></div>","E","$7","$71","0","7","71","SURE"
"html-keyboard-response","111","131667","0.0-5.0-3.35","63f049c2d78b2bc822a16dac","bdp_rd","Sun Apr 02 2023 08:37:54 GMT-0500 (Central Daylight Time)","220512","","null","","","","offerFB","","<div class='trialBorder'><div class='vertical-center'><img style='vertical-align:center; align:center' src=img/fixation3.jpg></div><div class='cl'><div class='vertical-center'><font style='color:orange'>$7<br>for<br>sure</font></div></div><div class='cr'><div class='vertical-center'>$71<br>with a<br>50% chance</div></div><div class='respDivL'><div class='vertical-center'><font style='color:orange'>(E)</font></div></div><div class='respDivR'><div class='vertical-center'>(I)</div></div></div>","null","$7","$71","0","7","71",""
"html-keyboard-response","112","132169","0.0-5.0-1.36","63f049c2d78b2bc822a16dac","bdp_rd","Sun Apr 02 2023 08:37:54 GMT-0500 (Central Daylight Time)","220512","","null","","","","FIX","","<div class='trialBorder'><div class='vertical-center'><img style='vertical-align:center; align:center' src=img/fixation3.jpg></div></div>","null","","","","","",""
"html-keyboard-response","113","134495","0.0-5.0-2.36","63f049c2d78b2bc822a16dac","bdp_rd","Sun Apr 02 2023 08:37:54 GMT-0500 (Central Daylight Time)","220512","","2326","","","","offer","","<div class='trialBorder'><div class='vertical-center'><img style='vertical-align:center; align:center' src=img/fixation3.jpg></div><div class='cl'><div class='vertical-center'>$28<br>for<br>sure</div></div><div class='cr'><div class='vertical-center'>$89<br>with a<br>50% chance</div></div><div class='respDivL'><div class='vertical-center'>(E)</div></div><div class='respDivR'><div class='vertical-center'>(I)</div></div></div>","E","$28","$89","0","28","89","SURE"
"html-keyboard-response","114","134746","0.0-5.0-3.36","63f049c2d78b2bc822a16dac","bdp_rd","Sun Apr 02 2023 08:37:54 GMT-0500 (Central Daylight Time)","220512","","null","","","","offerFB","","<div class='trialBorder'><div class='vertical-center'><img style='vertical-align:center; align:center' src=img/fixation3.jpg></div><div class='cl'><div class='vertical-center'><font style='color:orange'>$28<br>for<br>sure</font></div></div><div class='cr'><div class='vertical-center'>$89<br>with a<br>50% chance</div></div><div class='respDivL'><div class='vertical-center'><font style='color:orange'>(E)</font></div></div><div class='respDivR'><div class='vertical-center'>(I)</div></div></div>","null","$28","$89","0","28","89",""
"html-keyboard-response","115","135247","0.0-5.0-1.37","63f049c2d78b2bc822a16dac","bdp_rd","Sun Apr 02 2023 08:37:54 GMT-0500 (Central Daylight Time)","220512","","null","","","","FIX","","<div class='trialBorder'><div class='vertical-center'><img style='vertical-align:center; align:center' src=img/fixation3.jpg></div></div>","null","","","","","",""
"html-keyboard-response","116","137848","0.0-5.0-2.37","63f049c2d78b2bc822a16dac","bdp_rd","Sun Apr 02 2023 08:37:54 GMT-0500 (Central Daylight Time)","220512","","2600","","","","offer","","<div class='trialBorder'><div class='vertical-center'><img style='vertical-align:center; align:center' src=img/fixation3.jpg></div><div class='cl'><div class='vertical-center'>$16<br>for<br>sure</div></div><div class='cr'><div class='vertical-center'>$28<br>with a<br>50% chance</div></div><div class='respDivL'><div class='vertical-center'>(E)</div></div><div class='respDivR'><div class='vertical-center'>(I)</div></div></div>","E","$16","$28","0","16","28","SURE"
"html-keyboard-response","117","138099","0.0-5.0-3.37","63f049c2d78b2bc822a16dac","bdp_rd","Sun Apr 02 2023 08:37:54 GMT-0500 (Central Daylight Time)","220512","","null","","","","offerFB","","<div class='trialBorder'><div class='vertical-center'><img style='vertical-align:center; align:center' src=img/fixation3.jpg></div><div class='cl'><div class='vertical-center'><font style='color:orange'>$16<br>for<br>sure</font></div></div><div class='cr'><div class='vertical-center'>$28<br>with a<br>50% chance</div></div><div class='respDivL'><div class='vertical-center'><font style='color:orange'>(E)</font></div></div><div class='respDivR'><div class='vertical-center'>(I)</div></div></div>","null","$16","$28","0","16","28",""
"html-keyboard-response","118","138600","0.0-5.0-1.38","63f049c2d78b2bc822a16dac","bdp_rd","Sun Apr 02 2023 08:37:54 GMT-0500 (Central Daylight Time)","220512","","null","","","","FIX","","<div class='trialBorder'><div class='vertical-center'><img style='vertical-align:center; align:center' src=img/fixation3.jpg></div></div>","null","","","","","",""
"html-keyboard-response","119","141274","0.0-5.0-2.38","63f049c2d78b2bc822a16dac","bdp_rd","Sun Apr 02 2023 08:37:54 GMT-0500 (Central Daylight Time)","220512","","2673","","","","offer","","<div class='trialBorder'><div class='vertical-center'><img style='vertical-align:center; align:center' src=img/fixation3.jpg></div><div class='cl'><div class='vertical-center'>$62<br>with a<br>50% chance</div></div><div class='cr'><div class='vertical-center'>$11<br>for<br>sure</div></div><div class='respDivL'><div class='vertical-center'>(E)</div></div><div class='respDivR'><div class='vertical-center'>(I)</div></div></div>","I","$11","$62","1","11","62","SURE"
"html-keyboard-response","120","141525","0.0-5.0-3.38","63f049c2d78b2bc822a16dac","bdp_rd","Sun Apr 02 2023 08:37:54 GMT-0500 (Central Daylight Time)","220512","","null","","","","offerFB","","<div class='trialBorder'><div class='vertical-center'><img style='vertical-align:center; align:center' src=img/fixation3.jpg></div><div class='cl'><div class='vertical-center'>$62<br>with a<br>50% chance</div></div><div class='cr'><div class='vertical-center'><font style='color:orange'>$11<br>for<br>sure</font></div></div><div class='respDivL'><div class='vertical-center'>(E)</div></div><div class='respDivR'><div class='vertical-center'><font style='color:orange'>(I)</font></div></div></div>","null","$11","$62","1","11","62",""
"html-keyboard-response","121","142027","0.0-5.0-1.39","63f049c2d78b2bc822a16dac","bdp_rd","Sun Apr 02 2023 08:37:54 GMT-0500 (Central Daylight Time)","220512","","null","","","","FIX","","<div class='trialBorder'><div class='vertical-center'><img style='vertical-align:center; align:center' src=img/fixation3.jpg></div></div>","null","","","","","",""
"html-keyboard-response","122","144903","0.0-5.0-2.39","63f049c2d78b2bc822a16dac","bdp_rd","Sun Apr 02 2023 08:37:54 GMT-0500 (Central Daylight Time)","220512","","2876","","","","offer","","<div class='trialBorder'><div class='vertical-center'><img style='vertical-align:center; align:center' src=img/fixation3.jpg></div><div class='cl'><div class='vertical-center'>$39<br>for<br>sure</div></div><div class='cr'><div class='vertical-center'>$81<br>with a<br>50% chance</div></div><div class='respDivL'><div class='vertical-center'>(E)</div></div><div class='respDivR'><div class='vertical-center'>(I)</div></div></div>","E","$39","$81","0","39","81","SURE"
"html-keyboard-response","123","145155","0.0-5.0-3.39","63f049c2d78b2bc822a16dac","bdp_rd","Sun Apr 02 2023 08:37:54 GMT-0500 (Central Daylight Time)","220512","","null","","","","offerFB","","<div class='trialBorder'><div class='vertical-center'><img style='vertical-align:center; align:center' src=img/fixation3.jpg></div><div class='cl'><div class='vertical-center'><font style='color:orange'>$39<br>for<br>sure</font></div></div><div class='cr'><div class='vertical-center'>$81<br>with a<br>50% chance</div></div><div class='respDivL'><div class='vertical-center'><font style='color:orange'>(E)</font></div></div><div class='respDivR'><div class='vertical-center'>(I)</div></div></div>","null","$39","$81","0","39","81",""
"html-keyboard-response","124","145657","0.0-5.0-1.40","63f049c2d78b2bc822a16dac","bdp_rd","Sun Apr 02 2023 08:37:54 GMT-0500 (Central Daylight Time)","220512","","null","","","","FIX","","<div class='trialBorder'><div class='vertical-center'><img style='vertical-align:center; align:center' src=img/fixation3.jpg></div></div>","null","","","","","",""
"html-keyboard-response","125","151080","0.0-5.0-2.40","63f049c2d78b2bc822a16dac","bdp_rd","Sun Apr 02 2023 08:37:54 GMT-0500 (Central Daylight Time)","220512","","5423","","","","offer","","<div class='trialBorder'><div class='vertical-center'><img style='vertical-align:center; align:center' src=img/fixation3.jpg></div><div class='cl'><div class='vertical-center'>$54<br>with a<br>50% chance</div></div><div class='cr'><div class='vertical-center'>$25<br>for<br>sure</div></div><div class='respDivL'><div class='vertical-center'>(E)</div></div><div class='respDivR'><div class='vertical-center'>(I)</div></div></div>","I","$25","$54","1","25","54","SURE"
"html-keyboard-response","126","151331","0.0-5.0-3.40","63f049c2d78b2bc822a16dac","bdp_rd","Sun Apr 02 2023 08:37:54 GMT-0500 (Central Daylight Time)","220512","","null","","","","offerFB","","<div class='trialBorder'><div class='vertical-center'><img style='vertical-align:center; align:center' src=img/fixation3.jpg></div><div class='cl'><div class='vertical-center'>$54<br>with a<br>50% chance</div></div><div class='cr'><div class='vertical-center'><font style='color:orange'>$25<br>for<br>sure</font></div></div><div class='respDivL'><div class='vertical-center'>(E)</div></div><div class='respDivR'><div class='vertical-center'><font style='color:orange'>(I)</font></div></div></div>","null","$25","$54","1","25","54",""
"html-keyboard-response","127","151833","0.0-5.0-1.41","63f049c2d78b2bc822a16dac","bdp_rd","Sun Apr 02 2023 08:37:54 GMT-0500 (Central Daylight Time)","220512","","null","","","","FIX","","<div class='trialBorder'><div class='vertical-center'><img style='vertical-align:center; align:center' src=img/fixation3.jpg></div></div>","null","","","","","",""
"html-keyboard-response","128","154995","0.0-5.0-2.41","63f049c2d78b2bc822a16dac","bdp_rd","Sun Apr 02 2023 08:37:54 GMT-0500 (Central Daylight Time)","220512","","3162","","","","offer","","<div class='trialBorder'><div class='vertical-center'><img style='vertical-align:center; align:center' src=img/fixation3.jpg></div><div class='cl'><div class='vertical-center'>$80<br>with a<br>50% chance</div></div><div class='cr'><div class='vertical-center'>$20<br>for<br>sure</div></div><div class='respDivL'><div class='vertical-center'>(E)</div></div><div class='respDivR'><div class='vertical-center'>(I)</div></div></div>","I","$20","$80","1","20","80","SURE"
"html-keyboard-response","129","155247","0.0-5.0-3.41","63f049c2d78b2bc822a16dac","bdp_rd","Sun Apr 02 2023 08:37:54 GMT-0500 (Central Daylight Time)","220512","","null","","","","offerFB","","<div class='trialBorder'><div class='vertical-center'><img style='vertical-align:center; align:center' src=img/fixation3.jpg></div><div class='cl'><div class='vertical-center'>$80<br>with a<br>50% chance</div></div><div class='cr'><div class='vertical-center'><font style='color:orange'>$20<br>for<br>sure</font></div></div><div class='respDivL'><div class='vertical-center'>(E)</div></div><div class='respDivR'><div class='vertical-center'><font style='color:orange'>(I)</font></div></div></div>","null","$20","$80","1","20","80",""
"html-keyboard-response","130","155748","0.0-5.0-1.42","63f049c2d78b2bc822a16dac","bdp_rd","Sun Apr 02 2023 08:37:54 GMT-0500 (Central Daylight Time)","220512","","null","","","","FIX","","<div class='trialBorder'><div class='vertical-center'><img style='vertical-align:center; align:center' src=img/fixation3.jpg></div></div>","null","","","","","",""
"html-keyboard-response","131","161051","0.0-5.0-2.42","63f049c2d78b2bc822a16dac","bdp_rd","Sun Apr 02 2023 08:37:54 GMT-0500 (Central Daylight Time)","220512","","5302","","","","offer","","<div class='trialBorder'><div class='vertical-center'><img style='vertical-align:center; align:center' src=img/fixation3.jpg></div><div class='cl'><div class='vertical-center'>$14<br>with a<br>50% chance</div></div><div class='cr'><div class='vertical-center'>$4<br>for<br>sure</div></div><div class='respDivL'><div class='vertical-center'>(E)</div></div><div class='respDivR'><div class='vertical-center'>(I)</div></div></div>","I","$4","$14","1","4","14","SURE"
"html-keyboard-response","132","161303","0.0-5.0-3.42","63f049c2d78b2bc822a16dac","bdp_rd","Sun Apr 02 2023 08:37:54 GMT-0500 (Central Daylight Time)","220512","","null","","","","offerFB","","<div class='trialBorder'><div class='vertical-center'><img style='vertical-align:center; align:center' src=img/fixation3.jpg></div><div class='cl'><div class='vertical-center'>$14<br>with a<br>50% chance</div></div><div class='cr'><div class='vertical-center'><font style='color:orange'>$4<br>for<br>sure</font></div></div><div class='respDivL'><div class='vertical-center'>(E)</div></div><div class='respDivR'><div class='vertical-center'><font style='color:orange'>(I)</font></div></div></div>","null","$4","$14","1","4","14",""
"html-keyboard-response","133","161804","0.0-5.0-1.43","63f049c2d78b2bc822a16dac","bdp_rd","Sun Apr 02 2023 08:37:54 GMT-0500 (Central Daylight Time)","220512","","null","","","","FIX","","<div class='trialBorder'><div class='vertical-center'><img style='vertical-align:center; align:center' src=img/fixation3.jpg></div></div>","null","","","","","",""
"html-keyboard-response","134","163570","0.0-5.0-2.43","63f049c2d78b2bc822a16dac","bdp_rd","Sun Apr 02 2023 08:37:54 GMT-0500 (Central Daylight Time)","220512","","1765","","","","offer","","<div class='trialBorder'><div class='vertical-center'><img style='vertical-align:center; align:center' src=img/fixation3.jpg></div><div class='cl'><div class='vertical-center'>$6<br>for<br>sure</div></div><div class='cr'><div class='vertical-center'>$13<br>with a<br>50% chance</div></div><div class='respDivL'><div class='vertical-center'>(E)</div></div><div class='respDivR'><div class='vertical-center'>(I)</div></div></div>","E","$6","$13","0","6","13","SURE"
"html-keyboard-response","135","163822","0.0-5.0-3.43","63f049c2d78b2bc822a16dac","bdp_rd","Sun Apr 02 2023 08:37:54 GMT-0500 (Central Daylight Time)","220512","","null","","","","offerFB","","<div class='trialBorder'><div class='vertical-center'><img style='vertical-align:center; align:center' src=img/fixation3.jpg></div><div class='cl'><div class='vertical-center'><font style='color:orange'>$6<br>for<br>sure</font></div></div><div class='cr'><div class='vertical-center'>$13<br>with a<br>50% chance</div></div><div class='respDivL'><div class='vertical-center'><font style='color:orange'>(E)</font></div></div><div class='respDivR'><div class='vertical-center'>(I)</div></div></div>","null","$6","$13","0","6","13",""
"html-keyboard-response","136","164323","0.0-5.0-1.44","63f049c2d78b2bc822a16dac","bdp_rd","Sun Apr 02 2023 08:37:54 GMT-0500 (Central Daylight Time)","220512","","null","","","","FIX","","<div class='trialBorder'><div class='vertical-center'><img style='vertical-align:center; align:center' src=img/fixation3.jpg></div></div>","null","","","","","",""
"html-keyboard-response","137","167875","0.0-5.0-2.44","63f049c2d78b2bc822a16dac","bdp_rd","Sun Apr 02 2023 08:37:54 GMT-0500 (Central Daylight Time)","220512","","3551","","","","offer","","<div class='trialBorder'><div class='vertical-center'><img style='vertical-align:center; align:center' src=img/fixation3.jpg></div><div class='cl'><div class='vertical-center'>$15<br>for<br>sure</div></div><div class='cr'><div class='vertical-center'>$34<br>with a<br>50% chance</div></div><div class='respDivL'><div class='vertical-center'>(E)</div></div><div class='respDivR'><div class='vertical-center'>(I)</div></div></div>","E","$15","$34","0","15","34","SURE"
"html-keyboard-response","138","168128","0.0-5.0-3.44","63f049c2d78b2bc822a16dac","bdp_rd","Sun Apr 02 2023 08:37:54 GMT-0500 (Central Daylight Time)","220512","","null","","","","offerFB","","<div class='trialBorder'><div class='vertical-center'><img style='vertical-align:center; align:center' src=img/fixation3.jpg></div><div class='cl'><div class='vertical-center'><font style='color:orange'>$15<br>for<br>sure</font></div></div><div class='cr'><div class='vertical-center'>$34<br>with a<br>50% chance</div></div><div class='respDivL'><div class='vertical-center'><font style='color:orange'>(E)</font></div></div><div class='respDivR'><div class='vertical-center'>(I)</div></div></div>","null","$15","$34","0","15","34",""
"html-keyboard-response","139","168629","0.0-5.0-1.45","63f049c2d78b2bc822a16dac","bdp_rd","Sun Apr 02 2023 08:37:54 GMT-0500 (Central Daylight Time)","220512","","null","","","","FIX","","<div class='trialBorder'><div class='vertical-center'><img style='vertical-align:center; align:center' src=img/fixation3.jpg></div></div>","null","","","","","",""
"html-keyboard-response","140","169788","0.0-5.0-2.45","63f049c2d78b2bc822a16dac","bdp_rd","Sun Apr 02 2023 08:37:54 GMT-0500 (Central Daylight Time)","220512","","1158","","","","offer","","<div class='trialBorder'><div class='vertical-center'><img style='vertical-align:center; align:center' src=img/fixation3.jpg></div><div class='cl'><div class='vertical-center'>$38<br>with a<br>50% chance</div></div><div class='cr'><div class='vertical-center'>$16<br>for<br>sure</div></div><div class='respDivL'><div class='vertical-center'>(E)</div></div><div class='respDivR'><div class='vertical-center'>(I)</div></div></div>","I","$16","$38","1","16","38","SURE"
"html-keyboard-response","141","170039","0.0-5.0-3.45","63f049c2d78b2bc822a16dac","bdp_rd","Sun Apr 02 2023 08:37:54 GMT-0500 (Central Daylight Time)","220512","","null","","","","offerFB","","<div class='trialBorder'><div class='vertical-center'><img style='vertical-align:center; align:center' src=img/fixation3.jpg></div><div class='cl'><div class='vertical-center'>$38<br>with a<br>50% chance</div></div><div class='cr'><div class='vertical-center'><font style='color:orange'>$16<br>for<br>sure</font></div></div><div class='respDivL'><div class='vertical-center'>(E)</div></div><div class='respDivR'><div class='vertical-center'><font style='color:orange'>(I)</font></div></div></div>","null","$16","$38","1","16","38",""
"html-keyboard-response","142","170540","0.0-5.0-1.46","63f049c2d78b2bc822a16dac","bdp_rd","Sun Apr 02 2023 08:37:54 GMT-0500 (Central Daylight Time)","220512","","null","","","","FIX","","<div class='trialBorder'><div class='vertical-center'><img style='vertical-align:center; align:center' src=img/fixation3.jpg></div></div>","null","","","","","",""
"html-keyboard-response","143","172273","0.0-5.0-2.46","63f049c2d78b2bc822a16dac","bdp_rd","Sun Apr 02 2023 08:37:54 GMT-0500 (Central Daylight Time)","220512","","1732","","","","offer","","<div class='trialBorder'><div class='vertical-center'><img style='vertical-align:center; align:center' src=img/fixation3.jpg></div><div class='cl'><div class='vertical-center'>$21<br>with a<br>50% chance</div></div><div class='cr'><div class='vertical-center'>$2<br>for<br>sure</div></div><div class='respDivL'><div class='vertical-center'>(E)</div></div><div class='respDivR'><div class='vertical-center'>(I)</div></div></div>","E","$2","$21","1","2","21","RISKY"
"html-keyboard-response","144","172525","0.0-5.0-3.46","63f049c2d78b2bc822a16dac","bdp_rd","Sun Apr 02 2023 08:37:54 GMT-0500 (Central Daylight Time)","220512","","null","","","","offerFB","","<div class='trialBorder'><div class='vertical-center'><img style='vertical-align:center; align:center' src=img/fixation3.jpg></div><div class='cl'><div class='vertical-center'><font style='color:orange'>$21<br>with a<br>50% chance</font></div></div><div class='cr'><div class='vertical-center'>$2<br>for<br>sure</div></div><div class='respDivL'><div class='vertical-center'><font style='color:orange'>(E)</font></div></div><div class='respDivR'><div class='vertical-center'>(I)</div></div></div>","null","$2","$21","1","2","21",""
"html-keyboard-response","145","173027","0.0-5.0-1.47","63f049c2d78b2bc822a16dac","bdp_rd","Sun Apr 02 2023 08:37:54 GMT-0500 (Central Daylight Time)","220512","","null","","","","FIX","","<div class='trialBorder'><div class='vertical-center'><img style='vertical-align:center; align:center' src=img/fixation3.jpg></div></div>","null","","","","","",""
"html-keyboard-response","146","174498","0.0-5.0-2.47","63f049c2d78b2bc822a16dac","bdp_rd","Sun Apr 02 2023 08:37:54 GMT-0500 (Central Daylight Time)","220512","","1470","","","","offer","","<div class='trialBorder'><div class='vertical-center'><img style='vertical-align:center; align:center' src=img/fixation3.jpg></div><div class='cl'><div class='vertical-center'>$66<br>with a<br>50% chance</div></div><div class='cr'><div class='vertical-center'>$33<br>for<br>sure</div></div><div class='respDivL'><div class='vertical-center'>(E)</div></div><div class='respDivR'><div class='vertical-center'>(I)</div></div></div>","I","$33","$66","1","33","66","SURE"
"html-keyboard-response","147","174750","0.0-5.0-3.47","63f049c2d78b2bc822a16dac","bdp_rd","Sun Apr 02 2023 08:37:54 GMT-0500 (Central Daylight Time)","220512","","null","","","","offerFB","","<div class='trialBorder'><div class='vertical-center'><img style='vertical-align:center; align:center' src=img/fixation3.jpg></div><div class='cl'><div class='vertical-center'>$66<br>with a<br>50% chance</div></div><div class='cr'><div class='vertical-center'><font style='color:orange'>$33<br>for<br>sure</font></div></div><div class='respDivL'><div class='vertical-center'>(E)</div></div><div class='respDivR'><div class='vertical-center'><font style='color:orange'>(I)</font></div></div></div>","null","$33","$66","1","33","66",""
"html-keyboard-response","148","175251","0.0-5.0-1.48","63f049c2d78b2bc822a16dac","bdp_rd","Sun Apr 02 2023 08:37:54 GMT-0500 (Central Daylight Time)","220512","","null","","","","FIX","","<div class='trialBorder'><div class='vertical-center'><img style='vertical-align:center; align:center' src=img/fixation3.jpg></div></div>","null","","","","","",""
"html-keyboard-response","149","179637","0.0-5.0-2.48","63f049c2d78b2bc822a16dac","bdp_rd","Sun Apr 02 2023 08:37:54 GMT-0500 (Central Daylight Time)","220512","","4385","","","","offer","","<div class='trialBorder'><div class='vertical-center'><img style='vertical-align:center; align:center' src=img/fixation3.jpg></div><div class='cl'><div class='vertical-center'>$17<br>with a<br>50% chance</div></div><div class='cr'><div class='vertical-center'>$3<br>for<br>sure</div></div><div class='respDivL'><div class='vertical-center'>(E)</div></div><div class='respDivR'><div class='vertical-center'>(I)</div></div></div>","E","$3","$17","1","3","17","RISKY"
"html-keyboard-response","150","179889","0.0-5.0-3.48","63f049c2d78b2bc822a16dac","bdp_rd","Sun Apr 02 2023 08:37:54 GMT-0500 (Central Daylight Time)","220512","","null","","","","offerFB","","<div class='trialBorder'><div class='vertical-center'><img style='vertical-align:center; align:center' src=img/fixation3.jpg></div><div class='cl'><div class='vertical-center'><font style='color:orange'>$17<br>with a<br>50% chance</font></div></div><div class='cr'><div class='vertical-center'>$3<br>for<br>sure</div></div><div class='respDivL'><div class='vertical-center'><font style='color:orange'>(E)</font></div></div><div class='respDivR'><div class='vertical-center'>(I)</div></div></div>","null","$3","$17","1","3","17",""
"html-keyboard-response","151","180390","0.0-5.0-1.49","63f049c2d78b2bc822a16dac","bdp_rd","Sun Apr 02 2023 08:37:54 GMT-0500 (Central Daylight Time)","220512","","null","","","","FIX","","<div class='trialBorder'><div class='vertical-center'><img style='vertical-align:center; align:center' src=img/fixation3.jpg></div></div>","null","","","","","",""
"html-keyboard-response","152","182195","0.0-5.0-2.49","63f049c2d78b2bc822a16dac","bdp_rd","Sun Apr 02 2023 08:37:54 GMT-0500 (Central Daylight Time)","220512","","1804","","","","offer","","<div class='trialBorder'><div class='vertical-center'><img style='vertical-align:center; align:center' src=img/fixation3.jpg></div><div class='cl'><div class='vertical-center'>$29<br>with a<br>50% chance</div></div><div class='cr'><div class='vertical-center'>$14<br>for<br>sure</div></div><div class='respDivL'><div class='vertical-center'>(E)</div></div><div class='respDivR'><div class='vertical-center'>(I)</div></div></div>","I","$14","$29","1","14","29","SURE"
"html-keyboard-response","153","182447","0.0-5.0-3.49","63f049c2d78b2bc822a16dac","bdp_rd","Sun Apr 02 2023 08:37:54 GMT-0500 (Central Daylight Time)","220512","","null","","","","offerFB","","<div class='trialBorder'><div class='vertical-center'><img style='vertical-align:center; align:center' src=img/fixation3.jpg></div><div class='cl'><div class='vertical-center'>$29<br>with a<br>50% chance</div></div><div class='cr'><div class='vertical-center'><font style='color:orange'>$14<br>for<br>sure</font></div></div><div class='respDivL'><div class='vertical-center'>(E)</div></div><div class='respDivR'><div class='vertical-center'><font style='color:orange'>(I)</font></div></div></div>","null","$14","$29","1","14","29",""
"html-keyboard-response","154","182949","0.0-5.0-1.50","63f049c2d78b2bc822a16dac","bdp_rd","Sun Apr 02 2023 08:37:54 GMT-0500 (Central Daylight Time)","220512","","null","","","","FIX","","<div class='trialBorder'><div class='vertical-center'><img style='vertical-align:center; align:center' src=img/fixation3.jpg></div></div>","null","","","","","",""
"html-keyboard-response","155","184001","0.0-5.0-2.50","63f049c2d78b2bc822a16dac","bdp_rd","Sun Apr 02 2023 08:37:54 GMT-0500 (Central Daylight Time)","220512","","1052","","","","offer","","<div class='trialBorder'><div class='vertical-center'><img style='vertical-align:center; align:center' src=img/fixation3.jpg></div><div class='cl'><div class='vertical-center'>$31<br>with a<br>50% chance</div></div><div class='cr'><div class='vertical-center'>$15<br>for<br>sure</div></div><div class='respDivL'><div class='vertical-center'>(E)</div></div><div class='respDivR'><div class='vertical-center'>(I)</div></div></div>","I","$15","$31","1","15","31","SURE"
"html-keyboard-response","156","184252","0.0-5.0-3.50","63f049c2d78b2bc822a16dac","bdp_rd","Sun Apr 02 2023 08:37:54 GMT-0500 (Central Daylight Time)","220512","","null","","","","offerFB","","<div class='trialBorder'><div class='vertical-center'><img style='vertical-align:center; align:center' src=img/fixation3.jpg></div><div class='cl'><div class='vertical-center'>$31<br>with a<br>50% chance</div></div><div class='cr'><div class='vertical-center'><font style='color:orange'>$15<br>for<br>sure</font></div></div><div class='respDivL'><div class='vertical-center'>(E)</div></div><div class='respDivR'><div class='vertical-center'><font style='color:orange'>(I)</font></div></div></div>","null","$15","$31","1","15","31",""
"html-keyboard-response","157","184754","0.0-5.0-1.51","63f049c2d78b2bc822a16dac","bdp_rd","Sun Apr 02 2023 08:37:54 GMT-0500 (Central Daylight Time)","220512","","null","","","","FIX","","<div class='trialBorder'><div class='vertical-center'><img style='vertical-align:center; align:center' src=img/fixation3.jpg></div></div>","null","","","","","",""
"html-keyboard-response","158","186152","0.0-5.0-2.51","63f049c2d78b2bc822a16dac","bdp_rd","Sun Apr 02 2023 08:37:54 GMT-0500 (Central Daylight Time)","220512","","1397","","","","offer","","<div class='trialBorder'><div class='vertical-center'><img style='vertical-align:center; align:center' src=img/fixation3.jpg></div><div class='cl'><div class='vertical-center'>$47<br>with a<br>50% chance</div></div><div class='cr'><div class='vertical-center'>$27<br>for<br>sure</div></div><div class='respDivL'><div class='vertical-center'>(E)</div></div><div class='respDivR'><div class='vertical-center'>(I)</div></div></div>","I","$27","$47","1","27","47","SURE"
"html-keyboard-response","159","186403","0.0-5.0-3.51","63f049c2d78b2bc822a16dac","bdp_rd","Sun Apr 02 2023 08:37:54 GMT-0500 (Central Daylight Time)","220512","","null","","","","offerFB","","<div class='trialBorder'><div class='vertical-center'><img style='vertical-align:center; align:center' src=img/fixation3.jpg></div><div class='cl'><div class='vertical-center'>$47<br>with a<br>50% chance</div></div><div class='cr'><div class='vertical-center'><font style='color:orange'>$27<br>for<br>sure</font></div></div><div class='respDivL'><div class='vertical-center'>(E)</div></div><div class='respDivR'><div class='vertical-center'><font style='color:orange'>(I)</font></div></div></div>","null","$27","$47","1","27","47",""
"html-keyboard-response","160","186904","0.0-5.0-1.52","63f049c2d78b2bc822a16dac","bdp_rd","Sun Apr 02 2023 08:37:54 GMT-0500 (Central Daylight Time)","220512","","null","","","","FIX","","<div class='trialBorder'><div class='vertical-center'><img style='vertical-align:center; align:center' src=img/fixation3.jpg></div></div>","null","","","","","",""
"html-keyboard-response","161","188167","0.0-5.0-2.52","63f049c2d78b2bc822a16dac","bdp_rd","Sun Apr 02 2023 08:37:54 GMT-0500 (Central Daylight Time)","220512","","1262","","","","offer","","<div class='trialBorder'><div class='vertical-center'><img style='vertical-align:center; align:center' src=img/fixation3.jpg></div><div class='cl'><div class='vertical-center'>$27<br>with a<br>50% chance</div></div><div class='cr'><div class='vertical-center'>$12<br>for<br>sure</div></div><div class='respDivL'><div class='vertical-center'>(E)</div></div><div class='respDivR'><div class='vertical-center'>(I)</div></div></div>","I","$12","$27","1","12","27","SURE"
"html-keyboard-response","162","188419","0.0-5.0-3.52","63f049c2d78b2bc822a16dac","bdp_rd","Sun Apr 02 2023 08:37:54 GMT-0500 (Central Daylight Time)","220512","","null","","","","offerFB","","<div class='trialBorder'><div class='vertical-center'><img style='vertical-align:center; align:center' src=img/fixation3.jpg></div><div class='cl'><div class='vertical-center'>$27<br>with a<br>50% chance</div></div><div class='cr'><div class='vertical-center'><font style='color:orange'>$12<br>for<br>sure</font></div></div><div class='respDivL'><div class='vertical-center'>(E)</div></div><div class='respDivR'><div class='vertical-center'><font style='color:orange'>(I)</font></div></div></div>","null","$12","$27","1","12","27",""
"html-keyboard-response","163","188920","0.0-5.0-1.53","63f049c2d78b2bc822a16dac","bdp_rd","Sun Apr 02 2023 08:37:54 GMT-0500 (Central Daylight Time)","220512","","null","","","","FIX","","<div class='trialBorder'><div class='vertical-center'><img style='vertical-align:center; align:center' src=img/fixation3.jpg></div></div>","null","","","","","",""
"html-keyboard-response","164","190265","0.0-5.0-2.53","63f049c2d78b2bc822a16dac","bdp_rd","Sun Apr 02 2023 08:37:54 GMT-0500 (Central Daylight Time)","220512","","1344","","","","offer","","<div class='trialBorder'><div class='vertical-center'><img style='vertical-align:center; align:center' src=img/fixation3.jpg></div><div class='cl'><div class='vertical-center'>$5<br>for<br>sure</div></div><div class='cr'><div class='vertical-center'>$16<br>with a<br>50% chance</div></div><div class='respDivL'><div class='vertical-center'>(E)</div></div><div class='respDivR'><div class='vertical-center'>(I)</div></div></div>","E","$5","$16","0","5","16","SURE"
"html-keyboard-response","165","190516","0.0-5.0-3.53","63f049c2d78b2bc822a16dac","bdp_rd","Sun Apr 02 2023 08:37:54 GMT-0500 (Central Daylight Time)","220512","","null","","","","offerFB","","<div class='trialBorder'><div class='vertical-center'><img style='vertical-align:center; align:center' src=img/fixation3.jpg></div><div class='cl'><div class='vertical-center'><font style='color:orange'>$5<br>for<br>sure</font></div></div><div class='cr'><div class='vertical-center'>$16<br>with a<br>50% chance</div></div><div class='respDivL'><div class='vertical-center'><font style='color:orange'>(E)</font></div></div><div class='respDivR'><div class='vertical-center'>(I)</div></div></div>","null","$5","$16","0","5","16",""
"html-keyboard-response","166","191017","0.0-5.0-1.54","63f049c2d78b2bc822a16dac","bdp_rd","Sun Apr 02 2023 08:37:54 GMT-0500 (Central Daylight Time)","220512","","null","","","","FIX","","<div class='trialBorder'><div class='vertical-center'><img style='vertical-align:center; align:center' src=img/fixation3.jpg></div></div>","null","","","","","",""
"html-keyboard-response","167","193040","0.0-5.0-2.54","63f049c2d78b2bc822a16dac","bdp_rd","Sun Apr 02 2023 08:37:54 GMT-0500 (Central Daylight Time)","220512","","2021","","","","offer","","<div class='trialBorder'><div class='vertical-center'><img style='vertical-align:center; align:center' src=img/fixation3.jpg></div><div class='cl'><div class='vertical-center'>$40<br>for<br>sure</div></div><div class='cr'><div class='vertical-center'>$95<br>with a<br>50% chance</div></div><div class='respDivL'><div class='vertical-center'>(E)</div></div><div class='respDivR'><div class='vertical-center'>(I)</div></div></div>","E","$40","$95","0","40","95","SURE"
"html-keyboard-response","168","193291","0.0-5.0-3.54","63f049c2d78b2bc822a16dac","bdp_rd","Sun Apr 02 2023 08:37:54 GMT-0500 (Central Daylight Time)","220512","","null","","","","offerFB","","<div class='trialBorder'><div class='vertical-center'><img style='vertical-align:center; align:center' src=img/fixation3.jpg></div><div class='cl'><div class='vertical-center'><font style='color:orange'>$40<br>for<br>sure</font></div></div><div class='cr'><div class='vertical-center'>$95<br>with a<br>50% chance</div></div><div class='respDivL'><div class='vertical-center'><font style='color:orange'>(E)</font></div></div><div class='respDivR'><div class='vertical-center'>(I)</div></div></div>","null","$40","$95","0","40","95",""
"html-keyboard-response","169","193792","0.0-5.0-1.55","63f049c2d78b2bc822a16dac","bdp_rd","Sun Apr 02 2023 08:37:54 GMT-0500 (Central Daylight Time)","220512","","null","","","","FIX","","<div class='trialBorder'><div class='vertical-center'><img style='vertical-align:center; align:center' src=img/fixation3.jpg></div></div>","null","","","","","",""
"html-keyboard-response","170","197396","0.0-5.0-2.55","63f049c2d78b2bc822a16dac","bdp_rd","Sun Apr 02 2023 08:37:54 GMT-0500 (Central Daylight Time)","220512","","3603","","","","offer","","<div class='trialBorder'><div class='vertical-center'><img style='vertical-align:center; align:center' src=img/fixation3.jpg></div><div class='cl'><div class='vertical-center'>$5<br>for<br>sure</div></div><div class='cr'><div class='vertical-center'>$50<br>with a<br>50% chance</div></div><div class='respDivL'><div class='vertical-center'>(E)</div></div><div class='respDivR'><div class='vertical-center'>(I)</div></div></div>","I","$5","$50","0","5","50","RISKY"
"html-keyboard-response","171","197648","0.0-5.0-3.55","63f049c2d78b2bc822a16dac","bdp_rd","Sun Apr 02 2023 08:37:54 GMT-0500 (Central Daylight Time)","220512","","null","","","","offerFB","","<div class='trialBorder'><div class='vertical-center'><img style='vertical-align:center; align:center' src=img/fixation3.jpg></div><div class='cl'><div class='vertical-center'>$5<br>for<br>sure</div></div><div class='cr'><div class='vertical-center'><font style='color:orange'>$50<br>with a<br>50% chance</font></div></div><div class='respDivL'><div class='vertical-center'>(E)</div></div><div class='respDivR'><div class='vertical-center'><font style='color:orange'>(I)</font></div></div></div>","null","$5","$50","0","5","50",""
"html-keyboard-response","172","198150","0.0-5.0-1.56","63f049c2d78b2bc822a16dac","bdp_rd","Sun Apr 02 2023 08:37:54 GMT-0500 (Central Daylight Time)","220512","","null","","","","FIX","","<div class='trialBorder'><div class='vertical-center'><img style='vertical-align:center; align:center' src=img/fixation3.jpg></div></div>","null","","","","","",""
"html-keyboard-response","173","200311","0.0-5.0-2.56","63f049c2d78b2bc822a16dac","bdp_rd","Sun Apr 02 2023 08:37:54 GMT-0500 (Central Daylight Time)","220512","","2161","","","","offer","","<div class='trialBorder'><div class='vertical-center'><img style='vertical-align:center; align:center' src=img/fixation3.jpg></div><div class='cl'><div class='vertical-center'>$45<br>for<br>sure</div></div><div class='cr'><div class='vertical-center'>$86<br>with a<br>50% chance</div></div><div class='respDivL'><div class='vertical-center'>(E)</div></div><div class='respDivR'><div class='vertical-center'>(I)</div></div></div>","E","$45","$86","0","45","86","SURE"
