"event","trial","time","trialtype","subject_id","task","startTime","totalTime","trial_type","trial_index","time_elapsed","internal_node_id","view_history","rt","success","stimulus","key_press","sureOffer","riskyOffer","riskyLeft","sureAmt","riskyAmt","chosen"
"focus","0","0","focusevent","5f721a81ee2a860fe028a8a4","bdp_rd","Sun Apr 09 2023 16:52:05 GMT-0700 (Pacific Daylight Time)","221417","","","","","","","","","","","","","","",""
"","","","","5f721a81ee2a860fe028a8a4","bdp_rd","Sun Apr 09 2023 16:52:05 GMT-0700 (Pacific Daylight Time)","221417","pavlovia","0","3","0.0-0.0","","","","","","","","","","",""
"","","","","5f721a81ee2a860fe028a8a4","bdp_rd","Sun Apr 09 2023 16:52:05 GMT-0700 (Pacific Daylight Time)","221417","instructions","1","2025","0.0-1.0","[{""page_index"":0,""viewing_time"":2020}]","2021","","","","","","","","",""
"fullscreenexit","2","5639","fullscreenexit","5f721a81ee2a860fe028a8a4","bdp_rd","Sun Apr 09 2023 16:52:05 GMT-0700 (Pacific Daylight Time)","221417","","","","","","","","","","","","","","",""
"","","","","5f721a81ee2a860fe028a8a4","bdp_rd","Sun Apr 09 2023 16:52:05 GMT-0700 (Pacific Daylight Time)","221417","fullscreen","2","6453","0.0-2.0","","","true","","","","","","","",""
"","","","fullscreenfail","5f721a81ee2a860fe028a8a4","bdp_rd","Sun Apr 09 2023 16:52:05 GMT-0700 (Pacific Daylight Time)","221417","image-keyboard-response","3","7782","0.0-3.0-0.0","","1327","","","32","","","","","",""
"","","","","5f721a81ee2a860fe028a8a4","bdp_rd","Sun Apr 09 2023 16:52:05 GMT-0700 (Pacific Daylight Time)","221417","instructions","4","44006","0.0-4.0","[{""page_index"":0,""viewing_time"":21538},{""page_index"":1,""viewing_time"":8432},{""page_index"":2,""viewing_time"":6000}]","35970","","","","","","","","",""
"","","","FIX","5f721a81ee2a860fe028a8a4","bdp_rd","Sun Apr 09 2023 16:52:05 GMT-0700 (Pacific Daylight Time)","221417","html-keyboard-response","5","44521","0.0-5.0-1.0","","null","","<div class='trialBorder'><div class='vertical-center'><img style='vertical-align:center; align:center' src=img/fixation3.jpg></div></div>","null","","","","","",""
"","","","offer","5f721a81ee2a860fe028a8a4","bdp_rd","Sun Apr 09 2023 16:52:05 GMT-0700 (Pacific Daylight Time)","221417","html-keyboard-response","6","46806","0.0-5.0-2.0","","2284","","<div class='trialBorder'><div class='vertical-center'><img style='vertical-align:center; align:center' src=img/fixation3.jpg></div><div class='cl'><div class='vertical-center'>$44<br>with a<br>50% chance</div></div><div class='cr'><div class='vertical-center'>$37<br>for<br>sure</div></div><div class='respDivL'><div class='vertical-center'>(E)</div></div><div class='respDivR'><div class='vertical-center'>(I)</div></div></div>","I","$37","$44","1","37","44","SURE"
"","","","offerFB","5f721a81ee2a860fe028a8a4","bdp_rd","Sun Apr 09 2023 16:52:05 GMT-0700 (Pacific Daylight Time)","221417","html-keyboard-response","7","47061","0.0-5.0-3.0","","null","","<div class='trialBorder'><div class='vertical-center'><img style='vertical-align:center; align:center' src=img/fixation3.jpg></div><div class='cl'><div class='vertical-center'>$44<br>with a<br>50% chance</div></div><div class='cr'><div class='vertical-center'><font style='color:orange'>$37<br>for<br>sure</font></div></div><div class='respDivL'><div class='vertical-center'>(E)</div></div><div class='respDivR'><div class='vertical-center'><font style='color:orange'>(I)</font></div></div></div>","null","$37","$44","1","37","44",""
"","","","FIX","5f721a81ee2a860fe028a8a4","bdp_rd","Sun Apr 09 2023 16:52:05 GMT-0700 (Pacific Daylight Time)","221417","html-keyboard-response","8","47575","0.0-5.0-1.1","","null","","<div class='trialBorder'><div class='vertical-center'><img style='vertical-align:center; align:center' src=img/fixation3.jpg></div></div>","null","","","","","",""
"","","","offer","5f721a81ee2a860fe028a8a4","bdp_rd","Sun Apr 09 2023 16:52:05 GMT-0700 (Pacific Daylight Time)","221417","html-keyboard-response","9","48838","0.0-5.0-2.1","","1261","","<div class='trialBorder'><div class='vertical-center'><img style='vertical-align:center; align:center' src=img/fixation3.jpg></div><div class='cl'><div class='vertical-center'>$45<br>for<br>sure</div></div><div class='cr'><div class='vertical-center'>$86<br>with a<br>50% chance</div></div><div class='respDivL'><div class='vertical-center'>(E)</div></div><div class='respDivR'><div class='vertical-center'>(I)</div></div></div>","E","$45","$86","0","45","86","SURE"
"","","","offerFB","5f721a81ee2a860fe028a8a4","bdp_rd","Sun Apr 09 2023 16:52:05 GMT-0700 (Pacific Daylight Time)","221417","html-keyboard-response","10","49094","0.0-5.0-3.1","","null","","<div class='trialBorder'><div class='vertical-center'><img style='vertical-align:center; align:center' src=img/fixation3.jpg></div><div class='cl'><div class='vertical-center'><font style='color:orange'>$45<br>for<br>sure</font></div></div><div class='cr'><div class='vertical-center'>$86<br>with a<br>50% chance</div></div><div class='respDivL'><div class='vertical-center'><font style='color:orange'>(E)</font></div></div><div class='respDivR'><div class='vertical-center'>(I)</div></div></div>","null","$45","$86","0","45","86",""
"","","","FIX","5f721a81ee2a860fe028a8a4","bdp_rd","Sun Apr 09 2023 16:52:05 GMT-0700 (Pacific Daylight Time)","221417","html-keyboard-response","11","49607","0.0-5.0-1.2","","null","","<div class='trialBorder'><div class='vertical-center'><img style='vertical-align:center; align:center' src=img/fixation3.jpg></div></div>","null","","","","","",""
"","","","offer","5f721a81ee2a860fe028a8a4","bdp_rd","Sun Apr 09 2023 16:52:05 GMT-0700 (Pacific Daylight Time)","221417","html-keyboard-response","12","51477","0.0-5.0-2.2","","1869","","<div class='trialBorder'><div class='vertical-center'><img style='vertical-align:center; align:center' src=img/fixation3.jpg></div><div class='cl'><div class='vertical-center'>$19<br>for<br>sure</div></div><div class='cr'><div class='vertical-center'>$51<br>with a<br>50% chance</div></div><div class='respDivL'><div class='vertical-center'>(E)</div></div><div class='respDivR'><div class='vertical-center'>(I)</div></div></div>","E","$19","$51","0","19","51","SURE"
"","","","offerFB","5f721a81ee2a860fe028a8a4","bdp_rd","Sun Apr 09 2023 16:52:05 GMT-0700 (Pacific Daylight Time)","221417","html-keyboard-response","13","51742","0.0-5.0-3.2","","null","","<div class='trialBorder'><div class='vertical-center'><img style='vertical-align:center; align:center' src=img/fixation3.jpg></div><div class='cl'><div class='vertical-center'><font style='color:orange'>$19<br>for<br>sure</font></div></div><div class='cr'><div class='vertical-center'>$51<br>with a<br>50% chance</div></div><div class='respDivL'><div class='vertical-center'><font style='color:orange'>(E)</font></div></div><div class='respDivR'><div class='vertical-center'>(I)</div></div></div>","null","$19","$51","0","19","51",""
"","","","FIX","5f721a81ee2a860fe028a8a4","bdp_rd","Sun Apr 09 2023 16:52:05 GMT-0700 (Pacific Daylight Time)","221417","html-keyboard-response","14","52254","0.0-5.0-1.3","","null","","<div class='trialBorder'><div class='vertical-center'><img style='vertical-align:center; align:center' src=img/fixation3.jpg></div></div>","null","","","","","",""
"","","","offer","5f721a81ee2a860fe028a8a4","bdp_rd","Sun Apr 09 2023 16:52:05 GMT-0700 (Pacific Daylight Time)","221417","html-keyboard-response","15","57478","0.0-5.0-2.3","","5223","","<div class='trialBorder'><div class='vertical-center'><img style='vertical-align:center; align:center' src=img/fixation3.jpg></div><div class='cl'><div class='vertical-center'>$73<br>with a<br>50% chance</div></div><div class='cr'><div class='vertical-center'>$42<br>for<br>sure</div></div><div class='respDivL'><div class='vertical-center'>(E)</div></div><div class='respDivR'><div class='vertical-center'>(I)</div></div></div>","I","$42","$73","1","42","73","SURE"
"","","","offerFB","5f721a81ee2a860fe028a8a4","bdp_rd","Sun Apr 09 2023 16:52:05 GMT-0700 (Pacific Daylight Time)","221417","html-keyboard-response","16","57743","0.0-5.0-3.3","","null","","<div class='trialBorder'><div class='vertical-center'><img style='vertical-align:center; align:center' src=img/fixation3.jpg></div><div class='cl'><div class='vertical-center'>$73<br>with a<br>50% chance</div></div><div class='cr'><div class='vertical-center'><font style='color:orange'>$42<br>for<br>sure</font></div></div><div class='respDivL'><div class='vertical-center'>(E)</div></div><div class='respDivR'><div class='vertical-center'><font style='color:orange'>(I)</font></div></div></div>","null","$42","$73","1","42","73",""
"","","","FIX","5f721a81ee2a860fe028a8a4","bdp_rd","Sun Apr 09 2023 16:52:05 GMT-0700 (Pacific Daylight Time)","221417","html-keyboard-response","17","58247","0.0-5.0-1.4","","null","","<div class='trialBorder'><div class='vertical-center'><img style='vertical-align:center; align:center' src=img/fixation3.jpg></div></div>","null","","","","","",""
"","","","offer","5f721a81ee2a860fe028a8a4","bdp_rd","Sun Apr 09 2023 16:52:05 GMT-0700 (Pacific Daylight Time)","221417","html-keyboard-response","18","59365","0.0-5.0-2.4","","1118","","<div class='trialBorder'><div class='vertical-center'><img style='vertical-align:center; align:center' src=img/fixation3.jpg></div><div class='cl'><div class='vertical-center'>$34<br>for<br>sure</div></div><div class='cr'><div class='vertical-center'>$48<br>with a<br>50% chance</div></div><div class='respDivL'><div class='vertical-center'>(E)</div></div><div class='respDivR'><div class='vertical-center'>(I)</div></div></div>","E","$34","$48","0","34","48","SURE"
"","","","offerFB","5f721a81ee2a860fe028a8a4","bdp_rd","Sun Apr 09 2023 16:52:05 GMT-0700 (Pacific Daylight Time)","221417","html-keyboard-response","19","59628","0.0-5.0-3.4","","null","","<div class='trialBorder'><div class='vertical-center'><img style='vertical-align:center; align:center' src=img/fixation3.jpg></div><div class='cl'><div class='vertical-center'><font style='color:orange'>$34<br>for<br>sure</font></div></div><div class='cr'><div class='vertical-center'>$48<br>with a<br>50% chance</div></div><div class='respDivL'><div class='vertical-center'><font style='color:orange'>(E)</font></div></div><div class='respDivR'><div class='vertical-center'>(I)</div></div></div>","null","$34","$48","0","34","48",""
"","","","FIX","5f721a81ee2a860fe028a8a4","bdp_rd","Sun Apr 09 2023 16:52:05 GMT-0700 (Pacific Daylight Time)","221417","html-keyboard-response","20","60142","0.0-5.0-1.5","","null","","<div class='trialBorder'><div class='vertical-center'><img style='vertical-align:center; align:center' src=img/fixation3.jpg></div></div>","null","","","","","",""
"","","","offer","5f721a81ee2a860fe028a8a4","bdp_rd","Sun Apr 09 2023 16:52:05 GMT-0700 (Pacific Daylight Time)","221417","html-keyboard-response","21","61414","0.0-5.0-2.5","","1272","","<div class='trialBorder'><div class='vertical-center'><img style='vertical-align:center; align:center' src=img/fixation3.jpg></div><div class='cl'><div class='vertical-center'>$46<br>with a<br>50% chance</div></div><div class='cr'><div class='vertical-center'>$29<br>for<br>sure</div></div><div class='respDivL'><div class='vertical-center'>(E)</div></div><div class='respDivR'><div class='vertical-center'>(I)</div></div></div>","I","$29","$46","1","29","46","SURE"
"","","","offerFB","5f721a81ee2a860fe028a8a4","bdp_rd","Sun Apr 09 2023 16:52:05 GMT-0700 (Pacific Daylight Time)","221417","html-keyboard-response","22","61672","0.0-5.0-3.5","","null","","<div class='trialBorder'><div class='vertical-center'><img style='vertical-align:center; align:center' src=img/fixation3.jpg></div><div class='cl'><div class='vertical-center'>$46<br>with a<br>50% chance</div></div><div class='cr'><div class='vertical-center'><font style='color:orange'>$29<br>for<br>sure</font></div></div><div class='respDivL'><div class='vertical-center'>(E)</div></div><div class='respDivR'><div class='vertical-center'><font style='color:orange'>(I)</font></div></div></div>","null","$29","$46","1","29","46",""
"","","","FIX","5f721a81ee2a860fe028a8a4","bdp_rd","Sun Apr 09 2023 16:52:05 GMT-0700 (Pacific Daylight Time)","221417","html-keyboard-response","23","62174","0.0-5.0-1.6","","null","","<div class='trialBorder'><div class='vertical-center'><img style='vertical-align:center; align:center' src=img/fixation3.jpg></div></div>","null","","","","","",""
"","","","offer","5f721a81ee2a860fe028a8a4","bdp_rd","Sun Apr 09 2023 16:52:05 GMT-0700 (Pacific Daylight Time)","221417","html-keyboard-response","24","63576","0.0-5.0-2.6","","1400","","<div class='trialBorder'><div class='vertical-center'><img style='vertical-align:center; align:center' src=img/fixation3.jpg></div><div class='cl'><div class='vertical-center'>$12<br>for<br>sure</div></div><div class='cr'><div class='vertical-center'>$27<br>with a<br>50% chance</div></div><div class='respDivL'><div class='vertical-center'>(E)</div></div><div class='respDivR'><div class='vertical-center'>(I)</div></div></div>","E","$12","$27","0","12","27","SURE"
"","","","offerFB","5f721a81ee2a860fe028a8a4","bdp_rd","Sun Apr 09 2023 16:52:05 GMT-0700 (Pacific Daylight Time)","221417","html-keyboard-response","25","63844","0.0-5.0-3.6","","null","","<div class='trialBorder'><div class='vertical-center'><img style='vertical-align:center; align:center' src=img/fixation3.jpg></div><div class='cl'><div class='vertical-center'><font style='color:orange'>$12<br>for<br>sure</font></div></div><div class='cr'><div class='vertical-center'>$27<br>with a<br>50% chance</div></div><div class='respDivL'><div class='vertical-center'><font style='color:orange'>(E)</font></div></div><div class='respDivR'><div class='vertical-center'>(I)</div></div></div>","null","$12","$27","0","12","27",""
"","","","FIX","5f721a81ee2a860fe028a8a4","bdp_rd","Sun Apr 09 2023 16:52:05 GMT-0700 (Pacific Daylight Time)","221417","html-keyboard-response","26","64352","0.0-5.0-1.7","","null","","<div class='trialBorder'><div class='vertical-center'><img style='vertical-align:center; align:center' src=img/fixation3.jpg></div></div>","null","","","","","",""
"","","","offer","5f721a81ee2a860fe028a8a4","bdp_rd","Sun Apr 09 2023 16:52:05 GMT-0700 (Pacific Daylight Time)","221417","html-keyboard-response","27","66694","0.0-5.0-2.7","","2341","","<div class='trialBorder'><div class='vertical-center'><img style='vertical-align:center; align:center' src=img/fixation3.jpg></div><div class='cl'><div class='vertical-center'>$69<br>with a<br>50% chance</div></div><div class='cr'><div class='vertical-center'>$58<br>for<br>sure</div></div><div class='respDivL'><div class='vertical-center'>(E)</div></div><div class='respDivR'><div class='vertical-center'>(I)</div></div></div>","I","$58","$69","1","58","69","SURE"
"","","","offerFB","5f721a81ee2a860fe028a8a4","bdp_rd","Sun Apr 09 2023 16:52:05 GMT-0700 (Pacific Daylight Time)","221417","html-keyboard-response","28","66957","0.0-5.0-3.7","","null","","<div class='trialBorder'><div class='vertical-center'><img style='vertical-align:center; align:center' src=img/fixation3.jpg></div><div class='cl'><div class='vertical-center'>$69<br>with a<br>50% chance</div></div><div class='cr'><div class='vertical-center'><font style='color:orange'>$58<br>for<br>sure</font></div></div><div class='respDivL'><div class='vertical-center'>(E)</div></div><div class='respDivR'><div class='vertical-center'><font style='color:orange'>(I)</font></div></div></div>","null","$58","$69","1","58","69",""
"","","","FIX","5f721a81ee2a860fe028a8a4","bdp_rd","Sun Apr 09 2023 16:52:05 GMT-0700 (Pacific Daylight Time)","221417","html-keyboard-response","29","67467","0.0-5.0-1.8","","null","","<div class='trialBorder'><div class='vertical-center'><img style='vertical-align:center; align:center' src=img/fixation3.jpg></div></div>","null","","","","","",""
"","","","offer","5f721a81ee2a860fe028a8a4","bdp_rd","Sun Apr 09 2023 16:52:05 GMT-0700 (Pacific Daylight Time)","221417","html-keyboard-response","30","69366","0.0-5.0-2.8","","1898","","<div class='trialBorder'><div class='vertical-center'><img style='vertical-align:center; align:center' src=img/fixation3.jpg></div><div class='cl'><div class='vertical-center'>$65<br>with a<br>50% chance</div></div><div class='cr'><div class='vertical-center'>$46<br>for<br>sure</div></div><div class='respDivL'><div class='vertical-center'>(E)</div></div><div class='respDivR'><div class='vertical-center'>(I)</div></div></div>","I","$46","$65","1","46","65","SURE"
"","","","offerFB","5f721a81ee2a860fe028a8a4","bdp_rd","Sun Apr 09 2023 16:52:05 GMT-0700 (Pacific Daylight Time)","221417","html-keyboard-response","31","69623","0.0-5.0-3.8","","null","","<div class='trialBorder'><div class='vertical-center'><img style='vertical-align:center; align:center' src=img/fixation3.jpg></div><div class='cl'><div class='vertical-center'>$65<br>with a<br>50% chance</div></div><div class='cr'><div class='vertical-center'><font style='color:orange'>$46<br>for<br>sure</font></div></div><div class='respDivL'><div class='vertical-center'>(E)</div></div><div class='respDivR'><div class='vertical-center'><font style='color:orange'>(I)</font></div></div></div>","null","$46","$65","1","46","65",""
"","","","FIX","5f721a81ee2a860fe028a8a4","bdp_rd","Sun Apr 09 2023 16:52:05 GMT-0700 (Pacific Daylight Time)","221417","html-keyboard-response","32","70136","0.0-5.0-1.9","","null","","<div class='trialBorder'><div class='vertical-center'><img style='vertical-align:center; align:center' src=img/fixation3.jpg></div></div>","null","","","","","",""
"","","","offer","5f721a81ee2a860fe028a8a4","bdp_rd","Sun Apr 09 2023 16:52:05 GMT-0700 (Pacific Daylight Time)","221417","html-keyboard-response","33","71703","0.0-5.0-2.9","","1566","","<div class='trialBorder'><div class='vertical-center'><img style='vertical-align:center; align:center' src=img/fixation3.jpg></div><div class='cl'><div class='vertical-center'>$3<br>for<br>sure</div></div><div class='cr'><div class='vertical-center'>$12<br>with a<br>50% chance</div></div><div class='respDivL'><div class='vertical-center'>(E)</div></div><div class='respDivR'><div class='vertical-center'>(I)</div></div></div>","E","$3","$12","0","3","12","SURE"
"","","","offerFB","5f721a81ee2a860fe028a8a4","bdp_rd","Sun Apr 09 2023 16:52:05 GMT-0700 (Pacific Daylight Time)","221417","html-keyboard-response","34","71955","0.0-5.0-3.9","","null","","<div class='trialBorder'><div class='vertical-center'><img style='vertical-align:center; align:center' src=img/fixation3.jpg></div><div class='cl'><div class='vertical-center'><font style='color:orange'>$3<br>for<br>sure</font></div></div><div class='cr'><div class='vertical-center'>$12<br>with a<br>50% chance</div></div><div class='respDivL'><div class='vertical-center'><font style='color:orange'>(E)</font></div></div><div class='respDivR'><div class='vertical-center'>(I)</div></div></div>","null","$3","$12","0","3","12",""
"","","","FIX","5f721a81ee2a860fe028a8a4","bdp_rd","Sun Apr 09 2023 16:52:05 GMT-0700 (Pacific Daylight Time)","221417","html-keyboard-response","35","72457","0.0-5.0-1.10","","null","","<div class='trialBorder'><div class='vertical-center'><img style='vertical-align:center; align:center' src=img/fixation3.jpg></div></div>","null","","","","","",""
"","","","offer","5f721a81ee2a860fe028a8a4","bdp_rd","Sun Apr 09 2023 16:52:05 GMT-0700 (Pacific Daylight Time)","221417","html-keyboard-response","36","73654","0.0-5.0-2.10","","1197","","<div class='trialBorder'><div class='vertical-center'><img style='vertical-align:center; align:center' src=img/fixation3.jpg></div><div class='cl'><div class='vertical-center'>$31<br>for<br>sure</div></div><div class='cr'><div class='vertical-center'>$78<br>with a<br>50% chance</div></div><div class='respDivL'><div class='vertical-center'>(E)</div></div><div class='respDivR'><div class='vertical-center'>(I)</div></div></div>","E","$31","$78","0","31","78","SURE"
"","","","offerFB","5f721a81ee2a860fe028a8a4","bdp_rd","Sun Apr 09 2023 16:52:05 GMT-0700 (Pacific Daylight Time)","221417","html-keyboard-response","37","73919","0.0-5.0-3.10","","null","","<div class='trialBorder'><div class='vertical-center'><img style='vertical-align:center; align:center' src=img/fixation3.jpg></div><div class='cl'><div class='vertical-center'><font style='color:orange'>$31<br>for<br>sure</font></div></div><div class='cr'><div class='vertical-center'>$78<br>with a<br>50% chance</div></div><div class='respDivL'><div class='vertical-center'><font style='color:orange'>(E)</font></div></div><div class='respDivR'><div class='vertical-center'>(I)</div></div></div>","null","$31","$78","0","31","78",""
"","","","FIX","5f721a81ee2a860fe028a8a4","bdp_rd","Sun Apr 09 2023 16:52:05 GMT-0700 (Pacific Daylight Time)","221417","html-keyboard-response","38","74434","0.0-5.0-1.11","","null","","<div class='trialBorder'><div class='vertical-center'><img style='vertical-align:center; align:center' src=img/fixation3.jpg></div></div>","null","","","","","",""
"","","","offer","5f721a81ee2a860fe028a8a4","bdp_rd","Sun Apr 09 2023 16:52:05 GMT-0700 (Pacific Daylight Time)","221417","html-keyboard-response","39","81223","0.0-5.0-2.11","","6788","","<div class='trialBorder'><div class='vertical-center'><img style='vertical-align:center; align:center' src=img/fixation3.jpg></div><div class='cl'><div class='vertical-center'>$6<br>for<br>sure</div></div><div class='cr'><div class='vertical-center'>$13<br>with a<br>50% chance</div></div><div class='respDivL'><div class='vertical-center'>(E)</div></div><div class='respDivR'><div class='vertical-center'>(I)</div></div></div>","E","$6","$13","0","6","13","SURE"
"","","","offerFB","5f721a81ee2a860fe028a8a4","bdp_rd","Sun Apr 09 2023 16:52:05 GMT-0700 (Pacific Daylight Time)","221417","html-keyboard-response","40","81477","0.0-5.0-3.11","","null","","<div class='trialBorder'><div class='vertical-center'><img style='vertical-align:center; align:center' src=img/fixation3.jpg></div><div class='cl'><div class='vertical-center'><font style='color:orange'>$6<br>for<br>sure</font></div></div><div class='cr'><div class='vertical-center'>$13<br>with a<br>50% chance</div></div><div class='respDivL'><div class='vertical-center'><font style='color:orange'>(E)</font></div></div><div class='respDivR'><div class='vertical-center'>(I)</div></div></div>","null","$6","$13","0","6","13",""
"","","","FIX","5f721a81ee2a860fe028a8a4","bdp_rd","Sun Apr 09 2023 16:52:05 GMT-0700 (Pacific Daylight Time)","221417","html-keyboard-response","41","81983","0.0-5.0-1.12","","null","","<div class='trialBorder'><div class='vertical-center'><img style='vertical-align:center; align:center' src=img/fixation3.jpg></div></div>","null","","","","","",""
"","","","offer","5f721a81ee2a860fe028a8a4","bdp_rd","Sun Apr 09 2023 16:52:05 GMT-0700 (Pacific Daylight Time)","221417","html-keyboard-response","42","82982","0.0-5.0-2.12","","999","","<div class='trialBorder'><div class='vertical-center'><img style='vertical-align:center; align:center' src=img/fixation3.jpg></div><div class='cl'><div class='vertical-center'>$21<br>for<br>sure</div></div><div class='cr'><div class='vertical-center'>$25<br>with a<br>50% chance</div></div><div class='respDivL'><div class='vertical-center'>(E)</div></div><div class='respDivR'><div class='vertical-center'>(I)</div></div></div>","E","$21","$25","0","21","25","SURE"
"","","","offerFB","5f721a81ee2a860fe028a8a4","bdp_rd","Sun Apr 09 2023 16:52:05 GMT-0700 (Pacific Daylight Time)","221417","html-keyboard-response","43","83237","0.0-5.0-3.12","","null","","<div class='trialBorder'><div class='vertical-center'><img style='vertical-align:center; align:center' src=img/fixation3.jpg></div><div class='cl'><div class='vertical-center'><font style='color:orange'>$21<br>for<br>sure</font></div></div><div class='cr'><div class='vertical-center'>$25<br>with a<br>50% chance</div></div><div class='respDivL'><div class='vertical-center'><font style='color:orange'>(E)</font></div></div><div class='respDivR'><div class='vertical-center'>(I)</div></div></div>","null","$21","$25","0","21","25",""
"","","","FIX","5f721a81ee2a860fe028a8a4","bdp_rd","Sun Apr 09 2023 16:52:05 GMT-0700 (Pacific Daylight Time)","221417","html-keyboard-response","44","83741","0.0-5.0-1.13","","null","","<div class='trialBorder'><div class='vertical-center'><img style='vertical-align:center; align:center' src=img/fixation3.jpg></div></div>","null","","","","","",""
"","","","offer","5f721a81ee2a860fe028a8a4","bdp_rd","Sun Apr 09 2023 16:52:05 GMT-0700 (Pacific Daylight Time)","221417","html-keyboard-response","45","84901","0.0-5.0-2.13","","1160","","<div class='trialBorder'><div class='vertical-center'><img style='vertical-align:center; align:center' src=img/fixation3.jpg></div><div class='cl'><div class='vertical-center'>$28<br>with a<br>50% chance</div></div><div class='cr'><div class='vertical-center'>$16<br>for<br>sure</div></div><div class='respDivL'><div class='vertical-center'>(E)</div></div><div class='respDivR'><div class='vertical-center'>(I)</div></div></div>","I","$16","$28","1","16","28","SURE"
"","","","offerFB","5f721a81ee2a860fe028a8a4","bdp_rd","Sun Apr 09 2023 16:52:05 GMT-0700 (Pacific Daylight Time)","221417","html-keyboard-response","46","85163","0.0-5.0-3.13","","null","","<div class='trialBorder'><div class='vertical-center'><img style='vertical-align:center; align:center' src=img/fixation3.jpg></div><div class='cl'><div class='vertical-center'>$28<br>with a<br>50% chance</div></div><div class='cr'><div class='vertical-center'><font style='color:orange'>$16<br>for<br>sure</font></div></div><div class='respDivL'><div class='vertical-center'>(E)</div></div><div class='respDivR'><div class='vertical-center'><font style='color:orange'>(I)</font></div></div></div>","null","$16","$28","1","16","28",""
"","","","FIX","5f721a81ee2a860fe028a8a4","bdp_rd","Sun Apr 09 2023 16:52:05 GMT-0700 (Pacific Daylight Time)","221417","html-keyboard-response","47","85674","0.0-5.0-1.14","","null","","<div class='trialBorder'><div class='vertical-center'><img style='vertical-align:center; align:center' src=img/fixation3.jpg></div></div>","null","","","","","",""
"","","","offer","5f721a81ee2a860fe028a8a4","bdp_rd","Sun Apr 09 2023 16:52:05 GMT-0700 (Pacific Daylight Time)","221417","html-keyboard-response","48","87334","0.0-5.0-2.14","","1659","","<div class='trialBorder'><div class='vertical-center'><img style='vertical-align:center; align:center' src=img/fixation3.jpg></div><div class='cl'><div class='vertical-center'>$40<br>with a<br>50% chance</div></div><div class='cr'><div class='vertical-center'>$10<br>for<br>sure</div></div><div class='respDivL'><div class='vertical-center'>(E)</div></div><div class='respDivR'><div class='vertical-center'>(I)</div></div></div>","I","$10","$40","1","10","40","SURE"
"","","","offerFB","5f721a81ee2a860fe028a8a4","bdp_rd","Sun Apr 09 2023 16:52:05 GMT-0700 (Pacific Daylight Time)","221417","html-keyboard-response","49","87591","0.0-5.0-3.14","","null","","<div class='trialBorder'><div class='vertical-center'><img style='vertical-align:center; align:center' src=img/fixation3.jpg></div><div class='cl'><div class='vertical-center'>$40<br>with a<br>50% chance</div></div><div class='cr'><div class='vertical-center'><font style='color:orange'>$10<br>for<br>sure</font></div></div><div class='respDivL'><div class='vertical-center'>(E)</div></div><div class='respDivR'><div class='vertical-center'><font style='color:orange'>(I)</font></div></div></div>","null","$10","$40","1","10","40",""
"","","","FIX","5f721a81ee2a860fe028a8a4","bdp_rd","Sun Apr 09 2023 16:52:05 GMT-0700 (Pacific Daylight Time)","221417","html-keyboard-response","50","88094","0.0-5.0-1.15","","null","","<div class='trialBorder'><div class='vertical-center'><img style='vertical-align:center; align:center' src=img/fixation3.jpg></div></div>","null","","","","","",""
"","","","offer","5f721a81ee2a860fe028a8a4","bdp_rd","Sun Apr 09 2023 16:52:05 GMT-0700 (Pacific Daylight Time)","221417","html-keyboard-response","51","90006","0.0-5.0-2.15","","1911","","<div class='trialBorder'><div class='vertical-center'><img style='vertical-align:center; align:center' src=img/fixation3.jpg></div><div class='cl'><div class='vertical-center'>$22<br>for<br>sure</div></div><div class='cr'><div class='vertical-center'>$59<br>with a<br>50% chance</div></div><div class='respDivL'><div class='vertical-center'>(E)</div></div><div class='respDivR'><div class='vertical-center'>(I)</div></div></div>","E","$22","$59","0","22","59","SURE"
"","","","offerFB","5f721a81ee2a860fe028a8a4","bdp_rd","Sun Apr 09 2023 16:52:05 GMT-0700 (Pacific Daylight Time)","221417","html-keyboard-response","52","90269","0.0-5.0-3.15","","null","","<div class='trialBorder'><div class='vertical-center'><img style='vertical-align:center; align:center' src=img/fixation3.jpg></div><div class='cl'><div class='vertical-center'><font style='color:orange'>$22<br>for<br>sure</font></div></div><div class='cr'><div class='vertical-center'>$59<br>with a<br>50% chance</div></div><div class='respDivL'><div class='vertical-center'><font style='color:orange'>(E)</font></div></div><div class='respDivR'><div class='vertical-center'>(I)</div></div></div>","null","$22","$59","0","22","59",""
"","","","FIX","5f721a81ee2a860fe028a8a4","bdp_rd","Sun Apr 09 2023 16:52:05 GMT-0700 (Pacific Daylight Time)","221417","html-keyboard-response","53","90784","0.0-5.0-1.16","","null","","<div class='trialBorder'><div class='vertical-center'><img style='vertical-align:center; align:center' src=img/fixation3.jpg></div></div>","null","","","","","",""
"","","","offer","5f721a81ee2a860fe028a8a4","bdp_rd","Sun Apr 09 2023 16:52:05 GMT-0700 (Pacific Daylight Time)","221417","html-keyboard-response","54","92966","0.0-5.0-2.16","","2182","","<div class='trialBorder'><div class='vertical-center'><img style='vertical-align:center; align:center' src=img/fixation3.jpg></div><div class='cl'><div class='vertical-center'>$36<br>with a<br>50% chance</div></div><div class='cr'><div class='vertical-center'>$18<br>for<br>sure</div></div><div class='respDivL'><div class='vertical-center'>(E)</div></div><div class='respDivR'><div class='vertical-center'>(I)</div></div></div>","I","$18","$36","1","18","36","SURE"
"","","","offerFB","5f721a81ee2a860fe028a8a4","bdp_rd","Sun Apr 09 2023 16:52:05 GMT-0700 (Pacific Daylight Time)","221417","html-keyboard-response","55","93224","0.0-5.0-3.16","","null","","<div class='trialBorder'><div class='vertical-center'><img style='vertical-align:center; align:center' src=img/fixation3.jpg></div><div class='cl'><div class='vertical-center'>$36<br>with a<br>50% chance</div></div><div class='cr'><div class='vertical-center'><font style='color:orange'>$18<br>for<br>sure</font></div></div><div class='respDivL'><div class='vertical-center'>(E)</div></div><div class='respDivR'><div class='vertical-center'><font style='color:orange'>(I)</font></div></div></div>","null","$18","$36","1","18","36",""
"","","","FIX","5f721a81ee2a860fe028a8a4","bdp_rd","Sun Apr 09 2023 16:52:05 GMT-0700 (Pacific Daylight Time)","221417","html-keyboard-response","56","93724","0.0-5.0-1.17","","null","","<div class='trialBorder'><div class='vertical-center'><img style='vertical-align:center; align:center' src=img/fixation3.jpg></div></div>","null","","","","","",""
"","","","offer","5f721a81ee2a860fe028a8a4","bdp_rd","Sun Apr 09 2023 16:52:05 GMT-0700 (Pacific Daylight Time)","221417","html-keyboard-response","57","94789","0.0-5.0-2.17","","1065","","<div class='trialBorder'><div class='vertical-center'><img style='vertical-align:center; align:center' src=img/fixation3.jpg></div><div class='cl'><div class='vertical-center'>$22<br>for<br>sure</div></div><div class='cr'><div class='vertical-center'>$42<br>with a<br>50% chance</div></div><div class='respDivL'><div class='vertical-center'>(E)</div></div><div class='respDivR'><div class='vertical-center'>(I)</div></div></div>","E","$22","$42","0","22","42","SURE"
"","","","offerFB","5f721a81ee2a860fe028a8a4","bdp_rd","Sun Apr 09 2023 16:52:05 GMT-0700 (Pacific Daylight Time)","221417","html-keyboard-response","58","95050","0.0-5.0-3.17","","null","","<div class='trialBorder'><div class='vertical-center'><img style='vertical-align:center; align:center' src=img/fixation3.jpg></div><div class='cl'><div class='vertical-center'><font style='color:orange'>$22<br>for<br>sure</font></div></div><div class='cr'><div class='vertical-center'>$42<br>with a<br>50% chance</div></div><div class='respDivL'><div class='vertical-center'><font style='color:orange'>(E)</font></div></div><div class='respDivR'><div class='vertical-center'>(I)</div></div></div>","null","$22","$42","0","22","42",""
"","","","FIX","5f721a81ee2a860fe028a8a4","bdp_rd","Sun Apr 09 2023 16:52:05 GMT-0700 (Pacific Daylight Time)","221417","html-keyboard-response","59","95555","0.0-5.0-1.18","","null","","<div class='trialBorder'><div class='vertical-center'><img style='vertical-align:center; align:center' src=img/fixation3.jpg></div></div>","null","","","","","",""
"","","","offer","5f721a81ee2a860fe028a8a4","bdp_rd","Sun Apr 09 2023 16:52:05 GMT-0700 (Pacific Daylight Time)","221417","html-keyboard-response","60","96710","0.0-5.0-2.18","","1155","","<div class='trialBorder'><div class='vertical-center'><img style='vertical-align:center; align:center' src=img/fixation3.jpg></div><div class='cl'><div class='vertical-center'>$4<br>for<br>sure</div></div><div class='cr'><div class='vertical-center'>$11<br>with a<br>50% chance</div></div><div class='respDivL'><div class='vertical-center'>(E)</div></div><div class='respDivR'><div class='vertical-center'>(I)</div></div></div>","E","$4","$11","0","4","11","SURE"
"","","","offerFB","5f721a81ee2a860fe028a8a4","bdp_rd","Sun Apr 09 2023 16:52:05 GMT-0700 (Pacific Daylight Time)","221417","html-keyboard-response","61","96968","0.0-5.0-3.18","","null","","<div class='trialBorder'><div class='vertical-center'><img style='vertical-align:center; align:center' src=img/fixation3.jpg></div><div class='cl'><div class='vertical-center'><font style='color:orange'>$4<br>for<br>sure</font></div></div><div class='cr'><div class='vertical-center'>$11<br>with a<br>50% chance</div></div><div class='respDivL'><div class='vertical-center'><font style='color:orange'>(E)</font></div></div><div class='respDivR'><div class='vertical-center'>(I)</div></div></div>","null","$4","$11","0","4","11",""
"","","","FIX","5f721a81ee2a860fe028a8a4","bdp_rd","Sun Apr 09 2023 16:52:05 GMT-0700 (Pacific Daylight Time)","221417","html-keyboard-response","62","97481","0.0-5.0-1.19","","null","","<div class='trialBorder'><div class='vertical-center'><img style='vertical-align:center; align:center' src=img/fixation3.jpg></div></div>","null","","","","","",""
"","","","offer","5f721a81ee2a860fe028a8a4","bdp_rd","Sun Apr 09 2023 16:52:05 GMT-0700 (Pacific Daylight Time)","221417","html-keyboard-response","63","99654","0.0-5.0-2.19","","2173","","<div class='trialBorder'><div class='vertical-center'><img style='vertical-align:center; align:center' src=img/fixation3.jpg></div><div class='cl'><div class='vertical-center'>$100<br>with a<br>50% chance</div></div><div class='cr'><div class='vertical-center'>$63<br>for<br>sure</div></div><div class='respDivL'><div class='vertical-center'>(E)</div></div><div class='respDivR'><div class='vertical-center'>(I)</div></div></div>","I","$63","$100","1","63","10","SURE"
"","","","offerFB","5f721a81ee2a860fe028a8a4","bdp_rd","Sun Apr 09 2023 16:52:05 GMT-0700 (Pacific Daylight Time)","221417","html-keyboard-response","64","99911","0.0-5.0-3.19","","null","","<div class='trialBorder'><div class='vertical-center'><img style='vertical-align:center; align:center' src=img/fixation3.jpg></div><div class='cl'><div class='vertical-center'>$100<br>with a<br>50% chance</div></div><div class='cr'><div class='vertical-center'><font style='color:orange'>$63<br>for<br>sure</font></div></div><div class='respDivL'><div class='vertical-center'>(E)</div></div><div class='respDivR'><div class='vertical-center'><font style='color:orange'>(I)</font></div></div></div>","null","$63","$100","1","63","10",""
"","","","FIX","5f721a81ee2a860fe028a8a4","bdp_rd","Sun Apr 09 2023 16:52:05 GMT-0700 (Pacific Daylight Time)","221417","html-keyboard-response","65","100425","0.0-5.0-1.20","","null","","<div class='trialBorder'><div class='vertical-center'><img style='vertical-align:center; align:center' src=img/fixation3.jpg></div></div>","null","","","","","",""
"","","","offer","5f721a81ee2a860fe028a8a4","bdp_rd","Sun Apr 09 2023 16:52:05 GMT-0700 (Pacific Daylight Time)","221417","html-keyboard-response","66","101494","0.0-5.0-2.20","","1068","","<div class='trialBorder'><div class='vertical-center'><img style='vertical-align:center; align:center' src=img/fixation3.jpg></div><div class='cl'><div class='vertical-center'>$30<br>for<br>sure</div></div><div class='cr'><div class='vertical-center'>$68<br>with a<br>50% chance</div></div><div class='respDivL'><div class='vertical-center'>(E)</div></div><div class='respDivR'><div class='vertical-center'>(I)</div></div></div>","E","$30","$68","0","30","68","SURE"
"","","","offerFB","5f721a81ee2a860fe028a8a4","bdp_rd","Sun Apr 09 2023 16:52:05 GMT-0700 (Pacific Daylight Time)","221417","html-keyboard-response","67","101746","0.0-5.0-3.20","","null","","<div class='trialBorder'><div class='vertical-center'><img style='vertical-align:center; align:center' src=img/fixation3.jpg></div><div class='cl'><div class='vertical-center'><font style='color:orange'>$30<br>for<br>sure</font></div></div><div class='cr'><div class='vertical-center'>$68<br>with a<br>50% chance</div></div><div class='respDivL'><div class='vertical-center'><font style='color:orange'>(E)</font></div></div><div class='respDivR'><div class='vertical-center'>(I)</div></div></div>","null","$30","$68","0","30","68",""
"","","","FIX","5f721a81ee2a860fe028a8a4","bdp_rd","Sun Apr 09 2023 16:52:05 GMT-0700 (Pacific Daylight Time)","221417","html-keyboard-response","68","102247","0.0-5.0-1.21","","null","","<div class='trialBorder'><div class='vertical-center'><img style='vertical-align:center; align:center' src=img/fixation3.jpg></div></div>","null","","","","","",""
"","","","offer","5f721a81ee2a860fe028a8a4","bdp_rd","Sun Apr 09 2023 16:52:05 GMT-0700 (Pacific Daylight Time)","221417","html-keyboard-response","69","104038","0.0-5.0-2.21","","1791","","<div class='trialBorder'><div class='vertical-center'><img style='vertical-align:center; align:center' src=img/fixation3.jpg></div><div class='cl'><div class='vertical-center'>$17<br>with a<br>50% chance</div></div><div class='cr'><div class='vertical-center'>$3<br>for<br>sure</div></div><div class='respDivL'><div class='vertical-center'>(E)</div></div><div class='respDivR'><div class='vertical-center'>(I)</div></div></div>","I","$3","$17","1","3","17","SURE"
"","","","offerFB","5f721a81ee2a860fe028a8a4","bdp_rd","Sun Apr 09 2023 16:52:05 GMT-0700 (Pacific Daylight Time)","221417","html-keyboard-response","70","104300","0.0-5.0-3.21","","null","","<div class='trialBorder'><div class='vertical-center'><img style='vertical-align:center; align:center' src=img/fixation3.jpg></div><div class='cl'><div class='vertical-center'>$17<br>with a<br>50% chance</div></div><div class='cr'><div class='vertical-center'><font style='color:orange'>$3<br>for<br>sure</font></div></div><div class='respDivL'><div class='vertical-center'>(E)</div></div><div class='respDivR'><div class='vertical-center'><font style='color:orange'>(I)</font></div></div></div>","null","$3","$17","1","3","17",""
"","","","FIX","5f721a81ee2a860fe028a8a4","bdp_rd","Sun Apr 09 2023 16:52:05 GMT-0700 (Pacific Daylight Time)","221417","html-keyboard-response","71","104816","0.0-5.0-1.22","","null","","<div class='trialBorder'><div class='vertical-center'><img style='vertical-align:center; align:center' src=img/fixation3.jpg></div></div>","null","","","","","",""
"","","","offer","5f721a81ee2a860fe028a8a4","bdp_rd","Sun Apr 09 2023 16:52:05 GMT-0700 (Pacific Daylight Time)","221417","html-keyboard-response","72","107318","0.0-5.0-2.22","","2501","","<div class='trialBorder'><div class='vertical-center'><img style='vertical-align:center; align:center' src=img/fixation3.jpg></div><div class='cl'><div class='vertical-center'>$27<br>for<br>sure</div></div><div class='cr'><div class='vertical-center'>$47<br>with a<br>50% chance</div></div><div class='respDivL'><div class='vertical-center'>(E)</div></div><div class='respDivR'><div class='vertical-center'>(I)</div></div></div>","E","$27","$47","0","27","47","SURE"
"","","","offerFB","5f721a81ee2a860fe028a8a4","bdp_rd","Sun Apr 09 2023 16:52:05 GMT-0700 (Pacific Daylight Time)","221417","html-keyboard-response","73","107583","0.0-5.0-3.22","","null","","<div class='trialBorder'><div class='vertical-center'><img style='vertical-align:center; align:center' src=img/fixation3.jpg></div><div class='cl'><div class='vertical-center'><font style='color:orange'>$27<br>for<br>sure</font></div></div><div class='cr'><div class='vertical-center'>$47<br>with a<br>50% chance</div></div><div class='respDivL'><div class='vertical-center'><font style='color:orange'>(E)</font></div></div><div class='respDivR'><div class='vertical-center'>(I)</div></div></div>","null","$27","$47","0","27","47",""
"","","","FIX","5f721a81ee2a860fe028a8a4","bdp_rd","Sun Apr 09 2023 16:52:05 GMT-0700 (Pacific Daylight Time)","221417","html-keyboard-response","74","108098","0.0-5.0-1.23","","null","","<div class='trialBorder'><div class='vertical-center'><img style='vertical-align:center; align:center' src=img/fixation3.jpg></div></div>","null","","","","","",""
"","","","offer","5f721a81ee2a860fe028a8a4","bdp_rd","Sun Apr 09 2023 16:52:05 GMT-0700 (Pacific Daylight Time)","221417","html-keyboard-response","75","109989","0.0-5.0-2.23","","1891","","<div class='trialBorder'><div class='vertical-center'><img style='vertical-align:center; align:center' src=img/fixation3.jpg></div><div class='cl'><div class='vertical-center'>$11<br>for<br>sure</div></div><div class='cr'><div class='vertical-center'>$26<br>with a<br>50% chance</div></div><div class='respDivL'><div class='vertical-center'>(E)</div></div><div class='respDivR'><div class='vertical-center'>(I)</div></div></div>","E","$11","$26","0","11","26","SURE"
"","","","offerFB","5f721a81ee2a860fe028a8a4","bdp_rd","Sun Apr 09 2023 16:52:05 GMT-0700 (Pacific Daylight Time)","221417","html-keyboard-response","76","110248","0.0-5.0-3.23","","null","","<div class='trialBorder'><div class='vertical-center'><img style='vertical-align:center; align:center' src=img/fixation3.jpg></div><div class='cl'><div class='vertical-center'><font style='color:orange'>$11<br>for<br>sure</font></div></div><div class='cr'><div class='vertical-center'>$26<br>with a<br>50% chance</div></div><div class='respDivL'><div class='vertical-center'><font style='color:orange'>(E)</font></div></div><div class='respDivR'><div class='vertical-center'>(I)</div></div></div>","null","$11","$26","0","11","26",""
"","","","FIX","5f721a81ee2a860fe028a8a4","bdp_rd","Sun Apr 09 2023 16:52:05 GMT-0700 (Pacific Daylight Time)","221417","html-keyboard-response","77","110761","0.0-5.0-1.24","","null","","<div class='trialBorder'><div class='vertical-center'><img style='vertical-align:center; align:center' src=img/fixation3.jpg></div></div>","null","","","","","",""
"","","","offer","5f721a81ee2a860fe028a8a4","bdp_rd","Sun Apr 09 2023 16:52:05 GMT-0700 (Pacific Daylight Time)","221417","html-keyboard-response","78","112374","0.0-5.0-2.24","","1613","","<div class='trialBorder'><div class='vertical-center'><img style='vertical-align:center; align:center' src=img/fixation3.jpg></div><div class='cl'><div class='vertical-center'>$20<br>for<br>sure</div></div><div class='cr'><div class='vertical-center'>$80<br>with a<br>50% chance</div></div><div class='respDivL'><div class='vertical-center'>(E)</div></div><div class='respDivR'><div class='vertical-center'>(I)</div></div></div>","E","$20","$80","0","20","80","SURE"
"","","","offerFB","5f721a81ee2a860fe028a8a4","bdp_rd","Sun Apr 09 2023 16:52:05 GMT-0700 (Pacific Daylight Time)","221417","html-keyboard-response","79","112632","0.0-5.0-3.24","","null","","<div class='trialBorder'><div class='vertical-center'><img style='vertical-align:center; align:center' src=img/fixation3.jpg></div><div class='cl'><div class='vertical-center'><font style='color:orange'>$20<br>for<br>sure</font></div></div><div class='cr'><div class='vertical-center'>$80<br>with a<br>50% chance</div></div><div class='respDivL'><div class='vertical-center'><font style='color:orange'>(E)</font></div></div><div class='respDivR'><div class='vertical-center'>(I)</div></div></div>","null","$20","$80","0","20","80",""
"","","","FIX","5f721a81ee2a860fe028a8a4","bdp_rd","Sun Apr 09 2023 16:52:05 GMT-0700 (Pacific Daylight Time)","221417","html-keyboard-response","80","113133","0.0-5.0-1.25","","null","","<div class='trialBorder'><div class='vertical-center'><img style='vertical-align:center; align:center' src=img/fixation3.jpg></div></div>","null","","","","","",""
"","","","offer","5f721a81ee2a860fe028a8a4","bdp_rd","Sun Apr 09 2023 16:52:05 GMT-0700 (Pacific Daylight Time)","221417","html-keyboard-response","81","114326","0.0-5.0-2.25","","1192","","<div class='trialBorder'><div class='vertical-center'><img style='vertical-align:center; align:center' src=img/fixation3.jpg></div><div class='cl'><div class='vertical-center'>$35<br>with a<br>50% chance</div></div><div class='cr'><div class='vertical-center'>$12<br>for<br>sure</div></div><div class='respDivL'><div class='vertical-center'>(E)</div></div><div class='respDivR'><div class='vertical-center'>(I)</div></div></div>","I","$12","$35","1","12","35","SURE"
"","","","offerFB","5f721a81ee2a860fe028a8a4","bdp_rd","Sun Apr 09 2023 16:52:05 GMT-0700 (Pacific Daylight Time)","221417","html-keyboard-response","82","114587","0.0-5.0-3.25","","null","","<div class='trialBorder'><div class='vertical-center'><img style='vertical-align:center; align:center' src=img/fixation3.jpg></div><div class='cl'><div class='vertical-center'>$35<br>with a<br>50% chance</div></div><div class='cr'><div class='vertical-center'><font style='color:orange'>$12<br>for<br>sure</font></div></div><div class='respDivL'><div class='vertical-center'>(E)</div></div><div class='respDivR'><div class='vertical-center'><font style='color:orange'>(I)</font></div></div></div>","null","$12","$35","1","12","35",""
"","","","FIX","5f721a81ee2a860fe028a8a4","bdp_rd","Sun Apr 09 2023 16:52:05 GMT-0700 (Pacific Daylight Time)","221417","html-keyboard-response","83","115100","0.0-5.0-1.26","","null","","<div class='trialBorder'><div class='vertical-center'><img style='vertical-align:center; align:center' src=img/fixation3.jpg></div></div>","null","","","","","",""
"","","","offer","5f721a81ee2a860fe028a8a4","bdp_rd","Sun Apr 09 2023 16:52:05 GMT-0700 (Pacific Daylight Time)","221417","html-keyboard-response","84","116214","0.0-5.0-2.26","","1112","","<div class='trialBorder'><div class='vertical-center'><img style='vertical-align:center; align:center' src=img/fixation3.jpg></div><div class='cl'><div class='vertical-center'>$32<br>with a<br>50% chance</div></div><div class='cr'><div class='vertical-center'>$9<br>for<br>sure</div></div><div class='respDivL'><div class='vertical-center'>(E)</div></div><div class='respDivR'><div class='vertical-center'>(I)</div></div></div>","I","$9","$32","1","9","32","SURE"
"","","","offerFB","5f721a81ee2a860fe028a8a4","bdp_rd","Sun Apr 09 2023 16:52:05 GMT-0700 (Pacific Daylight Time)","221417","html-keyboard-response","85","116476","0.0-5.0-3.26","","null","","<div class='trialBorder'><div class='vertical-center'><img style='vertical-align:center; align:center' src=img/fixation3.jpg></div><div class='cl'><div class='vertical-center'>$32<br>with a<br>50% chance</div></div><div class='cr'><div class='vertical-center'><font style='color:orange'>$9<br>for<br>sure</font></div></div><div class='respDivL'><div class='vertical-center'>(E)</div></div><div class='respDivR'><div class='vertical-center'><font style='color:orange'>(I)</font></div></div></div>","null","$9","$32","1","9","32",""
"","","","FIX","5f721a81ee2a860fe028a8a4","bdp_rd","Sun Apr 09 2023 16:52:05 GMT-0700 (Pacific Daylight Time)","221417","html-keyboard-response","86","116978","0.0-5.0-1.27","","null","","<div class='trialBorder'><div class='vertical-center'><img style='vertical-align:center; align:center' src=img/fixation3.jpg></div></div>","null","","","","","",""
"","","","offer","5f721a81ee2a860fe028a8a4","bdp_rd","Sun Apr 09 2023 16:52:05 GMT-0700 (Pacific Daylight Time)","221417","html-keyboard-response","87","117702","0.0-5.0-2.27","","724","","<div class='trialBorder'><div class='vertical-center'><img style='vertical-align:center; align:center' src=img/fixation3.jpg></div><div class='cl'><div class='vertical-center'>$2<br>for<br>sure</div></div><div class='cr'><div class='vertical-center'>$64<br>with a<br>50% chance</div></div><div class='respDivL'><div class='vertical-center'>(E)</div></div><div class='respDivR'><div class='vertical-center'>(I)</div></div></div>","E","$2","$64","0","2","64","SURE"
"","","","offerFB","5f721a81ee2a860fe028a8a4","bdp_rd","Sun Apr 09 2023 16:52:05 GMT-0700 (Pacific Daylight Time)","221417","html-keyboard-response","88","117958","0.0-5.0-3.27","","null","","<div class='trialBorder'><div class='vertical-center'><img style='vertical-align:center; align:center' src=img/fixation3.jpg></div><div class='cl'><div class='vertical-center'><font style='color:orange'>$2<br>for<br>sure</font></div></div><div class='cr'><div class='vertical-center'>$64<br>with a<br>50% chance</div></div><div class='respDivL'><div class='vertical-center'><font style='color:orange'>(E)</font></div></div><div class='respDivR'><div class='vertical-center'>(I)</div></div></div>","null","$2","$64","0","2","64",""
"","","","FIX","5f721a81ee2a860fe028a8a4","bdp_rd","Sun Apr 09 2023 16:52:05 GMT-0700 (Pacific Daylight Time)","221417","html-keyboard-response","89","118463","0.0-5.0-1.28","","null","","<div class='trialBorder'><div class='vertical-center'><img style='vertical-align:center; align:center' src=img/fixation3.jpg></div></div>","null","","","","","",""
"","","","offer","5f721a81ee2a860fe028a8a4","bdp_rd","Sun Apr 09 2023 16:52:05 GMT-0700 (Pacific Daylight Time)","221417","html-keyboard-response","90","119446","0.0-5.0-2.28","","983","","<div class='trialBorder'><div class='vertical-center'><img style='vertical-align:center; align:center' src=img/fixation3.jpg></div><div class='cl'><div class='vertical-center'>$8<br>for<br>sure</div></div><div class='cr'><div class='vertical-center'>$23<br>with a<br>50% chance</div></div><div class='respDivL'><div class='vertical-center'>(E)</div></div><div class='respDivR'><div class='vertical-center'>(I)</div></div></div>","E","$8","$23","0","8","23","SURE"
"","","","offerFB","5f721a81ee2a860fe028a8a4","bdp_rd","Sun Apr 09 2023 16:52:05 GMT-0700 (Pacific Daylight Time)","221417","html-keyboard-response","91","119709","0.0-5.0-3.28","","null","","<div class='trialBorder'><div class='vertical-center'><img style='vertical-align:center; align:center' src=img/fixation3.jpg></div><div class='cl'><div class='vertical-center'><font style='color:orange'>$8<br>for<br>sure</font></div></div><div class='cr'><div class='vertical-center'>$23<br>with a<br>50% chance</div></div><div class='respDivL'><div class='vertical-center'><font style='color:orange'>(E)</font></div></div><div class='respDivR'><div class='vertical-center'>(I)</div></div></div>","null","$8","$23","0","8","23",""
"","","","FIX","5f721a81ee2a860fe028a8a4","bdp_rd","Sun Apr 09 2023 16:52:05 GMT-0700 (Pacific Daylight Time)","221417","html-keyboard-response","92","120211","0.0-5.0-1.29","","null","","<div class='trialBorder'><div class='vertical-center'><img style='vertical-align:center; align:center' src=img/fixation3.jpg></div></div>","null","","","","","",""
"","","","offer","5f721a81ee2a860fe028a8a4","bdp_rd","Sun Apr 09 2023 16:52:05 GMT-0700 (Pacific Daylight Time)","221417","html-keyboard-response","93","121349","0.0-5.0-2.29","","1138","","<div class='trialBorder'><div class='vertical-center'><img style='vertical-align:center; align:center' src=img/fixation3.jpg></div><div class='cl'><div class='vertical-center'>$5<br>for<br>sure</div></div><div class='cr'><div class='vertical-center'>$16<br>with a<br>50% chance</div></div><div class='respDivL'><div class='vertical-center'>(E)</div></div><div class='respDivR'><div class='vertical-center'>(I)</div></div></div>","E","$5","$16","0","5","16","SURE"
"","","","offerFB","5f721a81ee2a860fe028a8a4","bdp_rd","Sun Apr 09 2023 16:52:05 GMT-0700 (Pacific Daylight Time)","221417","html-keyboard-response","94","121611","0.0-5.0-3.29","","null","","<div class='trialBorder'><div class='vertical-center'><img style='vertical-align:center; align:center' src=img/fixation3.jpg></div><div class='cl'><div class='vertical-center'><font style='color:orange'>$5<br>for<br>sure</font></div></div><div class='cr'><div class='vertical-center'>$16<br>with a<br>50% chance</div></div><div class='respDivL'><div class='vertical-center'><font style='color:orange'>(E)</font></div></div><div class='respDivR'><div class='vertical-center'>(I)</div></div></div>","null","$5","$16","0","5","16",""
"","","","FIX","5f721a81ee2a860fe028a8a4","bdp_rd","Sun Apr 09 2023 16:52:05 GMT-0700 (Pacific Daylight Time)","221417","html-keyboard-response","95","122118","0.0-5.0-1.30","","null","","<div class='trialBorder'><div class='vertical-center'><img style='vertical-align:center; align:center' src=img/fixation3.jpg></div></div>","null","","","","","",""
"","","","offer","5f721a81ee2a860fe028a8a4","bdp_rd","Sun Apr 09 2023 16:52:05 GMT-0700 (Pacific Daylight Time)","221417","html-keyboard-response","96","126101","0.0-5.0-2.30","","3982","","<div class='trialBorder'><div class='vertical-center'><img style='vertical-align:center; align:center' src=img/fixation3.jpg></div><div class='cl'><div class='vertical-center'>$95<br>with a<br>50% chance</div></div><div class='cr'><div class='vertical-center'>$40<br>for<br>sure</div></div><div class='respDivL'><div class='vertical-center'>(E)</div></div><div class='respDivR'><div class='vertical-center'>(I)</div></div></div>","I","$40","$95","1","40","95","SURE"
"","","","offerFB","5f721a81ee2a860fe028a8a4","bdp_rd","Sun Apr 09 2023 16:52:05 GMT-0700 (Pacific Daylight Time)","221417","html-keyboard-response","97","126357","0.0-5.0-3.30","","null","","<div class='trialBorder'><div class='vertical-center'><img style='vertical-align:center; align:center' src=img/fixation3.jpg></div><div class='cl'><div class='vertical-center'>$95<br>with a<br>50% chance</div></div><div class='cr'><div class='vertical-center'><font style='color:orange'>$40<br>for<br>sure</font></div></div><div class='respDivL'><div class='vertical-center'>(E)</div></div><div class='respDivR'><div class='vertical-center'><font style='color:orange'>(I)</font></div></div></div>","null","$40","$95","1","40","95",""
"","","","FIX","5f721a81ee2a860fe028a8a4","bdp_rd","Sun Apr 09 2023 16:52:05 GMT-0700 (Pacific Daylight Time)","221417","html-keyboard-response","98","126858","0.0-5.0-1.31","","null","","<div class='trialBorder'><div class='vertical-center'><img style='vertical-align:center; align:center' src=img/fixation3.jpg></div></div>","null","","","","","",""
"","","","offer","5f721a81ee2a860fe028a8a4","bdp_rd","Sun Apr 09 2023 16:52:05 GMT-0700 (Pacific Daylight Time)","221417","html-keyboard-response","99","132742","0.0-5.0-2.31","","5883","","<div class='trialBorder'><div class='vertical-center'><img style='vertical-align:center; align:center' src=img/fixation3.jpg></div><div class='cl'><div class='vertical-center'>$41<br>with a<br>50% chance</div></div><div class='cr'><div class='vertical-center'>$13<br>for<br>sure</div></div><div class='respDivL'><div class='vertical-center'>(E)</div></div><div class='respDivR'><div class='vertical-center'>(I)</div></div></div>","I","$13","$41","1","13","41","SURE"
"","","","offerFB","5f721a81ee2a860fe028a8a4","bdp_rd","Sun Apr 09 2023 16:52:05 GMT-0700 (Pacific Daylight Time)","221417","html-keyboard-response","100","133005","0.0-5.0-3.31","","null","","<div class='trialBorder'><div class='vertical-center'><img style='vertical-align:center; align:center' src=img/fixation3.jpg></div><div class='cl'><div class='vertical-center'>$41<br>with a<br>50% chance</div></div><div class='cr'><div class='vertical-center'><font style='color:orange'>$13<br>for<br>sure</font></div></div><div class='respDivL'><div class='vertical-center'>(E)</div></div><div class='respDivR'><div class='vertical-center'><font style='color:orange'>(I)</font></div></div></div>","null","$13","$41","1","13","41",""
"","","","FIX","5f721a81ee2a860fe028a8a4","bdp_rd","Sun Apr 09 2023 16:52:05 GMT-0700 (Pacific Daylight Time)","221417","html-keyboard-response","101","133517","0.0-5.0-1.32","","null","","<div class='trialBorder'><div class='vertical-center'><img style='vertical-align:center; align:center' src=img/fixation3.jpg></div></div>","null","","","","","",""
"","","","offer","5f721a81ee2a860fe028a8a4","bdp_rd","Sun Apr 09 2023 16:52:05 GMT-0700 (Pacific Daylight Time)","221417","html-keyboard-response","102","134247","0.0-5.0-2.32","","728","","<div class='trialBorder'><div class='vertical-center'><img style='vertical-align:center; align:center' src=img/fixation3.jpg></div><div class='cl'><div class='vertical-center'>$39<br>for<br>sure</div></div><div class='cr'><div class='vertical-center'>$81<br>with a<br>50% chance</div></div><div class='respDivL'><div class='vertical-center'>(E)</div></div><div class='respDivR'><div class='vertical-center'>(I)</div></div></div>","E","$39","$81","0","39","81","SURE"
"","","","offerFB","5f721a81ee2a860fe028a8a4","bdp_rd","Sun Apr 09 2023 16:52:05 GMT-0700 (Pacific Daylight Time)","221417","html-keyboard-response","103","134502","0.0-5.0-3.32","","null","","<div class='trialBorder'><div class='vertical-center'><img style='vertical-align:center; align:center' src=img/fixation3.jpg></div><div class='cl'><div class='vertical-center'><font style='color:orange'>$39<br>for<br>sure</font></div></div><div class='cr'><div class='vertical-center'>$81<br>with a<br>50% chance</div></div><div class='respDivL'><div class='vertical-center'><font style='color:orange'>(E)</font></div></div><div class='respDivR'><div class='vertical-center'>(I)</div></div></div>","null","$39","$81","0","39","81",""
"","","","FIX","5f721a81ee2a860fe028a8a4","bdp_rd","Sun Apr 09 2023 16:52:05 GMT-0700 (Pacific Daylight Time)","221417","html-keyboard-response","104","135002","0.0-5.0-1.33","","null","","<div class='trialBorder'><div class='vertical-center'><img style='vertical-align:center; align:center' src=img/fixation3.jpg></div></div>","null","","","","","",""
"","","","offer","5f721a81ee2a860fe028a8a4","bdp_rd","Sun Apr 09 2023 16:52:05 GMT-0700 (Pacific Daylight Time)","221417","html-keyboard-response","105","139638","0.0-5.0-2.33","","4633","","<div class='trialBorder'><div class='vertical-center'><img style='vertical-align:center; align:center' src=img/fixation3.jpg></div><div class='cl'><div class='vertical-center'>$18<br>with a<br>50% chance</div></div><div class='cr'><div class='vertical-center'>$9<br>for<br>sure</div></div><div class='respDivL'><div class='vertical-center'>(E)</div></div><div class='respDivR'><div class='vertical-center'>(I)</div></div></div>","I","$9","$18","1","9","18","SURE"
"","","","offerFB","5f721a81ee2a860fe028a8a4","bdp_rd","Sun Apr 09 2023 16:52:05 GMT-0700 (Pacific Daylight Time)","221417","html-keyboard-response","106","139896","0.0-5.0-3.33","","null","","<div class='trialBorder'><div class='vertical-center'><img style='vertical-align:center; align:center' src=img/fixation3.jpg></div><div class='cl'><div class='vertical-center'>$18<br>with a<br>50% chance</div></div><div class='cr'><div class='vertical-center'><font style='color:orange'>$9<br>for<br>sure</font></div></div><div class='respDivL'><div class='vertical-center'>(E)</div></div><div class='respDivR'><div class='vertical-center'><font style='color:orange'>(I)</font></div></div></div>","null","$9","$18","1","9","18",""
"","","","FIX","5f721a81ee2a860fe028a8a4","bdp_rd","Sun Apr 09 2023 16:52:05 GMT-0700 (Pacific Daylight Time)","221417","html-keyboard-response","107","140397","0.0-5.0-1.34","","null","","<div class='trialBorder'><div class='vertical-center'><img style='vertical-align:center; align:center' src=img/fixation3.jpg></div></div>","null","","","","","",""
"","","","offer","5f721a81ee2a860fe028a8a4","bdp_rd","Sun Apr 09 2023 16:52:05 GMT-0700 (Pacific Daylight Time)","221417","html-keyboard-response","108","141334","0.0-5.0-2.34","","936","","<div class='trialBorder'><div class='vertical-center'><img style='vertical-align:center; align:center' src=img/fixation3.jpg></div><div class='cl'><div class='vertical-center'>$15<br>for<br>sure</div></div><div class='cr'><div class='vertical-center'>$34<br>with a<br>50% chance</div></div><div class='respDivL'><div class='vertical-center'>(E)</div></div><div class='respDivR'><div class='vertical-center'>(I)</div></div></div>","E","$15","$34","0","15","34","SURE"
"","","","offerFB","5f721a81ee2a860fe028a8a4","bdp_rd","Sun Apr 09 2023 16:52:05 GMT-0700 (Pacific Daylight Time)","221417","html-keyboard-response","109","141597","0.0-5.0-3.34","","null","","<div class='trialBorder'><div class='vertical-center'><img style='vertical-align:center; align:center' src=img/fixation3.jpg></div><div class='cl'><div class='vertical-center'><font style='color:orange'>$15<br>for<br>sure</font></div></div><div class='cr'><div class='vertical-center'>$34<br>with a<br>50% chance</div></div><div class='respDivL'><div class='vertical-center'><font style='color:orange'>(E)</font></div></div><div class='respDivR'><div class='vertical-center'>(I)</div></div></div>","null","$15","$34","0","15","34",""
"","","","FIX","5f721a81ee2a860fe028a8a4","bdp_rd","Sun Apr 09 2023 16:52:05 GMT-0700 (Pacific Daylight Time)","221417","html-keyboard-response","110","142112","0.0-5.0-1.35","","null","","<div class='trialBorder'><div class='vertical-center'><img style='vertical-align:center; align:center' src=img/fixation3.jpg></div></div>","null","","","","","",""
"","","","offer","5f721a81ee2a860fe028a8a4","bdp_rd","Sun Apr 09 2023 16:52:05 GMT-0700 (Pacific Daylight Time)","221417","html-keyboard-response","111","144566","0.0-5.0-2.35","","2454","","<div class='trialBorder'><div class='vertical-center'><img style='vertical-align:center; align:center' src=img/fixation3.jpg></div><div class='cl'><div class='vertical-center'>$31<br>with a<br>50% chance</div></div><div class='cr'><div class='vertical-center'>$15<br>for<br>sure</div></div><div class='respDivL'><div class='vertical-center'>(E)</div></div><div class='respDivR'><div class='vertical-center'>(I)</div></div></div>","I","$15","$31","1","15","31","SURE"
"","","","offerFB","5f721a81ee2a860fe028a8a4","bdp_rd","Sun Apr 09 2023 16:52:05 GMT-0700 (Pacific Daylight Time)","221417","html-keyboard-response","112","144830","0.0-5.0-3.35","","null","","<div class='trialBorder'><div class='vertical-center'><img style='vertical-align:center; align:center' src=img/fixation3.jpg></div><div class='cl'><div class='vertical-center'>$31<br>with a<br>50% chance</div></div><div class='cr'><div class='vertical-center'><font style='color:orange'>$15<br>for<br>sure</font></div></div><div class='respDivL'><div class='vertical-center'>(E)</div></div><div class='respDivR'><div class='vertical-center'><font style='color:orange'>(I)</font></div></div></div>","null","$15","$31","1","15","31",""
"","","","FIX","5f721a81ee2a860fe028a8a4","bdp_rd","Sun Apr 09 2023 16:52:05 GMT-0700 (Pacific Daylight Time)","221417","html-keyboard-response","113","145342","0.0-5.0-1.36","","null","","<div class='trialBorder'><div class='vertical-center'><img style='vertical-align:center; align:center' src=img/fixation3.jpg></div></div>","null","","","","","",""
"","","","offer","5f721a81ee2a860fe028a8a4","bdp_rd","Sun Apr 09 2023 16:52:05 GMT-0700 (Pacific Daylight Time)","221417","html-keyboard-response","114","146262","0.0-5.0-2.36","","919","","<div class='trialBorder'><div class='vertical-center'><img style='vertical-align:center; align:center' src=img/fixation3.jpg></div><div class='cl'><div class='vertical-center'>$16<br>for<br>sure</div></div><div class='cr'><div class='vertical-center'>$38<br>with a<br>50% chance</div></div><div class='respDivL'><div class='vertical-center'>(E)</div></div><div class='respDivR'><div class='vertical-center'>(I)</div></div></div>","E","$16","$38","0","16","38","SURE"
"","","","offerFB","5f721a81ee2a860fe028a8a4","bdp_rd","Sun Apr 09 2023 16:52:05 GMT-0700 (Pacific Daylight Time)","221417","html-keyboard-response","115","146516","0.0-5.0-3.36","","null","","<div class='trialBorder'><div class='vertical-center'><img style='vertical-align:center; align:center' src=img/fixation3.jpg></div><div class='cl'><div class='vertical-center'><font style='color:orange'>$16<br>for<br>sure</font></div></div><div class='cr'><div class='vertical-center'>$38<br>with a<br>50% chance</div></div><div class='respDivL'><div class='vertical-center'><font style='color:orange'>(E)</font></div></div><div class='respDivR'><div class='vertical-center'>(I)</div></div></div>","null","$16","$38","0","16","38",""
"","","","FIX","5f721a81ee2a860fe028a8a4","bdp_rd","Sun Apr 09 2023 16:52:05 GMT-0700 (Pacific Daylight Time)","221417","html-keyboard-response","116","147030","0.0-5.0-1.37","","null","","<div class='trialBorder'><div class='vertical-center'><img style='vertical-align:center; align:center' src=img/fixation3.jpg></div></div>","null","","","","","",""
"","","","offer","5f721a81ee2a860fe028a8a4","bdp_rd","Sun Apr 09 2023 16:52:05 GMT-0700 (Pacific Daylight Time)","221417","html-keyboard-response","117","165815","0.0-5.0-2.37","","18783","","<div class='trialBorder'><div class='vertical-center'><img style='vertical-align:center; align:center' src=img/fixation3.jpg></div><div class='cl'><div class='vertical-center'>$50<br>with a<br>50% chance</div></div><div class='cr'><div class='vertical-center'>$5<br>for<br>sure</div></div><div class='respDivL'><div class='vertical-center'>(E)</div></div><div class='respDivR'><div class='vertical-center'>(I)</div></div></div>","I","$5","$50","1","5","50","SURE"
"","","","offerFB","5f721a81ee2a860fe028a8a4","bdp_rd","Sun Apr 09 2023 16:52:05 GMT-0700 (Pacific Daylight Time)","221417","html-keyboard-response","118","166078","0.0-5.0-3.37","","null","","<div class='trialBorder'><div class='vertical-center'><img style='vertical-align:center; align:center' src=img/fixation3.jpg></div><div class='cl'><div class='vertical-center'>$50<br>with a<br>50% chance</div></div><div class='cr'><div class='vertical-center'><font style='color:orange'>$5<br>for<br>sure</font></div></div><div class='respDivL'><div class='vertical-center'>(E)</div></div><div class='respDivR'><div class='vertical-center'><font style='color:orange'>(I)</font></div></div></div>","null","$5","$50","1","5","50",""
"","","","FIX","5f721a81ee2a860fe028a8a4","bdp_rd","Sun Apr 09 2023 16:52:05 GMT-0700 (Pacific Daylight Time)","221417","html-keyboard-response","119","166584","0.0-5.0-1.38","","null","","<div class='trialBorder'><div class='vertical-center'><img style='vertical-align:center; align:center' src=img/fixation3.jpg></div></div>","null","","","","","",""
"","","","offer","5f721a81ee2a860fe028a8a4","bdp_rd","Sun Apr 09 2023 16:52:05 GMT-0700 (Pacific Daylight Time)","221417","html-keyboard-response","120","167831","0.0-5.0-2.38","","1247","","<div class='trialBorder'><div class='vertical-center'><img style='vertical-align:center; align:center' src=img/fixation3.jpg></div><div class='cl'><div class='vertical-center'>$45<br>with a<br>50% chance</div></div><div class='cr'><div class='vertical-center'>$8<br>for<br>sure</div></div><div class='respDivL'><div class='vertical-center'>(E)</div></div><div class='respDivR'><div class='vertical-center'>(I)</div></div></div>","I","$8","$45","1","8","45","SURE"
"","","","offerFB","5f721a81ee2a860fe028a8a4","bdp_rd","Sun Apr 09 2023 16:52:05 GMT-0700 (Pacific Daylight Time)","221417","html-keyboard-response","121","168091","0.0-5.0-3.38","","null","","<div class='trialBorder'><div class='vertical-center'><img style='vertical-align:center; align:center' src=img/fixation3.jpg></div><div class='cl'><div class='vertical-center'>$45<br>with a<br>50% chance</div></div><div class='cr'><div class='vertical-center'><font style='color:orange'>$8<br>for<br>sure</font></div></div><div class='respDivL'><div class='vertical-center'>(E)</div></div><div class='respDivR'><div class='vertical-center'><font style='color:orange'>(I)</font></div></div></div>","null","$8","$45","1","8","45",""
"","","","FIX","5f721a81ee2a860fe028a8a4","bdp_rd","Sun Apr 09 2023 16:52:05 GMT-0700 (Pacific Daylight Time)","221417","html-keyboard-response","122","168595","0.0-5.0-1.39","","null","","<div class='trialBorder'><div class='vertical-center'><img style='vertical-align:center; align:center' src=img/fixation3.jpg></div></div>","null","","","","","",""
"","","","offer","5f721a81ee2a860fe028a8a4","bdp_rd","Sun Apr 09 2023 16:52:05 GMT-0700 (Pacific Daylight Time)","221417","html-keyboard-response","123","173014","0.0-5.0-2.39","","4419","","<div class='trialBorder'><div class='vertical-center'><img style='vertical-align:center; align:center' src=img/fixation3.jpg></div><div class='cl'><div class='vertical-center'>$21<br>with a<br>50% chance</div></div><div class='cr'><div class='vertical-center'>$2<br>for<br>sure</div></div><div class='respDivL'><div class='vertical-center'>(E)</div></div><div class='respDivR'><div class='vertical-center'>(I)</div></div></div>","E","$2","$21","1","2","21","RISKY"
"","","","offerFB","5f721a81ee2a860fe028a8a4","bdp_rd","Sun Apr 09 2023 16:52:05 GMT-0700 (Pacific Daylight Time)","221417","html-keyboard-response","124","173278","0.0-5.0-3.39","","null","","<div class='trialBorder'><div class='vertical-center'><img style='vertical-align:center; align:center' src=img/fixation3.jpg></div><div class='cl'><div class='vertical-center'><font style='color:orange'>$21<br>with a<br>50% chance</font></div></div><div class='cr'><div class='vertical-center'>$2<br>for<br>sure</div></div><div class='respDivL'><div class='vertical-center'><font style='color:orange'>(E)</font></div></div><div class='respDivR'><div class='vertical-center'>(I)</div></div></div>","null","$2","$21","1","2","21",""
"","","","FIX","5f721a81ee2a860fe028a8a4","bdp_rd","Sun Apr 09 2023 16:52:05 GMT-0700 (Pacific Daylight Time)","221417","html-keyboard-response","125","173791","0.0-5.0-1.40","","null","","<div class='trialBorder'><div class='vertical-center'><img style='vertical-align:center; align:center' src=img/fixation3.jpg></div></div>","null","","","","","",""
"","","","offer","5f721a81ee2a860fe028a8a4","bdp_rd","Sun Apr 09 2023 16:52:05 GMT-0700 (Pacific Daylight Time)","221417","html-keyboard-response","126","176326","0.0-5.0-2.40","","2533","","<div class='trialBorder'><div class='vertical-center'><img style='vertical-align:center; align:center' src=img/fixation3.jpg></div><div class='cl'><div class='vertical-center'>$20<br>for<br>sure</div></div><div class='cr'><div class='vertical-center'>$37<br>with a<br>50% chance</div></div><div class='respDivL'><div class='vertical-center'>(E)</div></div><div class='respDivR'><div class='vertical-center'>(I)</div></div></div>","E","$20","$37","0","20","37","SURE"
"","","","offerFB","5f721a81ee2a860fe028a8a4","bdp_rd","Sun Apr 09 2023 16:52:05 GMT-0700 (Pacific Daylight Time)","221417","html-keyboard-response","127","176584","0.0-5.0-3.40","","null","","<div class='trialBorder'><div class='vertical-center'><img style='vertical-align:center; align:center' src=img/fixation3.jpg></div><div class='cl'><div class='vertical-center'><font style='color:orange'>$20<br>for<br>sure</font></div></div><div class='cr'><div class='vertical-center'>$37<br>with a<br>50% chance</div></div><div class='respDivL'><div class='vertical-center'><font style='color:orange'>(E)</font></div></div><div class='respDivR'><div class='vertical-center'>(I)</div></div></div>","null","$20","$37","0","20","37",""
"","","","FIX","5f721a81ee2a860fe028a8a4","bdp_rd","Sun Apr 09 2023 16:52:05 GMT-0700 (Pacific Daylight Time)","221417","html-keyboard-response","128","177087","0.0-5.0-1.41","","null","","<div class='trialBorder'><div class='vertical-center'><img style='vertical-align:center; align:center' src=img/fixation3.jpg></div></div>","null","","","","","",""
"","","","offer","5f721a81ee2a860fe028a8a4","bdp_rd","Sun Apr 09 2023 16:52:05 GMT-0700 (Pacific Daylight Time)","221417","html-keyboard-response","129","178102","0.0-5.0-2.41","","1014","","<div class='trialBorder'><div class='vertical-center'><img style='vertical-align:center; align:center' src=img/fixation3.jpg></div><div class='cl'><div class='vertical-center'>$22<br>with a<br>50% chance</div></div><div class='cr'><div class='vertical-center'>$14<br>for<br>sure</div></div><div class='respDivL'><div class='vertical-center'>(E)</div></div><div class='respDivR'><div class='vertical-center'>(I)</div></div></div>","I","$14","$22","1","14","22","SURE"
"","","","offerFB","5f721a81ee2a860fe028a8a4","bdp_rd","Sun Apr 09 2023 16:52:05 GMT-0700 (Pacific Daylight Time)","221417","html-keyboard-response","130","178361","0.0-5.0-3.41","","null","","<div class='trialBorder'><div class='vertical-center'><img style='vertical-align:center; align:center' src=img/fixation3.jpg></div><div class='cl'><div class='vertical-center'>$22<br>with a<br>50% chance</div></div><div class='cr'><div class='vertical-center'><font style='color:orange'>$14<br>for<br>sure</font></div></div><div class='respDivL'><div class='vertical-center'>(E)</div></div><div class='respDivR'><div class='vertical-center'><font style='color:orange'>(I)</font></div></div></div>","null","$14","$22","1","14","22",""
"","","","FIX","5f721a81ee2a860fe028a8a4","bdp_rd","Sun Apr 09 2023 16:52:05 GMT-0700 (Pacific Daylight Time)","221417","html-keyboard-response","131","178864","0.0-5.0-1.42","","null","","<div class='trialBorder'><div class='vertical-center'><img style='vertical-align:center; align:center' src=img/fixation3.jpg></div></div>","null","","","","","",""
"","","","offer","5f721a81ee2a860fe028a8a4","bdp_rd","Sun Apr 09 2023 16:52:05 GMT-0700 (Pacific Daylight Time)","221417","html-keyboard-response","132","180838","0.0-5.0-2.42","","1974","","<div class='trialBorder'><div class='vertical-center'><img style='vertical-align:center; align:center' src=img/fixation3.jpg></div><div class='cl'><div class='vertical-center'>$54<br>with a<br>50% chance</div></div><div class='cr'><div class='vertical-center'>$25<br>for<br>sure</div></div><div class='respDivL'><div class='vertical-center'>(E)</div></div><div class='respDivR'><div class='vertical-center'>(I)</div></div></div>","I","$25","$54","1","25","54","SURE"
"","","","offerFB","5f721a81ee2a860fe028a8a4","bdp_rd","Sun Apr 09 2023 16:52:05 GMT-0700 (Pacific Daylight Time)","221417","html-keyboard-response","133","181089","0.0-5.0-3.42","","null","","<div class='trialBorder'><div class='vertical-center'><img style='vertical-align:center; align:center' src=img/fixation3.jpg></div><div class='cl'><div class='vertical-center'>$54<br>with a<br>50% chance</div></div><div class='cr'><div class='vertical-center'><font style='color:orange'>$25<br>for<br>sure</font></div></div><div class='respDivL'><div class='vertical-center'>(E)</div></div><div class='respDivR'><div class='vertical-center'><font style='color:orange'>(I)</font></div></div></div>","null","$25","$54","1","25","54",""
"","","","FIX","5f721a81ee2a860fe028a8a4","bdp_rd","Sun Apr 09 2023 16:52:05 GMT-0700 (Pacific Daylight Time)","221417","html-keyboard-response","134","181591","0.0-5.0-1.43","","null","","<div class='trialBorder'><div class='vertical-center'><img style='vertical-align:center; align:center' src=img/fixation3.jpg></div></div>","null","","","","","",""
"","","","offer","5f721a81ee2a860fe028a8a4","bdp_rd","Sun Apr 09 2023 16:52:05 GMT-0700 (Pacific Daylight Time)","221417","html-keyboard-response","135","183221","0.0-5.0-2.43","","1630","","<div class='trialBorder'><div class='vertical-center'><img style='vertical-align:center; align:center' src=img/fixation3.jpg></div><div class='cl'><div class='vertical-center'>$18<br>for<br>sure</div></div><div class='cr'><div class='vertical-center'>$39<br>with a<br>50% chance</div></div><div class='respDivL'><div class='vertical-center'>(E)</div></div><div class='respDivR'><div class='vertical-center'>(I)</div></div></div>","E","$18","$39","0","18","39","SURE"
"","","","offerFB","5f721a81ee2a860fe028a8a4","bdp_rd","Sun Apr 09 2023 16:52:05 GMT-0700 (Pacific Daylight Time)","221417","html-keyboard-response","136","183474","0.0-5.0-3.43","","null","","<div class='trialBorder'><div class='vertical-center'><img style='vertical-align:center; align:center' src=img/fixation3.jpg></div><div class='cl'><div class='vertical-center'><font style='color:orange'>$18<br>for<br>sure</font></div></div><div class='cr'><div class='vertical-center'>$39<br>with a<br>50% chance</div></div><div class='respDivL'><div class='vertical-center'><font style='color:orange'>(E)</font></div></div><div class='respDivR'><div class='vertical-center'>(I)</div></div></div>","null","$18","$39","0","18","39",""
"","","","FIX","5f721a81ee2a860fe028a8a4","bdp_rd","Sun Apr 09 2023 16:52:05 GMT-0700 (Pacific Daylight Time)","221417","html-keyboard-response","137","183985","0.0-5.0-1.44","","null","","<div class='trialBorder'><div class='vertical-center'><img style='vertical-align:center; align:center' src=img/fixation3.jpg></div></div>","null","","","","","",""
"","","","offer","5f721a81ee2a860fe028a8a4","bdp_rd","Sun Apr 09 2023 16:52:05 GMT-0700 (Pacific Daylight Time)","221417","html-keyboard-response","138","184871","0.0-5.0-2.44","","885","","<div class='trialBorder'><div class='vertical-center'><img style='vertical-align:center; align:center' src=img/fixation3.jpg></div><div class='cl'><div class='vertical-center'>$66<br>with a<br>50% chance</div></div><div class='cr'><div class='vertical-center'>$33<br>for<br>sure</div></div><div class='respDivL'><div class='vertical-center'>(E)</div></div><div class='respDivR'><div class='vertical-center'>(I)</div></div></div>","I","$33","$66","1","33","66","SURE"
"","","","offerFB","5f721a81ee2a860fe028a8a4","bdp_rd","Sun Apr 09 2023 16:52:05 GMT-0700 (Pacific Daylight Time)","221417","html-keyboard-response","139","185122","0.0-5.0-3.44","","null","","<div class='trialBorder'><div class='vertical-center'><img style='vertical-align:center; align:center' src=img/fixation3.jpg></div><div class='cl'><div class='vertical-center'>$66<br>with a<br>50% chance</div></div><div class='cr'><div class='vertical-center'><font style='color:orange'>$33<br>for<br>sure</font></div></div><div class='respDivL'><div class='vertical-center'>(E)</div></div><div class='respDivR'><div class='vertical-center'><font style='color:orange'>(I)</font></div></div></div>","null","$33","$66","1","33","66",""
"","","","FIX","5f721a81ee2a860fe028a8a4","bdp_rd","Sun Apr 09 2023 16:52:05 GMT-0700 (Pacific Daylight Time)","221417","html-keyboard-response","140","185627","0.0-5.0-1.45","","null","","<div class='trialBorder'><div class='vertical-center'><img style='vertical-align:center; align:center' src=img/fixation3.jpg></div></div>","null","","","","","",""
"","","","offer","5f721a81ee2a860fe028a8a4","bdp_rd","Sun Apr 09 2023 16:52:05 GMT-0700 (Pacific Daylight Time)","221417","html-keyboard-response","141","187382","0.0-5.0-2.45","","1754","","<div class='trialBorder'><div class='vertical-center'><img style='vertical-align:center; align:center' src=img/fixation3.jpg></div><div class='cl'><div class='vertical-center'>$7<br>for<br>sure</div></div><div class='cr'><div class='vertical-center'>$10<br>with a<br>50% chance</div></div><div class='respDivL'><div class='vertical-center'>(E)</div></div><div class='respDivR'><div class='vertical-center'>(I)</div></div></div>","E","$7","$10","0","7","10","SURE"
"","","","offerFB","5f721a81ee2a860fe028a8a4","bdp_rd","Sun Apr 09 2023 16:52:05 GMT-0700 (Pacific Daylight Time)","221417","html-keyboard-response","142","187645","0.0-5.0-3.45","","null","","<div class='trialBorder'><div class='vertical-center'><img style='vertical-align:center; align:center' src=img/fixation3.jpg></div><div class='cl'><div class='vertical-center'><font style='color:orange'>$7<br>for<br>sure</font></div></div><div class='cr'><div class='vertical-center'>$10<br>with a<br>50% chance</div></div><div class='respDivL'><div class='vertical-center'><font style='color:orange'>(E)</font></div></div><div class='respDivR'><div class='vertical-center'>(I)</div></div></div>","null","$7","$10","0","7","10",""
"","","","FIX","5f721a81ee2a860fe028a8a4","bdp_rd","Sun Apr 09 2023 16:52:05 GMT-0700 (Pacific Daylight Time)","221417","html-keyboard-response","143","188161","0.0-5.0-1.46","","null","","<div class='trialBorder'><div class='vertical-center'><img style='vertical-align:center; align:center' src=img/fixation3.jpg></div></div>","null","","","","","",""
"","","","offer","5f721a81ee2a860fe028a8a4","bdp_rd","Sun Apr 09 2023 16:52:05 GMT-0700 (Pacific Daylight Time)","221417","html-keyboard-response","144","189094","0.0-5.0-2.46","","932","","<div class='trialBorder'><div class='vertical-center'><img style='vertical-align:center; align:center' src=img/fixation3.jpg></div><div class='cl'><div class='vertical-center'>$19<br>with a<br>50% chance</div></div><div class='cr'><div class='vertical-center'>$10<br>for<br>sure</div></div><div class='respDivL'><div class='vertical-center'>(E)</div></div><div class='respDivR'><div class='vertical-center'>(I)</div></div></div>","I","$10","$19","1","10","19","SURE"
"","","","offerFB","5f721a81ee2a860fe028a8a4","bdp_rd","Sun Apr 09 2023 16:52:05 GMT-0700 (Pacific Daylight Time)","221417","html-keyboard-response","145","189345","0.0-5.0-3.46","","null","","<div class='trialBorder'><div class='vertical-center'><img style='vertical-align:center; align:center' src=img/fixation3.jpg></div><div class='cl'><div class='vertical-center'>$19<br>with a<br>50% chance</div></div><div class='cr'><div class='vertical-center'><font style='color:orange'>$10<br>for<br>sure</font></div></div><div class='respDivL'><div class='vertical-center'>(E)</div></div><div class='respDivR'><div class='vertical-center'><font style='color:orange'>(I)</font></div></div></div>","null","$10","$19","1","10","19",""
"","","","FIX","5f721a81ee2a860fe028a8a4","bdp_rd","Sun Apr 09 2023 16:52:05 GMT-0700 (Pacific Daylight Time)","221417","html-keyboard-response","146","189852","0.0-5.0-1.47","","null","","<div class='trialBorder'><div class='vertical-center'><img style='vertical-align:center; align:center' src=img/fixation3.jpg></div></div>","null","","","","","",""
"","","","offer","5f721a81ee2a860fe028a8a4","bdp_rd","Sun Apr 09 2023 16:52:05 GMT-0700 (Pacific Daylight Time)","221417","html-keyboard-response","147","191782","0.0-5.0-2.47","","1929","","<div class='trialBorder'><div class='vertical-center'><img style='vertical-align:center; align:center' src=img/fixation3.jpg></div><div class='cl'><div class='vertical-center'>$43<br>with a<br>50% chance</div></div><div class='cr'><div class='vertical-center'>$17<br>for<br>sure</div></div><div class='respDivL'><div class='vertical-center'>(E)</div></div><div class='respDivR'><div class='vertical-center'>(I)</div></div></div>","I","$17","$43","1","17","43","SURE"
"","","","offerFB","5f721a81ee2a860fe028a8a4","bdp_rd","Sun Apr 09 2023 16:52:05 GMT-0700 (Pacific Daylight Time)","221417","html-keyboard-response","148","192045","0.0-5.0-3.47","","null","","<div class='trialBorder'><div class='vertical-center'><img style='vertical-align:center; align:center' src=img/fixation3.jpg></div><div class='cl'><div class='vertical-center'>$43<br>with a<br>50% chance</div></div><div class='cr'><div class='vertical-center'><font style='color:orange'>$17<br>for<br>sure</font></div></div><div class='respDivL'><div class='vertical-center'>(E)</div></div><div class='respDivR'><div class='vertical-center'><font style='color:orange'>(I)</font></div></div></div>","null","$17","$43","1","17","43",""
"","","","FIX","5f721a81ee2a860fe028a8a4","bdp_rd","Sun Apr 09 2023 16:52:05 GMT-0700 (Pacific Daylight Time)","221417","html-keyboard-response","149","192551","0.0-5.0-1.48","","null","","<div class='trialBorder'><div class='vertical-center'><img style='vertical-align:center; align:center' src=img/fixation3.jpg></div></div>","null","","","","","",""
"","","","offer","5f721a81ee2a860fe028a8a4","bdp_rd","Sun Apr 09 2023 16:52:05 GMT-0700 (Pacific Daylight Time)","221417","html-keyboard-response","150","194070","0.0-5.0-2.48","","1519","","<div class='trialBorder'><div class='vertical-center'><img style='vertical-align:center; align:center' src=img/fixation3.jpg></div><div class='cl'><div class='vertical-center'>$11<br>for<br>sure</div></div><div class='cr'><div class='vertical-center'>$62<br>with a<br>50% chance</div></div><div class='respDivL'><div class='vertical-center'>(E)</div></div><div class='respDivR'><div class='vertical-center'>(I)</div></div></div>","E","$11","$62","0","11","62","SURE"
"","","","offerFB","5f721a81ee2a860fe028a8a4","bdp_rd","Sun Apr 09 2023 16:52:05 GMT-0700 (Pacific Daylight Time)","221417","html-keyboard-response","151","194324","0.0-5.0-3.48","","null","","<div class='trialBorder'><div class='vertical-center'><img style='vertical-align:center; align:center' src=img/fixation3.jpg></div><div class='cl'><div class='vertical-center'><font style='color:orange'>$11<br>for<br>sure</font></div></div><div class='cr'><div class='vertical-center'>$62<br>with a<br>50% chance</div></div><div class='respDivL'><div class='vertical-center'><font style='color:orange'>(E)</font></div></div><div class='respDivR'><div class='vertical-center'>(I)</div></div></div>","null","$11","$62","0","11","62",""
"","","","FIX","5f721a81ee2a860fe028a8a4","bdp_rd","Sun Apr 09 2023 16:52:05 GMT-0700 (Pacific Daylight Time)","221417","html-keyboard-response","152","194830","0.0-5.0-1.49","","null","","<div class='trialBorder'><div class='vertical-center'><img style='vertical-align:center; align:center' src=img/fixation3.jpg></div></div>","null","","","","","",""
"","","","offer","5f721a81ee2a860fe028a8a4","bdp_rd","Sun Apr 09 2023 16:52:05 GMT-0700 (Pacific Daylight Time)","221417","html-keyboard-response","153","196310","0.0-5.0-2.49","","1479","","<div class='trialBorder'><div class='vertical-center'><img style='vertical-align:center; align:center' src=img/fixation3.jpg></div><div class='cl'><div class='vertical-center'>$29<br>with a<br>50% chance</div></div><div class='cr'><div class='vertical-center'>$14<br>for<br>sure</div></div><div class='respDivL'><div class='vertical-center'>(E)</div></div><div class='respDivR'><div class='vertical-center'>(I)</div></div></div>","I","$14","$29","1","14","29","SURE"
"","","","offerFB","5f721a81ee2a860fe028a8a4","bdp_rd","Sun Apr 09 2023 16:52:05 GMT-0700 (Pacific Daylight Time)","221417","html-keyboard-response","154","196562","0.0-5.0-3.49","","null","","<div class='trialBorder'><div class='vertical-center'><img style='vertical-align:center; align:center' src=img/fixation3.jpg></div><div class='cl'><div class='vertical-center'>$29<br>with a<br>50% chance</div></div><div class='cr'><div class='vertical-center'><font style='color:orange'>$14<br>for<br>sure</font></div></div><div class='respDivL'><div class='vertical-center'>(E)</div></div><div class='respDivR'><div class='vertical-center'><font style='color:orange'>(I)</font></div></div></div>","null","$14","$29","1","14","29",""
"","","","FIX","5f721a81ee2a860fe028a8a4","bdp_rd","Sun Apr 09 2023 16:52:05 GMT-0700 (Pacific Daylight Time)","221417","html-keyboard-response","155","197063","0.0-5.0-1.50","","null","","<div class='trialBorder'><div class='vertical-center'><img style='vertical-align:center; align:center' src=img/fixation3.jpg></div></div>","null","","","","","",""
"","","","offer","5f721a81ee2a860fe028a8a4","bdp_rd","Sun Apr 09 2023 16:52:05 GMT-0700 (Pacific Daylight Time)","221417","html-keyboard-response","156","198502","0.0-5.0-2.50","","1438","","<div class='trialBorder'><div class='vertical-center'><img style='vertical-align:center; align:center' src=img/fixation3.jpg></div><div class='cl'><div class='vertical-center'>$14<br>with a<br>50% chance</div></div><div class='cr'><div class='vertical-center'>$4<br>for<br>sure</div></div><div class='respDivL'><div class='vertical-center'>(E)</div></div><div class='respDivR'><div class='vertical-center'>(I)</div></div></div>","I","$4","$14","1","4","14","SURE"
"","","","offerFB","5f721a81ee2a860fe028a8a4","bdp_rd","Sun Apr 09 2023 16:52:05 GMT-0700 (Pacific Daylight Time)","221417","html-keyboard-response","157","198759","0.0-5.0-3.50","","null","","<div class='trialBorder'><div class='vertical-center'><img style='vertical-align:center; align:center' src=img/fixation3.jpg></div><div class='cl'><div class='vertical-center'>$14<br>with a<br>50% chance</div></div><div class='cr'><div class='vertical-center'><font style='color:orange'>$4<br>for<br>sure</font></div></div><div class='respDivL'><div class='vertical-center'>(E)</div></div><div class='respDivR'><div class='vertical-center'><font style='color:orange'>(I)</font></div></div></div>","null","$4","$14","1","4","14",""
"","","","FIX","5f721a81ee2a860fe028a8a4","bdp_rd","Sun Apr 09 2023 16:52:05 GMT-0700 (Pacific Daylight Time)","221417","html-keyboard-response","158","199261","0.0-5.0-1.51","","null","","<div class='trialBorder'><div class='vertical-center'><img style='vertical-align:center; align:center' src=img/fixation3.jpg></div></div>","null","","","","","",""
"","","","offer","5f721a81ee2a860fe028a8a4","bdp_rd","Sun Apr 09 2023 16:52:05 GMT-0700 (Pacific Daylight Time)","221417","html-keyboard-response","159","200390","0.0-5.0-2.51","","1128","","<div class='trialBorder'><div class='vertical-center'><img style='vertical-align:center; align:center' src=img/fixation3.jpg></div><div class='cl'><div class='vertical-center'>$28<br>for<br>sure</div></div><div class='cr'><div class='vertical-center'>$89<br>with a<br>50% chance</div></div><div class='respDivL'><div class='vertical-center'>(E)</div></div><div class='respDivR'><div class='vertical-center'>(I)</div></div></div>","E","$28","$89","0","28","89","SURE"
"","","","offerFB","5f721a81ee2a860fe028a8a4","bdp_rd","Sun Apr 09 2023 16:52:05 GMT-0700 (Pacific Daylight Time)","221417","html-keyboard-response","160","200650","0.0-5.0-3.51","","null","","<div class='trialBorder'><div class='vertical-center'><img style='vertical-align:center; align:center' src=img/fixation3.jpg></div><div class='cl'><div class='vertical-center'><font style='color:orange'>$28<br>for<br>sure</font></div></div><div class='cr'><div class='vertical-center'>$89<br>with a<br>50% chance</div></div><div class='respDivL'><div class='vertical-center'><font style='color:orange'>(E)</font></div></div><div class='respDivR'><div class='vertical-center'>(I)</div></div></div>","null","$28","$89","0","28","89",""
"","","","FIX","5f721a81ee2a860fe028a8a4","bdp_rd","Sun Apr 09 2023 16:52:05 GMT-0700 (Pacific Daylight Time)","221417","html-keyboard-response","161","201160","0.0-5.0-1.52","","null","","<div class='trialBorder'><div class='vertical-center'><img style='vertical-align:center; align:center' src=img/fixation3.jpg></div></div>","null","","","","","",""
"","","","offer","5f721a81ee2a860fe028a8a4","bdp_rd","Sun Apr 09 2023 16:52:05 GMT-0700 (Pacific Daylight Time)","221417","html-keyboard-response","162","202038","0.0-5.0-2.52","","877","","<div class='trialBorder'><div class='vertical-center'><img style='vertical-align:center; align:center' src=img/fixation3.jpg></div><div class='cl'><div class='vertical-center'>$70<br>with a<br>50% chance</div></div><div class='cr'><div class='vertical-center'>$24<br>for<br>sure</div></div><div class='respDivL'><div class='vertical-center'>(E)</div></div><div class='respDivR'><div class='vertical-center'>(I)</div></div></div>","I","$24","$70","1","24","70","SURE"
"","","","offerFB","5f721a81ee2a860fe028a8a4","bdp_rd","Sun Apr 09 2023 16:52:05 GMT-0700 (Pacific Daylight Time)","221417","html-keyboard-response","163","202297","0.0-5.0-3.52","","null","","<div class='trialBorder'><div class='vertical-center'><img style='vertical-align:center; align:center' src=img/fixation3.jpg></div><div class='cl'><div class='vertical-center'>$70<br>with a<br>50% chance</div></div><div class='cr'><div class='vertical-center'><font style='color:orange'>$24<br>for<br>sure</font></div></div><div class='respDivL'><div class='vertical-center'>(E)</div></div><div class='respDivR'><div class='vertical-center'><font style='color:orange'>(I)</font></div></div></div>","null","$24","$70","1","24","70",""
"","","","FIX","5f721a81ee2a860fe028a8a4","bdp_rd","Sun Apr 09 2023 16:52:05 GMT-0700 (Pacific Daylight Time)","221417","html-keyboard-response","164","202802","0.0-5.0-1.53","","null","","<div class='trialBorder'><div class='vertical-center'><img style='vertical-align:center; align:center' src=img/fixation3.jpg></div></div>","null","","","","","",""
"","","","offer","5f721a81ee2a860fe028a8a4","bdp_rd","Sun Apr 09 2023 16:52:05 GMT-0700 (Pacific Daylight Time)","221417","html-keyboard-response","165","204421","0.0-5.0-2.53","","1619","","<div class='trialBorder'><div class='vertical-center'><img style='vertical-align:center; align:center' src=img/fixation3.jpg></div><div class='cl'><div class='vertical-center'>$1<br>for<br>sure</div></div><div class='cr'><div class='vertical-center'>$33<br>with a<br>50% chance</div></div><div class='respDivL'><div class='vertical-center'>(E)</div></div><div class='respDivR'><div class='vertical-center'>(I)</div></div></div>","I","$1","$33","0","1","33","RISKY"
"","","","offerFB","5f721a81ee2a860fe028a8a4","bdp_rd","Sun Apr 09 2023 16:52:05 GMT-0700 (Pacific Daylight Time)","221417","html-keyboard-response","166","204680","0.0-5.0-3.53","","null","","<div class='trialBorder'><div class='vertical-center'><img style='vertical-align:center; align:center' src=img/fixation3.jpg></div><div class='cl'><div class='vertical-center'>$1<br>for<br>sure</div></div><div class='cr'><div class='vertical-center'><font style='color:orange'>$33<br>with a<br>50% chance</font></div></div><div class='respDivL'><div class='vertical-center'>(E)</div></div><div class='respDivR'><div class='vertical-center'><font style='color:orange'>(I)</font></div></div></div>","null","$1","$33","0","1","33",""
"","","","FIX","5f721a81ee2a860fe028a8a4","bdp_rd","Sun Apr 09 2023 16:52:05 GMT-0700 (Pacific Daylight Time)","221417","html-keyboard-response","167","205185","0.0-5.0-1.54","","null","","<div class='trialBorder'><div class='vertical-center'><img style='vertical-align:center; align:center' src=img/fixation3.jpg></div></div>","null","","","","","",""
"","","","offer","5f721a81ee2a860fe028a8a4","bdp_rd","Sun Apr 09 2023 16:52:05 GMT-0700 (Pacific Daylight Time)","221417","html-keyboard-response","168","209942","0.0-5.0-2.54","","4756","","<div class='trialBorder'><div class='vertical-center'><img style='vertical-align:center; align:center' src=img/fixation3.jpg></div><div class='cl'><div class='vertical-center'>$98<br>with a<br>50% chance</div></div><div class='cr'><div class='vertical-center'>$53<br>for<br>sure</div></div><div class='respDivL'><div class='vertical-center'>(E)</div></div><div class='respDivR'><div class='vertical-center'>(I)</div></div></div>","I","$53","$98","1","53","98","SURE"
"","","","offerFB","5f721a81ee2a860fe028a8a4","bdp_rd","Sun Apr 09 2023 16:52:05 GMT-0700 (Pacific Daylight Time)","221417","html-keyboard-response","169","210194","0.0-5.0-3.54","","null","","<div class='trialBorder'><div class='vertical-center'><img style='vertical-align:center; align:center' src=img/fixation3.jpg></div><div class='cl'><div class='vertical-center'>$98<br>with a<br>50% chance</div></div><div class='cr'><div class='vertical-center'><font style='color:orange'>$53<br>for<br>sure</font></div></div><div class='respDivL'><div class='vertical-center'>(E)</div></div><div class='respDivR'><div class='vertical-center'><font style='color:orange'>(I)</font></div></div></div>","null","$53","$98","1","53","98",""
"","","","FIX","5f721a81ee2a860fe028a8a4","bdp_rd","Sun Apr 09 2023 16:52:05 GMT-0700 (Pacific Daylight Time)","221417","html-keyboard-response","170","210699","0.0-5.0-1.55","","null","","<div class='trialBorder'><div class='vertical-center'><img style='vertical-align:center; align:center' src=img/fixation3.jpg></div></div>","null","","","","","",""
"","","","offer","5f721a81ee2a860fe028a8a4","bdp_rd","Sun Apr 09 2023 16:52:05 GMT-0700 (Pacific Daylight Time)","221417","html-keyboard-response","171","211461","0.0-5.0-2.55","","762","","<div class='trialBorder'><div class='vertical-center'><img style='vertical-align:center; align:center' src=img/fixation3.jpg></div><div class='cl'><div class='vertical-center'>$13<br>for<br>sure</div></div><div class='cr'><div class='vertical-center'>$24<br>with a<br>50% chance</div></div><div class='respDivL'><div class='vertical-center'>(E)</div></div><div class='respDivR'><div class='vertical-center'>(I)</div></div></div>","E","$13","$24","0","13","24","SURE"
"","","","offerFB","5f721a81ee2a860fe028a8a4","bdp_rd","Sun Apr 09 2023 16:52:05 GMT-0700 (Pacific Daylight Time)","221417","html-keyboard-response","172","211714","0.0-5.0-3.55","","null","","<div class='trialBorder'><div class='vertical-center'><img style='vertical-align:center; align:center' src=img/fixation3.jpg></div><div class='cl'><div class='vertical-center'><font style='color:orange'>$13<br>for<br>sure</font></div></div><div class='cr'><div class='vertical-center'>$24<br>with a<br>50% chance</div></div><div class='respDivL'><div class='vertical-center'><font style='color:orange'>(E)</font></div></div><div class='respDivR'><div class='vertical-center'>(I)</div></div></div>","null","$13","$24","0","13","24",""
"","","","FIX","5f721a81ee2a860fe028a8a4","bdp_rd","Sun Apr 09 2023 16:52:05 GMT-0700 (Pacific Daylight Time)","221417","html-keyboard-response","173","212229","0.0-5.0-1.56","","null","","<div class='trialBorder'><div class='vertical-center'><img style='vertical-align:center; align:center' src=img/fixation3.jpg></div></div>","null","","","","","",""
"","","","offer","5f721a81ee2a860fe028a8a4","bdp_rd","Sun Apr 09 2023 16:52:05 GMT-0700 (Pacific Daylight Time)","221417","html-keyboard-response","174","213990","0.0-5.0-2.56","","1759","","<div class='trialBorder'><div class='vertical-center'><img style='vertical-align:center; align:center' src=img/fixation3.jpg></div><div class='cl'><div class='vertical-center'>$6<br>for<br>sure</div></div><div class='cr'><div class='vertical-center'>$15<br>with a<br>50% chance</div></div><div class='respDivL'><div class='vertical-center'>(E)</div></div><div class='respDivR'><div class='vertical-center'>(I)</div></div></div>","E","$6","$15","0","6","15","SURE"
