"event","trial","time","trialtype","subject_id","task","startTime","totalTime","trial_type","trial_index","time_elapsed","internal_node_id","view_history","rt","success","stimulus","key_press","sureOffer","riskyOffer","riskyLeft","sureAmt","riskyAmt","chosen"
"focus","0","0","focusevent","61103c2b7810420e5f23f437","bdp_rd","Sun Mar 26 2023 15:12:20 GMT-0500 (Central Daylight Time)","216385","","","","","","","","","","","","","","",""
"","","","","61103c2b7810420e5f23f437","bdp_rd","Sun Mar 26 2023 15:12:20 GMT-0500 (Central Daylight Time)","216385","pavlovia","0","2","0.0-0.0","","","","","","","","","","",""
"","","","","61103c2b7810420e5f23f437","bdp_rd","Sun Mar 26 2023 15:12:20 GMT-0500 (Central Daylight Time)","216385","instructions","1","3356","0.0-1.0","[{""page_index"":0,""viewing_time"":3352}]","3353","","","","","","","","",""
"fullscreenexit","2","5099","fullscreenexit","61103c2b7810420e5f23f437","bdp_rd","Sun Mar 26 2023 15:12:20 GMT-0500 (Central Daylight Time)","216385","","","","","","","","","","","","","","",""
"","","","","61103c2b7810420e5f23f437","bdp_rd","Sun Mar 26 2023 15:12:20 GMT-0500 (Central Daylight Time)","216385","fullscreen","2","6092","0.0-2.0","","","true","","","","","","","",""
"","","","fullscreenfail","61103c2b7810420e5f23f437","bdp_rd","Sun Mar 26 2023 15:12:20 GMT-0500 (Central Daylight Time)","216385","image-keyboard-response","3","6996","0.0-3.0-0.0","","901","","","32","","","","","",""
"","","","","61103c2b7810420e5f23f437","bdp_rd","Sun Mar 26 2023 15:12:20 GMT-0500 (Central Daylight Time)","216385","instructions","4","42769","0.0-4.0","[{""page_index"":0,""viewing_time"":21173},{""page_index"":1,""viewing_time"":8193},{""page_index"":2,""viewing_time"":6152}]","35518","","","","","","","","",""
"","","","FIX","61103c2b7810420e5f23f437","bdp_rd","Sun Mar 26 2023 15:12:20 GMT-0500 (Central Daylight Time)","216385","html-keyboard-response","5","43275","0.0-5.0-1.0","","null","","<div class='trialBorder'><div class='vertical-center'><img style='vertical-align:center; align:center' src=img/fixation3.jpg></div></div>","null","","","","","",""
"","","","offer","61103c2b7810420e5f23f437","bdp_rd","Sun Mar 26 2023 15:12:20 GMT-0500 (Central Daylight Time)","216385","html-keyboard-response","6","45562","0.0-5.0-2.0","","2285","","<div class='trialBorder'><div class='vertical-center'><img style='vertical-align:center; align:center' src=img/fixation3.jpg></div><div class='cl'><div class='vertical-center'>$25<br>with a<br>50% chance</div></div><div class='cr'><div class='vertical-center'>$21<br>for<br>sure</div></div><div class='respDivL'><div class='vertical-center'>(E)</div></div><div class='respDivR'><div class='vertical-center'>(I)</div></div></div>","I","$21","$25","1","21","25","SURE"
"","","","offerFB","61103c2b7810420e5f23f437","bdp_rd","Sun Mar 26 2023 15:12:20 GMT-0500 (Central Daylight Time)","216385","html-keyboard-response","7","45819","0.0-5.0-3.0","","null","","<div class='trialBorder'><div class='vertical-center'><img style='vertical-align:center; align:center' src=img/fixation3.jpg></div><div class='cl'><div class='vertical-center'>$25<br>with a<br>50% chance</div></div><div class='cr'><div class='vertical-center'><font style='color:orange'>$21<br>for<br>sure</font></div></div><div class='respDivL'><div class='vertical-center'>(E)</div></div><div class='respDivR'><div class='vertical-center'><font style='color:orange'>(I)</font></div></div></div>","null","$21","$25","1","21","25",""
"","","","FIX","61103c2b7810420e5f23f437","bdp_rd","Sun Mar 26 2023 15:12:20 GMT-0500 (Central Daylight Time)","216385","html-keyboard-response","8","46322","0.0-5.0-1.1","","null","","<div class='trialBorder'><div class='vertical-center'><img style='vertical-align:center; align:center' src=img/fixation3.jpg></div></div>","null","","","","","",""
"","","","offer","61103c2b7810420e5f23f437","bdp_rd","Sun Mar 26 2023 15:12:20 GMT-0500 (Central Daylight Time)","216385","html-keyboard-response","9","58166","0.0-5.0-2.1","","11844","","<div class='trialBorder'><div class='vertical-center'><img style='vertical-align:center; align:center' src=img/fixation3.jpg></div><div class='cl'><div class='vertical-center'>$41<br>with a<br>50% chance</div></div><div class='cr'><div class='vertical-center'>$13<br>for<br>sure</div></div><div class='respDivL'><div class='vertical-center'>(E)</div></div><div class='respDivR'><div class='vertical-center'>(I)</div></div></div>","I","$13","$41","1","13","41","SURE"
"","","","offerFB","61103c2b7810420e5f23f437","bdp_rd","Sun Mar 26 2023 15:12:20 GMT-0500 (Central Daylight Time)","216385","html-keyboard-response","10","58422","0.0-5.0-3.1","","null","","<div class='trialBorder'><div class='vertical-center'><img style='vertical-align:center; align:center' src=img/fixation3.jpg></div><div class='cl'><div class='vertical-center'>$41<br>with a<br>50% chance</div></div><div class='cr'><div class='vertical-center'><font style='color:orange'>$13<br>for<br>sure</font></div></div><div class='respDivL'><div class='vertical-center'>(E)</div></div><div class='respDivR'><div class='vertical-center'><font style='color:orange'>(I)</font></div></div></div>","null","$13","$41","1","13","41",""
"","","","FIX","61103c2b7810420e5f23f437","bdp_rd","Sun Mar 26 2023 15:12:20 GMT-0500 (Central Daylight Time)","216385","html-keyboard-response","11","58928","0.0-5.0-1.2","","null","","<div class='trialBorder'><div class='vertical-center'><img style='vertical-align:center; align:center' src=img/fixation3.jpg></div></div>","null","","","","","",""
"","","","offer","61103c2b7810420e5f23f437","bdp_rd","Sun Mar 26 2023 15:12:20 GMT-0500 (Central Daylight Time)","216385","html-keyboard-response","12","60323","0.0-5.0-2.2","","1394","","<div class='trialBorder'><div class='vertical-center'><img style='vertical-align:center; align:center' src=img/fixation3.jpg></div><div class='cl'><div class='vertical-center'>$8<br>for<br>sure</div></div><div class='cr'><div class='vertical-center'>$45<br>with a<br>50% chance</div></div><div class='respDivL'><div class='vertical-center'>(E)</div></div><div class='respDivR'><div class='vertical-center'>(I)</div></div></div>","I","$8","$45","0","8","45","RISKY"
"","","","offerFB","61103c2b7810420e5f23f437","bdp_rd","Sun Mar 26 2023 15:12:20 GMT-0500 (Central Daylight Time)","216385","html-keyboard-response","13","60580","0.0-5.0-3.2","","null","","<div class='trialBorder'><div class='vertical-center'><img style='vertical-align:center; align:center' src=img/fixation3.jpg></div><div class='cl'><div class='vertical-center'>$8<br>for<br>sure</div></div><div class='cr'><div class='vertical-center'><font style='color:orange'>$45<br>with a<br>50% chance</font></div></div><div class='respDivL'><div class='vertical-center'>(E)</div></div><div class='respDivR'><div class='vertical-center'><font style='color:orange'>(I)</font></div></div></div>","null","$8","$45","0","8","45",""
"","","","FIX","61103c2b7810420e5f23f437","bdp_rd","Sun Mar 26 2023 15:12:20 GMT-0500 (Central Daylight Time)","216385","html-keyboard-response","14","61086","0.0-5.0-1.3","","null","","<div class='trialBorder'><div class='vertical-center'><img style='vertical-align:center; align:center' src=img/fixation3.jpg></div></div>","null","","","","","",""
"","","","offer","61103c2b7810420e5f23f437","bdp_rd","Sun Mar 26 2023 15:12:20 GMT-0500 (Central Daylight Time)","216385","html-keyboard-response","15","63699","0.0-5.0-2.3","","2613","","<div class='trialBorder'><div class='vertical-center'><img style='vertical-align:center; align:center' src=img/fixation3.jpg></div><div class='cl'><div class='vertical-center'>$16<br>with a<br>50% chance</div></div><div class='cr'><div class='vertical-center'>$5<br>for<br>sure</div></div><div class='respDivL'><div class='vertical-center'>(E)</div></div><div class='respDivR'><div class='vertical-center'>(I)</div></div></div>","E","$5","$16","1","5","16","RISKY"
"","","","offerFB","61103c2b7810420e5f23f437","bdp_rd","Sun Mar 26 2023 15:12:20 GMT-0500 (Central Daylight Time)","216385","html-keyboard-response","16","63957","0.0-5.0-3.3","","null","","<div class='trialBorder'><div class='vertical-center'><img style='vertical-align:center; align:center' src=img/fixation3.jpg></div><div class='cl'><div class='vertical-center'><font style='color:orange'>$16<br>with a<br>50% chance</font></div></div><div class='cr'><div class='vertical-center'>$5<br>for<br>sure</div></div><div class='respDivL'><div class='vertical-center'><font style='color:orange'>(E)</font></div></div><div class='respDivR'><div class='vertical-center'>(I)</div></div></div>","null","$5","$16","1","5","16",""
"","","","FIX","61103c2b7810420e5f23f437","bdp_rd","Sun Mar 26 2023 15:12:20 GMT-0500 (Central Daylight Time)","216385","html-keyboard-response","17","64462","0.0-5.0-1.4","","null","","<div class='trialBorder'><div class='vertical-center'><img style='vertical-align:center; align:center' src=img/fixation3.jpg></div></div>","null","","","","","",""
"","","","offer","61103c2b7810420e5f23f437","bdp_rd","Sun Mar 26 2023 15:12:20 GMT-0500 (Central Daylight Time)","216385","html-keyboard-response","18","65831","0.0-5.0-2.4","","1368","","<div class='trialBorder'><div class='vertical-center'><img style='vertical-align:center; align:center' src=img/fixation3.jpg></div><div class='cl'><div class='vertical-center'>$1<br>for<br>sure</div></div><div class='cr'><div class='vertical-center'>$33<br>with a<br>50% chance</div></div><div class='respDivL'><div class='vertical-center'>(E)</div></div><div class='respDivR'><div class='vertical-center'>(I)</div></div></div>","I","$1","$33","0","1","33","RISKY"
"","","","offerFB","61103c2b7810420e5f23f437","bdp_rd","Sun Mar 26 2023 15:12:20 GMT-0500 (Central Daylight Time)","216385","html-keyboard-response","19","66085","0.0-5.0-3.4","","null","","<div class='trialBorder'><div class='vertical-center'><img style='vertical-align:center; align:center' src=img/fixation3.jpg></div><div class='cl'><div class='vertical-center'>$1<br>for<br>sure</div></div><div class='cr'><div class='vertical-center'><font style='color:orange'>$33<br>with a<br>50% chance</font></div></div><div class='respDivL'><div class='vertical-center'>(E)</div></div><div class='respDivR'><div class='vertical-center'><font style='color:orange'>(I)</font></div></div></div>","null","$1","$33","0","1","33",""
"","","","FIX","61103c2b7810420e5f23f437","bdp_rd","Sun Mar 26 2023 15:12:20 GMT-0500 (Central Daylight Time)","216385","html-keyboard-response","20","66591","0.0-5.0-1.5","","null","","<div class='trialBorder'><div class='vertical-center'><img style='vertical-align:center; align:center' src=img/fixation3.jpg></div></div>","null","","","","","",""
"","","","offer","61103c2b7810420e5f23f437","bdp_rd","Sun Mar 26 2023 15:12:20 GMT-0500 (Central Daylight Time)","216385","html-keyboard-response","21","69528","0.0-5.0-2.5","","2937","","<div class='trialBorder'><div class='vertical-center'><img style='vertical-align:center; align:center' src=img/fixation3.jpg></div><div class='cl'><div class='vertical-center'>$100<br>with a<br>50% chance</div></div><div class='cr'><div class='vertical-center'>$63<br>for<br>sure</div></div><div class='respDivL'><div class='vertical-center'>(E)</div></div><div class='respDivR'><div class='vertical-center'>(I)</div></div></div>","I","$63","$100","1","63","10","SURE"
"","","","offerFB","61103c2b7810420e5f23f437","bdp_rd","Sun Mar 26 2023 15:12:20 GMT-0500 (Central Daylight Time)","216385","html-keyboard-response","22","69780","0.0-5.0-3.5","","null","","<div class='trialBorder'><div class='vertical-center'><img style='vertical-align:center; align:center' src=img/fixation3.jpg></div><div class='cl'><div class='vertical-center'>$100<br>with a<br>50% chance</div></div><div class='cr'><div class='vertical-center'><font style='color:orange'>$63<br>for<br>sure</font></div></div><div class='respDivL'><div class='vertical-center'>(E)</div></div><div class='respDivR'><div class='vertical-center'><font style='color:orange'>(I)</font></div></div></div>","null","$63","$100","1","63","10",""
"","","","FIX","61103c2b7810420e5f23f437","bdp_rd","Sun Mar 26 2023 15:12:20 GMT-0500 (Central Daylight Time)","216385","html-keyboard-response","23","70283","0.0-5.0-1.6","","null","","<div class='trialBorder'><div class='vertical-center'><img style='vertical-align:center; align:center' src=img/fixation3.jpg></div></div>","null","","","","","",""
"","","","offer","61103c2b7810420e5f23f437","bdp_rd","Sun Mar 26 2023 15:12:20 GMT-0500 (Central Daylight Time)","216385","html-keyboard-response","24","72245","0.0-5.0-2.6","","1960","","<div class='trialBorder'><div class='vertical-center'><img style='vertical-align:center; align:center' src=img/fixation3.jpg></div><div class='cl'><div class='vertical-center'>$10<br>with a<br>50% chance</div></div><div class='cr'><div class='vertical-center'>$7<br>for<br>sure</div></div><div class='respDivL'><div class='vertical-center'>(E)</div></div><div class='respDivR'><div class='vertical-center'>(I)</div></div></div>","I","$7","$10","1","7","10","SURE"
"","","","offerFB","61103c2b7810420e5f23f437","bdp_rd","Sun Mar 26 2023 15:12:20 GMT-0500 (Central Daylight Time)","216385","html-keyboard-response","25","72501","0.0-5.0-3.6","","null","","<div class='trialBorder'><div class='vertical-center'><img style='vertical-align:center; align:center' src=img/fixation3.jpg></div><div class='cl'><div class='vertical-center'>$10<br>with a<br>50% chance</div></div><div class='cr'><div class='vertical-center'><font style='color:orange'>$7<br>for<br>sure</font></div></div><div class='respDivL'><div class='vertical-center'>(E)</div></div><div class='respDivR'><div class='vertical-center'><font style='color:orange'>(I)</font></div></div></div>","null","$7","$10","1","7","10",""
"","","","FIX","61103c2b7810420e5f23f437","bdp_rd","Sun Mar 26 2023 15:12:20 GMT-0500 (Central Daylight Time)","216385","html-keyboard-response","26","73004","0.0-5.0-1.7","","null","","<div class='trialBorder'><div class='vertical-center'><img style='vertical-align:center; align:center' src=img/fixation3.jpg></div></div>","null","","","","","",""
"","","","offer","61103c2b7810420e5f23f437","bdp_rd","Sun Mar 26 2023 15:12:20 GMT-0500 (Central Daylight Time)","216385","html-keyboard-response","27","74794","0.0-5.0-2.7","","1789","","<div class='trialBorder'><div class='vertical-center'><img style='vertical-align:center; align:center' src=img/fixation3.jpg></div><div class='cl'><div class='vertical-center'>$32<br>with a<br>50% chance</div></div><div class='cr'><div class='vertical-center'>$9<br>for<br>sure</div></div><div class='respDivL'><div class='vertical-center'>(E)</div></div><div class='respDivR'><div class='vertical-center'>(I)</div></div></div>","E","$9","$32","1","9","32","RISKY"
"","","","offerFB","61103c2b7810420e5f23f437","bdp_rd","Sun Mar 26 2023 15:12:20 GMT-0500 (Central Daylight Time)","216385","html-keyboard-response","28","75051","0.0-5.0-3.7","","null","","<div class='trialBorder'><div class='vertical-center'><img style='vertical-align:center; align:center' src=img/fixation3.jpg></div><div class='cl'><div class='vertical-center'><font style='color:orange'>$32<br>with a<br>50% chance</font></div></div><div class='cr'><div class='vertical-center'>$9<br>for<br>sure</div></div><div class='respDivL'><div class='vertical-center'><font style='color:orange'>(E)</font></div></div><div class='respDivR'><div class='vertical-center'>(I)</div></div></div>","null","$9","$32","1","9","32",""
"","","","FIX","61103c2b7810420e5f23f437","bdp_rd","Sun Mar 26 2023 15:12:20 GMT-0500 (Central Daylight Time)","216385","html-keyboard-response","29","75556","0.0-5.0-1.8","","null","","<div class='trialBorder'><div class='vertical-center'><img style='vertical-align:center; align:center' src=img/fixation3.jpg></div></div>","null","","","","","",""
"","","","offer","61103c2b7810420e5f23f437","bdp_rd","Sun Mar 26 2023 15:12:20 GMT-0500 (Central Daylight Time)","216385","html-keyboard-response","30","77122","0.0-5.0-2.8","","1565","","<div class='trialBorder'><div class='vertical-center'><img style='vertical-align:center; align:center' src=img/fixation3.jpg></div><div class='cl'><div class='vertical-center'>$50<br>with a<br>50% chance</div></div><div class='cr'><div class='vertical-center'>$5<br>for<br>sure</div></div><div class='respDivL'><div class='vertical-center'>(E)</div></div><div class='respDivR'><div class='vertical-center'>(I)</div></div></div>","E","$5","$50","1","5","50","RISKY"
"","","","offerFB","61103c2b7810420e5f23f437","bdp_rd","Sun Mar 26 2023 15:12:20 GMT-0500 (Central Daylight Time)","216385","html-keyboard-response","31","77378","0.0-5.0-3.8","","null","","<div class='trialBorder'><div class='vertical-center'><img style='vertical-align:center; align:center' src=img/fixation3.jpg></div><div class='cl'><div class='vertical-center'><font style='color:orange'>$50<br>with a<br>50% chance</font></div></div><div class='cr'><div class='vertical-center'>$5<br>for<br>sure</div></div><div class='respDivL'><div class='vertical-center'><font style='color:orange'>(E)</font></div></div><div class='respDivR'><div class='vertical-center'>(I)</div></div></div>","null","$5","$50","1","5","50",""
"","","","FIX","61103c2b7810420e5f23f437","bdp_rd","Sun Mar 26 2023 15:12:20 GMT-0500 (Central Daylight Time)","216385","html-keyboard-response","32","77883","0.0-5.0-1.9","","null","","<div class='trialBorder'><div class='vertical-center'><img style='vertical-align:center; align:center' src=img/fixation3.jpg></div></div>","null","","","","","",""
"","","","offer","61103c2b7810420e5f23f437","bdp_rd","Sun Mar 26 2023 15:12:20 GMT-0500 (Central Daylight Time)","216385","html-keyboard-response","33","79901","0.0-5.0-2.9","","2016","","<div class='trialBorder'><div class='vertical-center'><img style='vertical-align:center; align:center' src=img/fixation3.jpg></div><div class='cl'><div class='vertical-center'>$23<br>with a<br>50% chance</div></div><div class='cr'><div class='vertical-center'>$8<br>for<br>sure</div></div><div class='respDivL'><div class='vertical-center'>(E)</div></div><div class='respDivR'><div class='vertical-center'>(I)</div></div></div>","E","$8","$23","1","8","23","RISKY"
"","","","offerFB","61103c2b7810420e5f23f437","bdp_rd","Sun Mar 26 2023 15:12:20 GMT-0500 (Central Daylight Time)","216385","html-keyboard-response","34","80156","0.0-5.0-3.9","","null","","<div class='trialBorder'><div class='vertical-center'><img style='vertical-align:center; align:center' src=img/fixation3.jpg></div><div class='cl'><div class='vertical-center'><font style='color:orange'>$23<br>with a<br>50% chance</font></div></div><div class='cr'><div class='vertical-center'>$8<br>for<br>sure</div></div><div class='respDivL'><div class='vertical-center'><font style='color:orange'>(E)</font></div></div><div class='respDivR'><div class='vertical-center'>(I)</div></div></div>","null","$8","$23","1","8","23",""
"","","","FIX","61103c2b7810420e5f23f437","bdp_rd","Sun Mar 26 2023 15:12:20 GMT-0500 (Central Daylight Time)","216385","html-keyboard-response","35","80658","0.0-5.0-1.10","","null","","<div class='trialBorder'><div class='vertical-center'><img style='vertical-align:center; align:center' src=img/fixation3.jpg></div></div>","null","","","","","",""
"","","","offer","61103c2b7810420e5f23f437","bdp_rd","Sun Mar 26 2023 15:12:20 GMT-0500 (Central Daylight Time)","216385","html-keyboard-response","36","82164","0.0-5.0-2.10","","1506","","<div class='trialBorder'><div class='vertical-center'><img style='vertical-align:center; align:center' src=img/fixation3.jpg></div><div class='cl'><div class='vertical-center'>$14<br>with a<br>50% chance</div></div><div class='cr'><div class='vertical-center'>$4<br>for<br>sure</div></div><div class='respDivL'><div class='vertical-center'>(E)</div></div><div class='respDivR'><div class='vertical-center'>(I)</div></div></div>","I","$4","$14","1","4","14","SURE"
"","","","offerFB","61103c2b7810420e5f23f437","bdp_rd","Sun Mar 26 2023 15:12:20 GMT-0500 (Central Daylight Time)","216385","html-keyboard-response","37","82420","0.0-5.0-3.10","","null","","<div class='trialBorder'><div class='vertical-center'><img style='vertical-align:center; align:center' src=img/fixation3.jpg></div><div class='cl'><div class='vertical-center'>$14<br>with a<br>50% chance</div></div><div class='cr'><div class='vertical-center'><font style='color:orange'>$4<br>for<br>sure</font></div></div><div class='respDivL'><div class='vertical-center'>(E)</div></div><div class='respDivR'><div class='vertical-center'><font style='color:orange'>(I)</font></div></div></div>","null","$4","$14","1","4","14",""
"","","","FIX","61103c2b7810420e5f23f437","bdp_rd","Sun Mar 26 2023 15:12:20 GMT-0500 (Central Daylight Time)","216385","html-keyboard-response","38","82924","0.0-5.0-1.11","","null","","<div class='trialBorder'><div class='vertical-center'><img style='vertical-align:center; align:center' src=img/fixation3.jpg></div></div>","null","","","","","",""
"","","","offer","61103c2b7810420e5f23f437","bdp_rd","Sun Mar 26 2023 15:12:20 GMT-0500 (Central Daylight Time)","216385","html-keyboard-response","39","84655","0.0-5.0-2.11","","1730","","<div class='trialBorder'><div class='vertical-center'><img style='vertical-align:center; align:center' src=img/fixation3.jpg></div><div class='cl'><div class='vertical-center'>$46<br>with a<br>50% chance</div></div><div class='cr'><div class='vertical-center'>$29<br>for<br>sure</div></div><div class='respDivL'><div class='vertical-center'>(E)</div></div><div class='respDivR'><div class='vertical-center'>(I)</div></div></div>","I","$29","$46","1","29","46","SURE"
"","","","offerFB","61103c2b7810420e5f23f437","bdp_rd","Sun Mar 26 2023 15:12:20 GMT-0500 (Central Daylight Time)","216385","html-keyboard-response","40","84911","0.0-5.0-3.11","","null","","<div class='trialBorder'><div class='vertical-center'><img style='vertical-align:center; align:center' src=img/fixation3.jpg></div><div class='cl'><div class='vertical-center'>$46<br>with a<br>50% chance</div></div><div class='cr'><div class='vertical-center'><font style='color:orange'>$29<br>for<br>sure</font></div></div><div class='respDivL'><div class='vertical-center'>(E)</div></div><div class='respDivR'><div class='vertical-center'><font style='color:orange'>(I)</font></div></div></div>","null","$29","$46","1","29","46",""
"","","","FIX","61103c2b7810420e5f23f437","bdp_rd","Sun Mar 26 2023 15:12:20 GMT-0500 (Central Daylight Time)","216385","html-keyboard-response","41","85417","0.0-5.0-1.12","","null","","<div class='trialBorder'><div class='vertical-center'><img style='vertical-align:center; align:center' src=img/fixation3.jpg></div></div>","null","","","","","",""
"","","","offer","61103c2b7810420e5f23f437","bdp_rd","Sun Mar 26 2023 15:12:20 GMT-0500 (Central Daylight Time)","216385","html-keyboard-response","42","87251","0.0-5.0-2.12","","1833","","<div class='trialBorder'><div class='vertical-center'><img style='vertical-align:center; align:center' src=img/fixation3.jpg></div><div class='cl'><div class='vertical-center'>$19<br>for<br>sure</div></div><div class='cr'><div class='vertical-center'>$51<br>with a<br>50% chance</div></div><div class='respDivL'><div class='vertical-center'>(E)</div></div><div class='respDivR'><div class='vertical-center'>(I)</div></div></div>","E","$19","$51","0","19","51","SURE"
"","","","offerFB","61103c2b7810420e5f23f437","bdp_rd","Sun Mar 26 2023 15:12:20 GMT-0500 (Central Daylight Time)","216385","html-keyboard-response","43","87506","0.0-5.0-3.12","","null","","<div class='trialBorder'><div class='vertical-center'><img style='vertical-align:center; align:center' src=img/fixation3.jpg></div><div class='cl'><div class='vertical-center'><font style='color:orange'>$19<br>for<br>sure</font></div></div><div class='cr'><div class='vertical-center'>$51<br>with a<br>50% chance</div></div><div class='respDivL'><div class='vertical-center'><font style='color:orange'>(E)</font></div></div><div class='respDivR'><div class='vertical-center'>(I)</div></div></div>","null","$19","$51","0","19","51",""
"","","","FIX","61103c2b7810420e5f23f437","bdp_rd","Sun Mar 26 2023 15:12:20 GMT-0500 (Central Daylight Time)","216385","html-keyboard-response","44","88013","0.0-5.0-1.13","","null","","<div class='trialBorder'><div class='vertical-center'><img style='vertical-align:center; align:center' src=img/fixation3.jpg></div></div>","null","","","","","",""
"","","","offer","61103c2b7810420e5f23f437","bdp_rd","Sun Mar 26 2023 15:12:20 GMT-0500 (Central Daylight Time)","216385","html-keyboard-response","45","89219","0.0-5.0-2.13","","1206","","<div class='trialBorder'><div class='vertical-center'><img style='vertical-align:center; align:center' src=img/fixation3.jpg></div><div class='cl'><div class='vertical-center'>$14<br>for<br>sure</div></div><div class='cr'><div class='vertical-center'>$29<br>with a<br>50% chance</div></div><div class='respDivL'><div class='vertical-center'>(E)</div></div><div class='respDivR'><div class='vertical-center'>(I)</div></div></div>","I","$14","$29","0","14","29","RISKY"
"","","","offerFB","61103c2b7810420e5f23f437","bdp_rd","Sun Mar 26 2023 15:12:20 GMT-0500 (Central Daylight Time)","216385","html-keyboard-response","46","89470","0.0-5.0-3.13","","null","","<div class='trialBorder'><div class='vertical-center'><img style='vertical-align:center; align:center' src=img/fixation3.jpg></div><div class='cl'><div class='vertical-center'>$14<br>for<br>sure</div></div><div class='cr'><div class='vertical-center'><font style='color:orange'>$29<br>with a<br>50% chance</font></div></div><div class='respDivL'><div class='vertical-center'>(E)</div></div><div class='respDivR'><div class='vertical-center'><font style='color:orange'>(I)</font></div></div></div>","null","$14","$29","0","14","29",""
"","","","FIX","61103c2b7810420e5f23f437","bdp_rd","Sun Mar 26 2023 15:12:20 GMT-0500 (Central Daylight Time)","216385","html-keyboard-response","47","89976","0.0-5.0-1.14","","null","","<div class='trialBorder'><div class='vertical-center'><img style='vertical-align:center; align:center' src=img/fixation3.jpg></div></div>","null","","","","","",""
"","","","offer","61103c2b7810420e5f23f437","bdp_rd","Sun Mar 26 2023 15:12:20 GMT-0500 (Central Daylight Time)","216385","html-keyboard-response","48","92690","0.0-5.0-2.14","","2713","","<div class='trialBorder'><div class='vertical-center'><img style='vertical-align:center; align:center' src=img/fixation3.jpg></div><div class='cl'><div class='vertical-center'>$69<br>with a<br>50% chance</div></div><div class='cr'><div class='vertical-center'>$58<br>for<br>sure</div></div><div class='respDivL'><div class='vertical-center'>(E)</div></div><div class='respDivR'><div class='vertical-center'>(I)</div></div></div>","I","$58","$69","1","58","69","SURE"
"","","","offerFB","61103c2b7810420e5f23f437","bdp_rd","Sun Mar 26 2023 15:12:20 GMT-0500 (Central Daylight Time)","216385","html-keyboard-response","49","92943","0.0-5.0-3.14","","null","","<div class='trialBorder'><div class='vertical-center'><img style='vertical-align:center; align:center' src=img/fixation3.jpg></div><div class='cl'><div class='vertical-center'>$69<br>with a<br>50% chance</div></div><div class='cr'><div class='vertical-center'><font style='color:orange'>$58<br>for<br>sure</font></div></div><div class='respDivL'><div class='vertical-center'>(E)</div></div><div class='respDivR'><div class='vertical-center'><font style='color:orange'>(I)</font></div></div></div>","null","$58","$69","1","58","69",""
"","","","FIX","61103c2b7810420e5f23f437","bdp_rd","Sun Mar 26 2023 15:12:20 GMT-0500 (Central Daylight Time)","216385","html-keyboard-response","50","93449","0.0-5.0-1.15","","null","","<div class='trialBorder'><div class='vertical-center'><img style='vertical-align:center; align:center' src=img/fixation3.jpg></div></div>","null","","","","","",""
"","","","offer","61103c2b7810420e5f23f437","bdp_rd","Sun Mar 26 2023 15:12:20 GMT-0500 (Central Daylight Time)","216385","html-keyboard-response","51","94595","0.0-5.0-2.15","","1145","","<div class='trialBorder'><div class='vertical-center'><img style='vertical-align:center; align:center' src=img/fixation3.jpg></div><div class='cl'><div class='vertical-center'>$2<br>for<br>sure</div></div><div class='cr'><div class='vertical-center'>$21<br>with a<br>50% chance</div></div><div class='respDivL'><div class='vertical-center'>(E)</div></div><div class='respDivR'><div class='vertical-center'>(I)</div></div></div>","I","$2","$21","0","2","21","RISKY"
"","","","offerFB","61103c2b7810420e5f23f437","bdp_rd","Sun Mar 26 2023 15:12:20 GMT-0500 (Central Daylight Time)","216385","html-keyboard-response","52","94851","0.0-5.0-3.15","","null","","<div class='trialBorder'><div class='vertical-center'><img style='vertical-align:center; align:center' src=img/fixation3.jpg></div><div class='cl'><div class='vertical-center'>$2<br>for<br>sure</div></div><div class='cr'><div class='vertical-center'><font style='color:orange'>$21<br>with a<br>50% chance</font></div></div><div class='respDivL'><div class='vertical-center'>(E)</div></div><div class='respDivR'><div class='vertical-center'><font style='color:orange'>(I)</font></div></div></div>","null","$2","$21","0","2","21",""
"","","","FIX","61103c2b7810420e5f23f437","bdp_rd","Sun Mar 26 2023 15:12:20 GMT-0500 (Central Daylight Time)","216385","html-keyboard-response","53","95353","0.0-5.0-1.16","","null","","<div class='trialBorder'><div class='vertical-center'><img style='vertical-align:center; align:center' src=img/fixation3.jpg></div></div>","null","","","","","",""
"","","","offer","61103c2b7810420e5f23f437","bdp_rd","Sun Mar 26 2023 15:12:20 GMT-0500 (Central Daylight Time)","216385","html-keyboard-response","54","97572","0.0-5.0-2.16","","2219","","<div class='trialBorder'><div class='vertical-center'><img style='vertical-align:center; align:center' src=img/fixation3.jpg></div><div class='cl'><div class='vertical-center'>$86<br>with a<br>50% chance</div></div><div class='cr'><div class='vertical-center'>$45<br>for<br>sure</div></div><div class='respDivL'><div class='vertical-center'>(E)</div></div><div class='respDivR'><div class='vertical-center'>(I)</div></div></div>","E","$45","$86","1","45","86","RISKY"
"","","","offerFB","61103c2b7810420e5f23f437","bdp_rd","Sun Mar 26 2023 15:12:20 GMT-0500 (Central Daylight Time)","216385","html-keyboard-response","55","97828","0.0-5.0-3.16","","null","","<div class='trialBorder'><div class='vertical-center'><img style='vertical-align:center; align:center' src=img/fixation3.jpg></div><div class='cl'><div class='vertical-center'><font style='color:orange'>$86<br>with a<br>50% chance</font></div></div><div class='cr'><div class='vertical-center'>$45<br>for<br>sure</div></div><div class='respDivL'><div class='vertical-center'><font style='color:orange'>(E)</font></div></div><div class='respDivR'><div class='vertical-center'>(I)</div></div></div>","null","$45","$86","1","45","86",""
"","","","FIX","61103c2b7810420e5f23f437","bdp_rd","Sun Mar 26 2023 15:12:20 GMT-0500 (Central Daylight Time)","216385","html-keyboard-response","56","98333","0.0-5.0-1.17","","null","","<div class='trialBorder'><div class='vertical-center'><img style='vertical-align:center; align:center' src=img/fixation3.jpg></div></div>","null","","","","","",""
"","","","offer","61103c2b7810420e5f23f437","bdp_rd","Sun Mar 26 2023 15:12:20 GMT-0500 (Central Daylight Time)","216385","html-keyboard-response","57","99373","0.0-5.0-2.17","","1039","","<div class='trialBorder'><div class='vertical-center'><img style='vertical-align:center; align:center' src=img/fixation3.jpg></div><div class='cl'><div class='vertical-center'>$1<br>for<br>sure</div></div><div class='cr'><div class='vertical-center'>$30<br>with a<br>50% chance</div></div><div class='respDivL'><div class='vertical-center'>(E)</div></div><div class='respDivR'><div class='vertical-center'>(I)</div></div></div>","I","$1","$30","0","1","30","RISKY"
"","","","offerFB","61103c2b7810420e5f23f437","bdp_rd","Sun Mar 26 2023 15:12:20 GMT-0500 (Central Daylight Time)","216385","html-keyboard-response","58","99629","0.0-5.0-3.17","","null","","<div class='trialBorder'><div class='vertical-center'><img style='vertical-align:center; align:center' src=img/fixation3.jpg></div><div class='cl'><div class='vertical-center'>$1<br>for<br>sure</div></div><div class='cr'><div class='vertical-center'><font style='color:orange'>$30<br>with a<br>50% chance</font></div></div><div class='respDivL'><div class='vertical-center'>(E)</div></div><div class='respDivR'><div class='vertical-center'><font style='color:orange'>(I)</font></div></div></div>","null","$1","$30","0","1","30",""
"","","","FIX","61103c2b7810420e5f23f437","bdp_rd","Sun Mar 26 2023 15:12:20 GMT-0500 (Central Daylight Time)","216385","html-keyboard-response","59","100135","0.0-5.0-1.18","","null","","<div class='trialBorder'><div class='vertical-center'><img style='vertical-align:center; align:center' src=img/fixation3.jpg></div></div>","null","","","","","",""
"","","","offer","61103c2b7810420e5f23f437","bdp_rd","Sun Mar 26 2023 15:12:20 GMT-0500 (Central Daylight Time)","216385","html-keyboard-response","60","101752","0.0-5.0-2.18","","1617","","<div class='trialBorder'><div class='vertical-center'><img style='vertical-align:center; align:center' src=img/fixation3.jpg></div><div class='cl'><div class='vertical-center'>$4<br>for<br>sure</div></div><div class='cr'><div class='vertical-center'>$11<br>with a<br>50% chance</div></div><div class='respDivL'><div class='vertical-center'>(E)</div></div><div class='respDivR'><div class='vertical-center'>(I)</div></div></div>","I","$4","$11","0","4","11","RISKY"
"","","","offerFB","61103c2b7810420e5f23f437","bdp_rd","Sun Mar 26 2023 15:12:20 GMT-0500 (Central Daylight Time)","216385","html-keyboard-response","61","102008","0.0-5.0-3.18","","null","","<div class='trialBorder'><div class='vertical-center'><img style='vertical-align:center; align:center' src=img/fixation3.jpg></div><div class='cl'><div class='vertical-center'>$4<br>for<br>sure</div></div><div class='cr'><div class='vertical-center'><font style='color:orange'>$11<br>with a<br>50% chance</font></div></div><div class='respDivL'><div class='vertical-center'>(E)</div></div><div class='respDivR'><div class='vertical-center'><font style='color:orange'>(I)</font></div></div></div>","null","$4","$11","0","4","11",""
"","","","FIX","61103c2b7810420e5f23f437","bdp_rd","Sun Mar 26 2023 15:12:20 GMT-0500 (Central Daylight Time)","216385","html-keyboard-response","62","102512","0.0-5.0-1.19","","null","","<div class='trialBorder'><div class='vertical-center'><img style='vertical-align:center; align:center' src=img/fixation3.jpg></div></div>","null","","","","","",""
"","","","offer","61103c2b7810420e5f23f437","bdp_rd","Sun Mar 26 2023 15:12:20 GMT-0500 (Central Daylight Time)","216385","html-keyboard-response","63","104278","0.0-5.0-2.19","","1766","","<div class='trialBorder'><div class='vertical-center'><img style='vertical-align:center; align:center' src=img/fixation3.jpg></div><div class='cl'><div class='vertical-center'>$34<br>for<br>sure</div></div><div class='cr'><div class='vertical-center'>$48<br>with a<br>50% chance</div></div><div class='respDivL'><div class='vertical-center'>(E)</div></div><div class='respDivR'><div class='vertical-center'>(I)</div></div></div>","E","$34","$48","0","34","48","SURE"
"","","","offerFB","61103c2b7810420e5f23f437","bdp_rd","Sun Mar 26 2023 15:12:20 GMT-0500 (Central Daylight Time)","216385","html-keyboard-response","64","104534","0.0-5.0-3.19","","null","","<div class='trialBorder'><div class='vertical-center'><img style='vertical-align:center; align:center' src=img/fixation3.jpg></div><div class='cl'><div class='vertical-center'><font style='color:orange'>$34<br>for<br>sure</font></div></div><div class='cr'><div class='vertical-center'>$48<br>with a<br>50% chance</div></div><div class='respDivL'><div class='vertical-center'><font style='color:orange'>(E)</font></div></div><div class='respDivR'><div class='vertical-center'>(I)</div></div></div>","null","$34","$48","0","34","48",""
"","","","FIX","61103c2b7810420e5f23f437","bdp_rd","Sun Mar 26 2023 15:12:20 GMT-0500 (Central Daylight Time)","216385","html-keyboard-response","65","105039","0.0-5.0-1.20","","null","","<div class='trialBorder'><div class='vertical-center'><img style='vertical-align:center; align:center' src=img/fixation3.jpg></div></div>","null","","","","","",""
"","","","offer","61103c2b7810420e5f23f437","bdp_rd","Sun Mar 26 2023 15:12:20 GMT-0500 (Central Daylight Time)","216385","html-keyboard-response","66","107426","0.0-5.0-2.20","","2386","","<div class='trialBorder'><div class='vertical-center'><img style='vertical-align:center; align:center' src=img/fixation3.jpg></div><div class='cl'><div class='vertical-center'>$68<br>with a<br>50% chance</div></div><div class='cr'><div class='vertical-center'>$30<br>for<br>sure</div></div><div class='respDivL'><div class='vertical-center'>(E)</div></div><div class='respDivR'><div class='vertical-center'>(I)</div></div></div>","I","$30","$68","1","30","68","SURE"
"","","","offerFB","61103c2b7810420e5f23f437","bdp_rd","Sun Mar 26 2023 15:12:20 GMT-0500 (Central Daylight Time)","216385","html-keyboard-response","67","107682","0.0-5.0-3.20","","null","","<div class='trialBorder'><div class='vertical-center'><img style='vertical-align:center; align:center' src=img/fixation3.jpg></div><div class='cl'><div class='vertical-center'>$68<br>with a<br>50% chance</div></div><div class='cr'><div class='vertical-center'><font style='color:orange'>$30<br>for<br>sure</font></div></div><div class='respDivL'><div class='vertical-center'>(E)</div></div><div class='respDivR'><div class='vertical-center'><font style='color:orange'>(I)</font></div></div></div>","null","$30","$68","1","30","68",""
"","","","FIX","61103c2b7810420e5f23f437","bdp_rd","Sun Mar 26 2023 15:12:20 GMT-0500 (Central Daylight Time)","216385","html-keyboard-response","68","108183","0.0-5.0-1.21","","null","","<div class='trialBorder'><div class='vertical-center'><img style='vertical-align:center; align:center' src=img/fixation3.jpg></div></div>","null","","","","","",""
"","","","offer","61103c2b7810420e5f23f437","bdp_rd","Sun Mar 26 2023 15:12:20 GMT-0500 (Central Daylight Time)","216385","html-keyboard-response","69","110090","0.0-5.0-2.21","","1907","","<div class='trialBorder'><div class='vertical-center'><img style='vertical-align:center; align:center' src=img/fixation3.jpg></div><div class='cl'><div class='vertical-center'>$66<br>with a<br>50% chance</div></div><div class='cr'><div class='vertical-center'>$33<br>for<br>sure</div></div><div class='respDivL'><div class='vertical-center'>(E)</div></div><div class='respDivR'><div class='vertical-center'>(I)</div></div></div>","I","$33","$66","1","33","66","SURE"
"","","","offerFB","61103c2b7810420e5f23f437","bdp_rd","Sun Mar 26 2023 15:12:20 GMT-0500 (Central Daylight Time)","216385","html-keyboard-response","70","110345","0.0-5.0-3.21","","null","","<div class='trialBorder'><div class='vertical-center'><img style='vertical-align:center; align:center' src=img/fixation3.jpg></div><div class='cl'><div class='vertical-center'>$66<br>with a<br>50% chance</div></div><div class='cr'><div class='vertical-center'><font style='color:orange'>$33<br>for<br>sure</font></div></div><div class='respDivL'><div class='vertical-center'>(E)</div></div><div class='respDivR'><div class='vertical-center'><font style='color:orange'>(I)</font></div></div></div>","null","$33","$66","1","33","66",""
"","","","FIX","61103c2b7810420e5f23f437","bdp_rd","Sun Mar 26 2023 15:12:20 GMT-0500 (Central Daylight Time)","216385","html-keyboard-response","71","110851","0.0-5.0-1.22","","null","","<div class='trialBorder'><div class='vertical-center'><img style='vertical-align:center; align:center' src=img/fixation3.jpg></div></div>","null","","","","","",""
"","","","offer","61103c2b7810420e5f23f437","bdp_rd","Sun Mar 26 2023 15:12:20 GMT-0500 (Central Daylight Time)","216385","html-keyboard-response","72","113040","0.0-5.0-2.22","","2188","","<div class='trialBorder'><div class='vertical-center'><img style='vertical-align:center; align:center' src=img/fixation3.jpg></div><div class='cl'><div class='vertical-center'>$10<br>for<br>sure</div></div><div class='cr'><div class='vertical-center'>$19<br>with a<br>50% chance</div></div><div class='respDivL'><div class='vertical-center'>(E)</div></div><div class='respDivR'><div class='vertical-center'>(I)</div></div></div>","E","$10","$19","0","10","19","SURE"
"","","","offerFB","61103c2b7810420e5f23f437","bdp_rd","Sun Mar 26 2023 15:12:20 GMT-0500 (Central Daylight Time)","216385","html-keyboard-response","73","113293","0.0-5.0-3.22","","null","","<div class='trialBorder'><div class='vertical-center'><img style='vertical-align:center; align:center' src=img/fixation3.jpg></div><div class='cl'><div class='vertical-center'><font style='color:orange'>$10<br>for<br>sure</font></div></div><div class='cr'><div class='vertical-center'>$19<br>with a<br>50% chance</div></div><div class='respDivL'><div class='vertical-center'><font style='color:orange'>(E)</font></div></div><div class='respDivR'><div class='vertical-center'>(I)</div></div></div>","null","$10","$19","0","10","19",""
"","","","FIX","61103c2b7810420e5f23f437","bdp_rd","Sun Mar 26 2023 15:12:20 GMT-0500 (Central Daylight Time)","216385","html-keyboard-response","74","113798","0.0-5.0-1.23","","null","","<div class='trialBorder'><div class='vertical-center'><img style='vertical-align:center; align:center' src=img/fixation3.jpg></div></div>","null","","","","","",""
"","","","offer","61103c2b7810420e5f23f437","bdp_rd","Sun Mar 26 2023 15:12:20 GMT-0500 (Central Daylight Time)","216385","html-keyboard-response","75","115565","0.0-5.0-2.23","","1766","","<div class='trialBorder'><div class='vertical-center'><img style='vertical-align:center; align:center' src=img/fixation3.jpg></div><div class='cl'><div class='vertical-center'>$71<br>with a<br>50% chance</div></div><div class='cr'><div class='vertical-center'>$7<br>for<br>sure</div></div><div class='respDivL'><div class='vertical-center'>(E)</div></div><div class='respDivR'><div class='vertical-center'>(I)</div></div></div>","E","$7","$71","1","7","71","RISKY"
"","","","offerFB","61103c2b7810420e5f23f437","bdp_rd","Sun Mar 26 2023 15:12:20 GMT-0500 (Central Daylight Time)","216385","html-keyboard-response","76","115821","0.0-5.0-3.23","","null","","<div class='trialBorder'><div class='vertical-center'><img style='vertical-align:center; align:center' src=img/fixation3.jpg></div><div class='cl'><div class='vertical-center'><font style='color:orange'>$71<br>with a<br>50% chance</font></div></div><div class='cr'><div class='vertical-center'>$7<br>for<br>sure</div></div><div class='respDivL'><div class='vertical-center'><font style='color:orange'>(E)</font></div></div><div class='respDivR'><div class='vertical-center'>(I)</div></div></div>","null","$7","$71","1","7","71",""
"","","","FIX","61103c2b7810420e5f23f437","bdp_rd","Sun Mar 26 2023 15:12:20 GMT-0500 (Central Daylight Time)","216385","html-keyboard-response","77","116327","0.0-5.0-1.24","","null","","<div class='trialBorder'><div class='vertical-center'><img style='vertical-align:center; align:center' src=img/fixation3.jpg></div></div>","null","","","","","",""
"","","","offer","61103c2b7810420e5f23f437","bdp_rd","Sun Mar 26 2023 15:12:20 GMT-0500 (Central Daylight Time)","216385","html-keyboard-response","78","118279","0.0-5.0-2.24","","1951","","<div class='trialBorder'><div class='vertical-center'><img style='vertical-align:center; align:center' src=img/fixation3.jpg></div><div class='cl'><div class='vertical-center'>$37<br>for<br>sure</div></div><div class='cr'><div class='vertical-center'>$44<br>with a<br>50% chance</div></div><div class='respDivL'><div class='vertical-center'>(E)</div></div><div class='respDivR'><div class='vertical-center'>(I)</div></div></div>","E","$37","$44","0","37","44","SURE"
"","","","offerFB","61103c2b7810420e5f23f437","bdp_rd","Sun Mar 26 2023 15:12:20 GMT-0500 (Central Daylight Time)","216385","html-keyboard-response","79","118534","0.0-5.0-3.24","","null","","<div class='trialBorder'><div class='vertical-center'><img style='vertical-align:center; align:center' src=img/fixation3.jpg></div><div class='cl'><div class='vertical-center'><font style='color:orange'>$37<br>for<br>sure</font></div></div><div class='cr'><div class='vertical-center'>$44<br>with a<br>50% chance</div></div><div class='respDivL'><div class='vertical-center'><font style='color:orange'>(E)</font></div></div><div class='respDivR'><div class='vertical-center'>(I)</div></div></div>","null","$37","$44","0","37","44",""
"","","","FIX","61103c2b7810420e5f23f437","bdp_rd","Sun Mar 26 2023 15:12:20 GMT-0500 (Central Daylight Time)","216385","html-keyboard-response","80","119041","0.0-5.0-1.25","","null","","<div class='trialBorder'><div class='vertical-center'><img style='vertical-align:center; align:center' src=img/fixation3.jpg></div></div>","null","","","","","",""
"","","","offer","61103c2b7810420e5f23f437","bdp_rd","Sun Mar 26 2023 15:12:20 GMT-0500 (Central Daylight Time)","216385","html-keyboard-response","81","122648","0.0-5.0-2.25","","3606","","<div class='trialBorder'><div class='vertical-center'><img style='vertical-align:center; align:center' src=img/fixation3.jpg></div><div class='cl'><div class='vertical-center'>$17<br>for<br>sure</div></div><div class='cr'><div class='vertical-center'>$43<br>with a<br>50% chance</div></div><div class='respDivL'><div class='vertical-center'>(E)</div></div><div class='respDivR'><div class='vertical-center'>(I)</div></div></div>","E","$17","$43","0","17","43","SURE"
"","","","offerFB","61103c2b7810420e5f23f437","bdp_rd","Sun Mar 26 2023 15:12:20 GMT-0500 (Central Daylight Time)","216385","html-keyboard-response","82","122903","0.0-5.0-3.25","","null","","<div class='trialBorder'><div class='vertical-center'><img style='vertical-align:center; align:center' src=img/fixation3.jpg></div><div class='cl'><div class='vertical-center'><font style='color:orange'>$17<br>for<br>sure</font></div></div><div class='cr'><div class='vertical-center'>$43<br>with a<br>50% chance</div></div><div class='respDivL'><div class='vertical-center'><font style='color:orange'>(E)</font></div></div><div class='respDivR'><div class='vertical-center'>(I)</div></div></div>","null","$17","$43","0","17","43",""
"","","","FIX","61103c2b7810420e5f23f437","bdp_rd","Sun Mar 26 2023 15:12:20 GMT-0500 (Central Daylight Time)","216385","html-keyboard-response","83","123408","0.0-5.0-1.26","","null","","<div class='trialBorder'><div class='vertical-center'><img style='vertical-align:center; align:center' src=img/fixation3.jpg></div></div>","null","","","","","",""
"","","","offer","61103c2b7810420e5f23f437","bdp_rd","Sun Mar 26 2023 15:12:20 GMT-0500 (Central Daylight Time)","216385","html-keyboard-response","84","127728","0.0-5.0-2.26","","4319","","<div class='trialBorder'><div class='vertical-center'><img style='vertical-align:center; align:center' src=img/fixation3.jpg></div><div class='cl'><div class='vertical-center'>$65<br>with a<br>50% chance</div></div><div class='cr'><div class='vertical-center'>$46<br>for<br>sure</div></div><div class='respDivL'><div class='vertical-center'>(E)</div></div><div class='respDivR'><div class='vertical-center'>(I)</div></div></div>","I","$46","$65","1","46","65","SURE"
"","","","offerFB","61103c2b7810420e5f23f437","bdp_rd","Sun Mar 26 2023 15:12:20 GMT-0500 (Central Daylight Time)","216385","html-keyboard-response","85","127979","0.0-5.0-3.26","","null","","<div class='trialBorder'><div class='vertical-center'><img style='vertical-align:center; align:center' src=img/fixation3.jpg></div><div class='cl'><div class='vertical-center'>$65<br>with a<br>50% chance</div></div><div class='cr'><div class='vertical-center'><font style='color:orange'>$46<br>for<br>sure</font></div></div><div class='respDivL'><div class='vertical-center'>(E)</div></div><div class='respDivR'><div class='vertical-center'><font style='color:orange'>(I)</font></div></div></div>","null","$46","$65","1","46","65",""
"","","","FIX","61103c2b7810420e5f23f437","bdp_rd","Sun Mar 26 2023 15:12:20 GMT-0500 (Central Daylight Time)","216385","html-keyboard-response","86","128485","0.0-5.0-1.27","","null","","<div class='trialBorder'><div class='vertical-center'><img style='vertical-align:center; align:center' src=img/fixation3.jpg></div></div>","null","","","","","",""
"","","","offer","61103c2b7810420e5f23f437","bdp_rd","Sun Mar 26 2023 15:12:20 GMT-0500 (Central Daylight Time)","216385","html-keyboard-response","87","130180","0.0-5.0-2.27","","1695","","<div class='trialBorder'><div class='vertical-center'><img style='vertical-align:center; align:center' src=img/fixation3.jpg></div><div class='cl'><div class='vertical-center'>$47<br>with a<br>50% chance</div></div><div class='cr'><div class='vertical-center'>$27<br>for<br>sure</div></div><div class='respDivL'><div class='vertical-center'>(E)</div></div><div class='respDivR'><div class='vertical-center'>(I)</div></div></div>","I","$27","$47","1","27","47","SURE"
"","","","offerFB","61103c2b7810420e5f23f437","bdp_rd","Sun Mar 26 2023 15:12:20 GMT-0500 (Central Daylight Time)","216385","html-keyboard-response","88","130436","0.0-5.0-3.27","","null","","<div class='trialBorder'><div class='vertical-center'><img style='vertical-align:center; align:center' src=img/fixation3.jpg></div><div class='cl'><div class='vertical-center'>$47<br>with a<br>50% chance</div></div><div class='cr'><div class='vertical-center'><font style='color:orange'>$27<br>for<br>sure</font></div></div><div class='respDivL'><div class='vertical-center'>(E)</div></div><div class='respDivR'><div class='vertical-center'><font style='color:orange'>(I)</font></div></div></div>","null","$27","$47","1","27","47",""
"","","","FIX","61103c2b7810420e5f23f437","bdp_rd","Sun Mar 26 2023 15:12:20 GMT-0500 (Central Daylight Time)","216385","html-keyboard-response","89","130941","0.0-5.0-1.28","","null","","<div class='trialBorder'><div class='vertical-center'><img style='vertical-align:center; align:center' src=img/fixation3.jpg></div></div>","null","","","","","",""
"","","","offer","61103c2b7810420e5f23f437","bdp_rd","Sun Mar 26 2023 15:12:20 GMT-0500 (Central Daylight Time)","216385","html-keyboard-response","90","132652","0.0-5.0-2.28","","1709","","<div class='trialBorder'><div class='vertical-center'><img style='vertical-align:center; align:center' src=img/fixation3.jpg></div><div class='cl'><div class='vertical-center'>$18<br>for<br>sure</div></div><div class='cr'><div class='vertical-center'>$39<br>with a<br>50% chance</div></div><div class='respDivL'><div class='vertical-center'>(E)</div></div><div class='respDivR'><div class='vertical-center'>(I)</div></div></div>","E","$18","$39","0","18","39","SURE"
"","","","offerFB","61103c2b7810420e5f23f437","bdp_rd","Sun Mar 26 2023 15:12:20 GMT-0500 (Central Daylight Time)","216385","html-keyboard-response","91","132908","0.0-5.0-3.28","","null","","<div class='trialBorder'><div class='vertical-center'><img style='vertical-align:center; align:center' src=img/fixation3.jpg></div><div class='cl'><div class='vertical-center'><font style='color:orange'>$18<br>for<br>sure</font></div></div><div class='cr'><div class='vertical-center'>$39<br>with a<br>50% chance</div></div><div class='respDivL'><div class='vertical-center'><font style='color:orange'>(E)</font></div></div><div class='respDivR'><div class='vertical-center'>(I)</div></div></div>","null","$18","$39","0","18","39",""
"","","","FIX","61103c2b7810420e5f23f437","bdp_rd","Sun Mar 26 2023 15:12:20 GMT-0500 (Central Daylight Time)","216385","html-keyboard-response","92","133411","0.0-5.0-1.29","","null","","<div class='trialBorder'><div class='vertical-center'><img style='vertical-align:center; align:center' src=img/fixation3.jpg></div></div>","null","","","","","",""
"","","","offer","61103c2b7810420e5f23f437","bdp_rd","Sun Mar 26 2023 15:12:20 GMT-0500 (Central Daylight Time)","216385","html-keyboard-response","93","135855","0.0-5.0-2.29","","2444","","<div class='trialBorder'><div class='vertical-center'><img style='vertical-align:center; align:center' src=img/fixation3.jpg></div><div class='cl'><div class='vertical-center'>$80<br>with a<br>50% chance</div></div><div class='cr'><div class='vertical-center'>$20<br>for<br>sure</div></div><div class='respDivL'><div class='vertical-center'>(E)</div></div><div class='respDivR'><div class='vertical-center'>(I)</div></div></div>","I","$20","$80","1","20","80","SURE"
"","","","offerFB","61103c2b7810420e5f23f437","bdp_rd","Sun Mar 26 2023 15:12:20 GMT-0500 (Central Daylight Time)","216385","html-keyboard-response","94","136110","0.0-5.0-3.29","","null","","<div class='trialBorder'><div class='vertical-center'><img style='vertical-align:center; align:center' src=img/fixation3.jpg></div><div class='cl'><div class='vertical-center'>$80<br>with a<br>50% chance</div></div><div class='cr'><div class='vertical-center'><font style='color:orange'>$20<br>for<br>sure</font></div></div><div class='respDivL'><div class='vertical-center'>(E)</div></div><div class='respDivR'><div class='vertical-center'><font style='color:orange'>(I)</font></div></div></div>","null","$20","$80","1","20","80",""
"","","","FIX","61103c2b7810420e5f23f437","bdp_rd","Sun Mar 26 2023 15:12:20 GMT-0500 (Central Daylight Time)","216385","html-keyboard-response","95","136615","0.0-5.0-1.30","","null","","<div class='trialBorder'><div class='vertical-center'><img style='vertical-align:center; align:center' src=img/fixation3.jpg></div></div>","null","","","","","",""
"","","","offer","61103c2b7810420e5f23f437","bdp_rd","Sun Mar 26 2023 15:12:20 GMT-0500 (Central Daylight Time)","216385","html-keyboard-response","96","137871","0.0-5.0-2.30","","1256","","<div class='trialBorder'><div class='vertical-center'><img style='vertical-align:center; align:center' src=img/fixation3.jpg></div><div class='cl'><div class='vertical-center'>$42<br>for<br>sure</div></div><div class='cr'><div class='vertical-center'>$73<br>with a<br>50% chance</div></div><div class='respDivL'><div class='vertical-center'>(E)</div></div><div class='respDivR'><div class='vertical-center'>(I)</div></div></div>","I","$42","$73","0","42","73","RISKY"
"","","","offerFB","61103c2b7810420e5f23f437","bdp_rd","Sun Mar 26 2023 15:12:20 GMT-0500 (Central Daylight Time)","216385","html-keyboard-response","97","138126","0.0-5.0-3.30","","null","","<div class='trialBorder'><div class='vertical-center'><img style='vertical-align:center; align:center' src=img/fixation3.jpg></div><div class='cl'><div class='vertical-center'>$42<br>for<br>sure</div></div><div class='cr'><div class='vertical-center'><font style='color:orange'>$73<br>with a<br>50% chance</font></div></div><div class='respDivL'><div class='vertical-center'>(E)</div></div><div class='respDivR'><div class='vertical-center'><font style='color:orange'>(I)</font></div></div></div>","null","$42","$73","0","42","73",""
"","","","FIX","61103c2b7810420e5f23f437","bdp_rd","Sun Mar 26 2023 15:12:20 GMT-0500 (Central Daylight Time)","216385","html-keyboard-response","98","138632","0.0-5.0-1.31","","null","","<div class='trialBorder'><div class='vertical-center'><img style='vertical-align:center; align:center' src=img/fixation3.jpg></div></div>","null","","","","","",""
"","","","offer","61103c2b7810420e5f23f437","bdp_rd","Sun Mar 26 2023 15:12:20 GMT-0500 (Central Daylight Time)","216385","html-keyboard-response","99","140704","0.0-5.0-2.31","","2071","","<div class='trialBorder'><div class='vertical-center'><img style='vertical-align:center; align:center' src=img/fixation3.jpg></div><div class='cl'><div class='vertical-center'>$12<br>for<br>sure</div></div><div class='cr'><div class='vertical-center'>$35<br>with a<br>50% chance</div></div><div class='respDivL'><div class='vertical-center'>(E)</div></div><div class='respDivR'><div class='vertical-center'>(I)</div></div></div>","E","$12","$35","0","12","35","SURE"
"","","","offerFB","61103c2b7810420e5f23f437","bdp_rd","Sun Mar 26 2023 15:12:20 GMT-0500 (Central Daylight Time)","216385","html-keyboard-response","100","140960","0.0-5.0-3.31","","null","","<div class='trialBorder'><div class='vertical-center'><img style='vertical-align:center; align:center' src=img/fixation3.jpg></div><div class='cl'><div class='vertical-center'><font style='color:orange'>$12<br>for<br>sure</font></div></div><div class='cr'><div class='vertical-center'>$35<br>with a<br>50% chance</div></div><div class='respDivL'><div class='vertical-center'><font style='color:orange'>(E)</font></div></div><div class='respDivR'><div class='vertical-center'>(I)</div></div></div>","null","$12","$35","0","12","35",""
"","","","FIX","61103c2b7810420e5f23f437","bdp_rd","Sun Mar 26 2023 15:12:20 GMT-0500 (Central Daylight Time)","216385","html-keyboard-response","101","141466","0.0-5.0-1.32","","null","","<div class='trialBorder'><div class='vertical-center'><img style='vertical-align:center; align:center' src=img/fixation3.jpg></div></div>","null","","","","","",""
"","","","offer","61103c2b7810420e5f23f437","bdp_rd","Sun Mar 26 2023 15:12:20 GMT-0500 (Central Daylight Time)","216385","html-keyboard-response","102","142506","0.0-5.0-2.32","","1039","","<div class='trialBorder'><div class='vertical-center'><img style='vertical-align:center; align:center' src=img/fixation3.jpg></div><div class='cl'><div class='vertical-center'>$6<br>for<br>sure</div></div><div class='cr'><div class='vertical-center'>$13<br>with a<br>50% chance</div></div><div class='respDivL'><div class='vertical-center'>(E)</div></div><div class='respDivR'><div class='vertical-center'>(I)</div></div></div>","I","$6","$13","0","6","13","RISKY"
"","","","offerFB","61103c2b7810420e5f23f437","bdp_rd","Sun Mar 26 2023 15:12:20 GMT-0500 (Central Daylight Time)","216385","html-keyboard-response","103","142762","0.0-5.0-3.32","","null","","<div class='trialBorder'><div class='vertical-center'><img style='vertical-align:center; align:center' src=img/fixation3.jpg></div><div class='cl'><div class='vertical-center'>$6<br>for<br>sure</div></div><div class='cr'><div class='vertical-center'><font style='color:orange'>$13<br>with a<br>50% chance</font></div></div><div class='respDivL'><div class='vertical-center'>(E)</div></div><div class='respDivR'><div class='vertical-center'><font style='color:orange'>(I)</font></div></div></div>","null","$6","$13","0","6","13",""
"","","","FIX","61103c2b7810420e5f23f437","bdp_rd","Sun Mar 26 2023 15:12:20 GMT-0500 (Central Daylight Time)","216385","html-keyboard-response","104","143267","0.0-5.0-1.33","","null","","<div class='trialBorder'><div class='vertical-center'><img style='vertical-align:center; align:center' src=img/fixation3.jpg></div></div>","null","","","","","",""
"","","","offer","61103c2b7810420e5f23f437","bdp_rd","Sun Mar 26 2023 15:12:20 GMT-0500 (Central Daylight Time)","216385","html-keyboard-response","105","145165","0.0-5.0-2.33","","1897","","<div class='trialBorder'><div class='vertical-center'><img style='vertical-align:center; align:center' src=img/fixation3.jpg></div><div class='cl'><div class='vertical-center'>$31<br>with a<br>50% chance</div></div><div class='cr'><div class='vertical-center'>$15<br>for<br>sure</div></div><div class='respDivL'><div class='vertical-center'>(E)</div></div><div class='respDivR'><div class='vertical-center'>(I)</div></div></div>","I","$15","$31","1","15","31","SURE"
"","","","offerFB","61103c2b7810420e5f23f437","bdp_rd","Sun Mar 26 2023 15:12:20 GMT-0500 (Central Daylight Time)","216385","html-keyboard-response","106","145421","0.0-5.0-3.33","","null","","<div class='trialBorder'><div class='vertical-center'><img style='vertical-align:center; align:center' src=img/fixation3.jpg></div><div class='cl'><div class='vertical-center'>$31<br>with a<br>50% chance</div></div><div class='cr'><div class='vertical-center'><font style='color:orange'>$15<br>for<br>sure</font></div></div><div class='respDivL'><div class='vertical-center'>(E)</div></div><div class='respDivR'><div class='vertical-center'><font style='color:orange'>(I)</font></div></div></div>","null","$15","$31","1","15","31",""
"","","","FIX","61103c2b7810420e5f23f437","bdp_rd","Sun Mar 26 2023 15:12:20 GMT-0500 (Central Daylight Time)","216385","html-keyboard-response","107","145927","0.0-5.0-1.34","","null","","<div class='trialBorder'><div class='vertical-center'><img style='vertical-align:center; align:center' src=img/fixation3.jpg></div></div>","null","","","","","",""
"","","","offer","61103c2b7810420e5f23f437","bdp_rd","Sun Mar 26 2023 15:12:20 GMT-0500 (Central Daylight Time)","216385","html-keyboard-response","108","147397","0.0-5.0-2.34","","1470","","<div class='trialBorder'><div class='vertical-center'><img style='vertical-align:center; align:center' src=img/fixation3.jpg></div><div class='cl'><div class='vertical-center'>$22<br>for<br>sure</div></div><div class='cr'><div class='vertical-center'>$42<br>with a<br>50% chance</div></div><div class='respDivL'><div class='vertical-center'>(E)</div></div><div class='respDivR'><div class='vertical-center'>(I)</div></div></div>","E","$22","$42","0","22","42","SURE"
"","","","offerFB","61103c2b7810420e5f23f437","bdp_rd","Sun Mar 26 2023 15:12:20 GMT-0500 (Central Daylight Time)","216385","html-keyboard-response","109","147653","0.0-5.0-3.34","","null","","<div class='trialBorder'><div class='vertical-center'><img style='vertical-align:center; align:center' src=img/fixation3.jpg></div><div class='cl'><div class='vertical-center'><font style='color:orange'>$22<br>for<br>sure</font></div></div><div class='cr'><div class='vertical-center'>$42<br>with a<br>50% chance</div></div><div class='respDivL'><div class='vertical-center'><font style='color:orange'>(E)</font></div></div><div class='respDivR'><div class='vertical-center'>(I)</div></div></div>","null","$22","$42","0","22","42",""
"","","","FIX","61103c2b7810420e5f23f437","bdp_rd","Sun Mar 26 2023 15:12:20 GMT-0500 (Central Daylight Time)","216385","html-keyboard-response","110","148156","0.0-5.0-1.35","","null","","<div class='trialBorder'><div class='vertical-center'><img style='vertical-align:center; align:center' src=img/fixation3.jpg></div></div>","null","","","","","",""
"","","","offer","61103c2b7810420e5f23f437","bdp_rd","Sun Mar 26 2023 15:12:20 GMT-0500 (Central Daylight Time)","216385","html-keyboard-response","111","149770","0.0-5.0-2.35","","1613","","<div class='trialBorder'><div class='vertical-center'><img style='vertical-align:center; align:center' src=img/fixation3.jpg></div><div class='cl'><div class='vertical-center'>$24<br>for<br>sure</div></div><div class='cr'><div class='vertical-center'>$70<br>with a<br>50% chance</div></div><div class='respDivL'><div class='vertical-center'>(E)</div></div><div class='respDivR'><div class='vertical-center'>(I)</div></div></div>","I","$24","$70","0","24","70","RISKY"
"","","","offerFB","61103c2b7810420e5f23f437","bdp_rd","Sun Mar 26 2023 15:12:20 GMT-0500 (Central Daylight Time)","216385","html-keyboard-response","112","150026","0.0-5.0-3.35","","null","","<div class='trialBorder'><div class='vertical-center'><img style='vertical-align:center; align:center' src=img/fixation3.jpg></div><div class='cl'><div class='vertical-center'>$24<br>for<br>sure</div></div><div class='cr'><div class='vertical-center'><font style='color:orange'>$70<br>with a<br>50% chance</font></div></div><div class='respDivL'><div class='vertical-center'>(E)</div></div><div class='respDivR'><div class='vertical-center'><font style='color:orange'>(I)</font></div></div></div>","null","$24","$70","0","24","70",""
"","","","FIX","61103c2b7810420e5f23f437","bdp_rd","Sun Mar 26 2023 15:12:20 GMT-0500 (Central Daylight Time)","216385","html-keyboard-response","113","150527","0.0-5.0-1.36","","null","","<div class='trialBorder'><div class='vertical-center'><img style='vertical-align:center; align:center' src=img/fixation3.jpg></div></div>","null","","","","","",""
"","","","offer","61103c2b7810420e5f23f437","bdp_rd","Sun Mar 26 2023 15:12:20 GMT-0500 (Central Daylight Time)","216385","html-keyboard-response","114","152435","0.0-5.0-2.36","","1908","","<div class='trialBorder'><div class='vertical-center'><img style='vertical-align:center; align:center' src=img/fixation3.jpg></div><div class='cl'><div class='vertical-center'>$9<br>for<br>sure</div></div><div class='cr'><div class='vertical-center'>$18<br>with a<br>50% chance</div></div><div class='respDivL'><div class='vertical-center'>(E)</div></div><div class='respDivR'><div class='vertical-center'>(I)</div></div></div>","E","$9","$18","0","9","18","SURE"
"","","","offerFB","61103c2b7810420e5f23f437","bdp_rd","Sun Mar 26 2023 15:12:20 GMT-0500 (Central Daylight Time)","216385","html-keyboard-response","115","152688","0.0-5.0-3.36","","null","","<div class='trialBorder'><div class='vertical-center'><img style='vertical-align:center; align:center' src=img/fixation3.jpg></div><div class='cl'><div class='vertical-center'><font style='color:orange'>$9<br>for<br>sure</font></div></div><div class='cr'><div class='vertical-center'>$18<br>with a<br>50% chance</div></div><div class='respDivL'><div class='vertical-center'><font style='color:orange'>(E)</font></div></div><div class='respDivR'><div class='vertical-center'>(I)</div></div></div>","null","$9","$18","0","9","18",""
"","","","FIX","61103c2b7810420e5f23f437","bdp_rd","Sun Mar 26 2023 15:12:20 GMT-0500 (Central Daylight Time)","216385","html-keyboard-response","116","153189","0.0-5.0-1.37","","null","","<div class='trialBorder'><div class='vertical-center'><img style='vertical-align:center; align:center' src=img/fixation3.jpg></div></div>","null","","","","","",""
"","","","offer","61103c2b7810420e5f23f437","bdp_rd","Sun Mar 26 2023 15:12:20 GMT-0500 (Central Daylight Time)","216385","html-keyboard-response","117","154880","0.0-5.0-2.37","","1690","","<div class='trialBorder'><div class='vertical-center'><img style='vertical-align:center; align:center' src=img/fixation3.jpg></div><div class='cl'><div class='vertical-center'>$3<br>for<br>sure</div></div><div class='cr'><div class='vertical-center'>$17<br>with a<br>50% chance</div></div><div class='respDivL'><div class='vertical-center'>(E)</div></div><div class='respDivR'><div class='vertical-center'>(I)</div></div></div>","I","$3","$17","0","3","17","RISKY"
"","","","offerFB","61103c2b7810420e5f23f437","bdp_rd","Sun Mar 26 2023 15:12:20 GMT-0500 (Central Daylight Time)","216385","html-keyboard-response","118","155136","0.0-5.0-3.37","","null","","<div class='trialBorder'><div class='vertical-center'><img style='vertical-align:center; align:center' src=img/fixation3.jpg></div><div class='cl'><div class='vertical-center'>$3<br>for<br>sure</div></div><div class='cr'><div class='vertical-center'><font style='color:orange'>$17<br>with a<br>50% chance</font></div></div><div class='respDivL'><div class='vertical-center'>(E)</div></div><div class='respDivR'><div class='vertical-center'><font style='color:orange'>(I)</font></div></div></div>","null","$3","$17","0","3","17",""
"","","","FIX","61103c2b7810420e5f23f437","bdp_rd","Sun Mar 26 2023 15:12:20 GMT-0500 (Central Daylight Time)","216385","html-keyboard-response","119","155641","0.0-5.0-1.38","","null","","<div class='trialBorder'><div class='vertical-center'><img style='vertical-align:center; align:center' src=img/fixation3.jpg></div></div>","null","","","","","",""
"","","","offer","61103c2b7810420e5f23f437","bdp_rd","Sun Mar 26 2023 15:12:20 GMT-0500 (Central Daylight Time)","216385","html-keyboard-response","120","159049","0.0-5.0-2.38","","3408","","<div class='trialBorder'><div class='vertical-center'><img style='vertical-align:center; align:center' src=img/fixation3.jpg></div><div class='cl'><div class='vertical-center'>$54<br>with a<br>50% chance</div></div><div class='cr'><div class='vertical-center'>$25<br>for<br>sure</div></div><div class='respDivL'><div class='vertical-center'>(E)</div></div><div class='respDivR'><div class='vertical-center'>(I)</div></div></div>","I","$25","$54","1","25","54","SURE"
"","","","offerFB","61103c2b7810420e5f23f437","bdp_rd","Sun Mar 26 2023 15:12:20 GMT-0500 (Central Daylight Time)","216385","html-keyboard-response","121","159304","0.0-5.0-3.38","","null","","<div class='trialBorder'><div class='vertical-center'><img style='vertical-align:center; align:center' src=img/fixation3.jpg></div><div class='cl'><div class='vertical-center'>$54<br>with a<br>50% chance</div></div><div class='cr'><div class='vertical-center'><font style='color:orange'>$25<br>for<br>sure</font></div></div><div class='respDivL'><div class='vertical-center'>(E)</div></div><div class='respDivR'><div class='vertical-center'><font style='color:orange'>(I)</font></div></div></div>","null","$25","$54","1","25","54",""
"","","","FIX","61103c2b7810420e5f23f437","bdp_rd","Sun Mar 26 2023 15:12:20 GMT-0500 (Central Daylight Time)","216385","html-keyboard-response","122","159805","0.0-5.0-1.39","","null","","<div class='trialBorder'><div class='vertical-center'><img style='vertical-align:center; align:center' src=img/fixation3.jpg></div></div>","null","","","","","",""
"","","","offer","61103c2b7810420e5f23f437","bdp_rd","Sun Mar 26 2023 15:12:20 GMT-0500 (Central Daylight Time)","216385","html-keyboard-response","123","161862","0.0-5.0-2.39","","2056","","<div class='trialBorder'><div class='vertical-center'><img style='vertical-align:center; align:center' src=img/fixation3.jpg></div><div class='cl'><div class='vertical-center'>$38<br>with a<br>50% chance</div></div><div class='cr'><div class='vertical-center'>$16<br>for<br>sure</div></div><div class='respDivL'><div class='vertical-center'>(E)</div></div><div class='respDivR'><div class='vertical-center'>(I)</div></div></div>","E","$16","$38","1","16","38","RISKY"
"","","","offerFB","61103c2b7810420e5f23f437","bdp_rd","Sun Mar 26 2023 15:12:20 GMT-0500 (Central Daylight Time)","216385","html-keyboard-response","124","162115","0.0-5.0-3.39","","null","","<div class='trialBorder'><div class='vertical-center'><img style='vertical-align:center; align:center' src=img/fixation3.jpg></div><div class='cl'><div class='vertical-center'><font style='color:orange'>$38<br>with a<br>50% chance</font></div></div><div class='cr'><div class='vertical-center'>$16<br>for<br>sure</div></div><div class='respDivL'><div class='vertical-center'><font style='color:orange'>(E)</font></div></div><div class='respDivR'><div class='vertical-center'>(I)</div></div></div>","null","$16","$38","1","16","38",""
"","","","FIX","61103c2b7810420e5f23f437","bdp_rd","Sun Mar 26 2023 15:12:20 GMT-0500 (Central Daylight Time)","216385","html-keyboard-response","125","162618","0.0-5.0-1.40","","null","","<div class='trialBorder'><div class='vertical-center'><img style='vertical-align:center; align:center' src=img/fixation3.jpg></div></div>","null","","","","","",""
"","","","offer","61103c2b7810420e5f23f437","bdp_rd","Sun Mar 26 2023 15:12:20 GMT-0500 (Central Daylight Time)","216385","html-keyboard-response","126","164417","0.0-5.0-2.40","","1798","","<div class='trialBorder'><div class='vertical-center'><img style='vertical-align:center; align:center' src=img/fixation3.jpg></div><div class='cl'><div class='vertical-center'>$37<br>with a<br>50% chance</div></div><div class='cr'><div class='vertical-center'>$20<br>for<br>sure</div></div><div class='respDivL'><div class='vertical-center'>(E)</div></div><div class='respDivR'><div class='vertical-center'>(I)</div></div></div>","I","$20","$37","1","20","37","SURE"
"","","","offerFB","61103c2b7810420e5f23f437","bdp_rd","Sun Mar 26 2023 15:12:20 GMT-0500 (Central Daylight Time)","216385","html-keyboard-response","127","164672","0.0-5.0-3.40","","null","","<div class='trialBorder'><div class='vertical-center'><img style='vertical-align:center; align:center' src=img/fixation3.jpg></div><div class='cl'><div class='vertical-center'>$37<br>with a<br>50% chance</div></div><div class='cr'><div class='vertical-center'><font style='color:orange'>$20<br>for<br>sure</font></div></div><div class='respDivL'><div class='vertical-center'>(E)</div></div><div class='respDivR'><div class='vertical-center'><font style='color:orange'>(I)</font></div></div></div>","null","$20","$37","1","20","37",""
"","","","FIX","61103c2b7810420e5f23f437","bdp_rd","Sun Mar 26 2023 15:12:20 GMT-0500 (Central Daylight Time)","216385","html-keyboard-response","128","165178","0.0-5.0-1.41","","null","","<div class='trialBorder'><div class='vertical-center'><img style='vertical-align:center; align:center' src=img/fixation3.jpg></div></div>","null","","","","","",""
"","","","offer","61103c2b7810420e5f23f437","bdp_rd","Sun Mar 26 2023 15:12:20 GMT-0500 (Central Daylight Time)","216385","html-keyboard-response","129","166708","0.0-5.0-2.41","","1529","","<div class='trialBorder'><div class='vertical-center'><img style='vertical-align:center; align:center' src=img/fixation3.jpg></div><div class='cl'><div class='vertical-center'>$22<br>for<br>sure</div></div><div class='cr'><div class='vertical-center'>$59<br>with a<br>50% chance</div></div><div class='respDivL'><div class='vertical-center'>(E)</div></div><div class='respDivR'><div class='vertical-center'>(I)</div></div></div>","E","$22","$59","0","22","59","SURE"
"","","","offerFB","61103c2b7810420e5f23f437","bdp_rd","Sun Mar 26 2023 15:12:20 GMT-0500 (Central Daylight Time)","216385","html-keyboard-response","130","166963","0.0-5.0-3.41","","null","","<div class='trialBorder'><div class='vertical-center'><img style='vertical-align:center; align:center' src=img/fixation3.jpg></div><div class='cl'><div class='vertical-center'><font style='color:orange'>$22<br>for<br>sure</font></div></div><div class='cr'><div class='vertical-center'>$59<br>with a<br>50% chance</div></div><div class='respDivL'><div class='vertical-center'><font style='color:orange'>(E)</font></div></div><div class='respDivR'><div class='vertical-center'>(I)</div></div></div>","null","$22","$59","0","22","59",""
"","","","FIX","61103c2b7810420e5f23f437","bdp_rd","Sun Mar 26 2023 15:12:20 GMT-0500 (Central Daylight Time)","216385","html-keyboard-response","131","167469","0.0-5.0-1.42","","null","","<div class='trialBorder'><div class='vertical-center'><img style='vertical-align:center; align:center' src=img/fixation3.jpg></div></div>","null","","","","","",""
"","","","offer","61103c2b7810420e5f23f437","bdp_rd","Sun Mar 26 2023 15:12:20 GMT-0500 (Central Daylight Time)","216385","html-keyboard-response","132","168840","0.0-5.0-2.42","","1371","","<div class='trialBorder'><div class='vertical-center'><img style='vertical-align:center; align:center' src=img/fixation3.jpg></div><div class='cl'><div class='vertical-center'>$15<br>with a<br>50% chance</div></div><div class='cr'><div class='vertical-center'>$6<br>for<br>sure</div></div><div class='respDivL'><div class='vertical-center'>(E)</div></div><div class='respDivR'><div class='vertical-center'>(I)</div></div></div>","E","$6","$15","1","6","15","RISKY"
"","","","offerFB","61103c2b7810420e5f23f437","bdp_rd","Sun Mar 26 2023 15:12:20 GMT-0500 (Central Daylight Time)","216385","html-keyboard-response","133","169092","0.0-5.0-3.42","","null","","<div class='trialBorder'><div class='vertical-center'><img style='vertical-align:center; align:center' src=img/fixation3.jpg></div><div class='cl'><div class='vertical-center'><font style='color:orange'>$15<br>with a<br>50% chance</font></div></div><div class='cr'><div class='vertical-center'>$6<br>for<br>sure</div></div><div class='respDivL'><div class='vertical-center'><font style='color:orange'>(E)</font></div></div><div class='respDivR'><div class='vertical-center'>(I)</div></div></div>","null","$6","$15","1","6","15",""
"","","","FIX","61103c2b7810420e5f23f437","bdp_rd","Sun Mar 26 2023 15:12:20 GMT-0500 (Central Daylight Time)","216385","html-keyboard-response","134","169597","0.0-5.0-1.43","","null","","<div class='trialBorder'><div class='vertical-center'><img style='vertical-align:center; align:center' src=img/fixation3.jpg></div></div>","null","","","","","",""
"","","","offer","61103c2b7810420e5f23f437","bdp_rd","Sun Mar 26 2023 15:12:20 GMT-0500 (Central Daylight Time)","216385","html-keyboard-response","135","171515","0.0-5.0-2.43","","1917","","<div class='trialBorder'><div class='vertical-center'><img style='vertical-align:center; align:center' src=img/fixation3.jpg></div><div class='cl'><div class='vertical-center'>$26<br>for<br>sure</div></div><div class='cr'><div class='vertical-center'>$92<br>with a<br>50% chance</div></div><div class='respDivL'><div class='vertical-center'>(E)</div></div><div class='respDivR'><div class='vertical-center'>(I)</div></div></div>","I","$26","$92","0","26","92","RISKY"
"","","","offerFB","61103c2b7810420e5f23f437","bdp_rd","Sun Mar 26 2023 15:12:20 GMT-0500 (Central Daylight Time)","216385","html-keyboard-response","136","171771","0.0-5.0-3.43","","null","","<div class='trialBorder'><div class='vertical-center'><img style='vertical-align:center; align:center' src=img/fixation3.jpg></div><div class='cl'><div class='vertical-center'>$26<br>for<br>sure</div></div><div class='cr'><div class='vertical-center'><font style='color:orange'>$92<br>with a<br>50% chance</font></div></div><div class='respDivL'><div class='vertical-center'>(E)</div></div><div class='respDivR'><div class='vertical-center'><font style='color:orange'>(I)</font></div></div></div>","null","$26","$92","0","26","92",""
"","","","FIX","61103c2b7810420e5f23f437","bdp_rd","Sun Mar 26 2023 15:12:20 GMT-0500 (Central Daylight Time)","216385","html-keyboard-response","137","172272","0.0-5.0-1.44","","null","","<div class='trialBorder'><div class='vertical-center'><img style='vertical-align:center; align:center' src=img/fixation3.jpg></div></div>","null","","","","","",""
"","","","offer","61103c2b7810420e5f23f437","bdp_rd","Sun Mar 26 2023 15:12:20 GMT-0500 (Central Daylight Time)","216385","html-keyboard-response","138","174331","0.0-5.0-2.44","","2058","","<div class='trialBorder'><div class='vertical-center'><img style='vertical-align:center; align:center' src=img/fixation3.jpg></div><div class='cl'><div class='vertical-center'>$28<br>with a<br>50% chance</div></div><div class='cr'><div class='vertical-center'>$16<br>for<br>sure</div></div><div class='respDivL'><div class='vertical-center'>(E)</div></div><div class='respDivR'><div class='vertical-center'>(I)</div></div></div>","I","$16","$28","1","16","28","SURE"
"","","","offerFB","61103c2b7810420e5f23f437","bdp_rd","Sun Mar 26 2023 15:12:20 GMT-0500 (Central Daylight Time)","216385","html-keyboard-response","139","174587","0.0-5.0-3.44","","null","","<div class='trialBorder'><div class='vertical-center'><img style='vertical-align:center; align:center' src=img/fixation3.jpg></div><div class='cl'><div class='vertical-center'>$28<br>with a<br>50% chance</div></div><div class='cr'><div class='vertical-center'><font style='color:orange'>$16<br>for<br>sure</font></div></div><div class='respDivL'><div class='vertical-center'>(E)</div></div><div class='respDivR'><div class='vertical-center'><font style='color:orange'>(I)</font></div></div></div>","null","$16","$28","1","16","28",""
"","","","FIX","61103c2b7810420e5f23f437","bdp_rd","Sun Mar 26 2023 15:12:20 GMT-0500 (Central Daylight Time)","216385","html-keyboard-response","140","175093","0.0-5.0-1.45","","null","","<div class='trialBorder'><div class='vertical-center'><img style='vertical-align:center; align:center' src=img/fixation3.jpg></div></div>","null","","","","","",""
"","","","offer","61103c2b7810420e5f23f437","bdp_rd","Sun Mar 26 2023 15:12:20 GMT-0500 (Central Daylight Time)","216385","html-keyboard-response","141","176275","0.0-5.0-2.45","","1181","","<div class='trialBorder'><div class='vertical-center'><img style='vertical-align:center; align:center' src=img/fixation3.jpg></div><div class='cl'><div class='vertical-center'>$62<br>with a<br>50% chance</div></div><div class='cr'><div class='vertical-center'>$11<br>for<br>sure</div></div><div class='respDivL'><div class='vertical-center'>(E)</div></div><div class='respDivR'><div class='vertical-center'>(I)</div></div></div>","E","$11","$62","1","11","62","RISKY"
"","","","offerFB","61103c2b7810420e5f23f437","bdp_rd","Sun Mar 26 2023 15:12:20 GMT-0500 (Central Daylight Time)","216385","html-keyboard-response","142","176530","0.0-5.0-3.45","","null","","<div class='trialBorder'><div class='vertical-center'><img style='vertical-align:center; align:center' src=img/fixation3.jpg></div><div class='cl'><div class='vertical-center'><font style='color:orange'>$62<br>with a<br>50% chance</font></div></div><div class='cr'><div class='vertical-center'>$11<br>for<br>sure</div></div><div class='respDivL'><div class='vertical-center'><font style='color:orange'>(E)</font></div></div><div class='respDivR'><div class='vertical-center'>(I)</div></div></div>","null","$11","$62","1","11","62",""
"","","","FIX","61103c2b7810420e5f23f437","bdp_rd","Sun Mar 26 2023 15:12:20 GMT-0500 (Central Daylight Time)","216385","html-keyboard-response","143","177036","0.0-5.0-1.46","","null","","<div class='trialBorder'><div class='vertical-center'><img style='vertical-align:center; align:center' src=img/fixation3.jpg></div></div>","null","","","","","",""
"","","","offer","61103c2b7810420e5f23f437","bdp_rd","Sun Mar 26 2023 15:12:20 GMT-0500 (Central Daylight Time)","216385","html-keyboard-response","144","178491","0.0-5.0-2.46","","1454","","<div class='trialBorder'><div class='vertical-center'><img style='vertical-align:center; align:center' src=img/fixation3.jpg></div><div class='cl'><div class='vertical-center'>$34<br>with a<br>50% chance</div></div><div class='cr'><div class='vertical-center'>$15<br>for<br>sure</div></div><div class='respDivL'><div class='vertical-center'>(E)</div></div><div class='respDivR'><div class='vertical-center'>(I)</div></div></div>","I","$15","$34","1","15","34","SURE"
"","","","offerFB","61103c2b7810420e5f23f437","bdp_rd","Sun Mar 26 2023 15:12:20 GMT-0500 (Central Daylight Time)","216385","html-keyboard-response","145","178746","0.0-5.0-3.46","","null","","<div class='trialBorder'><div class='vertical-center'><img style='vertical-align:center; align:center' src=img/fixation3.jpg></div><div class='cl'><div class='vertical-center'>$34<br>with a<br>50% chance</div></div><div class='cr'><div class='vertical-center'><font style='color:orange'>$15<br>for<br>sure</font></div></div><div class='respDivL'><div class='vertical-center'>(E)</div></div><div class='respDivR'><div class='vertical-center'><font style='color:orange'>(I)</font></div></div></div>","null","$15","$34","1","15","34",""
"","","","FIX","61103c2b7810420e5f23f437","bdp_rd","Sun Mar 26 2023 15:12:20 GMT-0500 (Central Daylight Time)","216385","html-keyboard-response","146","179252","0.0-5.0-1.47","","null","","<div class='trialBorder'><div class='vertical-center'><img style='vertical-align:center; align:center' src=img/fixation3.jpg></div></div>","null","","","","","",""
"","","","offer","61103c2b7810420e5f23f437","bdp_rd","Sun Mar 26 2023 15:12:20 GMT-0500 (Central Daylight Time)","216385","html-keyboard-response","147","180610","0.0-5.0-2.47","","1357","","<div class='trialBorder'><div class='vertical-center'><img style='vertical-align:center; align:center' src=img/fixation3.jpg></div><div class='cl'><div class='vertical-center'>$39<br>for<br>sure</div></div><div class='cr'><div class='vertical-center'>$81<br>with a<br>50% chance</div></div><div class='respDivL'><div class='vertical-center'>(E)</div></div><div class='respDivR'><div class='vertical-center'>(I)</div></div></div>","I","$39","$81","0","39","81","RISKY"
"","","","offerFB","61103c2b7810420e5f23f437","bdp_rd","Sun Mar 26 2023 15:12:20 GMT-0500 (Central Daylight Time)","216385","html-keyboard-response","148","180865","0.0-5.0-3.47","","null","","<div class='trialBorder'><div class='vertical-center'><img style='vertical-align:center; align:center' src=img/fixation3.jpg></div><div class='cl'><div class='vertical-center'>$39<br>for<br>sure</div></div><div class='cr'><div class='vertical-center'><font style='color:orange'>$81<br>with a<br>50% chance</font></div></div><div class='respDivL'><div class='vertical-center'>(E)</div></div><div class='respDivR'><div class='vertical-center'><font style='color:orange'>(I)</font></div></div></div>","null","$39","$81","0","39","81",""
"","","","FIX","61103c2b7810420e5f23f437","bdp_rd","Sun Mar 26 2023 15:12:20 GMT-0500 (Central Daylight Time)","216385","html-keyboard-response","149","181367","0.0-5.0-1.48","","null","","<div class='trialBorder'><div class='vertical-center'><img style='vertical-align:center; align:center' src=img/fixation3.jpg></div></div>","null","","","","","",""
"","","","offer","61103c2b7810420e5f23f437","bdp_rd","Sun Mar 26 2023 15:12:20 GMT-0500 (Central Daylight Time)","216385","html-keyboard-response","150","183170","0.0-5.0-2.48","","1802","","<div class='trialBorder'><div class='vertical-center'><img style='vertical-align:center; align:center' src=img/fixation3.jpg></div><div class='cl'><div class='vertical-center'>$3<br>for<br>sure</div></div><div class='cr'><div class='vertical-center'>$12<br>with a<br>50% chance</div></div><div class='respDivL'><div class='vertical-center'>(E)</div></div><div class='respDivR'><div class='vertical-center'>(I)</div></div></div>","I","$3","$12","0","3","12","RISKY"
"","","","offerFB","61103c2b7810420e5f23f437","bdp_rd","Sun Mar 26 2023 15:12:20 GMT-0500 (Central Daylight Time)","216385","html-keyboard-response","151","183422","0.0-5.0-3.48","","null","","<div class='trialBorder'><div class='vertical-center'><img style='vertical-align:center; align:center' src=img/fixation3.jpg></div><div class='cl'><div class='vertical-center'>$3<br>for<br>sure</div></div><div class='cr'><div class='vertical-center'><font style='color:orange'>$12<br>with a<br>50% chance</font></div></div><div class='respDivL'><div class='vertical-center'>(E)</div></div><div class='respDivR'><div class='vertical-center'><font style='color:orange'>(I)</font></div></div></div>","null","$3","$12","0","3","12",""
"","","","FIX","61103c2b7810420e5f23f437","bdp_rd","Sun Mar 26 2023 15:12:20 GMT-0500 (Central Daylight Time)","216385","html-keyboard-response","152","183925","0.0-5.0-1.49","","null","","<div class='trialBorder'><div class='vertical-center'><img style='vertical-align:center; align:center' src=img/fixation3.jpg></div></div>","null","","","","","",""
"","","","offer","61103c2b7810420e5f23f437","bdp_rd","Sun Mar 26 2023 15:12:20 GMT-0500 (Central Daylight Time)","216385","html-keyboard-response","153","185580","0.0-5.0-2.49","","1653","","<div class='trialBorder'><div class='vertical-center'><img style='vertical-align:center; align:center' src=img/fixation3.jpg></div><div class='cl'><div class='vertical-center'>$26<br>with a<br>50% chance</div></div><div class='cr'><div class='vertical-center'>$11<br>for<br>sure</div></div><div class='respDivL'><div class='vertical-center'>(E)</div></div><div class='respDivR'><div class='vertical-center'>(I)</div></div></div>","I","$11","$26","1","11","26","SURE"
"","","","offerFB","61103c2b7810420e5f23f437","bdp_rd","Sun Mar 26 2023 15:12:20 GMT-0500 (Central Daylight Time)","216385","html-keyboard-response","154","185830","0.0-5.0-3.49","","null","","<div class='trialBorder'><div class='vertical-center'><img style='vertical-align:center; align:center' src=img/fixation3.jpg></div><div class='cl'><div class='vertical-center'>$26<br>with a<br>50% chance</div></div><div class='cr'><div class='vertical-center'><font style='color:orange'>$11<br>for<br>sure</font></div></div><div class='respDivL'><div class='vertical-center'>(E)</div></div><div class='respDivR'><div class='vertical-center'><font style='color:orange'>(I)</font></div></div></div>","null","$11","$26","1","11","26",""
"","","","FIX","61103c2b7810420e5f23f437","bdp_rd","Sun Mar 26 2023 15:12:20 GMT-0500 (Central Daylight Time)","216385","html-keyboard-response","155","186334","0.0-5.0-1.50","","null","","<div class='trialBorder'><div class='vertical-center'><img style='vertical-align:center; align:center' src=img/fixation3.jpg></div></div>","null","","","","","",""
"","","","offer","61103c2b7810420e5f23f437","bdp_rd","Sun Mar 26 2023 15:12:20 GMT-0500 (Central Daylight Time)","216385","html-keyboard-response","156","188010","0.0-5.0-2.50","","1676","","<div class='trialBorder'><div class='vertical-center'><img style='vertical-align:center; align:center' src=img/fixation3.jpg></div><div class='cl'><div class='vertical-center'>$13<br>for<br>sure</div></div><div class='cr'><div class='vertical-center'>$24<br>with a<br>50% chance</div></div><div class='respDivL'><div class='vertical-center'>(E)</div></div><div class='respDivR'><div class='vertical-center'>(I)</div></div></div>","E","$13","$24","0","13","24","SURE"
"","","","offerFB","61103c2b7810420e5f23f437","bdp_rd","Sun Mar 26 2023 15:12:20 GMT-0500 (Central Daylight Time)","216385","html-keyboard-response","157","188263","0.0-5.0-3.50","","null","","<div class='trialBorder'><div class='vertical-center'><img style='vertical-align:center; align:center' src=img/fixation3.jpg></div><div class='cl'><div class='vertical-center'><font style='color:orange'>$13<br>for<br>sure</font></div></div><div class='cr'><div class='vertical-center'>$24<br>with a<br>50% chance</div></div><div class='respDivL'><div class='vertical-center'><font style='color:orange'>(E)</font></div></div><div class='respDivR'><div class='vertical-center'>(I)</div></div></div>","null","$13","$24","0","13","24",""
"","","","FIX","61103c2b7810420e5f23f437","bdp_rd","Sun Mar 26 2023 15:12:20 GMT-0500 (Central Daylight Time)","216385","html-keyboard-response","158","188770","0.0-5.0-1.51","","null","","<div class='trialBorder'><div class='vertical-center'><img style='vertical-align:center; align:center' src=img/fixation3.jpg></div></div>","null","","","","","",""
"","","","offer","61103c2b7810420e5f23f437","bdp_rd","Sun Mar 26 2023 15:12:20 GMT-0500 (Central Daylight Time)","216385","html-keyboard-response","159","193640","0.0-5.0-2.51","","4869","","<div class='trialBorder'><div class='vertical-center'><img style='vertical-align:center; align:center' src=img/fixation3.jpg></div><div class='cl'><div class='vertical-center'>$14<br>for<br>sure</div></div><div class='cr'><div class='vertical-center'>$22<br>with a<br>50% chance</div></div><div class='respDivL'><div class='vertical-center'>(E)</div></div><div class='respDivR'><div class='vertical-center'>(I)</div></div></div>","E","$14","$22","0","14","22","SURE"
"","","","offerFB","61103c2b7810420e5f23f437","bdp_rd","Sun Mar 26 2023 15:12:20 GMT-0500 (Central Daylight Time)","216385","html-keyboard-response","160","193895","0.0-5.0-3.51","","null","","<div class='trialBorder'><div class='vertical-center'><img style='vertical-align:center; align:center' src=img/fixation3.jpg></div><div class='cl'><div class='vertical-center'><font style='color:orange'>$14<br>for<br>sure</font></div></div><div class='cr'><div class='vertical-center'>$22<br>with a<br>50% chance</div></div><div class='respDivL'><div class='vertical-center'><font style='color:orange'>(E)</font></div></div><div class='respDivR'><div class='vertical-center'>(I)</div></div></div>","null","$14","$22","0","14","22",""
"","","","FIX","61103c2b7810420e5f23f437","bdp_rd","Sun Mar 26 2023 15:12:20 GMT-0500 (Central Daylight Time)","216385","html-keyboard-response","161","194400","0.0-5.0-1.52","","null","","<div class='trialBorder'><div class='vertical-center'><img style='vertical-align:center; align:center' src=img/fixation3.jpg></div></div>","null","","","","","",""
"","","","offer","61103c2b7810420e5f23f437","bdp_rd","Sun Mar 26 2023 15:12:20 GMT-0500 (Central Daylight Time)","216385","html-keyboard-response","162","195472","0.0-5.0-2.52","","1071","","<div class='trialBorder'><div class='vertical-center'><img style='vertical-align:center; align:center' src=img/fixation3.jpg></div><div class='cl'><div class='vertical-center'>$10<br>for<br>sure</div></div><div class='cr'><div class='vertical-center'>$40<br>with a<br>50% chance</div></div><div class='respDivL'><div class='vertical-center'>(E)</div></div><div class='respDivR'><div class='vertical-center'>(I)</div></div></div>","I","$10","$40","0","10","40","RISKY"
"","","","offerFB","61103c2b7810420e5f23f437","bdp_rd","Sun Mar 26 2023 15:12:20 GMT-0500 (Central Daylight Time)","216385","html-keyboard-response","163","195727","0.0-5.0-3.52","","null","","<div class='trialBorder'><div class='vertical-center'><img style='vertical-align:center; align:center' src=img/fixation3.jpg></div><div class='cl'><div class='vertical-center'>$10<br>for<br>sure</div></div><div class='cr'><div class='vertical-center'><font style='color:orange'>$40<br>with a<br>50% chance</font></div></div><div class='respDivL'><div class='vertical-center'>(E)</div></div><div class='respDivR'><div class='vertical-center'><font style='color:orange'>(I)</font></div></div></div>","null","$10","$40","0","10","40",""
"","","","FIX","61103c2b7810420e5f23f437","bdp_rd","Sun Mar 26 2023 15:12:20 GMT-0500 (Central Daylight Time)","216385","html-keyboard-response","164","196230","0.0-5.0-1.53","","null","","<div class='trialBorder'><div class='vertical-center'><img style='vertical-align:center; align:center' src=img/fixation3.jpg></div></div>","null","","","","","",""
"","","","offer","61103c2b7810420e5f23f437","bdp_rd","Sun Mar 26 2023 15:12:20 GMT-0500 (Central Daylight Time)","216385","html-keyboard-response","165","197233","0.0-5.0-2.53","","1002","","<div class='trialBorder'><div class='vertical-center'><img style='vertical-align:center; align:center' src=img/fixation3.jpg></div><div class='cl'><div class='vertical-center'>$2<br>for<br>sure</div></div><div class='cr'><div class='vertical-center'>$64<br>with a<br>50% chance</div></div><div class='respDivL'><div class='vertical-center'>(E)</div></div><div class='respDivR'><div class='vertical-center'>(I)</div></div></div>","I","$2","$64","0","2","64","RISKY"
"","","","offerFB","61103c2b7810420e5f23f437","bdp_rd","Sun Mar 26 2023 15:12:20 GMT-0500 (Central Daylight Time)","216385","html-keyboard-response","166","197487","0.0-5.0-3.53","","null","","<div class='trialBorder'><div class='vertical-center'><img style='vertical-align:center; align:center' src=img/fixation3.jpg></div><div class='cl'><div class='vertical-center'>$2<br>for<br>sure</div></div><div class='cr'><div class='vertical-center'><font style='color:orange'>$64<br>with a<br>50% chance</font></div></div><div class='respDivL'><div class='vertical-center'>(E)</div></div><div class='respDivR'><div class='vertical-center'><font style='color:orange'>(I)</font></div></div></div>","null","$2","$64","0","2","64",""
"","","","FIX","61103c2b7810420e5f23f437","bdp_rd","Sun Mar 26 2023 15:12:20 GMT-0500 (Central Daylight Time)","216385","html-keyboard-response","167","197988","0.0-5.0-1.54","","null","","<div class='trialBorder'><div class='vertical-center'><img style='vertical-align:center; align:center' src=img/fixation3.jpg></div></div>","null","","","","","",""
"","","","offer","61103c2b7810420e5f23f437","bdp_rd","Sun Mar 26 2023 15:12:20 GMT-0500 (Central Daylight Time)","216385","html-keyboard-response","168","199783","0.0-5.0-2.54","","1794","","<div class='trialBorder'><div class='vertical-center'><img style='vertical-align:center; align:center' src=img/fixation3.jpg></div><div class='cl'><div class='vertical-center'>$27<br>with a<br>50% chance</div></div><div class='cr'><div class='vertical-center'>$12<br>for<br>sure</div></div><div class='respDivL'><div class='vertical-center'>(E)</div></div><div class='respDivR'><div class='vertical-center'>(I)</div></div></div>","I","$12","$27","1","12","27","SURE"
"","","","offerFB","61103c2b7810420e5f23f437","bdp_rd","Sun Mar 26 2023 15:12:20 GMT-0500 (Central Daylight Time)","216385","html-keyboard-response","169","200039","0.0-5.0-3.54","","null","","<div class='trialBorder'><div class='vertical-center'><img style='vertical-align:center; align:center' src=img/fixation3.jpg></div><div class='cl'><div class='vertical-center'>$27<br>with a<br>50% chance</div></div><div class='cr'><div class='vertical-center'><font style='color:orange'>$12<br>for<br>sure</font></div></div><div class='respDivL'><div class='vertical-center'>(E)</div></div><div class='respDivR'><div class='vertical-center'><font style='color:orange'>(I)</font></div></div></div>","null","$12","$27","1","12","27",""
"","","","FIX","61103c2b7810420e5f23f437","bdp_rd","Sun Mar 26 2023 15:12:20 GMT-0500 (Central Daylight Time)","216385","html-keyboard-response","170","200545","0.0-5.0-1.55","","null","","<div class='trialBorder'><div class='vertical-center'><img style='vertical-align:center; align:center' src=img/fixation3.jpg></div></div>","null","","","","","",""
"","","","offer","61103c2b7810420e5f23f437","bdp_rd","Sun Mar 26 2023 15:12:20 GMT-0500 (Central Daylight Time)","216385","html-keyboard-response","171","201799","0.0-5.0-2.55","","1252","","<div class='trialBorder'><div class='vertical-center'><img style='vertical-align:center; align:center' src=img/fixation3.jpg></div><div class='cl'><div class='vertical-center'>$40<br>for<br>sure</div></div><div class='cr'><div class='vertical-center'>$95<br>with a<br>50% chance</div></div><div class='respDivL'><div class='vertical-center'>(E)</div></div><div class='respDivR'><div class='vertical-center'>(I)</div></div></div>","I","$40","$95","0","40","95","RISKY"
"","","","offerFB","61103c2b7810420e5f23f437","bdp_rd","Sun Mar 26 2023 15:12:20 GMT-0500 (Central Daylight Time)","216385","html-keyboard-response","172","202055","0.0-5.0-3.55","","null","","<div class='trialBorder'><div class='vertical-center'><img style='vertical-align:center; align:center' src=img/fixation3.jpg></div><div class='cl'><div class='vertical-center'>$40<br>for<br>sure</div></div><div class='cr'><div class='vertical-center'><font style='color:orange'>$95<br>with a<br>50% chance</font></div></div><div class='respDivL'><div class='vertical-center'>(E)</div></div><div class='respDivR'><div class='vertical-center'><font style='color:orange'>(I)</font></div></div></div>","null","$40","$95","0","40","95",""
"","","","FIX","61103c2b7810420e5f23f437","bdp_rd","Sun Mar 26 2023 15:12:20 GMT-0500 (Central Daylight Time)","216385","html-keyboard-response","173","202560","0.0-5.0-1.56","","null","","<div class='trialBorder'><div class='vertical-center'><img style='vertical-align:center; align:center' src=img/fixation3.jpg></div></div>","null","","","","","",""
"","","","offer","61103c2b7810420e5f23f437","bdp_rd","Sun Mar 26 2023 15:12:20 GMT-0500 (Central Daylight Time)","216385","html-keyboard-response","174","204439","0.0-5.0-2.56","","1879","","<div class='trialBorder'><div class='vertical-center'><img style='vertical-align:center; align:center' src=img/fixation3.jpg></div><div class='cl'><div class='vertical-center'>$89<br>with a<br>50% chance</div></div><div class='cr'><div class='vertical-center'>$28<br>for<br>sure</div></div><div class='respDivL'><div class='vertical-center'>(E)</div></div><div class='respDivR'><div class='vertical-center'>(I)</div></div></div>","E","$28","$89","1","28","89","RISKY"
