"trial_type","trial_index","time_elapsed","internal_node_id","subject_id","task","startTime","totalTime","view_history","rt","event","trial","time","trialtype","success","stimulus","key_press","sureOffer","riskyOffer","riskyLeft","sureAmt","riskyAmt","chosen"
"pavlovia","0","14","0.0-0.0","5d1b0776e1c05200018b582d","bdp_rd","Sat Mar 25 2023 20:54:23 GMT-0400 (Eastern Daylight Time)","234677","","","","","","","","","","","","","","",""
"instructions","1","4938","0.0-1.0","5d1b0776e1c05200018b582d","bdp_rd","Sat Mar 25 2023 20:54:23 GMT-0400 (Eastern Daylight Time)","234677","[{""page_index"":0,""viewing_time"":4923}]","4923","","","","","","","","","","","","",""
"","","","","5d1b0776e1c05200018b582d","bdp_rd","Sat Mar 25 2023 20:54:23 GMT-0400 (Eastern Daylight Time)","234677","","","fullscreenenter","2","7423","fullscreenenter","","","","","","","","",""
"fullscreen","2","8408","0.0-2.0","5d1b0776e1c05200018b582d","bdp_rd","Sat Mar 25 2023 20:54:23 GMT-0400 (Eastern Daylight Time)","234677","","","","","","","true","","","","","","","",""
"instructions","3","61920","0.0-4.0","5d1b0776e1c05200018b582d","bdp_rd","Sat Mar 25 2023 20:54:23 GMT-0400 (Eastern Daylight Time)","234677","[{""page_index"":0,""viewing_time"":15300},{""page_index"":1,""viewing_time"":8419},{""page_index"":2,""viewing_time"":29786}]","53506","","","","","","","","","","","","",""
"html-keyboard-response","4","62425","0.0-5.0-1.0","5d1b0776e1c05200018b582d","bdp_rd","Sat Mar 25 2023 20:54:23 GMT-0400 (Eastern Daylight Time)","234677","","null","","","","FIX","","<div class='trialBorder'><div class='vertical-center'><img style='vertical-align:center; align:center' src=img/fixation3.jpg></div></div>","null","","","","","",""
"html-keyboard-response","5","66193","0.0-5.0-2.0","5d1b0776e1c05200018b582d","bdp_rd","Sat Mar 25 2023 20:54:23 GMT-0400 (Eastern Daylight Time)","234677","","3758","","","","offer","","<div class='trialBorder'><div class='vertical-center'><img style='vertical-align:center; align:center' src=img/fixation3.jpg></div><div class='cl'><div class='vertical-center'>$17<br>with a<br>50% chance</div></div><div class='cr'><div class='vertical-center'>$3<br>for<br>sure</div></div><div class='respDivL'><div class='vertical-center'>(E)</div></div><div class='respDivR'><div class='vertical-center'>(I)</div></div></div>","E","$3","$17","1","3","17","RISKY"
"html-keyboard-response","6","66452","0.0-5.0-3.0","5d1b0776e1c05200018b582d","bdp_rd","Sat Mar 25 2023 20:54:23 GMT-0400 (Eastern Daylight Time)","234677","","null","","","","offerFB","","<div class='trialBorder'><div class='vertical-center'><img style='vertical-align:center; align:center' src=img/fixation3.jpg></div><div class='cl'><div class='vertical-center'><font style='color:orange'>$17<br>with a<br>50% chance</font></div></div><div class='cr'><div class='vertical-center'>$3<br>for<br>sure</div></div><div class='respDivL'><div class='vertical-center'><font style='color:orange'>(E)</font></div></div><div class='respDivR'><div class='vertical-center'>(I)</div></div></div>","null","$3","$17","1","3","17",""
"html-keyboard-response","7","66959","0.0-5.0-1.1","5d1b0776e1c05200018b582d","bdp_rd","Sat Mar 25 2023 20:54:23 GMT-0400 (Eastern Daylight Time)","234677","","null","","","","FIX","","<div class='trialBorder'><div class='vertical-center'><img style='vertical-align:center; align:center' src=img/fixation3.jpg></div></div>","null","","","","","",""
"html-keyboard-response","8","69729","0.0-5.0-2.1","5d1b0776e1c05200018b582d","bdp_rd","Sat Mar 25 2023 20:54:23 GMT-0400 (Eastern Daylight Time)","234677","","2761","","","","offer","","<div class='trialBorder'><div class='vertical-center'><img style='vertical-align:center; align:center' src=img/fixation3.jpg></div><div class='cl'><div class='vertical-center'>$46<br>with a<br>50% chance</div></div><div class='cr'><div class='vertical-center'>$29<br>for<br>sure</div></div><div class='respDivL'><div class='vertical-center'>(E)</div></div><div class='respDivR'><div class='vertical-center'>(I)</div></div></div>","I","$29","$46","1","29","46","SURE"
"html-keyboard-response","9","69988","0.0-5.0-3.1","5d1b0776e1c05200018b582d","bdp_rd","Sat Mar 25 2023 20:54:23 GMT-0400 (Eastern Daylight Time)","234677","","null","","","","offerFB","","<div class='trialBorder'><div class='vertical-center'><img style='vertical-align:center; align:center' src=img/fixation3.jpg></div><div class='cl'><div class='vertical-center'>$46<br>with a<br>50% chance</div></div><div class='cr'><div class='vertical-center'><font style='color:orange'>$29<br>for<br>sure</font></div></div><div class='respDivL'><div class='vertical-center'>(E)</div></div><div class='respDivR'><div class='vertical-center'><font style='color:orange'>(I)</font></div></div></div>","null","$29","$46","1","29","46",""
"html-keyboard-response","10","70536","0.0-5.0-1.2","5d1b0776e1c05200018b582d","bdp_rd","Sat Mar 25 2023 20:54:23 GMT-0400 (Eastern Daylight Time)","234677","","null","","","","FIX","","<div class='trialBorder'><div class='vertical-center'><img style='vertical-align:center; align:center' src=img/fixation3.jpg></div></div>","null","","","","","",""
"html-keyboard-response","11","72949","0.0-5.0-2.2","5d1b0776e1c05200018b582d","bdp_rd","Sat Mar 25 2023 20:54:23 GMT-0400 (Eastern Daylight Time)","234677","","2405","","","","offer","","<div class='trialBorder'><div class='vertical-center'><img style='vertical-align:center; align:center' src=img/fixation3.jpg></div><div class='cl'><div class='vertical-center'>$69<br>with a<br>50% chance</div></div><div class='cr'><div class='vertical-center'>$58<br>for<br>sure</div></div><div class='respDivL'><div class='vertical-center'>(E)</div></div><div class='respDivR'><div class='vertical-center'>(I)</div></div></div>","I","$58","$69","1","58","69","SURE"
"html-keyboard-response","12","73204","0.0-5.0-3.2","5d1b0776e1c05200018b582d","bdp_rd","Sat Mar 25 2023 20:54:23 GMT-0400 (Eastern Daylight Time)","234677","","null","","","","offerFB","","<div class='trialBorder'><div class='vertical-center'><img style='vertical-align:center; align:center' src=img/fixation3.jpg></div><div class='cl'><div class='vertical-center'>$69<br>with a<br>50% chance</div></div><div class='cr'><div class='vertical-center'><font style='color:orange'>$58<br>for<br>sure</font></div></div><div class='respDivL'><div class='vertical-center'>(E)</div></div><div class='respDivR'><div class='vertical-center'><font style='color:orange'>(I)</font></div></div></div>","null","$58","$69","1","58","69",""
"html-keyboard-response","13","73711","0.0-5.0-1.3","5d1b0776e1c05200018b582d","bdp_rd","Sat Mar 25 2023 20:54:23 GMT-0400 (Eastern Daylight Time)","234677","","null","","","","FIX","","<div class='trialBorder'><div class='vertical-center'><img style='vertical-align:center; align:center' src=img/fixation3.jpg></div></div>","null","","","","","",""
"html-keyboard-response","14","76195","0.0-5.0-2.3","5d1b0776e1c05200018b582d","bdp_rd","Sat Mar 25 2023 20:54:23 GMT-0400 (Eastern Daylight Time)","234677","","2476","","","","offer","","<div class='trialBorder'><div class='vertical-center'><img style='vertical-align:center; align:center' src=img/fixation3.jpg></div><div class='cl'><div class='vertical-center'>$26<br>for<br>sure</div></div><div class='cr'><div class='vertical-center'>$92<br>with a<br>50% chance</div></div><div class='respDivL'><div class='vertical-center'>(E)</div></div><div class='respDivR'><div class='vertical-center'>(I)</div></div></div>","I","$26","$92","0","26","92","RISKY"
"html-keyboard-response","15","76451","0.0-5.0-3.3","5d1b0776e1c05200018b582d","bdp_rd","Sat Mar 25 2023 20:54:23 GMT-0400 (Eastern Daylight Time)","234677","","null","","","","offerFB","","<div class='trialBorder'><div class='vertical-center'><img style='vertical-align:center; align:center' src=img/fixation3.jpg></div><div class='cl'><div class='vertical-center'>$26<br>for<br>sure</div></div><div class='cr'><div class='vertical-center'><font style='color:orange'>$92<br>with a<br>50% chance</font></div></div><div class='respDivL'><div class='vertical-center'>(E)</div></div><div class='respDivR'><div class='vertical-center'><font style='color:orange'>(I)</font></div></div></div>","null","$26","$92","0","26","92",""
"html-keyboard-response","16","76957","0.0-5.0-1.4","5d1b0776e1c05200018b582d","bdp_rd","Sat Mar 25 2023 20:54:23 GMT-0400 (Eastern Daylight Time)","234677","","null","","","","FIX","","<div class='trialBorder'><div class='vertical-center'><img style='vertical-align:center; align:center' src=img/fixation3.jpg></div></div>","null","","","","","",""
"html-keyboard-response","17","80572","0.0-5.0-2.4","5d1b0776e1c05200018b582d","bdp_rd","Sat Mar 25 2023 20:54:23 GMT-0400 (Eastern Daylight Time)","234677","","3607","","","","offer","","<div class='trialBorder'><div class='vertical-center'><img style='vertical-align:center; align:center' src=img/fixation3.jpg></div><div class='cl'><div class='vertical-center'>$4<br>for<br>sure</div></div><div class='cr'><div class='vertical-center'>$11<br>with a<br>50% chance</div></div><div class='respDivL'><div class='vertical-center'>(E)</div></div><div class='respDivR'><div class='vertical-center'>(I)</div></div></div>","E","$4","$11","0","4","11","SURE"
"html-keyboard-response","18","80828","0.0-5.0-3.4","5d1b0776e1c05200018b582d","bdp_rd","Sat Mar 25 2023 20:54:23 GMT-0400 (Eastern Daylight Time)","234677","","null","","","","offerFB","","<div class='trialBorder'><div class='vertical-center'><img style='vertical-align:center; align:center' src=img/fixation3.jpg></div><div class='cl'><div class='vertical-center'><font style='color:orange'>$4<br>for<br>sure</font></div></div><div class='cr'><div class='vertical-center'>$11<br>with a<br>50% chance</div></div><div class='respDivL'><div class='vertical-center'><font style='color:orange'>(E)</font></div></div><div class='respDivR'><div class='vertical-center'>(I)</div></div></div>","null","$4","$11","0","4","11",""
"html-keyboard-response","19","81333","0.0-5.0-1.5","5d1b0776e1c05200018b582d","bdp_rd","Sat Mar 25 2023 20:54:23 GMT-0400 (Eastern Daylight Time)","234677","","null","","","","FIX","","<div class='trialBorder'><div class='vertical-center'><img style='vertical-align:center; align:center' src=img/fixation3.jpg></div></div>","null","","","","","",""
"html-keyboard-response","20","83510","0.0-5.0-2.5","5d1b0776e1c05200018b582d","bdp_rd","Sat Mar 25 2023 20:54:23 GMT-0400 (Eastern Daylight Time)","234677","","2171","","","","offer","","<div class='trialBorder'><div class='vertical-center'><img style='vertical-align:center; align:center' src=img/fixation3.jpg></div><div class='cl'><div class='vertical-center'>$22<br>with a<br>50% chance</div></div><div class='cr'><div class='vertical-center'>$14<br>for<br>sure</div></div><div class='respDivL'><div class='vertical-center'>(E)</div></div><div class='respDivR'><div class='vertical-center'>(I)</div></div></div>","I","$14","$22","1","14","22","SURE"
"html-keyboard-response","21","83765","0.0-5.0-3.5","5d1b0776e1c05200018b582d","bdp_rd","Sat Mar 25 2023 20:54:23 GMT-0400 (Eastern Daylight Time)","234677","","null","","","","offerFB","","<div class='trialBorder'><div class='vertical-center'><img style='vertical-align:center; align:center' src=img/fixation3.jpg></div><div class='cl'><div class='vertical-center'>$22<br>with a<br>50% chance</div></div><div class='cr'><div class='vertical-center'><font style='color:orange'>$14<br>for<br>sure</font></div></div><div class='respDivL'><div class='vertical-center'>(E)</div></div><div class='respDivR'><div class='vertical-center'><font style='color:orange'>(I)</font></div></div></div>","null","$14","$22","1","14","22",""
"html-keyboard-response","22","84271","0.0-5.0-1.6","5d1b0776e1c05200018b582d","bdp_rd","Sat Mar 25 2023 20:54:23 GMT-0400 (Eastern Daylight Time)","234677","","null","","","","FIX","","<div class='trialBorder'><div class='vertical-center'><img style='vertical-align:center; align:center' src=img/fixation3.jpg></div></div>","null","","","","","",""
"html-keyboard-response","23","86573","0.0-5.0-2.6","5d1b0776e1c05200018b582d","bdp_rd","Sat Mar 25 2023 20:54:23 GMT-0400 (Eastern Daylight Time)","234677","","2296","","","","offer","","<div class='trialBorder'><div class='vertical-center'><img style='vertical-align:center; align:center' src=img/fixation3.jpg></div><div class='cl'><div class='vertical-center'>$80<br>with a<br>50% chance</div></div><div class='cr'><div class='vertical-center'>$20<br>for<br>sure</div></div><div class='respDivL'><div class='vertical-center'>(E)</div></div><div class='respDivR'><div class='vertical-center'>(I)</div></div></div>","E","$20","$80","1","20","80","RISKY"
"html-keyboard-response","24","86829","0.0-5.0-3.6","5d1b0776e1c05200018b582d","bdp_rd","Sat Mar 25 2023 20:54:23 GMT-0400 (Eastern Daylight Time)","234677","","null","","","","offerFB","","<div class='trialBorder'><div class='vertical-center'><img style='vertical-align:center; align:center' src=img/fixation3.jpg></div><div class='cl'><div class='vertical-center'><font style='color:orange'>$80<br>with a<br>50% chance</font></div></div><div class='cr'><div class='vertical-center'>$20<br>for<br>sure</div></div><div class='respDivL'><div class='vertical-center'><font style='color:orange'>(E)</font></div></div><div class='respDivR'><div class='vertical-center'>(I)</div></div></div>","null","$20","$80","1","20","80",""
"html-keyboard-response","25","87333","0.0-5.0-1.7","5d1b0776e1c05200018b582d","bdp_rd","Sat Mar 25 2023 20:54:23 GMT-0400 (Eastern Daylight Time)","234677","","null","","","","FIX","","<div class='trialBorder'><div class='vertical-center'><img style='vertical-align:center; align:center' src=img/fixation3.jpg></div></div>","null","","","","","",""
"html-keyboard-response","26","89578","0.0-5.0-2.7","5d1b0776e1c05200018b582d","bdp_rd","Sat Mar 25 2023 20:54:23 GMT-0400 (Eastern Daylight Time)","234677","","2239","","","","offer","","<div class='trialBorder'><div class='vertical-center'><img style='vertical-align:center; align:center' src=img/fixation3.jpg></div><div class='cl'><div class='vertical-center'>$25<br>with a<br>50% chance</div></div><div class='cr'><div class='vertical-center'>$21<br>for<br>sure</div></div><div class='respDivL'><div class='vertical-center'>(E)</div></div><div class='respDivR'><div class='vertical-center'>(I)</div></div></div>","I","$21","$25","1","21","25","SURE"
"html-keyboard-response","27","89835","0.0-5.0-3.7","5d1b0776e1c05200018b582d","bdp_rd","Sat Mar 25 2023 20:54:23 GMT-0400 (Eastern Daylight Time)","234677","","null","","","","offerFB","","<div class='trialBorder'><div class='vertical-center'><img style='vertical-align:center; align:center' src=img/fixation3.jpg></div><div class='cl'><div class='vertical-center'>$25<br>with a<br>50% chance</div></div><div class='cr'><div class='vertical-center'><font style='color:orange'>$21<br>for<br>sure</font></div></div><div class='respDivL'><div class='vertical-center'>(E)</div></div><div class='respDivR'><div class='vertical-center'><font style='color:orange'>(I)</font></div></div></div>","null","$21","$25","1","21","25",""
"html-keyboard-response","28","90339","0.0-5.0-1.8","5d1b0776e1c05200018b582d","bdp_rd","Sat Mar 25 2023 20:54:23 GMT-0400 (Eastern Daylight Time)","234677","","null","","","","FIX","","<div class='trialBorder'><div class='vertical-center'><img style='vertical-align:center; align:center' src=img/fixation3.jpg></div></div>","null","","","","","",""
"html-keyboard-response","29","93338","0.0-5.0-2.8","5d1b0776e1c05200018b582d","bdp_rd","Sat Mar 25 2023 20:54:23 GMT-0400 (Eastern Daylight Time)","234677","","2993","","","","offer","","<div class='trialBorder'><div class='vertical-center'><img style='vertical-align:center; align:center' src=img/fixation3.jpg></div><div class='cl'><div class='vertical-center'>$73<br>with a<br>50% chance</div></div><div class='cr'><div class='vertical-center'>$42<br>for<br>sure</div></div><div class='respDivL'><div class='vertical-center'>(E)</div></div><div class='respDivR'><div class='vertical-center'>(I)</div></div></div>","E","$42","$73","1","42","73","RISKY"
"html-keyboard-response","30","93600","0.0-5.0-3.8","5d1b0776e1c05200018b582d","bdp_rd","Sat Mar 25 2023 20:54:23 GMT-0400 (Eastern Daylight Time)","234677","","null","","","","offerFB","","<div class='trialBorder'><div class='vertical-center'><img style='vertical-align:center; align:center' src=img/fixation3.jpg></div><div class='cl'><div class='vertical-center'><font style='color:orange'>$73<br>with a<br>50% chance</font></div></div><div class='cr'><div class='vertical-center'>$42<br>for<br>sure</div></div><div class='respDivL'><div class='vertical-center'><font style='color:orange'>(E)</font></div></div><div class='respDivR'><div class='vertical-center'>(I)</div></div></div>","null","$42","$73","1","42","73",""
"html-keyboard-response","31","94105","0.0-5.0-1.9","5d1b0776e1c05200018b582d","bdp_rd","Sat Mar 25 2023 20:54:23 GMT-0400 (Eastern Daylight Time)","234677","","null","","","","FIX","","<div class='trialBorder'><div class='vertical-center'><img style='vertical-align:center; align:center' src=img/fixation3.jpg></div></div>","null","","","","","",""
"html-keyboard-response","32","96096","0.0-5.0-2.9","5d1b0776e1c05200018b582d","bdp_rd","Sat Mar 25 2023 20:54:23 GMT-0400 (Eastern Daylight Time)","234677","","1982","","","","offer","","<div class='trialBorder'><div class='vertical-center'><img style='vertical-align:center; align:center' src=img/fixation3.jpg></div><div class='cl'><div class='vertical-center'>$48<br>with a<br>50% chance</div></div><div class='cr'><div class='vertical-center'>$34<br>for<br>sure</div></div><div class='respDivL'><div class='vertical-center'>(E)</div></div><div class='respDivR'><div class='vertical-center'>(I)</div></div></div>","I","$34","$48","1","34","48","SURE"
"html-keyboard-response","33","96352","0.0-5.0-3.9","5d1b0776e1c05200018b582d","bdp_rd","Sat Mar 25 2023 20:54:23 GMT-0400 (Eastern Daylight Time)","234677","","null","","","","offerFB","","<div class='trialBorder'><div class='vertical-center'><img style='vertical-align:center; align:center' src=img/fixation3.jpg></div><div class='cl'><div class='vertical-center'>$48<br>with a<br>50% chance</div></div><div class='cr'><div class='vertical-center'><font style='color:orange'>$34<br>for<br>sure</font></div></div><div class='respDivL'><div class='vertical-center'>(E)</div></div><div class='respDivR'><div class='vertical-center'><font style='color:orange'>(I)</font></div></div></div>","null","$34","$48","1","34","48",""
"html-keyboard-response","34","96857","0.0-5.0-1.10","5d1b0776e1c05200018b582d","bdp_rd","Sat Mar 25 2023 20:54:23 GMT-0400 (Eastern Daylight Time)","234677","","null","","","","FIX","","<div class='trialBorder'><div class='vertical-center'><img style='vertical-align:center; align:center' src=img/fixation3.jpg></div></div>","null","","","","","",""
"html-keyboard-response","35","99688","0.0-5.0-2.10","5d1b0776e1c05200018b582d","bdp_rd","Sat Mar 25 2023 20:54:23 GMT-0400 (Eastern Daylight Time)","234677","","2824","","","","offer","","<div class='trialBorder'><div class='vertical-center'><img style='vertical-align:center; align:center' src=img/fixation3.jpg></div><div class='cl'><div class='vertical-center'>$9<br>for<br>sure</div></div><div class='cr'><div class='vertical-center'>$18<br>with a<br>50% chance</div></div><div class='respDivL'><div class='vertical-center'>(E)</div></div><div class='respDivR'><div class='vertical-center'>(I)</div></div></div>","E","$9","$18","0","9","18","SURE"
"html-keyboard-response","36","99947","0.0-5.0-3.10","5d1b0776e1c05200018b582d","bdp_rd","Sat Mar 25 2023 20:54:23 GMT-0400 (Eastern Daylight Time)","234677","","null","","","","offerFB","","<div class='trialBorder'><div class='vertical-center'><img style='vertical-align:center; align:center' src=img/fixation3.jpg></div><div class='cl'><div class='vertical-center'><font style='color:orange'>$9<br>for<br>sure</font></div></div><div class='cr'><div class='vertical-center'>$18<br>with a<br>50% chance</div></div><div class='respDivL'><div class='vertical-center'><font style='color:orange'>(E)</font></div></div><div class='respDivR'><div class='vertical-center'>(I)</div></div></div>","null","$9","$18","0","9","18",""
"html-keyboard-response","37","100451","0.0-5.0-1.11","5d1b0776e1c05200018b582d","bdp_rd","Sat Mar 25 2023 20:54:23 GMT-0400 (Eastern Daylight Time)","234677","","null","","","","FIX","","<div class='trialBorder'><div class='vertical-center'><img style='vertical-align:center; align:center' src=img/fixation3.jpg></div></div>","null","","","","","",""
"html-keyboard-response","38","103223","0.0-5.0-2.11","5d1b0776e1c05200018b582d","bdp_rd","Sat Mar 25 2023 20:54:23 GMT-0400 (Eastern Daylight Time)","234677","","2764","","","","offer","","<div class='trialBorder'><div class='vertical-center'><img style='vertical-align:center; align:center' src=img/fixation3.jpg></div><div class='cl'><div class='vertical-center'>$59<br>with a<br>50% chance</div></div><div class='cr'><div class='vertical-center'>$22<br>for<br>sure</div></div><div class='respDivL'><div class='vertical-center'>(E)</div></div><div class='respDivR'><div class='vertical-center'>(I)</div></div></div>","E","$22","$59","1","22","59","RISKY"
"html-keyboard-response","39","103478","0.0-5.0-3.11","5d1b0776e1c05200018b582d","bdp_rd","Sat Mar 25 2023 20:54:23 GMT-0400 (Eastern Daylight Time)","234677","","null","","","","offerFB","","<div class='trialBorder'><div class='vertical-center'><img style='vertical-align:center; align:center' src=img/fixation3.jpg></div><div class='cl'><div class='vertical-center'><font style='color:orange'>$59<br>with a<br>50% chance</font></div></div><div class='cr'><div class='vertical-center'>$22<br>for<br>sure</div></div><div class='respDivL'><div class='vertical-center'><font style='color:orange'>(E)</font></div></div><div class='respDivR'><div class='vertical-center'>(I)</div></div></div>","null","$22","$59","1","22","59",""
"html-keyboard-response","40","103983","0.0-5.0-1.12","5d1b0776e1c05200018b582d","bdp_rd","Sat Mar 25 2023 20:54:23 GMT-0400 (Eastern Daylight Time)","234677","","null","","","","FIX","","<div class='trialBorder'><div class='vertical-center'><img style='vertical-align:center; align:center' src=img/fixation3.jpg></div></div>","null","","","","","",""
"html-keyboard-response","41","106870","0.0-5.0-2.12","5d1b0776e1c05200018b582d","bdp_rd","Sat Mar 25 2023 20:54:23 GMT-0400 (Eastern Daylight Time)","234677","","2880","","","","offer","","<div class='trialBorder'><div class='vertical-center'><img style='vertical-align:center; align:center' src=img/fixation3.jpg></div><div class='cl'><div class='vertical-center'>$34<br>with a<br>50% chance</div></div><div class='cr'><div class='vertical-center'>$15<br>for<br>sure</div></div><div class='respDivL'><div class='vertical-center'>(E)</div></div><div class='respDivR'><div class='vertical-center'>(I)</div></div></div>","E","$15","$34","1","15","34","RISKY"
"html-keyboard-response","42","107128","0.0-5.0-3.12","5d1b0776e1c05200018b582d","bdp_rd","Sat Mar 25 2023 20:54:23 GMT-0400 (Eastern Daylight Time)","234677","","null","","","","offerFB","","<div class='trialBorder'><div class='vertical-center'><img style='vertical-align:center; align:center' src=img/fixation3.jpg></div><div class='cl'><div class='vertical-center'><font style='color:orange'>$34<br>with a<br>50% chance</font></div></div><div class='cr'><div class='vertical-center'>$15<br>for<br>sure</div></div><div class='respDivL'><div class='vertical-center'><font style='color:orange'>(E)</font></div></div><div class='respDivR'><div class='vertical-center'>(I)</div></div></div>","null","$15","$34","1","15","34",""
"html-keyboard-response","43","107633","0.0-5.0-1.13","5d1b0776e1c05200018b582d","bdp_rd","Sat Mar 25 2023 20:54:23 GMT-0400 (Eastern Daylight Time)","234677","","null","","","","FIX","","<div class='trialBorder'><div class='vertical-center'><img style='vertical-align:center; align:center' src=img/fixation3.jpg></div></div>","null","","","","","",""
"html-keyboard-response","44","109895","0.0-5.0-2.13","5d1b0776e1c05200018b582d","bdp_rd","Sat Mar 25 2023 20:54:23 GMT-0400 (Eastern Daylight Time)","234677","","2254","","","","offer","","<div class='trialBorder'><div class='vertical-center'><img style='vertical-align:center; align:center' src=img/fixation3.jpg></div><div class='cl'><div class='vertical-center'>$47<br>with a<br>50% chance</div></div><div class='cr'><div class='vertical-center'>$27<br>for<br>sure</div></div><div class='respDivL'><div class='vertical-center'>(E)</div></div><div class='respDivR'><div class='vertical-center'>(I)</div></div></div>","E","$27","$47","1","27","47","RISKY"
"html-keyboard-response","45","110152","0.0-5.0-3.13","5d1b0776e1c05200018b582d","bdp_rd","Sat Mar 25 2023 20:54:23 GMT-0400 (Eastern Daylight Time)","234677","","null","","","","offerFB","","<div class='trialBorder'><div class='vertical-center'><img style='vertical-align:center; align:center' src=img/fixation3.jpg></div><div class='cl'><div class='vertical-center'><font style='color:orange'>$47<br>with a<br>50% chance</font></div></div><div class='cr'><div class='vertical-center'>$27<br>for<br>sure</div></div><div class='respDivL'><div class='vertical-center'><font style='color:orange'>(E)</font></div></div><div class='respDivR'><div class='vertical-center'>(I)</div></div></div>","null","$27","$47","1","27","47",""
"html-keyboard-response","46","110658","0.0-5.0-1.14","5d1b0776e1c05200018b582d","bdp_rd","Sat Mar 25 2023 20:54:23 GMT-0400 (Eastern Daylight Time)","234677","","null","","","","FIX","","<div class='trialBorder'><div class='vertical-center'><img style='vertical-align:center; align:center' src=img/fixation3.jpg></div></div>","null","","","","","",""
"html-keyboard-response","47","112595","0.0-5.0-2.14","5d1b0776e1c05200018b582d","bdp_rd","Sat Mar 25 2023 20:54:23 GMT-0400 (Eastern Daylight Time)","234677","","1933","","","","offer","","<div class='trialBorder'><div class='vertical-center'><img style='vertical-align:center; align:center' src=img/fixation3.jpg></div><div class='cl'><div class='vertical-center'>$37<br>with a<br>50% chance</div></div><div class='cr'><div class='vertical-center'>$20<br>for<br>sure</div></div><div class='respDivL'><div class='vertical-center'>(E)</div></div><div class='respDivR'><div class='vertical-center'>(I)</div></div></div>","I","$20","$37","1","20","37","SURE"
"html-keyboard-response","48","112851","0.0-5.0-3.14","5d1b0776e1c05200018b582d","bdp_rd","Sat Mar 25 2023 20:54:23 GMT-0400 (Eastern Daylight Time)","234677","","null","","","","offerFB","","<div class='trialBorder'><div class='vertical-center'><img style='vertical-align:center; align:center' src=img/fixation3.jpg></div><div class='cl'><div class='vertical-center'>$37<br>with a<br>50% chance</div></div><div class='cr'><div class='vertical-center'><font style='color:orange'>$20<br>for<br>sure</font></div></div><div class='respDivL'><div class='vertical-center'>(E)</div></div><div class='respDivR'><div class='vertical-center'><font style='color:orange'>(I)</font></div></div></div>","null","$20","$37","1","20","37",""
"html-keyboard-response","49","113356","0.0-5.0-1.15","5d1b0776e1c05200018b582d","bdp_rd","Sat Mar 25 2023 20:54:23 GMT-0400 (Eastern Daylight Time)","234677","","null","","","","FIX","","<div class='trialBorder'><div class='vertical-center'><img style='vertical-align:center; align:center' src=img/fixation3.jpg></div></div>","null","","","","","",""
"html-keyboard-response","50","115550","0.0-5.0-2.15","5d1b0776e1c05200018b582d","bdp_rd","Sat Mar 25 2023 20:54:23 GMT-0400 (Eastern Daylight Time)","234677","","2186","","","","offer","","<div class='trialBorder'><div class='vertical-center'><img style='vertical-align:center; align:center' src=img/fixation3.jpg></div><div class='cl'><div class='vertical-center'>$40<br>with a<br>50% chance</div></div><div class='cr'><div class='vertical-center'>$10<br>for<br>sure</div></div><div class='respDivL'><div class='vertical-center'>(E)</div></div><div class='respDivR'><div class='vertical-center'>(I)</div></div></div>","E","$10","$40","1","10","40","RISKY"
"html-keyboard-response","51","115807","0.0-5.0-3.15","5d1b0776e1c05200018b582d","bdp_rd","Sat Mar 25 2023 20:54:23 GMT-0400 (Eastern Daylight Time)","234677","","null","","","","offerFB","","<div class='trialBorder'><div class='vertical-center'><img style='vertical-align:center; align:center' src=img/fixation3.jpg></div><div class='cl'><div class='vertical-center'><font style='color:orange'>$40<br>with a<br>50% chance</font></div></div><div class='cr'><div class='vertical-center'>$10<br>for<br>sure</div></div><div class='respDivL'><div class='vertical-center'><font style='color:orange'>(E)</font></div></div><div class='respDivR'><div class='vertical-center'>(I)</div></div></div>","null","$10","$40","1","10","40",""
"html-keyboard-response","52","116311","0.0-5.0-1.16","5d1b0776e1c05200018b582d","bdp_rd","Sat Mar 25 2023 20:54:23 GMT-0400 (Eastern Daylight Time)","234677","","null","","","","FIX","","<div class='trialBorder'><div class='vertical-center'><img style='vertical-align:center; align:center' src=img/fixation3.jpg></div></div>","null","","","","","",""
"html-keyboard-response","53","118146","0.0-5.0-2.16","5d1b0776e1c05200018b582d","bdp_rd","Sat Mar 25 2023 20:54:23 GMT-0400 (Eastern Daylight Time)","234677","","1827","","","","offer","","<div class='trialBorder'><div class='vertical-center'><img style='vertical-align:center; align:center' src=img/fixation3.jpg></div><div class='cl'><div class='vertical-center'>$30<br>for<br>sure</div></div><div class='cr'><div class='vertical-center'>$68<br>with a<br>50% chance</div></div><div class='respDivL'><div class='vertical-center'>(E)</div></div><div class='respDivR'><div class='vertical-center'>(I)</div></div></div>","I","$30","$68","0","30","68","RISKY"
"html-keyboard-response","54","118405","0.0-5.0-3.16","5d1b0776e1c05200018b582d","bdp_rd","Sat Mar 25 2023 20:54:23 GMT-0400 (Eastern Daylight Time)","234677","","null","","","","offerFB","","<div class='trialBorder'><div class='vertical-center'><img style='vertical-align:center; align:center' src=img/fixation3.jpg></div><div class='cl'><div class='vertical-center'>$30<br>for<br>sure</div></div><div class='cr'><div class='vertical-center'><font style='color:orange'>$68<br>with a<br>50% chance</font></div></div><div class='respDivL'><div class='vertical-center'>(E)</div></div><div class='respDivR'><div class='vertical-center'><font style='color:orange'>(I)</font></div></div></div>","null","$30","$68","0","30","68",""
"html-keyboard-response","55","118911","0.0-5.0-1.17","5d1b0776e1c05200018b582d","bdp_rd","Sat Mar 25 2023 20:54:23 GMT-0400 (Eastern Daylight Time)","234677","","null","","","","FIX","","<div class='trialBorder'><div class='vertical-center'><img style='vertical-align:center; align:center' src=img/fixation3.jpg></div></div>","null","","","","","",""
"html-keyboard-response","56","120995","0.0-5.0-2.17","5d1b0776e1c05200018b582d","bdp_rd","Sat Mar 25 2023 20:54:23 GMT-0400 (Eastern Daylight Time)","234677","","2078","","","","offer","","<div class='trialBorder'><div class='vertical-center'><img style='vertical-align:center; align:center' src=img/fixation3.jpg></div><div class='cl'><div class='vertical-center'>$18<br>for<br>sure</div></div><div class='cr'><div class='vertical-center'>$39<br>with a<br>50% chance</div></div><div class='respDivL'><div class='vertical-center'>(E)</div></div><div class='respDivR'><div class='vertical-center'>(I)</div></div></div>","I","$18","$39","0","18","39","RISKY"
"html-keyboard-response","57","121249","0.0-5.0-3.17","5d1b0776e1c05200018b582d","bdp_rd","Sat Mar 25 2023 20:54:23 GMT-0400 (Eastern Daylight Time)","234677","","null","","","","offerFB","","<div class='trialBorder'><div class='vertical-center'><img style='vertical-align:center; align:center' src=img/fixation3.jpg></div><div class='cl'><div class='vertical-center'>$18<br>for<br>sure</div></div><div class='cr'><div class='vertical-center'><font style='color:orange'>$39<br>with a<br>50% chance</font></div></div><div class='respDivL'><div class='vertical-center'>(E)</div></div><div class='respDivR'><div class='vertical-center'><font style='color:orange'>(I)</font></div></div></div>","null","$18","$39","0","18","39",""
"html-keyboard-response","58","121754","0.0-5.0-1.18","5d1b0776e1c05200018b582d","bdp_rd","Sat Mar 25 2023 20:54:23 GMT-0400 (Eastern Daylight Time)","234677","","null","","","","FIX","","<div class='trialBorder'><div class='vertical-center'><img style='vertical-align:center; align:center' src=img/fixation3.jpg></div></div>","null","","","","","",""
"html-keyboard-response","59","123474","0.0-5.0-2.18","5d1b0776e1c05200018b582d","bdp_rd","Sat Mar 25 2023 20:54:23 GMT-0400 (Eastern Daylight Time)","234677","","1712","","","","offer","","<div class='trialBorder'><div class='vertical-center'><img style='vertical-align:center; align:center' src=img/fixation3.jpg></div><div class='cl'><div class='vertical-center'>$11<br>for<br>sure</div></div><div class='cr'><div class='vertical-center'>$62<br>with a<br>50% chance</div></div><div class='respDivL'><div class='vertical-center'>(E)</div></div><div class='respDivR'><div class='vertical-center'>(I)</div></div></div>","I","$11","$62","0","11","62","RISKY"
"html-keyboard-response","60","123728","0.0-5.0-3.18","5d1b0776e1c05200018b582d","bdp_rd","Sat Mar 25 2023 20:54:23 GMT-0400 (Eastern Daylight Time)","234677","","null","","","","offerFB","","<div class='trialBorder'><div class='vertical-center'><img style='vertical-align:center; align:center' src=img/fixation3.jpg></div><div class='cl'><div class='vertical-center'>$11<br>for<br>sure</div></div><div class='cr'><div class='vertical-center'><font style='color:orange'>$62<br>with a<br>50% chance</font></div></div><div class='respDivL'><div class='vertical-center'>(E)</div></div><div class='respDivR'><div class='vertical-center'><font style='color:orange'>(I)</font></div></div></div>","null","$11","$62","0","11","62",""
"html-keyboard-response","61","124232","0.0-5.0-1.19","5d1b0776e1c05200018b582d","bdp_rd","Sat Mar 25 2023 20:54:23 GMT-0400 (Eastern Daylight Time)","234677","","null","","","","FIX","","<div class='trialBorder'><div class='vertical-center'><img style='vertical-align:center; align:center' src=img/fixation3.jpg></div></div>","null","","","","","",""
"html-keyboard-response","62","126340","0.0-5.0-2.19","5d1b0776e1c05200018b582d","bdp_rd","Sat Mar 25 2023 20:54:23 GMT-0400 (Eastern Daylight Time)","234677","","2098","","","","offer","","<div class='trialBorder'><div class='vertical-center'><img style='vertical-align:center; align:center' src=img/fixation3.jpg></div><div class='cl'><div class='vertical-center'>$1<br>for<br>sure</div></div><div class='cr'><div class='vertical-center'>$30<br>with a<br>50% chance</div></div><div class='respDivL'><div class='vertical-center'>(E)</div></div><div class='respDivR'><div class='vertical-center'>(I)</div></div></div>","I","$1","$30","0","1","30","RISKY"
"html-keyboard-response","63","126597","0.0-5.0-3.19","5d1b0776e1c05200018b582d","bdp_rd","Sat Mar 25 2023 20:54:23 GMT-0400 (Eastern Daylight Time)","234677","","null","","","","offerFB","","<div class='trialBorder'><div class='vertical-center'><img style='vertical-align:center; align:center' src=img/fixation3.jpg></div><div class='cl'><div class='vertical-center'>$1<br>for<br>sure</div></div><div class='cr'><div class='vertical-center'><font style='color:orange'>$30<br>with a<br>50% chance</font></div></div><div class='respDivL'><div class='vertical-center'>(E)</div></div><div class='respDivR'><div class='vertical-center'><font style='color:orange'>(I)</font></div></div></div>","null","$1","$30","0","1","30",""
"html-keyboard-response","64","127104","0.0-5.0-1.20","5d1b0776e1c05200018b582d","bdp_rd","Sat Mar 25 2023 20:54:23 GMT-0400 (Eastern Daylight Time)","234677","","null","","","","FIX","","<div class='trialBorder'><div class='vertical-center'><img style='vertical-align:center; align:center' src=img/fixation3.jpg></div></div>","null","","","","","",""
"html-keyboard-response","65","128808","0.0-5.0-2.20","5d1b0776e1c05200018b582d","bdp_rd","Sat Mar 25 2023 20:54:23 GMT-0400 (Eastern Daylight Time)","234677","","1695","","","","offer","","<div class='trialBorder'><div class='vertical-center'><img style='vertical-align:center; align:center' src=img/fixation3.jpg></div><div class='cl'><div class='vertical-center'>$71<br>with a<br>50% chance</div></div><div class='cr'><div class='vertical-center'>$7<br>for<br>sure</div></div><div class='respDivL'><div class='vertical-center'>(E)</div></div><div class='respDivR'><div class='vertical-center'>(I)</div></div></div>","E","$7","$71","1","7","71","RISKY"
"html-keyboard-response","66","129065","0.0-5.0-3.20","5d1b0776e1c05200018b582d","bdp_rd","Sat Mar 25 2023 20:54:23 GMT-0400 (Eastern Daylight Time)","234677","","null","","","","offerFB","","<div class='trialBorder'><div class='vertical-center'><img style='vertical-align:center; align:center' src=img/fixation3.jpg></div><div class='cl'><div class='vertical-center'><font style='color:orange'>$71<br>with a<br>50% chance</font></div></div><div class='cr'><div class='vertical-center'>$7<br>for<br>sure</div></div><div class='respDivL'><div class='vertical-center'><font style='color:orange'>(E)</font></div></div><div class='respDivR'><div class='vertical-center'>(I)</div></div></div>","null","$7","$71","1","7","71",""
"html-keyboard-response","67","129569","0.0-5.0-1.21","5d1b0776e1c05200018b582d","bdp_rd","Sat Mar 25 2023 20:54:23 GMT-0400 (Eastern Daylight Time)","234677","","null","","","","FIX","","<div class='trialBorder'><div class='vertical-center'><img style='vertical-align:center; align:center' src=img/fixation3.jpg></div></div>","null","","","","","",""
"html-keyboard-response","68","132066","0.0-5.0-2.21","5d1b0776e1c05200018b582d","bdp_rd","Sat Mar 25 2023 20:54:23 GMT-0400 (Eastern Daylight Time)","234677","","2488","","","","offer","","<div class='trialBorder'><div class='vertical-center'><img style='vertical-align:center; align:center' src=img/fixation3.jpg></div><div class='cl'><div class='vertical-center'>$63<br>for<br>sure</div></div><div class='cr'><div class='vertical-center'>$100<br>with a<br>50% chance</div></div><div class='respDivL'><div class='vertical-center'>(E)</div></div><div class='respDivR'><div class='vertical-center'>(I)</div></div></div>","E","$63","$100","0","63","10","SURE"
"html-keyboard-response","69","132322","0.0-5.0-3.21","5d1b0776e1c05200018b582d","bdp_rd","Sat Mar 25 2023 20:54:23 GMT-0400 (Eastern Daylight Time)","234677","","null","","","","offerFB","","<div class='trialBorder'><div class='vertical-center'><img style='vertical-align:center; align:center' src=img/fixation3.jpg></div><div class='cl'><div class='vertical-center'><font style='color:orange'>$63<br>for<br>sure</font></div></div><div class='cr'><div class='vertical-center'>$100<br>with a<br>50% chance</div></div><div class='respDivL'><div class='vertical-center'><font style='color:orange'>(E)</font></div></div><div class='respDivR'><div class='vertical-center'>(I)</div></div></div>","null","$63","$100","0","63","10",""
"html-keyboard-response","70","132827","0.0-5.0-1.22","5d1b0776e1c05200018b582d","bdp_rd","Sat Mar 25 2023 20:54:23 GMT-0400 (Eastern Daylight Time)","234677","","null","","","","FIX","","<div class='trialBorder'><div class='vertical-center'><img style='vertical-align:center; align:center' src=img/fixation3.jpg></div></div>","null","","","","","",""
"html-keyboard-response","71","134508","0.0-5.0-2.22","5d1b0776e1c05200018b582d","bdp_rd","Sat Mar 25 2023 20:54:23 GMT-0400 (Eastern Daylight Time)","234677","","1675","","","","offer","","<div class='trialBorder'><div class='vertical-center'><img style='vertical-align:center; align:center' src=img/fixation3.jpg></div><div class='cl'><div class='vertical-center'>$8<br>for<br>sure</div></div><div class='cr'><div class='vertical-center'>$45<br>with a<br>50% chance</div></div><div class='respDivL'><div class='vertical-center'>(E)</div></div><div class='respDivR'><div class='vertical-center'>(I)</div></div></div>","I","$8","$45","0","8","45","RISKY"
"html-keyboard-response","72","134762","0.0-5.0-3.22","5d1b0776e1c05200018b582d","bdp_rd","Sat Mar 25 2023 20:54:23 GMT-0400 (Eastern Daylight Time)","234677","","null","","","","offerFB","","<div class='trialBorder'><div class='vertical-center'><img style='vertical-align:center; align:center' src=img/fixation3.jpg></div><div class='cl'><div class='vertical-center'>$8<br>for<br>sure</div></div><div class='cr'><div class='vertical-center'><font style='color:orange'>$45<br>with a<br>50% chance</font></div></div><div class='respDivL'><div class='vertical-center'>(E)</div></div><div class='respDivR'><div class='vertical-center'><font style='color:orange'>(I)</font></div></div></div>","null","$8","$45","0","8","45",""
"html-keyboard-response","73","135265","0.0-5.0-1.23","5d1b0776e1c05200018b582d","bdp_rd","Sat Mar 25 2023 20:54:23 GMT-0400 (Eastern Daylight Time)","234677","","null","","","","FIX","","<div class='trialBorder'><div class='vertical-center'><img style='vertical-align:center; align:center' src=img/fixation3.jpg></div></div>","null","","","","","",""
"html-keyboard-response","74","138267","0.0-5.0-2.23","5d1b0776e1c05200018b582d","bdp_rd","Sat Mar 25 2023 20:54:23 GMT-0400 (Eastern Daylight Time)","234677","","2992","","","","offer","","<div class='trialBorder'><div class='vertical-center'><img style='vertical-align:center; align:center' src=img/fixation3.jpg></div><div class='cl'><div class='vertical-center'>$15<br>with a<br>50% chance</div></div><div class='cr'><div class='vertical-center'>$6<br>for<br>sure</div></div><div class='respDivL'><div class='vertical-center'>(E)</div></div><div class='respDivR'><div class='vertical-center'>(I)</div></div></div>","I","$6","$15","1","6","15","SURE"
"html-keyboard-response","75","138527","0.0-5.0-3.23","5d1b0776e1c05200018b582d","bdp_rd","Sat Mar 25 2023 20:54:23 GMT-0400 (Eastern Daylight Time)","234677","","null","","","","offerFB","","<div class='trialBorder'><div class='vertical-center'><img style='vertical-align:center; align:center' src=img/fixation3.jpg></div><div class='cl'><div class='vertical-center'>$15<br>with a<br>50% chance</div></div><div class='cr'><div class='vertical-center'><font style='color:orange'>$6<br>for<br>sure</font></div></div><div class='respDivL'><div class='vertical-center'>(E)</div></div><div class='respDivR'><div class='vertical-center'><font style='color:orange'>(I)</font></div></div></div>","null","$6","$15","1","6","15",""
"html-keyboard-response","76","139031","0.0-5.0-1.24","5d1b0776e1c05200018b582d","bdp_rd","Sat Mar 25 2023 20:54:23 GMT-0400 (Eastern Daylight Time)","234677","","null","","","","FIX","","<div class='trialBorder'><div class='vertical-center'><img style='vertical-align:center; align:center' src=img/fixation3.jpg></div></div>","null","","","","","",""
"html-keyboard-response","77","142363","0.0-5.0-2.24","5d1b0776e1c05200018b582d","bdp_rd","Sat Mar 25 2023 20:54:23 GMT-0400 (Eastern Daylight Time)","234677","","3325","","","","offer","","<div class='trialBorder'><div class='vertical-center'><img style='vertical-align:center; align:center' src=img/fixation3.jpg></div><div class='cl'><div class='vertical-center'>$12<br>for<br>sure</div></div><div class='cr'><div class='vertical-center'>$35<br>with a<br>50% chance</div></div><div class='respDivL'><div class='vertical-center'>(E)</div></div><div class='respDivR'><div class='vertical-center'>(I)</div></div></div>","I","$12","$35","0","12","35","RISKY"
"html-keyboard-response","78","142622","0.0-5.0-3.24","5d1b0776e1c05200018b582d","bdp_rd","Sat Mar 25 2023 20:54:23 GMT-0400 (Eastern Daylight Time)","234677","","null","","","","offerFB","","<div class='trialBorder'><div class='vertical-center'><img style='vertical-align:center; align:center' src=img/fixation3.jpg></div><div class='cl'><div class='vertical-center'>$12<br>for<br>sure</div></div><div class='cr'><div class='vertical-center'><font style='color:orange'>$35<br>with a<br>50% chance</font></div></div><div class='respDivL'><div class='vertical-center'>(E)</div></div><div class='respDivR'><div class='vertical-center'><font style='color:orange'>(I)</font></div></div></div>","null","$12","$35","0","12","35",""
"html-keyboard-response","79","143128","0.0-5.0-1.25","5d1b0776e1c05200018b582d","bdp_rd","Sat Mar 25 2023 20:54:23 GMT-0400 (Eastern Daylight Time)","234677","","null","","","","FIX","","<div class='trialBorder'><div class='vertical-center'><img style='vertical-align:center; align:center' src=img/fixation3.jpg></div></div>","null","","","","","",""
"html-keyboard-response","80","144608","0.0-5.0-2.25","5d1b0776e1c05200018b582d","bdp_rd","Sat Mar 25 2023 20:54:23 GMT-0400 (Eastern Daylight Time)","234677","","1470","","","","offer","","<div class='trialBorder'><div class='vertical-center'><img style='vertical-align:center; align:center' src=img/fixation3.jpg></div><div class='cl'><div class='vertical-center'>$1<br>for<br>sure</div></div><div class='cr'><div class='vertical-center'>$33<br>with a<br>50% chance</div></div><div class='respDivL'><div class='vertical-center'>(E)</div></div><div class='respDivR'><div class='vertical-center'>(I)</div></div></div>","I","$1","$33","0","1","33","RISKY"
"html-keyboard-response","81","144863","0.0-5.0-3.25","5d1b0776e1c05200018b582d","bdp_rd","Sat Mar 25 2023 20:54:23 GMT-0400 (Eastern Daylight Time)","234677","","null","","","","offerFB","","<div class='trialBorder'><div class='vertical-center'><img style='vertical-align:center; align:center' src=img/fixation3.jpg></div><div class='cl'><div class='vertical-center'>$1<br>for<br>sure</div></div><div class='cr'><div class='vertical-center'><font style='color:orange'>$33<br>with a<br>50% chance</font></div></div><div class='respDivL'><div class='vertical-center'>(E)</div></div><div class='respDivR'><div class='vertical-center'><font style='color:orange'>(I)</font></div></div></div>","null","$1","$33","0","1","33",""
"html-keyboard-response","82","145369","0.0-5.0-1.26","5d1b0776e1c05200018b582d","bdp_rd","Sat Mar 25 2023 20:54:23 GMT-0400 (Eastern Daylight Time)","234677","","null","","","","FIX","","<div class='trialBorder'><div class='vertical-center'><img style='vertical-align:center; align:center' src=img/fixation3.jpg></div></div>","null","","","","","",""
"html-keyboard-response","83","147367","0.0-5.0-2.26","5d1b0776e1c05200018b582d","bdp_rd","Sat Mar 25 2023 20:54:23 GMT-0400 (Eastern Daylight Time)","234677","","1989","","","","offer","","<div class='trialBorder'><div class='vertical-center'><img style='vertical-align:center; align:center' src=img/fixation3.jpg></div><div class='cl'><div class='vertical-center'>$24<br>with a<br>50% chance</div></div><div class='cr'><div class='vertical-center'>$13<br>for<br>sure</div></div><div class='respDivL'><div class='vertical-center'>(E)</div></div><div class='respDivR'><div class='vertical-center'>(I)</div></div></div>","I","$13","$24","1","13","24","SURE"
"html-keyboard-response","84","147622","0.0-5.0-3.26","5d1b0776e1c05200018b582d","bdp_rd","Sat Mar 25 2023 20:54:23 GMT-0400 (Eastern Daylight Time)","234677","","null","","","","offerFB","","<div class='trialBorder'><div class='vertical-center'><img style='vertical-align:center; align:center' src=img/fixation3.jpg></div><div class='cl'><div class='vertical-center'>$24<br>with a<br>50% chance</div></div><div class='cr'><div class='vertical-center'><font style='color:orange'>$13<br>for<br>sure</font></div></div><div class='respDivL'><div class='vertical-center'>(E)</div></div><div class='respDivR'><div class='vertical-center'><font style='color:orange'>(I)</font></div></div></div>","null","$13","$24","1","13","24",""
"html-keyboard-response","85","148126","0.0-5.0-1.27","5d1b0776e1c05200018b582d","bdp_rd","Sat Mar 25 2023 20:54:23 GMT-0400 (Eastern Daylight Time)","234677","","null","","","","FIX","","<div class='trialBorder'><div class='vertical-center'><img style='vertical-align:center; align:center' src=img/fixation3.jpg></div></div>","null","","","","","",""
"html-keyboard-response","86","150145","0.0-5.0-2.27","5d1b0776e1c05200018b582d","bdp_rd","Sat Mar 25 2023 20:54:23 GMT-0400 (Eastern Daylight Time)","234677","","2015","","","","offer","","<div class='trialBorder'><div class='vertical-center'><img style='vertical-align:center; align:center' src=img/fixation3.jpg></div><div class='cl'><div class='vertical-center'>$37<br>for<br>sure</div></div><div class='cr'><div class='vertical-center'>$44<br>with a<br>50% chance</div></div><div class='respDivL'><div class='vertical-center'>(E)</div></div><div class='respDivR'><div class='vertical-center'>(I)</div></div></div>","E","$37","$44","0","37","44","SURE"
"html-keyboard-response","87","150400","0.0-5.0-3.27","5d1b0776e1c05200018b582d","bdp_rd","Sat Mar 25 2023 20:54:23 GMT-0400 (Eastern Daylight Time)","234677","","null","","","","offerFB","","<div class='trialBorder'><div class='vertical-center'><img style='vertical-align:center; align:center' src=img/fixation3.jpg></div><div class='cl'><div class='vertical-center'><font style='color:orange'>$37<br>for<br>sure</font></div></div><div class='cr'><div class='vertical-center'>$44<br>with a<br>50% chance</div></div><div class='respDivL'><div class='vertical-center'><font style='color:orange'>(E)</font></div></div><div class='respDivR'><div class='vertical-center'>(I)</div></div></div>","null","$37","$44","0","37","44",""
"html-keyboard-response","88","150907","0.0-5.0-1.28","5d1b0776e1c05200018b582d","bdp_rd","Sat Mar 25 2023 20:54:23 GMT-0400 (Eastern Daylight Time)","234677","","null","","","","FIX","","<div class='trialBorder'><div class='vertical-center'><img style='vertical-align:center; align:center' src=img/fixation3.jpg></div></div>","null","","","","","",""
"html-keyboard-response","89","153241","0.0-5.0-2.28","5d1b0776e1c05200018b582d","bdp_rd","Sat Mar 25 2023 20:54:23 GMT-0400 (Eastern Daylight Time)","234677","","2329","","","","offer","","<div class='trialBorder'><div class='vertical-center'><img style='vertical-align:center; align:center' src=img/fixation3.jpg></div><div class='cl'><div class='vertical-center'>$4<br>for<br>sure</div></div><div class='cr'><div class='vertical-center'>$14<br>with a<br>50% chance</div></div><div class='respDivL'><div class='vertical-center'>(E)</div></div><div class='respDivR'><div class='vertical-center'>(I)</div></div></div>","I","$4","$14","0","4","14","RISKY"
"html-keyboard-response","90","153497","0.0-5.0-3.28","5d1b0776e1c05200018b582d","bdp_rd","Sat Mar 25 2023 20:54:23 GMT-0400 (Eastern Daylight Time)","234677","","null","","","","offerFB","","<div class='trialBorder'><div class='vertical-center'><img style='vertical-align:center; align:center' src=img/fixation3.jpg></div><div class='cl'><div class='vertical-center'>$4<br>for<br>sure</div></div><div class='cr'><div class='vertical-center'><font style='color:orange'>$14<br>with a<br>50% chance</font></div></div><div class='respDivL'><div class='vertical-center'>(E)</div></div><div class='respDivR'><div class='vertical-center'><font style='color:orange'>(I)</font></div></div></div>","null","$4","$14","0","4","14",""
"html-keyboard-response","91","154005","0.0-5.0-1.29","5d1b0776e1c05200018b582d","bdp_rd","Sat Mar 25 2023 20:54:23 GMT-0400 (Eastern Daylight Time)","234677","","null","","","","FIX","","<div class='trialBorder'><div class='vertical-center'><img style='vertical-align:center; align:center' src=img/fixation3.jpg></div></div>","null","","","","","",""
"html-keyboard-response","92","156678","0.0-5.0-2.29","5d1b0776e1c05200018b582d","bdp_rd","Sat Mar 25 2023 20:54:23 GMT-0400 (Eastern Daylight Time)","234677","","2668","","","","offer","","<div class='trialBorder'><div class='vertical-center'><img style='vertical-align:center; align:center' src=img/fixation3.jpg></div><div class='cl'><div class='vertical-center'>$38<br>with a<br>50% chance</div></div><div class='cr'><div class='vertical-center'>$16<br>for<br>sure</div></div><div class='respDivL'><div class='vertical-center'>(E)</div></div><div class='respDivR'><div class='vertical-center'>(I)</div></div></div>","E","$16","$38","1","16","38","RISKY"
"html-keyboard-response","93","156933","0.0-5.0-3.29","5d1b0776e1c05200018b582d","bdp_rd","Sat Mar 25 2023 20:54:23 GMT-0400 (Eastern Daylight Time)","234677","","null","","","","offerFB","","<div class='trialBorder'><div class='vertical-center'><img style='vertical-align:center; align:center' src=img/fixation3.jpg></div><div class='cl'><div class='vertical-center'><font style='color:orange'>$38<br>with a<br>50% chance</font></div></div><div class='cr'><div class='vertical-center'>$16<br>for<br>sure</div></div><div class='respDivL'><div class='vertical-center'><font style='color:orange'>(E)</font></div></div><div class='respDivR'><div class='vertical-center'>(I)</div></div></div>","null","$16","$38","1","16","38",""
"html-keyboard-response","94","157438","0.0-5.0-1.30","5d1b0776e1c05200018b582d","bdp_rd","Sat Mar 25 2023 20:54:23 GMT-0400 (Eastern Daylight Time)","234677","","null","","","","FIX","","<div class='trialBorder'><div class='vertical-center'><img style='vertical-align:center; align:center' src=img/fixation3.jpg></div></div>","null","","","","","",""
"html-keyboard-response","95","160073","0.0-5.0-2.30","5d1b0776e1c05200018b582d","bdp_rd","Sat Mar 25 2023 20:54:23 GMT-0400 (Eastern Daylight Time)","234677","","2628","","","","offer","","<div class='trialBorder'><div class='vertical-center'><img style='vertical-align:center; align:center' src=img/fixation3.jpg></div><div class='cl'><div class='vertical-center'>$11<br>for<br>sure</div></div><div class='cr'><div class='vertical-center'>$26<br>with a<br>50% chance</div></div><div class='respDivL'><div class='vertical-center'>(E)</div></div><div class='respDivR'><div class='vertical-center'>(I)</div></div></div>","E","$11","$26","0","11","26","SURE"
"html-keyboard-response","96","160331","0.0-5.0-3.30","5d1b0776e1c05200018b582d","bdp_rd","Sat Mar 25 2023 20:54:23 GMT-0400 (Eastern Daylight Time)","234677","","null","","","","offerFB","","<div class='trialBorder'><div class='vertical-center'><img style='vertical-align:center; align:center' src=img/fixation3.jpg></div><div class='cl'><div class='vertical-center'><font style='color:orange'>$11<br>for<br>sure</font></div></div><div class='cr'><div class='vertical-center'>$26<br>with a<br>50% chance</div></div><div class='respDivL'><div class='vertical-center'><font style='color:orange'>(E)</font></div></div><div class='respDivR'><div class='vertical-center'>(I)</div></div></div>","null","$11","$26","0","11","26",""
"html-keyboard-response","97","160835","0.0-5.0-1.31","5d1b0776e1c05200018b582d","bdp_rd","Sat Mar 25 2023 20:54:23 GMT-0400 (Eastern Daylight Time)","234677","","null","","","","FIX","","<div class='trialBorder'><div class='vertical-center'><img style='vertical-align:center; align:center' src=img/fixation3.jpg></div></div>","null","","","","","",""
"html-keyboard-response","98","162793","0.0-5.0-2.31","5d1b0776e1c05200018b582d","bdp_rd","Sat Mar 25 2023 20:54:23 GMT-0400 (Eastern Daylight Time)","234677","","1949","","","","offer","","<div class='trialBorder'><div class='vertical-center'><img style='vertical-align:center; align:center' src=img/fixation3.jpg></div><div class='cl'><div class='vertical-center'>$32<br>with a<br>50% chance</div></div><div class='cr'><div class='vertical-center'>$9<br>for<br>sure</div></div><div class='respDivL'><div class='vertical-center'>(E)</div></div><div class='respDivR'><div class='vertical-center'>(I)</div></div></div>","E","$9","$32","1","9","32","RISKY"
"html-keyboard-response","99","163050","0.0-5.0-3.31","5d1b0776e1c05200018b582d","bdp_rd","Sat Mar 25 2023 20:54:23 GMT-0400 (Eastern Daylight Time)","234677","","null","","","","offerFB","","<div class='trialBorder'><div class='vertical-center'><img style='vertical-align:center; align:center' src=img/fixation3.jpg></div><div class='cl'><div class='vertical-center'><font style='color:orange'>$32<br>with a<br>50% chance</font></div></div><div class='cr'><div class='vertical-center'>$9<br>for<br>sure</div></div><div class='respDivL'><div class='vertical-center'><font style='color:orange'>(E)</font></div></div><div class='respDivR'><div class='vertical-center'>(I)</div></div></div>","null","$9","$32","1","9","32",""
"html-keyboard-response","100","163554","0.0-5.0-1.32","5d1b0776e1c05200018b582d","bdp_rd","Sat Mar 25 2023 20:54:23 GMT-0400 (Eastern Daylight Time)","234677","","null","","","","FIX","","<div class='trialBorder'><div class='vertical-center'><img style='vertical-align:center; align:center' src=img/fixation3.jpg></div></div>","null","","","","","",""
"html-keyboard-response","101","165067","0.0-5.0-2.32","5d1b0776e1c05200018b582d","bdp_rd","Sat Mar 25 2023 20:54:23 GMT-0400 (Eastern Daylight Time)","234677","","1505","","","","offer","","<div class='trialBorder'><div class='vertical-center'><img style='vertical-align:center; align:center' src=img/fixation3.jpg></div><div class='cl'><div class='vertical-center'>$2<br>for<br>sure</div></div><div class='cr'><div class='vertical-center'>$64<br>with a<br>50% chance</div></div><div class='respDivL'><div class='vertical-center'>(E)</div></div><div class='respDivR'><div class='vertical-center'>(I)</div></div></div>","I","$2","$64","0","2","64","RISKY"
"html-keyboard-response","102","165323","0.0-5.0-3.32","5d1b0776e1c05200018b582d","bdp_rd","Sat Mar 25 2023 20:54:23 GMT-0400 (Eastern Daylight Time)","234677","","null","","","","offerFB","","<div class='trialBorder'><div class='vertical-center'><img style='vertical-align:center; align:center' src=img/fixation3.jpg></div><div class='cl'><div class='vertical-center'>$2<br>for<br>sure</div></div><div class='cr'><div class='vertical-center'><font style='color:orange'>$64<br>with a<br>50% chance</font></div></div><div class='respDivL'><div class='vertical-center'>(E)</div></div><div class='respDivR'><div class='vertical-center'><font style='color:orange'>(I)</font></div></div></div>","null","$2","$64","0","2","64",""
"html-keyboard-response","103","165828","0.0-5.0-1.33","5d1b0776e1c05200018b582d","bdp_rd","Sat Mar 25 2023 20:54:23 GMT-0400 (Eastern Daylight Time)","234677","","null","","","","FIX","","<div class='trialBorder'><div class='vertical-center'><img style='vertical-align:center; align:center' src=img/fixation3.jpg></div></div>","null","","","","","",""
"html-keyboard-response","104","167563","0.0-5.0-2.33","5d1b0776e1c05200018b582d","bdp_rd","Sat Mar 25 2023 20:54:23 GMT-0400 (Eastern Daylight Time)","234677","","1726","","","","offer","","<div class='trialBorder'><div class='vertical-center'><img style='vertical-align:center; align:center' src=img/fixation3.jpg></div><div class='cl'><div class='vertical-center'>$7<br>for<br>sure</div></div><div class='cr'><div class='vertical-center'>$10<br>with a<br>50% chance</div></div><div class='respDivL'><div class='vertical-center'>(E)</div></div><div class='respDivR'><div class='vertical-center'>(I)</div></div></div>","E","$7","$10","0","7","10","SURE"
"html-keyboard-response","105","167818","0.0-5.0-3.33","5d1b0776e1c05200018b582d","bdp_rd","Sat Mar 25 2023 20:54:23 GMT-0400 (Eastern Daylight Time)","234677","","null","","","","offerFB","","<div class='trialBorder'><div class='vertical-center'><img style='vertical-align:center; align:center' src=img/fixation3.jpg></div><div class='cl'><div class='vertical-center'><font style='color:orange'>$7<br>for<br>sure</font></div></div><div class='cr'><div class='vertical-center'>$10<br>with a<br>50% chance</div></div><div class='respDivL'><div class='vertical-center'><font style='color:orange'>(E)</font></div></div><div class='respDivR'><div class='vertical-center'>(I)</div></div></div>","null","$7","$10","0","7","10",""
"html-keyboard-response","106","168323","0.0-5.0-1.34","5d1b0776e1c05200018b582d","bdp_rd","Sat Mar 25 2023 20:54:23 GMT-0400 (Eastern Daylight Time)","234677","","null","","","","FIX","","<div class='trialBorder'><div class='vertical-center'><img style='vertical-align:center; align:center' src=img/fixation3.jpg></div></div>","null","","","","","",""
"html-keyboard-response","107","170239","0.0-5.0-2.34","5d1b0776e1c05200018b582d","bdp_rd","Sat Mar 25 2023 20:54:23 GMT-0400 (Eastern Daylight Time)","234677","","1909","","","","offer","","<div class='trialBorder'><div class='vertical-center'><img style='vertical-align:center; align:center' src=img/fixation3.jpg></div><div class='cl'><div class='vertical-center'>$23<br>with a<br>50% chance</div></div><div class='cr'><div class='vertical-center'>$8<br>for<br>sure</div></div><div class='respDivL'><div class='vertical-center'>(E)</div></div><div class='respDivR'><div class='vertical-center'>(I)</div></div></div>","E","$8","$23","1","8","23","RISKY"
"html-keyboard-response","108","170496","0.0-5.0-3.34","5d1b0776e1c05200018b582d","bdp_rd","Sat Mar 25 2023 20:54:23 GMT-0400 (Eastern Daylight Time)","234677","","null","","","","offerFB","","<div class='trialBorder'><div class='vertical-center'><img style='vertical-align:center; align:center' src=img/fixation3.jpg></div><div class='cl'><div class='vertical-center'><font style='color:orange'>$23<br>with a<br>50% chance</font></div></div><div class='cr'><div class='vertical-center'>$8<br>for<br>sure</div></div><div class='respDivL'><div class='vertical-center'><font style='color:orange'>(E)</font></div></div><div class='respDivR'><div class='vertical-center'>(I)</div></div></div>","null","$8","$23","1","8","23",""
"html-keyboard-response","109","171000","0.0-5.0-1.35","5d1b0776e1c05200018b582d","bdp_rd","Sat Mar 25 2023 20:54:23 GMT-0400 (Eastern Daylight Time)","234677","","null","","","","FIX","","<div class='trialBorder'><div class='vertical-center'><img style='vertical-align:center; align:center' src=img/fixation3.jpg></div></div>","null","","","","","",""
"html-keyboard-response","110","172392","0.0-5.0-2.35","5d1b0776e1c05200018b582d","bdp_rd","Sat Mar 25 2023 20:54:23 GMT-0400 (Eastern Daylight Time)","234677","","1389","","","","offer","","<div class='trialBorder'><div class='vertical-center'><img style='vertical-align:center; align:center' src=img/fixation3.jpg></div><div class='cl'><div class='vertical-center'>$5<br>for<br>sure</div></div><div class='cr'><div class='vertical-center'>$50<br>with a<br>50% chance</div></div><div class='respDivL'><div class='vertical-center'>(E)</div></div><div class='respDivR'><div class='vertical-center'>(I)</div></div></div>","I","$5","$50","0","5","50","RISKY"
"html-keyboard-response","111","172649","0.0-5.0-3.35","5d1b0776e1c05200018b582d","bdp_rd","Sat Mar 25 2023 20:54:23 GMT-0400 (Eastern Daylight Time)","234677","","null","","","","offerFB","","<div class='trialBorder'><div class='vertical-center'><img style='vertical-align:center; align:center' src=img/fixation3.jpg></div><div class='cl'><div class='vertical-center'>$5<br>for<br>sure</div></div><div class='cr'><div class='vertical-center'><font style='color:orange'>$50<br>with a<br>50% chance</font></div></div><div class='respDivL'><div class='vertical-center'>(E)</div></div><div class='respDivR'><div class='vertical-center'><font style='color:orange'>(I)</font></div></div></div>","null","$5","$50","0","5","50",""
"html-keyboard-response","112","173153","0.0-5.0-1.36","5d1b0776e1c05200018b582d","bdp_rd","Sat Mar 25 2023 20:54:23 GMT-0400 (Eastern Daylight Time)","234677","","null","","","","FIX","","<div class='trialBorder'><div class='vertical-center'><img style='vertical-align:center; align:center' src=img/fixation3.jpg></div></div>","null","","","","","",""
"html-keyboard-response","113","174975","0.0-5.0-2.36","5d1b0776e1c05200018b582d","bdp_rd","Sat Mar 25 2023 20:54:23 GMT-0400 (Eastern Daylight Time)","234677","","1815","","","","offer","","<div class='trialBorder'><div class='vertical-center'><img style='vertical-align:center; align:center' src=img/fixation3.jpg></div><div class='cl'><div class='vertical-center'>$95<br>with a<br>50% chance</div></div><div class='cr'><div class='vertical-center'>$40<br>for<br>sure</div></div><div class='respDivL'><div class='vertical-center'>(E)</div></div><div class='respDivR'><div class='vertical-center'>(I)</div></div></div>","E","$40","$95","1","40","95","RISKY"
"html-keyboard-response","114","175231","0.0-5.0-3.36","5d1b0776e1c05200018b582d","bdp_rd","Sat Mar 25 2023 20:54:23 GMT-0400 (Eastern Daylight Time)","234677","","null","","","","offerFB","","<div class='trialBorder'><div class='vertical-center'><img style='vertical-align:center; align:center' src=img/fixation3.jpg></div><div class='cl'><div class='vertical-center'><font style='color:orange'>$95<br>with a<br>50% chance</font></div></div><div class='cr'><div class='vertical-center'>$40<br>for<br>sure</div></div><div class='respDivL'><div class='vertical-center'><font style='color:orange'>(E)</font></div></div><div class='respDivR'><div class='vertical-center'>(I)</div></div></div>","null","$40","$95","1","40","95",""
"html-keyboard-response","115","175734","0.0-5.0-1.37","5d1b0776e1c05200018b582d","bdp_rd","Sat Mar 25 2023 20:54:23 GMT-0400 (Eastern Daylight Time)","234677","","null","","","","FIX","","<div class='trialBorder'><div class='vertical-center'><img style='vertical-align:center; align:center' src=img/fixation3.jpg></div></div>","null","","","","","",""
"html-keyboard-response","116","178422","0.0-5.0-2.37","5d1b0776e1c05200018b582d","bdp_rd","Sat Mar 25 2023 20:54:23 GMT-0400 (Eastern Daylight Time)","234677","","2684","","","","offer","","<div class='trialBorder'><div class='vertical-center'><img style='vertical-align:center; align:center' src=img/fixation3.jpg></div><div class='cl'><div class='vertical-center'>$16<br>with a<br>50% chance</div></div><div class='cr'><div class='vertical-center'>$5<br>for<br>sure</div></div><div class='respDivL'><div class='vertical-center'>(E)</div></div><div class='respDivR'><div class='vertical-center'>(I)</div></div></div>","E","$5","$16","1","5","16","RISKY"
"html-keyboard-response","117","178676","0.0-5.0-3.37","5d1b0776e1c05200018b582d","bdp_rd","Sat Mar 25 2023 20:54:23 GMT-0400 (Eastern Daylight Time)","234677","","null","","","","offerFB","","<div class='trialBorder'><div class='vertical-center'><img style='vertical-align:center; align:center' src=img/fixation3.jpg></div><div class='cl'><div class='vertical-center'><font style='color:orange'>$16<br>with a<br>50% chance</font></div></div><div class='cr'><div class='vertical-center'>$5<br>for<br>sure</div></div><div class='respDivL'><div class='vertical-center'><font style='color:orange'>(E)</font></div></div><div class='respDivR'><div class='vertical-center'>(I)</div></div></div>","null","$5","$16","1","5","16",""
"html-keyboard-response","118","179179","0.0-5.0-1.38","5d1b0776e1c05200018b582d","bdp_rd","Sat Mar 25 2023 20:54:23 GMT-0400 (Eastern Daylight Time)","234677","","null","","","","FIX","","<div class='trialBorder'><div class='vertical-center'><img style='vertical-align:center; align:center' src=img/fixation3.jpg></div></div>","null","","","","","",""
"html-keyboard-response","119","181340","0.0-5.0-2.38","5d1b0776e1c05200018b582d","bdp_rd","Sat Mar 25 2023 20:54:23 GMT-0400 (Eastern Daylight Time)","234677","","2154","","","","offer","","<div class='trialBorder'><div class='vertical-center'><img style='vertical-align:center; align:center' src=img/fixation3.jpg></div><div class='cl'><div class='vertical-center'>$28<br>with a<br>50% chance</div></div><div class='cr'><div class='vertical-center'>$16<br>for<br>sure</div></div><div class='respDivL'><div class='vertical-center'>(E)</div></div><div class='respDivR'><div class='vertical-center'>(I)</div></div></div>","I","$16","$28","1","16","28","SURE"
"html-keyboard-response","120","181596","0.0-5.0-3.38","5d1b0776e1c05200018b582d","bdp_rd","Sat Mar 25 2023 20:54:23 GMT-0400 (Eastern Daylight Time)","234677","","null","","","","offerFB","","<div class='trialBorder'><div class='vertical-center'><img style='vertical-align:center; align:center' src=img/fixation3.jpg></div><div class='cl'><div class='vertical-center'>$28<br>with a<br>50% chance</div></div><div class='cr'><div class='vertical-center'><font style='color:orange'>$16<br>for<br>sure</font></div></div><div class='respDivL'><div class='vertical-center'>(E)</div></div><div class='respDivR'><div class='vertical-center'><font style='color:orange'>(I)</font></div></div></div>","null","$16","$28","1","16","28",""
"html-keyboard-response","121","182101","0.0-5.0-1.39","5d1b0776e1c05200018b582d","bdp_rd","Sat Mar 25 2023 20:54:23 GMT-0400 (Eastern Daylight Time)","234677","","null","","","","FIX","","<div class='trialBorder'><div class='vertical-center'><img style='vertical-align:center; align:center' src=img/fixation3.jpg></div></div>","null","","","","","",""
"html-keyboard-response","122","183863","0.0-5.0-2.39","5d1b0776e1c05200018b582d","bdp_rd","Sat Mar 25 2023 20:54:23 GMT-0400 (Eastern Daylight Time)","234677","","1753","","","","offer","","<div class='trialBorder'><div class='vertical-center'><img style='vertical-align:center; align:center' src=img/fixation3.jpg></div><div class='cl'><div class='vertical-center'>$78<br>with a<br>50% chance</div></div><div class='cr'><div class='vertical-center'>$31<br>for<br>sure</div></div><div class='respDivL'><div class='vertical-center'>(E)</div></div><div class='respDivR'><div class='vertical-center'>(I)</div></div></div>","E","$31","$78","1","31","78","RISKY"
"html-keyboard-response","123","184121","0.0-5.0-3.39","5d1b0776e1c05200018b582d","bdp_rd","Sat Mar 25 2023 20:54:23 GMT-0400 (Eastern Daylight Time)","234677","","null","","","","offerFB","","<div class='trialBorder'><div class='vertical-center'><img style='vertical-align:center; align:center' src=img/fixation3.jpg></div><div class='cl'><div class='vertical-center'><font style='color:orange'>$78<br>with a<br>50% chance</font></div></div><div class='cr'><div class='vertical-center'>$31<br>for<br>sure</div></div><div class='respDivL'><div class='vertical-center'><font style='color:orange'>(E)</font></div></div><div class='respDivR'><div class='vertical-center'>(I)</div></div></div>","null","$31","$78","1","31","78",""
"html-keyboard-response","124","184628","0.0-5.0-1.40","5d1b0776e1c05200018b582d","bdp_rd","Sat Mar 25 2023 20:54:23 GMT-0400 (Eastern Daylight Time)","234677","","null","","","","FIX","","<div class='trialBorder'><div class='vertical-center'><img style='vertical-align:center; align:center' src=img/fixation3.jpg></div></div>","null","","","","","",""
"html-keyboard-response","125","186625","0.0-5.0-2.40","5d1b0776e1c05200018b582d","bdp_rd","Sat Mar 25 2023 20:54:23 GMT-0400 (Eastern Daylight Time)","234677","","1992","","","","offer","","<div class='trialBorder'><div class='vertical-center'><img style='vertical-align:center; align:center' src=img/fixation3.jpg></div><div class='cl'><div class='vertical-center'>$17<br>for<br>sure</div></div><div class='cr'><div class='vertical-center'>$43<br>with a<br>50% chance</div></div><div class='respDivL'><div class='vertical-center'>(E)</div></div><div class='respDivR'><div class='vertical-center'>(I)</div></div></div>","I","$17","$43","0","17","43","RISKY"
"html-keyboard-response","126","186882","0.0-5.0-3.40","5d1b0776e1c05200018b582d","bdp_rd","Sat Mar 25 2023 20:54:23 GMT-0400 (Eastern Daylight Time)","234677","","null","","","","offerFB","","<div class='trialBorder'><div class='vertical-center'><img style='vertical-align:center; align:center' src=img/fixation3.jpg></div><div class='cl'><div class='vertical-center'>$17<br>for<br>sure</div></div><div class='cr'><div class='vertical-center'><font style='color:orange'>$43<br>with a<br>50% chance</font></div></div><div class='respDivL'><div class='vertical-center'>(E)</div></div><div class='respDivR'><div class='vertical-center'><font style='color:orange'>(I)</font></div></div></div>","null","$17","$43","0","17","43",""
"html-keyboard-response","127","187386","0.0-5.0-1.41","5d1b0776e1c05200018b582d","bdp_rd","Sat Mar 25 2023 20:54:23 GMT-0400 (Eastern Daylight Time)","234677","","null","","","","FIX","","<div class='trialBorder'><div class='vertical-center'><img style='vertical-align:center; align:center' src=img/fixation3.jpg></div></div>","null","","","","","",""
"html-keyboard-response","128","189034","0.0-5.0-2.41","5d1b0776e1c05200018b582d","bdp_rd","Sat Mar 25 2023 20:54:23 GMT-0400 (Eastern Daylight Time)","234677","","1640","","","","offer","","<div class='trialBorder'><div class='vertical-center'><img style='vertical-align:center; align:center' src=img/fixation3.jpg></div><div class='cl'><div class='vertical-center'>$22<br>for<br>sure</div></div><div class='cr'><div class='vertical-center'>$42<br>with a<br>50% chance</div></div><div class='respDivL'><div class='vertical-center'>(E)</div></div><div class='respDivR'><div class='vertical-center'>(I)</div></div></div>","I","$22","$42","0","22","42","RISKY"
"html-keyboard-response","129","189291","0.0-5.0-3.41","5d1b0776e1c05200018b582d","bdp_rd","Sat Mar 25 2023 20:54:23 GMT-0400 (Eastern Daylight Time)","234677","","null","","","","offerFB","","<div class='trialBorder'><div class='vertical-center'><img style='vertical-align:center; align:center' src=img/fixation3.jpg></div><div class='cl'><div class='vertical-center'>$22<br>for<br>sure</div></div><div class='cr'><div class='vertical-center'><font style='color:orange'>$42<br>with a<br>50% chance</font></div></div><div class='respDivL'><div class='vertical-center'>(E)</div></div><div class='respDivR'><div class='vertical-center'><font style='color:orange'>(I)</font></div></div></div>","null","$22","$42","0","22","42",""
"html-keyboard-response","130","189795","0.0-5.0-1.42","5d1b0776e1c05200018b582d","bdp_rd","Sat Mar 25 2023 20:54:23 GMT-0400 (Eastern Daylight Time)","234677","","null","","","","FIX","","<div class='trialBorder'><div class='vertical-center'><img style='vertical-align:center; align:center' src=img/fixation3.jpg></div></div>","null","","","","","",""
"html-keyboard-response","131","192133","0.0-5.0-2.42","5d1b0776e1c05200018b582d","bdp_rd","Sat Mar 25 2023 20:54:23 GMT-0400 (Eastern Daylight Time)","234677","","2329","","","","offer","","<div class='trialBorder'><div class='vertical-center'><img style='vertical-align:center; align:center' src=img/fixation3.jpg></div><div class='cl'><div class='vertical-center'>$15<br>for<br>sure</div></div><div class='cr'><div class='vertical-center'>$31<br>with a<br>50% chance</div></div><div class='respDivL'><div class='vertical-center'>(E)</div></div><div class='respDivR'><div class='vertical-center'>(I)</div></div></div>","I","$15","$31","0","15","31","RISKY"
"html-keyboard-response","132","192389","0.0-5.0-3.42","5d1b0776e1c05200018b582d","bdp_rd","Sat Mar 25 2023 20:54:23 GMT-0400 (Eastern Daylight Time)","234677","","null","","","","offerFB","","<div class='trialBorder'><div class='vertical-center'><img style='vertical-align:center; align:center' src=img/fixation3.jpg></div><div class='cl'><div class='vertical-center'>$15<br>for<br>sure</div></div><div class='cr'><div class='vertical-center'><font style='color:orange'>$31<br>with a<br>50% chance</font></div></div><div class='respDivL'><div class='vertical-center'>(E)</div></div><div class='respDivR'><div class='vertical-center'><font style='color:orange'>(I)</font></div></div></div>","null","$15","$31","0","15","31",""
"html-keyboard-response","133","192895","0.0-5.0-1.43","5d1b0776e1c05200018b582d","bdp_rd","Sat Mar 25 2023 20:54:23 GMT-0400 (Eastern Daylight Time)","234677","","null","","","","FIX","","<div class='trialBorder'><div class='vertical-center'><img style='vertical-align:center; align:center' src=img/fixation3.jpg></div></div>","null","","","","","",""
"html-keyboard-response","134","194556","0.0-5.0-2.43","5d1b0776e1c05200018b582d","bdp_rd","Sat Mar 25 2023 20:54:23 GMT-0400 (Eastern Daylight Time)","234677","","1653","","","","offer","","<div class='trialBorder'><div class='vertical-center'><img style='vertical-align:center; align:center' src=img/fixation3.jpg></div><div class='cl'><div class='vertical-center'>$18<br>for<br>sure</div></div><div class='cr'><div class='vertical-center'>$36<br>with a<br>50% chance</div></div><div class='respDivL'><div class='vertical-center'>(E)</div></div><div class='respDivR'><div class='vertical-center'>(I)</div></div></div>","I","$18","$36","0","18","36","RISKY"
"html-keyboard-response","135","194812","0.0-5.0-3.43","5d1b0776e1c05200018b582d","bdp_rd","Sat Mar 25 2023 20:54:23 GMT-0400 (Eastern Daylight Time)","234677","","null","","","","offerFB","","<div class='trialBorder'><div class='vertical-center'><img style='vertical-align:center; align:center' src=img/fixation3.jpg></div><div class='cl'><div class='vertical-center'>$18<br>for<br>sure</div></div><div class='cr'><div class='vertical-center'><font style='color:orange'>$36<br>with a<br>50% chance</font></div></div><div class='respDivL'><div class='vertical-center'>(E)</div></div><div class='respDivR'><div class='vertical-center'><font style='color:orange'>(I)</font></div></div></div>","null","$18","$36","0","18","36",""
"html-keyboard-response","136","195316","0.0-5.0-1.44","5d1b0776e1c05200018b582d","bdp_rd","Sat Mar 25 2023 20:54:23 GMT-0400 (Eastern Daylight Time)","234677","","null","","","","FIX","","<div class='trialBorder'><div class='vertical-center'><img style='vertical-align:center; align:center' src=img/fixation3.jpg></div></div>","null","","","","","",""
"html-keyboard-response","137","196888","0.0-5.0-2.44","5d1b0776e1c05200018b582d","bdp_rd","Sat Mar 25 2023 20:54:23 GMT-0400 (Eastern Daylight Time)","234677","","1565","","","","offer","","<div class='trialBorder'><div class='vertical-center'><img style='vertical-align:center; align:center' src=img/fixation3.jpg></div><div class='cl'><div class='vertical-center'>$51<br>with a<br>50% chance</div></div><div class='cr'><div class='vertical-center'>$19<br>for<br>sure</div></div><div class='respDivL'><div class='vertical-center'>(E)</div></div><div class='respDivR'><div class='vertical-center'>(I)</div></div></div>","E","$19","$51","1","19","51","RISKY"
"html-keyboard-response","138","197143","0.0-5.0-3.44","5d1b0776e1c05200018b582d","bdp_rd","Sat Mar 25 2023 20:54:23 GMT-0400 (Eastern Daylight Time)","234677","","null","","","","offerFB","","<div class='trialBorder'><div class='vertical-center'><img style='vertical-align:center; align:center' src=img/fixation3.jpg></div><div class='cl'><div class='vertical-center'><font style='color:orange'>$51<br>with a<br>50% chance</font></div></div><div class='cr'><div class='vertical-center'>$19<br>for<br>sure</div></div><div class='respDivL'><div class='vertical-center'><font style='color:orange'>(E)</font></div></div><div class='respDivR'><div class='vertical-center'>(I)</div></div></div>","null","$19","$51","1","19","51",""
"html-keyboard-response","139","197647","0.0-5.0-1.45","5d1b0776e1c05200018b582d","bdp_rd","Sat Mar 25 2023 20:54:23 GMT-0400 (Eastern Daylight Time)","234677","","null","","","","FIX","","<div class='trialBorder'><div class='vertical-center'><img style='vertical-align:center; align:center' src=img/fixation3.jpg></div></div>","null","","","","","",""
"html-keyboard-response","140","199063","0.0-5.0-2.45","5d1b0776e1c05200018b582d","bdp_rd","Sat Mar 25 2023 20:54:23 GMT-0400 (Eastern Daylight Time)","234677","","1408","","","","offer","","<div class='trialBorder'><div class='vertical-center'><img style='vertical-align:center; align:center' src=img/fixation3.jpg></div><div class='cl'><div class='vertical-center'>$24<br>for<br>sure</div></div><div class='cr'><div class='vertical-center'>$70<br>with a<br>50% chance</div></div><div class='respDivL'><div class='vertical-center'>(E)</div></div><div class='respDivR'><div class='vertical-center'>(I)</div></div></div>","I","$24","$70","0","24","70","RISKY"
"html-keyboard-response","141","199318","0.0-5.0-3.45","5d1b0776e1c05200018b582d","bdp_rd","Sat Mar 25 2023 20:54:23 GMT-0400 (Eastern Daylight Time)","234677","","null","","","","offerFB","","<div class='trialBorder'><div class='vertical-center'><img style='vertical-align:center; align:center' src=img/fixation3.jpg></div><div class='cl'><div class='vertical-center'>$24<br>for<br>sure</div></div><div class='cr'><div class='vertical-center'><font style='color:orange'>$70<br>with a<br>50% chance</font></div></div><div class='respDivL'><div class='vertical-center'>(E)</div></div><div class='respDivR'><div class='vertical-center'><font style='color:orange'>(I)</font></div></div></div>","null","$24","$70","0","24","70",""
"html-keyboard-response","142","199826","0.0-5.0-1.46","5d1b0776e1c05200018b582d","bdp_rd","Sat Mar 25 2023 20:54:23 GMT-0400 (Eastern Daylight Time)","234677","","null","","","","FIX","","<div class='trialBorder'><div class='vertical-center'><img style='vertical-align:center; align:center' src=img/fixation3.jpg></div></div>","null","","","","","",""
"html-keyboard-response","143","201923","0.0-5.0-2.46","5d1b0776e1c05200018b582d","bdp_rd","Sat Mar 25 2023 20:54:23 GMT-0400 (Eastern Daylight Time)","234677","","2092","","","","offer","","<div class='trialBorder'><div class='vertical-center'><img style='vertical-align:center; align:center' src=img/fixation3.jpg></div><div class='cl'><div class='vertical-center'>$14<br>for<br>sure</div></div><div class='cr'><div class='vertical-center'>$29<br>with a<br>50% chance</div></div><div class='respDivL'><div class='vertical-center'>(E)</div></div><div class='respDivR'><div class='vertical-center'>(I)</div></div></div>","I","$14","$29","0","14","29","RISKY"
"html-keyboard-response","144","202178","0.0-5.0-3.46","5d1b0776e1c05200018b582d","bdp_rd","Sat Mar 25 2023 20:54:23 GMT-0400 (Eastern Daylight Time)","234677","","null","","","","offerFB","","<div class='trialBorder'><div class='vertical-center'><img style='vertical-align:center; align:center' src=img/fixation3.jpg></div><div class='cl'><div class='vertical-center'>$14<br>for<br>sure</div></div><div class='cr'><div class='vertical-center'><font style='color:orange'>$29<br>with a<br>50% chance</font></div></div><div class='respDivL'><div class='vertical-center'>(E)</div></div><div class='respDivR'><div class='vertical-center'><font style='color:orange'>(I)</font></div></div></div>","null","$14","$29","0","14","29",""
"html-keyboard-response","145","202682","0.0-5.0-1.47","5d1b0776e1c05200018b582d","bdp_rd","Sat Mar 25 2023 20:54:23 GMT-0400 (Eastern Daylight Time)","234677","","null","","","","FIX","","<div class='trialBorder'><div class='vertical-center'><img style='vertical-align:center; align:center' src=img/fixation3.jpg></div></div>","null","","","","","",""
"html-keyboard-response","146","204566","0.0-5.0-2.47","5d1b0776e1c05200018b582d","bdp_rd","Sat Mar 25 2023 20:54:23 GMT-0400 (Eastern Daylight Time)","234677","","1879","","","","offer","","<div class='trialBorder'><div class='vertical-center'><img style='vertical-align:center; align:center' src=img/fixation3.jpg></div><div class='cl'><div class='vertical-center'>$65<br>with a<br>50% chance</div></div><div class='cr'><div class='vertical-center'>$46<br>for<br>sure</div></div><div class='respDivL'><div class='vertical-center'>(E)</div></div><div class='respDivR'><div class='vertical-center'>(I)</div></div></div>","I","$46","$65","1","46","65","SURE"
"html-keyboard-response","147","204823","0.0-5.0-3.47","5d1b0776e1c05200018b582d","bdp_rd","Sat Mar 25 2023 20:54:23 GMT-0400 (Eastern Daylight Time)","234677","","null","","","","offerFB","","<div class='trialBorder'><div class='vertical-center'><img style='vertical-align:center; align:center' src=img/fixation3.jpg></div><div class='cl'><div class='vertical-center'>$65<br>with a<br>50% chance</div></div><div class='cr'><div class='vertical-center'><font style='color:orange'>$46<br>for<br>sure</font></div></div><div class='respDivL'><div class='vertical-center'>(E)</div></div><div class='respDivR'><div class='vertical-center'><font style='color:orange'>(I)</font></div></div></div>","null","$46","$65","1","46","65",""
"html-keyboard-response","148","205328","0.0-5.0-1.48","5d1b0776e1c05200018b582d","bdp_rd","Sat Mar 25 2023 20:54:23 GMT-0400 (Eastern Daylight Time)","234677","","null","","","","FIX","","<div class='trialBorder'><div class='vertical-center'><img style='vertical-align:center; align:center' src=img/fixation3.jpg></div></div>","null","","","","","",""
"html-keyboard-response","149","207240","0.0-5.0-2.48","5d1b0776e1c05200018b582d","bdp_rd","Sat Mar 25 2023 20:54:23 GMT-0400 (Eastern Daylight Time)","234677","","1907","","","","offer","","<div class='trialBorder'><div class='vertical-center'><img style='vertical-align:center; align:center' src=img/fixation3.jpg></div><div class='cl'><div class='vertical-center'>$25<br>for<br>sure</div></div><div class='cr'><div class='vertical-center'>$54<br>with a<br>50% chance</div></div><div class='respDivL'><div class='vertical-center'>(E)</div></div><div class='respDivR'><div class='vertical-center'>(I)</div></div></div>","I","$25","$54","0","25","54","RISKY"
"html-keyboard-response","150","207499","0.0-5.0-3.48","5d1b0776e1c05200018b582d","bdp_rd","Sat Mar 25 2023 20:54:23 GMT-0400 (Eastern Daylight Time)","234677","","null","","","","offerFB","","<div class='trialBorder'><div class='vertical-center'><img style='vertical-align:center; align:center' src=img/fixation3.jpg></div><div class='cl'><div class='vertical-center'>$25<br>for<br>sure</div></div><div class='cr'><div class='vertical-center'><font style='color:orange'>$54<br>with a<br>50% chance</font></div></div><div class='respDivL'><div class='vertical-center'>(E)</div></div><div class='respDivR'><div class='vertical-center'><font style='color:orange'>(I)</font></div></div></div>","null","$25","$54","0","25","54",""
"html-keyboard-response","151","208004","0.0-5.0-1.49","5d1b0776e1c05200018b582d","bdp_rd","Sat Mar 25 2023 20:54:23 GMT-0400 (Eastern Daylight Time)","234677","","null","","","","FIX","","<div class='trialBorder'><div class='vertical-center'><img style='vertical-align:center; align:center' src=img/fixation3.jpg></div></div>","null","","","","","",""
"html-keyboard-response","152","209555","0.0-5.0-2.49","5d1b0776e1c05200018b582d","bdp_rd","Sat Mar 25 2023 20:54:23 GMT-0400 (Eastern Daylight Time)","234677","","1545","","","","offer","","<div class='trialBorder'><div class='vertical-center'><img style='vertical-align:center; align:center' src=img/fixation3.jpg></div><div class='cl'><div class='vertical-center'>$3<br>for<br>sure</div></div><div class='cr'><div class='vertical-center'>$12<br>with a<br>50% chance</div></div><div class='respDivL'><div class='vertical-center'>(E)</div></div><div class='respDivR'><div class='vertical-center'>(I)</div></div></div>","I","$3","$12","0","3","12","RISKY"
"html-keyboard-response","153","209809","0.0-5.0-3.49","5d1b0776e1c05200018b582d","bdp_rd","Sat Mar 25 2023 20:54:23 GMT-0400 (Eastern Daylight Time)","234677","","null","","","","offerFB","","<div class='trialBorder'><div class='vertical-center'><img style='vertical-align:center; align:center' src=img/fixation3.jpg></div><div class='cl'><div class='vertical-center'>$3<br>for<br>sure</div></div><div class='cr'><div class='vertical-center'><font style='color:orange'>$12<br>with a<br>50% chance</font></div></div><div class='respDivL'><div class='vertical-center'>(E)</div></div><div class='respDivR'><div class='vertical-center'><font style='color:orange'>(I)</font></div></div></div>","null","$3","$12","0","3","12",""
"html-keyboard-response","154","210319","0.0-5.0-1.50","5d1b0776e1c05200018b582d","bdp_rd","Sat Mar 25 2023 20:54:23 GMT-0400 (Eastern Daylight Time)","234677","","null","","","","FIX","","<div class='trialBorder'><div class='vertical-center'><img style='vertical-align:center; align:center' src=img/fixation3.jpg></div></div>","null","","","","","",""
"html-keyboard-response","155","212062","0.0-5.0-2.50","5d1b0776e1c05200018b582d","bdp_rd","Sat Mar 25 2023 20:54:23 GMT-0400 (Eastern Daylight Time)","234677","","1738","","","","offer","","<div class='trialBorder'><div class='vertical-center'><img style='vertical-align:center; align:center' src=img/fixation3.jpg></div><div class='cl'><div class='vertical-center'>$66<br>with a<br>50% chance</div></div><div class='cr'><div class='vertical-center'>$33<br>for<br>sure</div></div><div class='respDivL'><div class='vertical-center'>(E)</div></div><div class='respDivR'><div class='vertical-center'>(I)</div></div></div>","E","$33","$66","1","33","66","RISKY"
"html-keyboard-response","156","212319","0.0-5.0-3.50","5d1b0776e1c05200018b582d","bdp_rd","Sat Mar 25 2023 20:54:23 GMT-0400 (Eastern Daylight Time)","234677","","null","","","","offerFB","","<div class='trialBorder'><div class='vertical-center'><img style='vertical-align:center; align:center' src=img/fixation3.jpg></div><div class='cl'><div class='vertical-center'><font style='color:orange'>$66<br>with a<br>50% chance</font></div></div><div class='cr'><div class='vertical-center'>$33<br>for<br>sure</div></div><div class='respDivL'><div class='vertical-center'><font style='color:orange'>(E)</font></div></div><div class='respDivR'><div class='vertical-center'>(I)</div></div></div>","null","$33","$66","1","33","66",""
"html-keyboard-response","157","212823","0.0-5.0-1.51","5d1b0776e1c05200018b582d","bdp_rd","Sat Mar 25 2023 20:54:23 GMT-0400 (Eastern Daylight Time)","234677","","null","","","","FIX","","<div class='trialBorder'><div class='vertical-center'><img style='vertical-align:center; align:center' src=img/fixation3.jpg></div></div>","null","","","","","",""
"html-keyboard-response","158","214268","0.0-5.0-2.51","5d1b0776e1c05200018b582d","bdp_rd","Sat Mar 25 2023 20:54:23 GMT-0400 (Eastern Daylight Time)","234677","","1437","","","","offer","","<div class='trialBorder'><div class='vertical-center'><img style='vertical-align:center; align:center' src=img/fixation3.jpg></div><div class='cl'><div class='vertical-center'>$13<br>for<br>sure</div></div><div class='cr'><div class='vertical-center'>$41<br>with a<br>50% chance</div></div><div class='respDivL'><div class='vertical-center'>(E)</div></div><div class='respDivR'><div class='vertical-center'>(I)</div></div></div>","I","$13","$41","0","13","41","RISKY"
"html-keyboard-response","159","214523","0.0-5.0-3.51","5d1b0776e1c05200018b582d","bdp_rd","Sat Mar 25 2023 20:54:23 GMT-0400 (Eastern Daylight Time)","234677","","null","","","","offerFB","","<div class='trialBorder'><div class='vertical-center'><img style='vertical-align:center; align:center' src=img/fixation3.jpg></div><div class='cl'><div class='vertical-center'>$13<br>for<br>sure</div></div><div class='cr'><div class='vertical-center'><font style='color:orange'>$41<br>with a<br>50% chance</font></div></div><div class='respDivL'><div class='vertical-center'>(E)</div></div><div class='respDivR'><div class='vertical-center'><font style='color:orange'>(I)</font></div></div></div>","null","$13","$41","0","13","41",""
"html-keyboard-response","160","215028","0.0-5.0-1.52","5d1b0776e1c05200018b582d","bdp_rd","Sat Mar 25 2023 20:54:23 GMT-0400 (Eastern Daylight Time)","234677","","null","","","","FIX","","<div class='trialBorder'><div class='vertical-center'><img style='vertical-align:center; align:center' src=img/fixation3.jpg></div></div>","null","","","","","",""
"html-keyboard-response","161","216659","0.0-5.0-2.52","5d1b0776e1c05200018b582d","bdp_rd","Sat Mar 25 2023 20:54:23 GMT-0400 (Eastern Daylight Time)","234677","","1622","","","","offer","","<div class='trialBorder'><div class='vertical-center'><img style='vertical-align:center; align:center' src=img/fixation3.jpg></div><div class='cl'><div class='vertical-center'>$98<br>with a<br>50% chance</div></div><div class='cr'><div class='vertical-center'>$53<br>for<br>sure</div></div><div class='respDivL'><div class='vertical-center'>(E)</div></div><div class='respDivR'><div class='vertical-center'>(I)</div></div></div>","E","$53","$98","1","53","98","RISKY"
"html-keyboard-response","162","216915","0.0-5.0-3.52","5d1b0776e1c05200018b582d","bdp_rd","Sat Mar 25 2023 20:54:23 GMT-0400 (Eastern Daylight Time)","234677","","null","","","","offerFB","","<div class='trialBorder'><div class='vertical-center'><img style='vertical-align:center; align:center' src=img/fixation3.jpg></div><div class='cl'><div class='vertical-center'><font style='color:orange'>$98<br>with a<br>50% chance</font></div></div><div class='cr'><div class='vertical-center'>$53<br>for<br>sure</div></div><div class='respDivL'><div class='vertical-center'><font style='color:orange'>(E)</font></div></div><div class='respDivR'><div class='vertical-center'>(I)</div></div></div>","null","$53","$98","1","53","98",""
"html-keyboard-response","163","217420","0.0-5.0-1.53","5d1b0776e1c05200018b582d","bdp_rd","Sat Mar 25 2023 20:54:23 GMT-0400 (Eastern Daylight Time)","234677","","null","","","","FIX","","<div class='trialBorder'><div class='vertical-center'><img style='vertical-align:center; align:center' src=img/fixation3.jpg></div></div>","null","","","","","",""
"html-keyboard-response","164","219623","0.0-5.0-2.53","5d1b0776e1c05200018b582d","bdp_rd","Sat Mar 25 2023 20:54:23 GMT-0400 (Eastern Daylight Time)","234677","","2197","","","","offer","","<div class='trialBorder'><div class='vertical-center'><img style='vertical-align:center; align:center' src=img/fixation3.jpg></div><div class='cl'><div class='vertical-center'>$10<br>for<br>sure</div></div><div class='cr'><div class='vertical-center'>$19<br>with a<br>50% chance</div></div><div class='respDivL'><div class='vertical-center'>(E)</div></div><div class='respDivR'><div class='vertical-center'>(I)</div></div></div>","E","$10","$19","0","10","19","SURE"
"html-keyboard-response","165","219881","0.0-5.0-3.53","5d1b0776e1c05200018b582d","bdp_rd","Sat Mar 25 2023 20:54:23 GMT-0400 (Eastern Daylight Time)","234677","","null","","","","offerFB","","<div class='trialBorder'><div class='vertical-center'><img style='vertical-align:center; align:center' src=img/fixation3.jpg></div><div class='cl'><div class='vertical-center'><font style='color:orange'>$10<br>for<br>sure</font></div></div><div class='cr'><div class='vertical-center'>$19<br>with a<br>50% chance</div></div><div class='respDivL'><div class='vertical-center'><font style='color:orange'>(E)</font></div></div><div class='respDivR'><div class='vertical-center'>(I)</div></div></div>","null","$10","$19","0","10","19",""
"html-keyboard-response","166","220386","0.0-5.0-1.54","5d1b0776e1c05200018b582d","bdp_rd","Sat Mar 25 2023 20:54:23 GMT-0400 (Eastern Daylight Time)","234677","","null","","","","FIX","","<div class='trialBorder'><div class='vertical-center'><img style='vertical-align:center; align:center' src=img/fixation3.jpg></div></div>","null","","","","","",""
"html-keyboard-response","167","222138","0.0-5.0-2.54","5d1b0776e1c05200018b582d","bdp_rd","Sat Mar 25 2023 20:54:23 GMT-0400 (Eastern Daylight Time)","234677","","1747","","","","offer","","<div class='trialBorder'><div class='vertical-center'><img style='vertical-align:center; align:center' src=img/fixation3.jpg></div><div class='cl'><div class='vertical-center'>$21<br>with a<br>50% chance</div></div><div class='cr'><div class='vertical-center'>$2<br>for<br>sure</div></div><div class='respDivL'><div class='vertical-center'>(E)</div></div><div class='respDivR'><div class='vertical-center'>(I)</div></div></div>","E","$2","$21","1","2","21","RISKY"
"html-keyboard-response","168","222395","0.0-5.0-3.54","5d1b0776e1c05200018b582d","bdp_rd","Sat Mar 25 2023 20:54:23 GMT-0400 (Eastern Daylight Time)","234677","","null","","","","offerFB","","<div class='trialBorder'><div class='vertical-center'><img style='vertical-align:center; align:center' src=img/fixation3.jpg></div><div class='cl'><div class='vertical-center'><font style='color:orange'>$21<br>with a<br>50% chance</font></div></div><div class='cr'><div class='vertical-center'>$2<br>for<br>sure</div></div><div class='respDivL'><div class='vertical-center'><font style='color:orange'>(E)</font></div></div><div class='respDivR'><div class='vertical-center'>(I)</div></div></div>","null","$2","$21","1","2","21",""
"html-keyboard-response","169","222902","0.0-5.0-1.55","5d1b0776e1c05200018b582d","bdp_rd","Sat Mar 25 2023 20:54:23 GMT-0400 (Eastern Daylight Time)","234677","","null","","","","FIX","","<div class='trialBorder'><div class='vertical-center'><img style='vertical-align:center; align:center' src=img/fixation3.jpg></div></div>","null","","","","","",""
"html-keyboard-response","170","224574","0.0-5.0-2.55","5d1b0776e1c05200018b582d","bdp_rd","Sat Mar 25 2023 20:54:23 GMT-0400 (Eastern Daylight Time)","234677","","1665","","","","offer","","<div class='trialBorder'><div class='vertical-center'><img style='vertical-align:center; align:center' src=img/fixation3.jpg></div><div class='cl'><div class='vertical-center'>$89<br>with a<br>50% chance</div></div><div class='cr'><div class='vertical-center'>$28<br>for<br>sure</div></div><div class='respDivL'><div class='vertical-center'>(E)</div></div><div class='respDivR'><div class='vertical-center'>(I)</div></div></div>","E","$28","$89","1","28","89","RISKY"
"html-keyboard-response","171","224832","0.0-5.0-3.55","5d1b0776e1c05200018b582d","bdp_rd","Sat Mar 25 2023 20:54:23 GMT-0400 (Eastern Daylight Time)","234677","","null","","","","offerFB","","<div class='trialBorder'><div class='vertical-center'><img style='vertical-align:center; align:center' src=img/fixation3.jpg></div><div class='cl'><div class='vertical-center'><font style='color:orange'>$89<br>with a<br>50% chance</font></div></div><div class='cr'><div class='vertical-center'>$28<br>for<br>sure</div></div><div class='respDivL'><div class='vertical-center'><font style='color:orange'>(E)</font></div></div><div class='respDivR'><div class='vertical-center'>(I)</div></div></div>","null","$28","$89","1","28","89",""
"html-keyboard-response","172","225336","0.0-5.0-1.56","5d1b0776e1c05200018b582d","bdp_rd","Sat Mar 25 2023 20:54:23 GMT-0400 (Eastern Daylight Time)","234677","","null","","","","FIX","","<div class='trialBorder'><div class='vertical-center'><img style='vertical-align:center; align:center' src=img/fixation3.jpg></div></div>","null","","","","","",""
"html-keyboard-response","173","226926","0.0-5.0-2.56","5d1b0776e1c05200018b582d","bdp_rd","Sat Mar 25 2023 20:54:23 GMT-0400 (Eastern Daylight Time)","234677","","1585","","","","offer","","<div class='trialBorder'><div class='vertical-center'><img style='vertical-align:center; align:center' src=img/fixation3.jpg></div><div class='cl'><div class='vertical-center'>$12<br>for<br>sure</div></div><div class='cr'><div class='vertical-center'>$27<br>with a<br>50% chance</div></div><div class='respDivL'><div class='vertical-center'>(E)</div></div><div class='respDivR'><div class='vertical-center'>(I)</div></div></div>","I","$12","$27","0","12","27","RISKY"
