"event","trial","time","trialtype","subject_id","task","startTime","totalTime","trial_type","trial_index","time_elapsed","internal_node_id","view_history","rt","success","stimulus","key_press","sureOffer","riskyOffer","riskyLeft","sureAmt","riskyAmt","chosen"
"focus","0","0","focusevent","63d43dc4b4b7a0e426a381cd","bdp_rd","Sun Mar 26 2023 17:29:32 GMT-0700 (Pacific Daylight Time)","242625","","","","","","","","","","","","","","",""
"","","","","63d43dc4b4b7a0e426a381cd","bdp_rd","Sun Mar 26 2023 17:29:32 GMT-0700 (Pacific Daylight Time)","242625","pavlovia","0","2","0.0-0.0","","","","","","","","","","",""
"","","","","63d43dc4b4b7a0e426a381cd","bdp_rd","Sun Mar 26 2023 17:29:32 GMT-0700 (Pacific Daylight Time)","242625","instructions","1","1768","0.0-1.0","[{""page_index"":0,""viewing_time"":1764}]","1765","","","","","","","","",""
"fullscreenexit","2","5264","fullscreenexit","63d43dc4b4b7a0e426a381cd","bdp_rd","Sun Mar 26 2023 17:29:32 GMT-0700 (Pacific Daylight Time)","242625","","","","","","","","","","","","","","",""
"","","","","63d43dc4b4b7a0e426a381cd","bdp_rd","Sun Mar 26 2023 17:29:32 GMT-0700 (Pacific Daylight Time)","242625","fullscreen","2","6037","0.0-2.0","","","true","","","","","","","",""
"","","","fullscreenfail","63d43dc4b4b7a0e426a381cd","bdp_rd","Sun Mar 26 2023 17:29:32 GMT-0700 (Pacific Daylight Time)","242625","image-keyboard-response","3","7437","0.0-3.0-0.0","","1391","","","32","","","","","",""
"","","","","63d43dc4b4b7a0e426a381cd","bdp_rd","Sun Mar 26 2023 17:29:32 GMT-0700 (Pacific Daylight Time)","242625","instructions","4","38358","0.0-4.0","[{""page_index"":0,""viewing_time"":18952},{""page_index"":1,""viewing_time"":5244},{""page_index"":2,""viewing_time"":6472}]","30670","","","","","","","","",""
"","","","FIX","63d43dc4b4b7a0e426a381cd","bdp_rd","Sun Mar 26 2023 17:29:32 GMT-0700 (Pacific Daylight Time)","242625","html-keyboard-response","5","38862","0.0-5.0-1.0","","null","","<div class='trialBorder'><div class='vertical-center'><img style='vertical-align:center; align:center' src=img/fixation3.jpg></div></div>","null","","","","","",""
"","","","offer","63d43dc4b4b7a0e426a381cd","bdp_rd","Sun Mar 26 2023 17:29:32 GMT-0700 (Pacific Daylight Time)","242625","html-keyboard-response","6","41027","0.0-5.0-2.0","","2162","","<div class='trialBorder'><div class='vertical-center'><img style='vertical-align:center; align:center' src=img/fixation3.jpg></div><div class='cl'><div class='vertical-center'>$20<br>for<br>sure</div></div><div class='cr'><div class='vertical-center'>$80<br>with a<br>50% chance</div></div><div class='respDivL'><div class='vertical-center'>(E)</div></div><div class='respDivR'><div class='vertical-center'>(I)</div></div></div>","I","$20","$80","0","20","80","RISKY"
"","","","offerFB","63d43dc4b4b7a0e426a381cd","bdp_rd","Sun Mar 26 2023 17:29:32 GMT-0700 (Pacific Daylight Time)","242625","html-keyboard-response","7","41281","0.0-5.0-3.0","","null","","<div class='trialBorder'><div class='vertical-center'><img style='vertical-align:center; align:center' src=img/fixation3.jpg></div><div class='cl'><div class='vertical-center'>$20<br>for<br>sure</div></div><div class='cr'><div class='vertical-center'><font style='color:orange'>$80<br>with a<br>50% chance</font></div></div><div class='respDivL'><div class='vertical-center'>(E)</div></div><div class='respDivR'><div class='vertical-center'><font style='color:orange'>(I)</font></div></div></div>","null","$20","$80","0","20","80",""
"","","","FIX","63d43dc4b4b7a0e426a381cd","bdp_rd","Sun Mar 26 2023 17:29:32 GMT-0700 (Pacific Daylight Time)","242625","html-keyboard-response","8","41785","0.0-5.0-1.1","","null","","<div class='trialBorder'><div class='vertical-center'><img style='vertical-align:center; align:center' src=img/fixation3.jpg></div></div>","null","","","","","",""
"","","","offer","63d43dc4b4b7a0e426a381cd","bdp_rd","Sun Mar 26 2023 17:29:32 GMT-0700 (Pacific Daylight Time)","242625","html-keyboard-response","9","46470","0.0-5.0-2.1","","4683","","<div class='trialBorder'><div class='vertical-center'><img style='vertical-align:center; align:center' src=img/fixation3.jpg></div><div class='cl'><div class='vertical-center'>$48<br>with a<br>50% chance</div></div><div class='cr'><div class='vertical-center'>$34<br>for<br>sure</div></div><div class='respDivL'><div class='vertical-center'>(E)</div></div><div class='respDivR'><div class='vertical-center'>(I)</div></div></div>","I","$34","$48","1","34","48","SURE"
"","","","offerFB","63d43dc4b4b7a0e426a381cd","bdp_rd","Sun Mar 26 2023 17:29:32 GMT-0700 (Pacific Daylight Time)","242625","html-keyboard-response","10","46725","0.0-5.0-3.1","","null","","<div class='trialBorder'><div class='vertical-center'><img style='vertical-align:center; align:center' src=img/fixation3.jpg></div><div class='cl'><div class='vertical-center'>$48<br>with a<br>50% chance</div></div><div class='cr'><div class='vertical-center'><font style='color:orange'>$34<br>for<br>sure</font></div></div><div class='respDivL'><div class='vertical-center'>(E)</div></div><div class='respDivR'><div class='vertical-center'><font style='color:orange'>(I)</font></div></div></div>","null","$34","$48","1","34","48",""
"","","","FIX","63d43dc4b4b7a0e426a381cd","bdp_rd","Sun Mar 26 2023 17:29:32 GMT-0700 (Pacific Daylight Time)","242625","html-keyboard-response","11","47229","0.0-5.0-1.2","","null","","<div class='trialBorder'><div class='vertical-center'><img style='vertical-align:center; align:center' src=img/fixation3.jpg></div></div>","null","","","","","",""
"","","","offer","63d43dc4b4b7a0e426a381cd","bdp_rd","Sun Mar 26 2023 17:29:32 GMT-0700 (Pacific Daylight Time)","242625","html-keyboard-response","12","50777","0.0-5.0-2.2","","3541","","<div class='trialBorder'><div class='vertical-center'><img style='vertical-align:center; align:center' src=img/fixation3.jpg></div><div class='cl'><div class='vertical-center'>$11<br>for<br>sure</div></div><div class='cr'><div class='vertical-center'>$26<br>with a<br>50% chance</div></div><div class='respDivL'><div class='vertical-center'>(E)</div></div><div class='respDivR'><div class='vertical-center'>(I)</div></div></div>","I","$11","$26","0","11","26","RISKY"
"","","","offerFB","63d43dc4b4b7a0e426a381cd","bdp_rd","Sun Mar 26 2023 17:29:32 GMT-0700 (Pacific Daylight Time)","242625","html-keyboard-response","13","51031","0.0-5.0-3.2","","null","","<div class='trialBorder'><div class='vertical-center'><img style='vertical-align:center; align:center' src=img/fixation3.jpg></div><div class='cl'><div class='vertical-center'>$11<br>for<br>sure</div></div><div class='cr'><div class='vertical-center'><font style='color:orange'>$26<br>with a<br>50% chance</font></div></div><div class='respDivL'><div class='vertical-center'>(E)</div></div><div class='respDivR'><div class='vertical-center'><font style='color:orange'>(I)</font></div></div></div>","null","$11","$26","0","11","26",""
"","","","FIX","63d43dc4b4b7a0e426a381cd","bdp_rd","Sun Mar 26 2023 17:29:32 GMT-0700 (Pacific Daylight Time)","242625","html-keyboard-response","14","51533","0.0-5.0-1.3","","null","","<div class='trialBorder'><div class='vertical-center'><img style='vertical-align:center; align:center' src=img/fixation3.jpg></div></div>","null","","","","","",""
"","","","offer","63d43dc4b4b7a0e426a381cd","bdp_rd","Sun Mar 26 2023 17:29:32 GMT-0700 (Pacific Daylight Time)","242625","html-keyboard-response","15","53931","0.0-5.0-2.3","","2394","","<div class='trialBorder'><div class='vertical-center'><img style='vertical-align:center; align:center' src=img/fixation3.jpg></div><div class='cl'><div class='vertical-center'>$21<br>with a<br>50% chance</div></div><div class='cr'><div class='vertical-center'>$2<br>for<br>sure</div></div><div class='respDivL'><div class='vertical-center'>(E)</div></div><div class='respDivR'><div class='vertical-center'>(I)</div></div></div>","E","$2","$21","1","2","21","RISKY"
"","","","offerFB","63d43dc4b4b7a0e426a381cd","bdp_rd","Sun Mar 26 2023 17:29:32 GMT-0700 (Pacific Daylight Time)","242625","html-keyboard-response","16","54183","0.0-5.0-3.3","","null","","<div class='trialBorder'><div class='vertical-center'><img style='vertical-align:center; align:center' src=img/fixation3.jpg></div><div class='cl'><div class='vertical-center'><font style='color:orange'>$21<br>with a<br>50% chance</font></div></div><div class='cr'><div class='vertical-center'>$2<br>for<br>sure</div></div><div class='respDivL'><div class='vertical-center'><font style='color:orange'>(E)</font></div></div><div class='respDivR'><div class='vertical-center'>(I)</div></div></div>","null","$2","$21","1","2","21",""
"","","","FIX","63d43dc4b4b7a0e426a381cd","bdp_rd","Sun Mar 26 2023 17:29:32 GMT-0700 (Pacific Daylight Time)","242625","html-keyboard-response","17","54684","0.0-5.0-1.4","","null","","<div class='trialBorder'><div class='vertical-center'><img style='vertical-align:center; align:center' src=img/fixation3.jpg></div></div>","null","","","","","",""
"","","","offer","63d43dc4b4b7a0e426a381cd","bdp_rd","Sun Mar 26 2023 17:29:32 GMT-0700 (Pacific Daylight Time)","242625","html-keyboard-response","18","56747","0.0-5.0-2.4","","2060","","<div class='trialBorder'><div class='vertical-center'><img style='vertical-align:center; align:center' src=img/fixation3.jpg></div><div class='cl'><div class='vertical-center'>$23<br>with a<br>50% chance</div></div><div class='cr'><div class='vertical-center'>$8<br>for<br>sure</div></div><div class='respDivL'><div class='vertical-center'>(E)</div></div><div class='respDivR'><div class='vertical-center'>(I)</div></div></div>","E","$8","$23","1","8","23","RISKY"
"","","","offerFB","63d43dc4b4b7a0e426a381cd","bdp_rd","Sun Mar 26 2023 17:29:32 GMT-0700 (Pacific Daylight Time)","242625","html-keyboard-response","19","56999","0.0-5.0-3.4","","null","","<div class='trialBorder'><div class='vertical-center'><img style='vertical-align:center; align:center' src=img/fixation3.jpg></div><div class='cl'><div class='vertical-center'><font style='color:orange'>$23<br>with a<br>50% chance</font></div></div><div class='cr'><div class='vertical-center'>$8<br>for<br>sure</div></div><div class='respDivL'><div class='vertical-center'><font style='color:orange'>(E)</font></div></div><div class='respDivR'><div class='vertical-center'>(I)</div></div></div>","null","$8","$23","1","8","23",""
"","","","FIX","63d43dc4b4b7a0e426a381cd","bdp_rd","Sun Mar 26 2023 17:29:32 GMT-0700 (Pacific Daylight Time)","242625","html-keyboard-response","20","57502","0.0-5.0-1.5","","null","","<div class='trialBorder'><div class='vertical-center'><img style='vertical-align:center; align:center' src=img/fixation3.jpg></div></div>","null","","","","","",""
"","","","offer","63d43dc4b4b7a0e426a381cd","bdp_rd","Sun Mar 26 2023 17:29:32 GMT-0700 (Pacific Daylight Time)","242625","html-keyboard-response","21","59081","0.0-5.0-2.5","","1577","","<div class='trialBorder'><div class='vertical-center'><img style='vertical-align:center; align:center' src=img/fixation3.jpg></div><div class='cl'><div class='vertical-center'>$1<br>for<br>sure</div></div><div class='cr'><div class='vertical-center'>$33<br>with a<br>50% chance</div></div><div class='respDivL'><div class='vertical-center'>(E)</div></div><div class='respDivR'><div class='vertical-center'>(I)</div></div></div>","I","$1","$33","0","1","33","RISKY"
"","","","offerFB","63d43dc4b4b7a0e426a381cd","bdp_rd","Sun Mar 26 2023 17:29:32 GMT-0700 (Pacific Daylight Time)","242625","html-keyboard-response","22","59335","0.0-5.0-3.5","","null","","<div class='trialBorder'><div class='vertical-center'><img style='vertical-align:center; align:center' src=img/fixation3.jpg></div><div class='cl'><div class='vertical-center'>$1<br>for<br>sure</div></div><div class='cr'><div class='vertical-center'><font style='color:orange'>$33<br>with a<br>50% chance</font></div></div><div class='respDivL'><div class='vertical-center'>(E)</div></div><div class='respDivR'><div class='vertical-center'><font style='color:orange'>(I)</font></div></div></div>","null","$1","$33","0","1","33",""
"","","","FIX","63d43dc4b4b7a0e426a381cd","bdp_rd","Sun Mar 26 2023 17:29:32 GMT-0700 (Pacific Daylight Time)","242625","html-keyboard-response","23","59836","0.0-5.0-1.6","","null","","<div class='trialBorder'><div class='vertical-center'><img style='vertical-align:center; align:center' src=img/fixation3.jpg></div></div>","null","","","","","",""
"","","","offer","63d43dc4b4b7a0e426a381cd","bdp_rd","Sun Mar 26 2023 17:29:32 GMT-0700 (Pacific Daylight Time)","242625","html-keyboard-response","24","62036","0.0-5.0-2.6","","2199","","<div class='trialBorder'><div class='vertical-center'><img style='vertical-align:center; align:center' src=img/fixation3.jpg></div><div class='cl'><div class='vertical-center'>$10<br>with a<br>50% chance</div></div><div class='cr'><div class='vertical-center'>$7<br>for<br>sure</div></div><div class='respDivL'><div class='vertical-center'>(E)</div></div><div class='respDivR'><div class='vertical-center'>(I)</div></div></div>","I","$7","$10","1","7","10","SURE"
"","","","offerFB","63d43dc4b4b7a0e426a381cd","bdp_rd","Sun Mar 26 2023 17:29:32 GMT-0700 (Pacific Daylight Time)","242625","html-keyboard-response","25","62292","0.0-5.0-3.6","","null","","<div class='trialBorder'><div class='vertical-center'><img style='vertical-align:center; align:center' src=img/fixation3.jpg></div><div class='cl'><div class='vertical-center'>$10<br>with a<br>50% chance</div></div><div class='cr'><div class='vertical-center'><font style='color:orange'>$7<br>for<br>sure</font></div></div><div class='respDivL'><div class='vertical-center'>(E)</div></div><div class='respDivR'><div class='vertical-center'><font style='color:orange'>(I)</font></div></div></div>","null","$7","$10","1","7","10",""
"","","","FIX","63d43dc4b4b7a0e426a381cd","bdp_rd","Sun Mar 26 2023 17:29:32 GMT-0700 (Pacific Daylight Time)","242625","html-keyboard-response","26","62796","0.0-5.0-1.7","","null","","<div class='trialBorder'><div class='vertical-center'><img style='vertical-align:center; align:center' src=img/fixation3.jpg></div></div>","null","","","","","",""
"","","","offer","63d43dc4b4b7a0e426a381cd","bdp_rd","Sun Mar 26 2023 17:29:32 GMT-0700 (Pacific Daylight Time)","242625","html-keyboard-response","27","65991","0.0-5.0-2.7","","3194","","<div class='trialBorder'><div class='vertical-center'><img style='vertical-align:center; align:center' src=img/fixation3.jpg></div><div class='cl'><div class='vertical-center'>$44<br>with a<br>50% chance</div></div><div class='cr'><div class='vertical-center'>$37<br>for<br>sure</div></div><div class='respDivL'><div class='vertical-center'>(E)</div></div><div class='respDivR'><div class='vertical-center'>(I)</div></div></div>","I","$37","$44","1","37","44","SURE"
"","","","offerFB","63d43dc4b4b7a0e426a381cd","bdp_rd","Sun Mar 26 2023 17:29:32 GMT-0700 (Pacific Daylight Time)","242625","html-keyboard-response","28","66242","0.0-5.0-3.7","","null","","<div class='trialBorder'><div class='vertical-center'><img style='vertical-align:center; align:center' src=img/fixation3.jpg></div><div class='cl'><div class='vertical-center'>$44<br>with a<br>50% chance</div></div><div class='cr'><div class='vertical-center'><font style='color:orange'>$37<br>for<br>sure</font></div></div><div class='respDivL'><div class='vertical-center'>(E)</div></div><div class='respDivR'><div class='vertical-center'><font style='color:orange'>(I)</font></div></div></div>","null","$37","$44","1","37","44",""
"","","","FIX","63d43dc4b4b7a0e426a381cd","bdp_rd","Sun Mar 26 2023 17:29:32 GMT-0700 (Pacific Daylight Time)","242625","html-keyboard-response","29","66744","0.0-5.0-1.8","","null","","<div class='trialBorder'><div class='vertical-center'><img style='vertical-align:center; align:center' src=img/fixation3.jpg></div></div>","null","","","","","",""
"","","","offer","63d43dc4b4b7a0e426a381cd","bdp_rd","Sun Mar 26 2023 17:29:32 GMT-0700 (Pacific Daylight Time)","242625","html-keyboard-response","30","69848","0.0-5.0-2.8","","3101","","<div class='trialBorder'><div class='vertical-center'><img style='vertical-align:center; align:center' src=img/fixation3.jpg></div><div class='cl'><div class='vertical-center'>$12<br>with a<br>50% chance</div></div><div class='cr'><div class='vertical-center'>$3<br>for<br>sure</div></div><div class='respDivL'><div class='vertical-center'>(E)</div></div><div class='respDivR'><div class='vertical-center'>(I)</div></div></div>","E","$3","$12","1","3","12","RISKY"
"","","","offerFB","63d43dc4b4b7a0e426a381cd","bdp_rd","Sun Mar 26 2023 17:29:32 GMT-0700 (Pacific Daylight Time)","242625","html-keyboard-response","31","70102","0.0-5.0-3.8","","null","","<div class='trialBorder'><div class='vertical-center'><img style='vertical-align:center; align:center' src=img/fixation3.jpg></div><div class='cl'><div class='vertical-center'><font style='color:orange'>$12<br>with a<br>50% chance</font></div></div><div class='cr'><div class='vertical-center'>$3<br>for<br>sure</div></div><div class='respDivL'><div class='vertical-center'><font style='color:orange'>(E)</font></div></div><div class='respDivR'><div class='vertical-center'>(I)</div></div></div>","null","$3","$12","1","3","12",""
"","","","FIX","63d43dc4b4b7a0e426a381cd","bdp_rd","Sun Mar 26 2023 17:29:32 GMT-0700 (Pacific Daylight Time)","242625","html-keyboard-response","32","70605","0.0-5.0-1.9","","null","","<div class='trialBorder'><div class='vertical-center'><img style='vertical-align:center; align:center' src=img/fixation3.jpg></div></div>","null","","","","","",""
"","","","offer","63d43dc4b4b7a0e426a381cd","bdp_rd","Sun Mar 26 2023 17:29:32 GMT-0700 (Pacific Daylight Time)","242625","html-keyboard-response","33","72897","0.0-5.0-2.9","","2291","","<div class='trialBorder'><div class='vertical-center'><img style='vertical-align:center; align:center' src=img/fixation3.jpg></div><div class='cl'><div class='vertical-center'>$50<br>with a<br>50% chance</div></div><div class='cr'><div class='vertical-center'>$5<br>for<br>sure</div></div><div class='respDivL'><div class='vertical-center'>(E)</div></div><div class='respDivR'><div class='vertical-center'>(I)</div></div></div>","E","$5","$50","1","5","50","RISKY"
"","","","offerFB","63d43dc4b4b7a0e426a381cd","bdp_rd","Sun Mar 26 2023 17:29:32 GMT-0700 (Pacific Daylight Time)","242625","html-keyboard-response","34","73149","0.0-5.0-3.9","","null","","<div class='trialBorder'><div class='vertical-center'><img style='vertical-align:center; align:center' src=img/fixation3.jpg></div><div class='cl'><div class='vertical-center'><font style='color:orange'>$50<br>with a<br>50% chance</font></div></div><div class='cr'><div class='vertical-center'>$5<br>for<br>sure</div></div><div class='respDivL'><div class='vertical-center'><font style='color:orange'>(E)</font></div></div><div class='respDivR'><div class='vertical-center'>(I)</div></div></div>","null","$5","$50","1","5","50",""
"","","","FIX","63d43dc4b4b7a0e426a381cd","bdp_rd","Sun Mar 26 2023 17:29:32 GMT-0700 (Pacific Daylight Time)","242625","html-keyboard-response","35","73651","0.0-5.0-1.10","","null","","<div class='trialBorder'><div class='vertical-center'><img style='vertical-align:center; align:center' src=img/fixation3.jpg></div></div>","null","","","","","",""
"","","","offer","63d43dc4b4b7a0e426a381cd","bdp_rd","Sun Mar 26 2023 17:29:32 GMT-0700 (Pacific Daylight Time)","242625","html-keyboard-response","36","74953","0.0-5.0-2.10","","1298","","<div class='trialBorder'><div class='vertical-center'><img style='vertical-align:center; align:center' src=img/fixation3.jpg></div><div class='cl'><div class='vertical-center'>$17<br>with a<br>50% chance</div></div><div class='cr'><div class='vertical-center'>$3<br>for<br>sure</div></div><div class='respDivL'><div class='vertical-center'>(E)</div></div><div class='respDivR'><div class='vertical-center'>(I)</div></div></div>","E","$3","$17","1","3","17","RISKY"
"","","","offerFB","63d43dc4b4b7a0e426a381cd","bdp_rd","Sun Mar 26 2023 17:29:32 GMT-0700 (Pacific Daylight Time)","242625","html-keyboard-response","37","75205","0.0-5.0-3.10","","null","","<div class='trialBorder'><div class='vertical-center'><img style='vertical-align:center; align:center' src=img/fixation3.jpg></div><div class='cl'><div class='vertical-center'><font style='color:orange'>$17<br>with a<br>50% chance</font></div></div><div class='cr'><div class='vertical-center'>$3<br>for<br>sure</div></div><div class='respDivL'><div class='vertical-center'><font style='color:orange'>(E)</font></div></div><div class='respDivR'><div class='vertical-center'>(I)</div></div></div>","null","$3","$17","1","3","17",""
"","","","FIX","63d43dc4b4b7a0e426a381cd","bdp_rd","Sun Mar 26 2023 17:29:32 GMT-0700 (Pacific Daylight Time)","242625","html-keyboard-response","38","75708","0.0-5.0-1.11","","null","","<div class='trialBorder'><div class='vertical-center'><img style='vertical-align:center; align:center' src=img/fixation3.jpg></div></div>","null","","","","","",""
"","","","offer","63d43dc4b4b7a0e426a381cd","bdp_rd","Sun Mar 26 2023 17:29:32 GMT-0700 (Pacific Daylight Time)","242625","html-keyboard-response","39","77150","0.0-5.0-2.11","","1437","","<div class='trialBorder'><div class='vertical-center'><img style='vertical-align:center; align:center' src=img/fixation3.jpg></div><div class='cl'><div class='vertical-center'>$16<br>for<br>sure</div></div><div class='cr'><div class='vertical-center'>$38<br>with a<br>50% chance</div></div><div class='respDivL'><div class='vertical-center'>(E)</div></div><div class='respDivR'><div class='vertical-center'>(I)</div></div></div>","I","$16","$38","0","16","38","RISKY"
"","","","offerFB","63d43dc4b4b7a0e426a381cd","bdp_rd","Sun Mar 26 2023 17:29:32 GMT-0700 (Pacific Daylight Time)","242625","html-keyboard-response","40","77405","0.0-5.0-3.11","","null","","<div class='trialBorder'><div class='vertical-center'><img style='vertical-align:center; align:center' src=img/fixation3.jpg></div><div class='cl'><div class='vertical-center'>$16<br>for<br>sure</div></div><div class='cr'><div class='vertical-center'><font style='color:orange'>$38<br>with a<br>50% chance</font></div></div><div class='respDivL'><div class='vertical-center'>(E)</div></div><div class='respDivR'><div class='vertical-center'><font style='color:orange'>(I)</font></div></div></div>","null","$16","$38","0","16","38",""
"","","","FIX","63d43dc4b4b7a0e426a381cd","bdp_rd","Sun Mar 26 2023 17:29:32 GMT-0700 (Pacific Daylight Time)","242625","html-keyboard-response","41","77908","0.0-5.0-1.12","","null","","<div class='trialBorder'><div class='vertical-center'><img style='vertical-align:center; align:center' src=img/fixation3.jpg></div></div>","null","","","","","",""
"","","","offer","63d43dc4b4b7a0e426a381cd","bdp_rd","Sun Mar 26 2023 17:29:32 GMT-0700 (Pacific Daylight Time)","242625","html-keyboard-response","42","80656","0.0-5.0-2.12","","2746","","<div class='trialBorder'><div class='vertical-center'><img style='vertical-align:center; align:center' src=img/fixation3.jpg></div><div class='cl'><div class='vertical-center'>$34<br>with a<br>50% chance</div></div><div class='cr'><div class='vertical-center'>$15<br>for<br>sure</div></div><div class='respDivL'><div class='vertical-center'>(E)</div></div><div class='respDivR'><div class='vertical-center'>(I)</div></div></div>","E","$15","$34","1","15","34","RISKY"
"","","","offerFB","63d43dc4b4b7a0e426a381cd","bdp_rd","Sun Mar 26 2023 17:29:32 GMT-0700 (Pacific Daylight Time)","242625","html-keyboard-response","43","80907","0.0-5.0-3.12","","null","","<div class='trialBorder'><div class='vertical-center'><img style='vertical-align:center; align:center' src=img/fixation3.jpg></div><div class='cl'><div class='vertical-center'><font style='color:orange'>$34<br>with a<br>50% chance</font></div></div><div class='cr'><div class='vertical-center'>$15<br>for<br>sure</div></div><div class='respDivL'><div class='vertical-center'><font style='color:orange'>(E)</font></div></div><div class='respDivR'><div class='vertical-center'>(I)</div></div></div>","null","$15","$34","1","15","34",""
"","","","FIX","63d43dc4b4b7a0e426a381cd","bdp_rd","Sun Mar 26 2023 17:29:32 GMT-0700 (Pacific Daylight Time)","242625","html-keyboard-response","44","81409","0.0-5.0-1.13","","null","","<div class='trialBorder'><div class='vertical-center'><img style='vertical-align:center; align:center' src=img/fixation3.jpg></div></div>","null","","","","","",""
"","","","offer","63d43dc4b4b7a0e426a381cd","bdp_rd","Sun Mar 26 2023 17:29:32 GMT-0700 (Pacific Daylight Time)","242625","html-keyboard-response","45","86132","0.0-5.0-2.13","","4720","","<div class='trialBorder'><div class='vertical-center'><img style='vertical-align:center; align:center' src=img/fixation3.jpg></div><div class='cl'><div class='vertical-center'>$37<br>with a<br>50% chance</div></div><div class='cr'><div class='vertical-center'>$20<br>for<br>sure</div></div><div class='respDivL'><div class='vertical-center'>(E)</div></div><div class='respDivR'><div class='vertical-center'>(I)</div></div></div>","I","$20","$37","1","20","37","SURE"
"","","","offerFB","63d43dc4b4b7a0e426a381cd","bdp_rd","Sun Mar 26 2023 17:29:32 GMT-0700 (Pacific Daylight Time)","242625","html-keyboard-response","46","86387","0.0-5.0-3.13","","null","","<div class='trialBorder'><div class='vertical-center'><img style='vertical-align:center; align:center' src=img/fixation3.jpg></div><div class='cl'><div class='vertical-center'>$37<br>with a<br>50% chance</div></div><div class='cr'><div class='vertical-center'><font style='color:orange'>$20<br>for<br>sure</font></div></div><div class='respDivL'><div class='vertical-center'>(E)</div></div><div class='respDivR'><div class='vertical-center'><font style='color:orange'>(I)</font></div></div></div>","null","$20","$37","1","20","37",""
"","","","FIX","63d43dc4b4b7a0e426a381cd","bdp_rd","Sun Mar 26 2023 17:29:32 GMT-0700 (Pacific Daylight Time)","242625","html-keyboard-response","47","86889","0.0-5.0-1.14","","null","","<div class='trialBorder'><div class='vertical-center'><img style='vertical-align:center; align:center' src=img/fixation3.jpg></div></div>","null","","","","","",""
"","","","offer","63d43dc4b4b7a0e426a381cd","bdp_rd","Sun Mar 26 2023 17:29:32 GMT-0700 (Pacific Daylight Time)","242625","html-keyboard-response","48","90021","0.0-5.0-2.14","","3129","","<div class='trialBorder'><div class='vertical-center'><img style='vertical-align:center; align:center' src=img/fixation3.jpg></div><div class='cl'><div class='vertical-center'>$63<br>for<br>sure</div></div><div class='cr'><div class='vertical-center'>$100<br>with a<br>50% chance</div></div><div class='respDivL'><div class='vertical-center'>(E)</div></div><div class='respDivR'><div class='vertical-center'>(I)</div></div></div>","E","$63","$100","0","63","10","SURE"
"","","","offerFB","63d43dc4b4b7a0e426a381cd","bdp_rd","Sun Mar 26 2023 17:29:32 GMT-0700 (Pacific Daylight Time)","242625","html-keyboard-response","49","90275","0.0-5.0-3.14","","null","","<div class='trialBorder'><div class='vertical-center'><img style='vertical-align:center; align:center' src=img/fixation3.jpg></div><div class='cl'><div class='vertical-center'><font style='color:orange'>$63<br>for<br>sure</font></div></div><div class='cr'><div class='vertical-center'>$100<br>with a<br>50% chance</div></div><div class='respDivL'><div class='vertical-center'><font style='color:orange'>(E)</font></div></div><div class='respDivR'><div class='vertical-center'>(I)</div></div></div>","null","$63","$100","0","63","10",""
"","","","FIX","63d43dc4b4b7a0e426a381cd","bdp_rd","Sun Mar 26 2023 17:29:32 GMT-0700 (Pacific Daylight Time)","242625","html-keyboard-response","50","90777","0.0-5.0-1.15","","null","","<div class='trialBorder'><div class='vertical-center'><img style='vertical-align:center; align:center' src=img/fixation3.jpg></div></div>","null","","","","","",""
"","","","offer","63d43dc4b4b7a0e426a381cd","bdp_rd","Sun Mar 26 2023 17:29:32 GMT-0700 (Pacific Daylight Time)","242625","html-keyboard-response","51","94407","0.0-5.0-2.15","","3629","","<div class='trialBorder'><div class='vertical-center'><img style='vertical-align:center; align:center' src=img/fixation3.jpg></div><div class='cl'><div class='vertical-center'>$27<br>with a<br>50% chance</div></div><div class='cr'><div class='vertical-center'>$12<br>for<br>sure</div></div><div class='respDivL'><div class='vertical-center'>(E)</div></div><div class='respDivR'><div class='vertical-center'>(I)</div></div></div>","E","$12","$27","1","12","27","RISKY"
"","","","offerFB","63d43dc4b4b7a0e426a381cd","bdp_rd","Sun Mar 26 2023 17:29:32 GMT-0700 (Pacific Daylight Time)","242625","html-keyboard-response","52","94661","0.0-5.0-3.15","","null","","<div class='trialBorder'><div class='vertical-center'><img style='vertical-align:center; align:center' src=img/fixation3.jpg></div><div class='cl'><div class='vertical-center'><font style='color:orange'>$27<br>with a<br>50% chance</font></div></div><div class='cr'><div class='vertical-center'>$12<br>for<br>sure</div></div><div class='respDivL'><div class='vertical-center'><font style='color:orange'>(E)</font></div></div><div class='respDivR'><div class='vertical-center'>(I)</div></div></div>","null","$12","$27","1","12","27",""
"","","","FIX","63d43dc4b4b7a0e426a381cd","bdp_rd","Sun Mar 26 2023 17:29:32 GMT-0700 (Pacific Daylight Time)","242625","html-keyboard-response","53","95162","0.0-5.0-1.16","","null","","<div class='trialBorder'><div class='vertical-center'><img style='vertical-align:center; align:center' src=img/fixation3.jpg></div></div>","null","","","","","",""
"","","","offer","63d43dc4b4b7a0e426a381cd","bdp_rd","Sun Mar 26 2023 17:29:32 GMT-0700 (Pacific Daylight Time)","242625","html-keyboard-response","54","102500","0.0-5.0-2.16","","7335","","<div class='trialBorder'><div class='vertical-center'><img style='vertical-align:center; align:center' src=img/fixation3.jpg></div><div class='cl'><div class='vertical-center'>$39<br>for<br>sure</div></div><div class='cr'><div class='vertical-center'>$81<br>with a<br>50% chance</div></div><div class='respDivL'><div class='vertical-center'>(E)</div></div><div class='respDivR'><div class='vertical-center'>(I)</div></div></div>","I","$39","$81","0","39","81","RISKY"
"","","","offerFB","63d43dc4b4b7a0e426a381cd","bdp_rd","Sun Mar 26 2023 17:29:32 GMT-0700 (Pacific Daylight Time)","242625","html-keyboard-response","55","102752","0.0-5.0-3.16","","null","","<div class='trialBorder'><div class='vertical-center'><img style='vertical-align:center; align:center' src=img/fixation3.jpg></div><div class='cl'><div class='vertical-center'>$39<br>for<br>sure</div></div><div class='cr'><div class='vertical-center'><font style='color:orange'>$81<br>with a<br>50% chance</font></div></div><div class='respDivL'><div class='vertical-center'>(E)</div></div><div class='respDivR'><div class='vertical-center'><font style='color:orange'>(I)</font></div></div></div>","null","$39","$81","0","39","81",""
"","","","FIX","63d43dc4b4b7a0e426a381cd","bdp_rd","Sun Mar 26 2023 17:29:32 GMT-0700 (Pacific Daylight Time)","242625","html-keyboard-response","56","103255","0.0-5.0-1.17","","null","","<div class='trialBorder'><div class='vertical-center'><img style='vertical-align:center; align:center' src=img/fixation3.jpg></div></div>","null","","","","","",""
"","","","offer","63d43dc4b4b7a0e426a381cd","bdp_rd","Sun Mar 26 2023 17:29:32 GMT-0700 (Pacific Daylight Time)","242625","html-keyboard-response","57","105704","0.0-5.0-2.17","","2446","","<div class='trialBorder'><div class='vertical-center'><img style='vertical-align:center; align:center' src=img/fixation3.jpg></div><div class='cl'><div class='vertical-center'>$4<br>for<br>sure</div></div><div class='cr'><div class='vertical-center'>$11<br>with a<br>50% chance</div></div><div class='respDivL'><div class='vertical-center'>(E)</div></div><div class='respDivR'><div class='vertical-center'>(I)</div></div></div>","I","$4","$11","0","4","11","RISKY"
"","","","offerFB","63d43dc4b4b7a0e426a381cd","bdp_rd","Sun Mar 26 2023 17:29:32 GMT-0700 (Pacific Daylight Time)","242625","html-keyboard-response","58","105957","0.0-5.0-3.17","","null","","<div class='trialBorder'><div class='vertical-center'><img style='vertical-align:center; align:center' src=img/fixation3.jpg></div><div class='cl'><div class='vertical-center'>$4<br>for<br>sure</div></div><div class='cr'><div class='vertical-center'><font style='color:orange'>$11<br>with a<br>50% chance</font></div></div><div class='respDivL'><div class='vertical-center'>(E)</div></div><div class='respDivR'><div class='vertical-center'><font style='color:orange'>(I)</font></div></div></div>","null","$4","$11","0","4","11",""
"","","","FIX","63d43dc4b4b7a0e426a381cd","bdp_rd","Sun Mar 26 2023 17:29:32 GMT-0700 (Pacific Daylight Time)","242625","html-keyboard-response","59","106459","0.0-5.0-1.18","","null","","<div class='trialBorder'><div class='vertical-center'><img style='vertical-align:center; align:center' src=img/fixation3.jpg></div></div>","null","","","","","",""
"","","","offer","63d43dc4b4b7a0e426a381cd","bdp_rd","Sun Mar 26 2023 17:29:32 GMT-0700 (Pacific Daylight Time)","242625","html-keyboard-response","60","108541","0.0-5.0-2.18","","2081","","<div class='trialBorder'><div class='vertical-center'><img style='vertical-align:center; align:center' src=img/fixation3.jpg></div><div class='cl'><div class='vertical-center'>$45<br>with a<br>50% chance</div></div><div class='cr'><div class='vertical-center'>$8<br>for<br>sure</div></div><div class='respDivL'><div class='vertical-center'>(E)</div></div><div class='respDivR'><div class='vertical-center'>(I)</div></div></div>","E","$8","$45","1","8","45","RISKY"
"","","","offerFB","63d43dc4b4b7a0e426a381cd","bdp_rd","Sun Mar 26 2023 17:29:32 GMT-0700 (Pacific Daylight Time)","242625","html-keyboard-response","61","108793","0.0-5.0-3.18","","null","","<div class='trialBorder'><div class='vertical-center'><img style='vertical-align:center; align:center' src=img/fixation3.jpg></div><div class='cl'><div class='vertical-center'><font style='color:orange'>$45<br>with a<br>50% chance</font></div></div><div class='cr'><div class='vertical-center'>$8<br>for<br>sure</div></div><div class='respDivL'><div class='vertical-center'><font style='color:orange'>(E)</font></div></div><div class='respDivR'><div class='vertical-center'>(I)</div></div></div>","null","$8","$45","1","8","45",""
"","","","FIX","63d43dc4b4b7a0e426a381cd","bdp_rd","Sun Mar 26 2023 17:29:32 GMT-0700 (Pacific Daylight Time)","242625","html-keyboard-response","62","109295","0.0-5.0-1.19","","null","","<div class='trialBorder'><div class='vertical-center'><img style='vertical-align:center; align:center' src=img/fixation3.jpg></div></div>","null","","","","","",""
"","","","offer","63d43dc4b4b7a0e426a381cd","bdp_rd","Sun Mar 26 2023 17:29:32 GMT-0700 (Pacific Daylight Time)","242625","html-keyboard-response","63","110784","0.0-5.0-2.19","","1487","","<div class='trialBorder'><div class='vertical-center'><img style='vertical-align:center; align:center' src=img/fixation3.jpg></div><div class='cl'><div class='vertical-center'>$65<br>with a<br>50% chance</div></div><div class='cr'><div class='vertical-center'>$46<br>for<br>sure</div></div><div class='respDivL'><div class='vertical-center'>(E)</div></div><div class='respDivR'><div class='vertical-center'>(I)</div></div></div>","I","$46","$65","1","46","65","SURE"
"","","","offerFB","63d43dc4b4b7a0e426a381cd","bdp_rd","Sun Mar 26 2023 17:29:32 GMT-0700 (Pacific Daylight Time)","242625","html-keyboard-response","64","111037","0.0-5.0-3.19","","null","","<div class='trialBorder'><div class='vertical-center'><img style='vertical-align:center; align:center' src=img/fixation3.jpg></div><div class='cl'><div class='vertical-center'>$65<br>with a<br>50% chance</div></div><div class='cr'><div class='vertical-center'><font style='color:orange'>$46<br>for<br>sure</font></div></div><div class='respDivL'><div class='vertical-center'>(E)</div></div><div class='respDivR'><div class='vertical-center'><font style='color:orange'>(I)</font></div></div></div>","null","$46","$65","1","46","65",""
"","","","FIX","63d43dc4b4b7a0e426a381cd","bdp_rd","Sun Mar 26 2023 17:29:32 GMT-0700 (Pacific Daylight Time)","242625","html-keyboard-response","65","111538","0.0-5.0-1.20","","null","","<div class='trialBorder'><div class='vertical-center'><img style='vertical-align:center; align:center' src=img/fixation3.jpg></div></div>","null","","","","","",""
"","","","offer","63d43dc4b4b7a0e426a381cd","bdp_rd","Sun Mar 26 2023 17:29:32 GMT-0700 (Pacific Daylight Time)","242625","html-keyboard-response","66","113040","0.0-5.0-2.20","","1500","","<div class='trialBorder'><div class='vertical-center'><img style='vertical-align:center; align:center' src=img/fixation3.jpg></div><div class='cl'><div class='vertical-center'>$73<br>with a<br>50% chance</div></div><div class='cr'><div class='vertical-center'>$42<br>for<br>sure</div></div><div class='respDivL'><div class='vertical-center'>(E)</div></div><div class='respDivR'><div class='vertical-center'>(I)</div></div></div>","I","$42","$73","1","42","73","SURE"
"","","","offerFB","63d43dc4b4b7a0e426a381cd","bdp_rd","Sun Mar 26 2023 17:29:32 GMT-0700 (Pacific Daylight Time)","242625","html-keyboard-response","67","113292","0.0-5.0-3.20","","null","","<div class='trialBorder'><div class='vertical-center'><img style='vertical-align:center; align:center' src=img/fixation3.jpg></div><div class='cl'><div class='vertical-center'>$73<br>with a<br>50% chance</div></div><div class='cr'><div class='vertical-center'><font style='color:orange'>$42<br>for<br>sure</font></div></div><div class='respDivL'><div class='vertical-center'>(E)</div></div><div class='respDivR'><div class='vertical-center'><font style='color:orange'>(I)</font></div></div></div>","null","$42","$73","1","42","73",""
"","","","FIX","63d43dc4b4b7a0e426a381cd","bdp_rd","Sun Mar 26 2023 17:29:32 GMT-0700 (Pacific Daylight Time)","242625","html-keyboard-response","68","113793","0.0-5.0-1.21","","null","","<div class='trialBorder'><div class='vertical-center'><img style='vertical-align:center; align:center' src=img/fixation3.jpg></div></div>","null","","","","","",""
"","","","offer","63d43dc4b4b7a0e426a381cd","bdp_rd","Sun Mar 26 2023 17:29:32 GMT-0700 (Pacific Daylight Time)","242625","html-keyboard-response","69","116197","0.0-5.0-2.21","","2401","","<div class='trialBorder'><div class='vertical-center'><img style='vertical-align:center; align:center' src=img/fixation3.jpg></div><div class='cl'><div class='vertical-center'>$30<br>for<br>sure</div></div><div class='cr'><div class='vertical-center'>$68<br>with a<br>50% chance</div></div><div class='respDivL'><div class='vertical-center'>(E)</div></div><div class='respDivR'><div class='vertical-center'>(I)</div></div></div>","I","$30","$68","0","30","68","RISKY"
"","","","offerFB","63d43dc4b4b7a0e426a381cd","bdp_rd","Sun Mar 26 2023 17:29:32 GMT-0700 (Pacific Daylight Time)","242625","html-keyboard-response","70","116451","0.0-5.0-3.21","","null","","<div class='trialBorder'><div class='vertical-center'><img style='vertical-align:center; align:center' src=img/fixation3.jpg></div><div class='cl'><div class='vertical-center'>$30<br>for<br>sure</div></div><div class='cr'><div class='vertical-center'><font style='color:orange'>$68<br>with a<br>50% chance</font></div></div><div class='respDivL'><div class='vertical-center'>(E)</div></div><div class='respDivR'><div class='vertical-center'><font style='color:orange'>(I)</font></div></div></div>","null","$30","$68","0","30","68",""
"","","","FIX","63d43dc4b4b7a0e426a381cd","bdp_rd","Sun Mar 26 2023 17:29:32 GMT-0700 (Pacific Daylight Time)","242625","html-keyboard-response","71","116952","0.0-5.0-1.22","","null","","<div class='trialBorder'><div class='vertical-center'><img style='vertical-align:center; align:center' src=img/fixation3.jpg></div></div>","null","","","","","",""
"","","","offer","63d43dc4b4b7a0e426a381cd","bdp_rd","Sun Mar 26 2023 17:29:32 GMT-0700 (Pacific Daylight Time)","242625","html-keyboard-response","72","119788","0.0-5.0-2.22","","2830","","<div class='trialBorder'><div class='vertical-center'><img style='vertical-align:center; align:center' src=img/fixation3.jpg></div><div class='cl'><div class='vertical-center'>$58<br>for<br>sure</div></div><div class='cr'><div class='vertical-center'>$69<br>with a<br>50% chance</div></div><div class='respDivL'><div class='vertical-center'>(E)</div></div><div class='respDivR'><div class='vertical-center'>(I)</div></div></div>","E","$58","$69","0","58","69","SURE"
"","","","offerFB","63d43dc4b4b7a0e426a381cd","bdp_rd","Sun Mar 26 2023 17:29:32 GMT-0700 (Pacific Daylight Time)","242625","html-keyboard-response","73","120042","0.0-5.0-3.22","","null","","<div class='trialBorder'><div class='vertical-center'><img style='vertical-align:center; align:center' src=img/fixation3.jpg></div><div class='cl'><div class='vertical-center'><font style='color:orange'>$58<br>for<br>sure</font></div></div><div class='cr'><div class='vertical-center'>$69<br>with a<br>50% chance</div></div><div class='respDivL'><div class='vertical-center'><font style='color:orange'>(E)</font></div></div><div class='respDivR'><div class='vertical-center'>(I)</div></div></div>","null","$58","$69","0","58","69",""
"","","","FIX","63d43dc4b4b7a0e426a381cd","bdp_rd","Sun Mar 26 2023 17:29:32 GMT-0700 (Pacific Daylight Time)","242625","html-keyboard-response","74","120550","0.0-5.0-1.23","","null","","<div class='trialBorder'><div class='vertical-center'><img style='vertical-align:center; align:center' src=img/fixation3.jpg></div></div>","null","","","","","",""
"","","","offer","63d43dc4b4b7a0e426a381cd","bdp_rd","Sun Mar 26 2023 17:29:32 GMT-0700 (Pacific Daylight Time)","242625","html-keyboard-response","75","125696","0.0-5.0-2.23","","5144","","<div class='trialBorder'><div class='vertical-center'><img style='vertical-align:center; align:center' src=img/fixation3.jpg></div><div class='cl'><div class='vertical-center'>$29<br>with a<br>50% chance</div></div><div class='cr'><div class='vertical-center'>$14<br>for<br>sure</div></div><div class='respDivL'><div class='vertical-center'>(E)</div></div><div class='respDivR'><div class='vertical-center'>(I)</div></div></div>","E","$14","$29","1","14","29","RISKY"
"","","","offerFB","63d43dc4b4b7a0e426a381cd","bdp_rd","Sun Mar 26 2023 17:29:32 GMT-0700 (Pacific Daylight Time)","242625","html-keyboard-response","76","125949","0.0-5.0-3.23","","null","","<div class='trialBorder'><div class='vertical-center'><img style='vertical-align:center; align:center' src=img/fixation3.jpg></div><div class='cl'><div class='vertical-center'><font style='color:orange'>$29<br>with a<br>50% chance</font></div></div><div class='cr'><div class='vertical-center'>$14<br>for<br>sure</div></div><div class='respDivL'><div class='vertical-center'><font style='color:orange'>(E)</font></div></div><div class='respDivR'><div class='vertical-center'>(I)</div></div></div>","null","$14","$29","1","14","29",""
"","","","FIX","63d43dc4b4b7a0e426a381cd","bdp_rd","Sun Mar 26 2023 17:29:32 GMT-0700 (Pacific Daylight Time)","242625","html-keyboard-response","77","126450","0.0-5.0-1.24","","null","","<div class='trialBorder'><div class='vertical-center'><img style='vertical-align:center; align:center' src=img/fixation3.jpg></div></div>","null","","","","","",""
"","","","offer","63d43dc4b4b7a0e426a381cd","bdp_rd","Sun Mar 26 2023 17:29:32 GMT-0700 (Pacific Daylight Time)","242625","html-keyboard-response","78","129257","0.0-5.0-2.24","","2805","","<div class='trialBorder'><div class='vertical-center'><img style='vertical-align:center; align:center' src=img/fixation3.jpg></div><div class='cl'><div class='vertical-center'>$89<br>with a<br>50% chance</div></div><div class='cr'><div class='vertical-center'>$28<br>for<br>sure</div></div><div class='respDivL'><div class='vertical-center'>(E)</div></div><div class='respDivR'><div class='vertical-center'>(I)</div></div></div>","E","$28","$89","1","28","89","RISKY"
"","","","offerFB","63d43dc4b4b7a0e426a381cd","bdp_rd","Sun Mar 26 2023 17:29:32 GMT-0700 (Pacific Daylight Time)","242625","html-keyboard-response","79","129509","0.0-5.0-3.24","","null","","<div class='trialBorder'><div class='vertical-center'><img style='vertical-align:center; align:center' src=img/fixation3.jpg></div><div class='cl'><div class='vertical-center'><font style='color:orange'>$89<br>with a<br>50% chance</font></div></div><div class='cr'><div class='vertical-center'>$28<br>for<br>sure</div></div><div class='respDivL'><div class='vertical-center'><font style='color:orange'>(E)</font></div></div><div class='respDivR'><div class='vertical-center'>(I)</div></div></div>","null","$28","$89","1","28","89",""
"","","","FIX","63d43dc4b4b7a0e426a381cd","bdp_rd","Sun Mar 26 2023 17:29:32 GMT-0700 (Pacific Daylight Time)","242625","html-keyboard-response","80","130011","0.0-5.0-1.25","","null","","<div class='trialBorder'><div class='vertical-center'><img style='vertical-align:center; align:center' src=img/fixation3.jpg></div></div>","null","","","","","",""
"","","","offer","63d43dc4b4b7a0e426a381cd","bdp_rd","Sun Mar 26 2023 17:29:32 GMT-0700 (Pacific Daylight Time)","242625","html-keyboard-response","81","131893","0.0-5.0-2.25","","1880","","<div class='trialBorder'><div class='vertical-center'><img style='vertical-align:center; align:center' src=img/fixation3.jpg></div><div class='cl'><div class='vertical-center'>$64<br>with a<br>50% chance</div></div><div class='cr'><div class='vertical-center'>$2<br>for<br>sure</div></div><div class='respDivL'><div class='vertical-center'>(E)</div></div><div class='respDivR'><div class='vertical-center'>(I)</div></div></div>","E","$2","$64","1","2","64","RISKY"
"","","","offerFB","63d43dc4b4b7a0e426a381cd","bdp_rd","Sun Mar 26 2023 17:29:32 GMT-0700 (Pacific Daylight Time)","242625","html-keyboard-response","82","132145","0.0-5.0-3.25","","null","","<div class='trialBorder'><div class='vertical-center'><img style='vertical-align:center; align:center' src=img/fixation3.jpg></div><div class='cl'><div class='vertical-center'><font style='color:orange'>$64<br>with a<br>50% chance</font></div></div><div class='cr'><div class='vertical-center'>$2<br>for<br>sure</div></div><div class='respDivL'><div class='vertical-center'><font style='color:orange'>(E)</font></div></div><div class='respDivR'><div class='vertical-center'>(I)</div></div></div>","null","$2","$64","1","2","64",""
"","","","FIX","63d43dc4b4b7a0e426a381cd","bdp_rd","Sun Mar 26 2023 17:29:32 GMT-0700 (Pacific Daylight Time)","242625","html-keyboard-response","83","132648","0.0-5.0-1.26","","null","","<div class='trialBorder'><div class='vertical-center'><img style='vertical-align:center; align:center' src=img/fixation3.jpg></div></div>","null","","","","","",""
"","","","offer","63d43dc4b4b7a0e426a381cd","bdp_rd","Sun Mar 26 2023 17:29:32 GMT-0700 (Pacific Daylight Time)","242625","html-keyboard-response","84","134828","0.0-5.0-2.26","","2179","","<div class='trialBorder'><div class='vertical-center'><img style='vertical-align:center; align:center' src=img/fixation3.jpg></div><div class='cl'><div class='vertical-center'>$6<br>for<br>sure</div></div><div class='cr'><div class='vertical-center'>$15<br>with a<br>50% chance</div></div><div class='respDivL'><div class='vertical-center'>(E)</div></div><div class='respDivR'><div class='vertical-center'>(I)</div></div></div>","I","$6","$15","0","6","15","RISKY"
"","","","offerFB","63d43dc4b4b7a0e426a381cd","bdp_rd","Sun Mar 26 2023 17:29:32 GMT-0700 (Pacific Daylight Time)","242625","html-keyboard-response","85","135080","0.0-5.0-3.26","","null","","<div class='trialBorder'><div class='vertical-center'><img style='vertical-align:center; align:center' src=img/fixation3.jpg></div><div class='cl'><div class='vertical-center'>$6<br>for<br>sure</div></div><div class='cr'><div class='vertical-center'><font style='color:orange'>$15<br>with a<br>50% chance</font></div></div><div class='respDivL'><div class='vertical-center'>(E)</div></div><div class='respDivR'><div class='vertical-center'><font style='color:orange'>(I)</font></div></div></div>","null","$6","$15","0","6","15",""
"","","","FIX","63d43dc4b4b7a0e426a381cd","bdp_rd","Sun Mar 26 2023 17:29:32 GMT-0700 (Pacific Daylight Time)","242625","html-keyboard-response","86","135582","0.0-5.0-1.27","","null","","<div class='trialBorder'><div class='vertical-center'><img style='vertical-align:center; align:center' src=img/fixation3.jpg></div></div>","null","","","","","",""
"","","","offer","63d43dc4b4b7a0e426a381cd","bdp_rd","Sun Mar 26 2023 17:29:32 GMT-0700 (Pacific Daylight Time)","242625","html-keyboard-response","87","137507","0.0-5.0-2.27","","1925","","<div class='trialBorder'><div class='vertical-center'><img style='vertical-align:center; align:center' src=img/fixation3.jpg></div><div class='cl'><div class='vertical-center'>$5<br>for<br>sure</div></div><div class='cr'><div class='vertical-center'>$16<br>with a<br>50% chance</div></div><div class='respDivL'><div class='vertical-center'>(E)</div></div><div class='respDivR'><div class='vertical-center'>(I)</div></div></div>","I","$5","$16","0","5","16","RISKY"
"","","","offerFB","63d43dc4b4b7a0e426a381cd","bdp_rd","Sun Mar 26 2023 17:29:32 GMT-0700 (Pacific Daylight Time)","242625","html-keyboard-response","88","137759","0.0-5.0-3.27","","null","","<div class='trialBorder'><div class='vertical-center'><img style='vertical-align:center; align:center' src=img/fixation3.jpg></div><div class='cl'><div class='vertical-center'>$5<br>for<br>sure</div></div><div class='cr'><div class='vertical-center'><font style='color:orange'>$16<br>with a<br>50% chance</font></div></div><div class='respDivL'><div class='vertical-center'>(E)</div></div><div class='respDivR'><div class='vertical-center'><font style='color:orange'>(I)</font></div></div></div>","null","$5","$16","0","5","16",""
"","","","FIX","63d43dc4b4b7a0e426a381cd","bdp_rd","Sun Mar 26 2023 17:29:32 GMT-0700 (Pacific Daylight Time)","242625","html-keyboard-response","89","138260","0.0-5.0-1.28","","null","","<div class='trialBorder'><div class='vertical-center'><img style='vertical-align:center; align:center' src=img/fixation3.jpg></div></div>","null","","","","","",""
"","","","offer","63d43dc4b4b7a0e426a381cd","bdp_rd","Sun Mar 26 2023 17:29:32 GMT-0700 (Pacific Daylight Time)","242625","html-keyboard-response","90","140213","0.0-5.0-2.28","","1952","","<div class='trialBorder'><div class='vertical-center'><img style='vertical-align:center; align:center' src=img/fixation3.jpg></div><div class='cl'><div class='vertical-center'>$42<br>with a<br>50% chance</div></div><div class='cr'><div class='vertical-center'>$22<br>for<br>sure</div></div><div class='respDivL'><div class='vertical-center'>(E)</div></div><div class='respDivR'><div class='vertical-center'>(I)</div></div></div>","I","$22","$42","1","22","42","SURE"
"","","","offerFB","63d43dc4b4b7a0e426a381cd","bdp_rd","Sun Mar 26 2023 17:29:32 GMT-0700 (Pacific Daylight Time)","242625","html-keyboard-response","91","140465","0.0-5.0-3.28","","null","","<div class='trialBorder'><div class='vertical-center'><img style='vertical-align:center; align:center' src=img/fixation3.jpg></div><div class='cl'><div class='vertical-center'>$42<br>with a<br>50% chance</div></div><div class='cr'><div class='vertical-center'><font style='color:orange'>$22<br>for<br>sure</font></div></div><div class='respDivL'><div class='vertical-center'>(E)</div></div><div class='respDivR'><div class='vertical-center'><font style='color:orange'>(I)</font></div></div></div>","null","$22","$42","1","22","42",""
"","","","FIX","63d43dc4b4b7a0e426a381cd","bdp_rd","Sun Mar 26 2023 17:29:32 GMT-0700 (Pacific Daylight Time)","242625","html-keyboard-response","92","140967","0.0-5.0-1.29","","null","","<div class='trialBorder'><div class='vertical-center'><img style='vertical-align:center; align:center' src=img/fixation3.jpg></div></div>","null","","","","","",""
"","","","offer","63d43dc4b4b7a0e426a381cd","bdp_rd","Sun Mar 26 2023 17:29:32 GMT-0700 (Pacific Daylight Time)","242625","html-keyboard-response","93","143282","0.0-5.0-2.29","","2313","","<div class='trialBorder'><div class='vertical-center'><img style='vertical-align:center; align:center' src=img/fixation3.jpg></div><div class='cl'><div class='vertical-center'>$12<br>for<br>sure</div></div><div class='cr'><div class='vertical-center'>$35<br>with a<br>50% chance</div></div><div class='respDivL'><div class='vertical-center'>(E)</div></div><div class='respDivR'><div class='vertical-center'>(I)</div></div></div>","I","$12","$35","0","12","35","RISKY"
"","","","offerFB","63d43dc4b4b7a0e426a381cd","bdp_rd","Sun Mar 26 2023 17:29:32 GMT-0700 (Pacific Daylight Time)","242625","html-keyboard-response","94","143535","0.0-5.0-3.29","","null","","<div class='trialBorder'><div class='vertical-center'><img style='vertical-align:center; align:center' src=img/fixation3.jpg></div><div class='cl'><div class='vertical-center'>$12<br>for<br>sure</div></div><div class='cr'><div class='vertical-center'><font style='color:orange'>$35<br>with a<br>50% chance</font></div></div><div class='respDivL'><div class='vertical-center'>(E)</div></div><div class='respDivR'><div class='vertical-center'><font style='color:orange'>(I)</font></div></div></div>","null","$12","$35","0","12","35",""
"","","","FIX","63d43dc4b4b7a0e426a381cd","bdp_rd","Sun Mar 26 2023 17:29:32 GMT-0700 (Pacific Daylight Time)","242625","html-keyboard-response","95","144036","0.0-5.0-1.30","","null","","<div class='trialBorder'><div class='vertical-center'><img style='vertical-align:center; align:center' src=img/fixation3.jpg></div></div>","null","","","","","",""
"","","","offer","63d43dc4b4b7a0e426a381cd","bdp_rd","Sun Mar 26 2023 17:29:32 GMT-0700 (Pacific Daylight Time)","242625","html-keyboard-response","96","145001","0.0-5.0-2.30","","963","","<div class='trialBorder'><div class='vertical-center'><img style='vertical-align:center; align:center' src=img/fixation3.jpg></div><div class='cl'><div class='vertical-center'>$13<br>for<br>sure</div></div><div class='cr'><div class='vertical-center'>$41<br>with a<br>50% chance</div></div><div class='respDivL'><div class='vertical-center'>(E)</div></div><div class='respDivR'><div class='vertical-center'>(I)</div></div></div>","I","$13","$41","0","13","41","RISKY"
"","","","offerFB","63d43dc4b4b7a0e426a381cd","bdp_rd","Sun Mar 26 2023 17:29:32 GMT-0700 (Pacific Daylight Time)","242625","html-keyboard-response","97","145252","0.0-5.0-3.30","","null","","<div class='trialBorder'><div class='vertical-center'><img style='vertical-align:center; align:center' src=img/fixation3.jpg></div><div class='cl'><div class='vertical-center'>$13<br>for<br>sure</div></div><div class='cr'><div class='vertical-center'><font style='color:orange'>$41<br>with a<br>50% chance</font></div></div><div class='respDivL'><div class='vertical-center'>(E)</div></div><div class='respDivR'><div class='vertical-center'><font style='color:orange'>(I)</font></div></div></div>","null","$13","$41","0","13","41",""
"","","","FIX","63d43dc4b4b7a0e426a381cd","bdp_rd","Sun Mar 26 2023 17:29:32 GMT-0700 (Pacific Daylight Time)","242625","html-keyboard-response","98","145753","0.0-5.0-1.31","","null","","<div class='trialBorder'><div class='vertical-center'><img style='vertical-align:center; align:center' src=img/fixation3.jpg></div></div>","null","","","","","",""
"","","","offer","63d43dc4b4b7a0e426a381cd","bdp_rd","Sun Mar 26 2023 17:29:32 GMT-0700 (Pacific Daylight Time)","242625","html-keyboard-response","99","147680","0.0-5.0-2.31","","1925","","<div class='trialBorder'><div class='vertical-center'><img style='vertical-align:center; align:center' src=img/fixation3.jpg></div><div class='cl'><div class='vertical-center'>$27<br>for<br>sure</div></div><div class='cr'><div class='vertical-center'>$47<br>with a<br>50% chance</div></div><div class='respDivL'><div class='vertical-center'>(E)</div></div><div class='respDivR'><div class='vertical-center'>(I)</div></div></div>","I","$27","$47","0","27","47","RISKY"
"","","","offerFB","63d43dc4b4b7a0e426a381cd","bdp_rd","Sun Mar 26 2023 17:29:32 GMT-0700 (Pacific Daylight Time)","242625","html-keyboard-response","100","147932","0.0-5.0-3.31","","null","","<div class='trialBorder'><div class='vertical-center'><img style='vertical-align:center; align:center' src=img/fixation3.jpg></div><div class='cl'><div class='vertical-center'>$27<br>for<br>sure</div></div><div class='cr'><div class='vertical-center'><font style='color:orange'>$47<br>with a<br>50% chance</font></div></div><div class='respDivL'><div class='vertical-center'>(E)</div></div><div class='respDivR'><div class='vertical-center'><font style='color:orange'>(I)</font></div></div></div>","null","$27","$47","0","27","47",""
"","","","FIX","63d43dc4b4b7a0e426a381cd","bdp_rd","Sun Mar 26 2023 17:29:32 GMT-0700 (Pacific Daylight Time)","242625","html-keyboard-response","101","148433","0.0-5.0-1.32","","null","","<div class='trialBorder'><div class='vertical-center'><img style='vertical-align:center; align:center' src=img/fixation3.jpg></div></div>","null","","","","","",""
"","","","offer","63d43dc4b4b7a0e426a381cd","bdp_rd","Sun Mar 26 2023 17:29:32 GMT-0700 (Pacific Daylight Time)","242625","html-keyboard-response","102","149804","0.0-5.0-2.32","","1370","","<div class='trialBorder'><div class='vertical-center'><img style='vertical-align:center; align:center' src=img/fixation3.jpg></div><div class='cl'><div class='vertical-center'>$46<br>with a<br>50% chance</div></div><div class='cr'><div class='vertical-center'>$29<br>for<br>sure</div></div><div class='respDivL'><div class='vertical-center'>(E)</div></div><div class='respDivR'><div class='vertical-center'>(I)</div></div></div>","E","$29","$46","1","29","46","RISKY"
"","","","offerFB","63d43dc4b4b7a0e426a381cd","bdp_rd","Sun Mar 26 2023 17:29:32 GMT-0700 (Pacific Daylight Time)","242625","html-keyboard-response","103","150057","0.0-5.0-3.32","","null","","<div class='trialBorder'><div class='vertical-center'><img style='vertical-align:center; align:center' src=img/fixation3.jpg></div><div class='cl'><div class='vertical-center'><font style='color:orange'>$46<br>with a<br>50% chance</font></div></div><div class='cr'><div class='vertical-center'>$29<br>for<br>sure</div></div><div class='respDivL'><div class='vertical-center'><font style='color:orange'>(E)</font></div></div><div class='respDivR'><div class='vertical-center'>(I)</div></div></div>","null","$29","$46","1","29","46",""
"","","","FIX","63d43dc4b4b7a0e426a381cd","bdp_rd","Sun Mar 26 2023 17:29:32 GMT-0700 (Pacific Daylight Time)","242625","html-keyboard-response","104","150558","0.0-5.0-1.33","","null","","<div class='trialBorder'><div class='vertical-center'><img style='vertical-align:center; align:center' src=img/fixation3.jpg></div></div>","null","","","","","",""
"","","","offer","63d43dc4b4b7a0e426a381cd","bdp_rd","Sun Mar 26 2023 17:29:32 GMT-0700 (Pacific Daylight Time)","242625","html-keyboard-response","105","154869","0.0-5.0-2.33","","4311","","<div class='trialBorder'><div class='vertical-center'><img style='vertical-align:center; align:center' src=img/fixation3.jpg></div><div class='cl'><div class='vertical-center'>$25<br>with a<br>50% chance</div></div><div class='cr'><div class='vertical-center'>$21<br>for<br>sure</div></div><div class='respDivL'><div class='vertical-center'>(E)</div></div><div class='respDivR'><div class='vertical-center'>(I)</div></div></div>","E","$21","$25","1","21","25","RISKY"
"","","","offerFB","63d43dc4b4b7a0e426a381cd","bdp_rd","Sun Mar 26 2023 17:29:32 GMT-0700 (Pacific Daylight Time)","242625","html-keyboard-response","106","155122","0.0-5.0-3.33","","null","","<div class='trialBorder'><div class='vertical-center'><img style='vertical-align:center; align:center' src=img/fixation3.jpg></div><div class='cl'><div class='vertical-center'><font style='color:orange'>$25<br>with a<br>50% chance</font></div></div><div class='cr'><div class='vertical-center'>$21<br>for<br>sure</div></div><div class='respDivL'><div class='vertical-center'><font style='color:orange'>(E)</font></div></div><div class='respDivR'><div class='vertical-center'>(I)</div></div></div>","null","$21","$25","1","21","25",""
"","","","FIX","63d43dc4b4b7a0e426a381cd","bdp_rd","Sun Mar 26 2023 17:29:32 GMT-0700 (Pacific Daylight Time)","242625","html-keyboard-response","107","155622","0.0-5.0-1.34","","null","","<div class='trialBorder'><div class='vertical-center'><img style='vertical-align:center; align:center' src=img/fixation3.jpg></div></div>","null","","","","","",""
"","","","offer","63d43dc4b4b7a0e426a381cd","bdp_rd","Sun Mar 26 2023 17:29:32 GMT-0700 (Pacific Daylight Time)","242625","html-keyboard-response","108","160525","0.0-5.0-2.34","","4900","","<div class='trialBorder'><div class='vertical-center'><img style='vertical-align:center; align:center' src=img/fixation3.jpg></div><div class='cl'><div class='vertical-center'>$33<br>for<br>sure</div></div><div class='cr'><div class='vertical-center'>$66<br>with a<br>50% chance</div></div><div class='respDivL'><div class='vertical-center'>(E)</div></div><div class='respDivR'><div class='vertical-center'>(I)</div></div></div>","E","$33","$66","0","33","66","SURE"
"","","","offerFB","63d43dc4b4b7a0e426a381cd","bdp_rd","Sun Mar 26 2023 17:29:32 GMT-0700 (Pacific Daylight Time)","242625","html-keyboard-response","109","160778","0.0-5.0-3.34","","null","","<div class='trialBorder'><div class='vertical-center'><img style='vertical-align:center; align:center' src=img/fixation3.jpg></div><div class='cl'><div class='vertical-center'><font style='color:orange'>$33<br>for<br>sure</font></div></div><div class='cr'><div class='vertical-center'>$66<br>with a<br>50% chance</div></div><div class='respDivL'><div class='vertical-center'><font style='color:orange'>(E)</font></div></div><div class='respDivR'><div class='vertical-center'>(I)</div></div></div>","null","$33","$66","0","33","66",""
"","","","FIX","63d43dc4b4b7a0e426a381cd","bdp_rd","Sun Mar 26 2023 17:29:32 GMT-0700 (Pacific Daylight Time)","242625","html-keyboard-response","110","161280","0.0-5.0-1.35","","null","","<div class='trialBorder'><div class='vertical-center'><img style='vertical-align:center; align:center' src=img/fixation3.jpg></div></div>","null","","","","","",""
"","","","offer","63d43dc4b4b7a0e426a381cd","bdp_rd","Sun Mar 26 2023 17:29:32 GMT-0700 (Pacific Daylight Time)","242625","html-keyboard-response","111","165209","0.0-5.0-2.35","","3928","","<div class='trialBorder'><div class='vertical-center'><img style='vertical-align:center; align:center' src=img/fixation3.jpg></div><div class='cl'><div class='vertical-center'>$39<br>with a<br>50% chance</div></div><div class='cr'><div class='vertical-center'>$18<br>for<br>sure</div></div><div class='respDivL'><div class='vertical-center'>(E)</div></div><div class='respDivR'><div class='vertical-center'>(I)</div></div></div>","E","$18","$39","1","18","39","RISKY"
"","","","offerFB","63d43dc4b4b7a0e426a381cd","bdp_rd","Sun Mar 26 2023 17:29:32 GMT-0700 (Pacific Daylight Time)","242625","html-keyboard-response","112","165462","0.0-5.0-3.35","","null","","<div class='trialBorder'><div class='vertical-center'><img style='vertical-align:center; align:center' src=img/fixation3.jpg></div><div class='cl'><div class='vertical-center'><font style='color:orange'>$39<br>with a<br>50% chance</font></div></div><div class='cr'><div class='vertical-center'>$18<br>for<br>sure</div></div><div class='respDivL'><div class='vertical-center'><font style='color:orange'>(E)</font></div></div><div class='respDivR'><div class='vertical-center'>(I)</div></div></div>","null","$18","$39","1","18","39",""
"","","","FIX","63d43dc4b4b7a0e426a381cd","bdp_rd","Sun Mar 26 2023 17:29:32 GMT-0700 (Pacific Daylight Time)","242625","html-keyboard-response","113","165965","0.0-5.0-1.36","","null","","<div class='trialBorder'><div class='vertical-center'><img style='vertical-align:center; align:center' src=img/fixation3.jpg></div></div>","null","","","","","",""
"","","","offer","63d43dc4b4b7a0e426a381cd","bdp_rd","Sun Mar 26 2023 17:29:32 GMT-0700 (Pacific Daylight Time)","242625","html-keyboard-response","114","168476","0.0-5.0-2.36","","2508","","<div class='trialBorder'><div class='vertical-center'><img style='vertical-align:center; align:center' src=img/fixation3.jpg></div><div class='cl'><div class='vertical-center'>$19<br>with a<br>50% chance</div></div><div class='cr'><div class='vertical-center'>$10<br>for<br>sure</div></div><div class='respDivL'><div class='vertical-center'>(E)</div></div><div class='respDivR'><div class='vertical-center'>(I)</div></div></div>","I","$10","$19","1","10","19","SURE"
"","","","offerFB","63d43dc4b4b7a0e426a381cd","bdp_rd","Sun Mar 26 2023 17:29:32 GMT-0700 (Pacific Daylight Time)","242625","html-keyboard-response","115","168729","0.0-5.0-3.36","","null","","<div class='trialBorder'><div class='vertical-center'><img style='vertical-align:center; align:center' src=img/fixation3.jpg></div><div class='cl'><div class='vertical-center'>$19<br>with a<br>50% chance</div></div><div class='cr'><div class='vertical-center'><font style='color:orange'>$10<br>for<br>sure</font></div></div><div class='respDivL'><div class='vertical-center'>(E)</div></div><div class='respDivR'><div class='vertical-center'><font style='color:orange'>(I)</font></div></div></div>","null","$10","$19","1","10","19",""
"","","","FIX","63d43dc4b4b7a0e426a381cd","bdp_rd","Sun Mar 26 2023 17:29:32 GMT-0700 (Pacific Daylight Time)","242625","html-keyboard-response","116","169230","0.0-5.0-1.37","","null","","<div class='trialBorder'><div class='vertical-center'><img style='vertical-align:center; align:center' src=img/fixation3.jpg></div></div>","null","","","","","",""
"","","","offer","63d43dc4b4b7a0e426a381cd","bdp_rd","Sun Mar 26 2023 17:29:32 GMT-0700 (Pacific Daylight Time)","242625","html-keyboard-response","117","171371","0.0-5.0-2.37","","2139","","<div class='trialBorder'><div class='vertical-center'><img style='vertical-align:center; align:center' src=img/fixation3.jpg></div><div class='cl'><div class='vertical-center'>$18<br>for<br>sure</div></div><div class='cr'><div class='vertical-center'>$36<br>with a<br>50% chance</div></div><div class='respDivL'><div class='vertical-center'>(E)</div></div><div class='respDivR'><div class='vertical-center'>(I)</div></div></div>","E","$18","$36","0","18","36","SURE"
"","","","offerFB","63d43dc4b4b7a0e426a381cd","bdp_rd","Sun Mar 26 2023 17:29:32 GMT-0700 (Pacific Daylight Time)","242625","html-keyboard-response","118","171624","0.0-5.0-3.37","","null","","<div class='trialBorder'><div class='vertical-center'><img style='vertical-align:center; align:center' src=img/fixation3.jpg></div><div class='cl'><div class='vertical-center'><font style='color:orange'>$18<br>for<br>sure</font></div></div><div class='cr'><div class='vertical-center'>$36<br>with a<br>50% chance</div></div><div class='respDivL'><div class='vertical-center'><font style='color:orange'>(E)</font></div></div><div class='respDivR'><div class='vertical-center'>(I)</div></div></div>","null","$18","$36","0","18","36",""
"","","","FIX","63d43dc4b4b7a0e426a381cd","bdp_rd","Sun Mar 26 2023 17:29:32 GMT-0700 (Pacific Daylight Time)","242625","html-keyboard-response","119","172128","0.0-5.0-1.38","","null","","<div class='trialBorder'><div class='vertical-center'><img style='vertical-align:center; align:center' src=img/fixation3.jpg></div></div>","null","","","","","",""
"","","","offer","63d43dc4b4b7a0e426a381cd","bdp_rd","Sun Mar 26 2023 17:29:32 GMT-0700 (Pacific Daylight Time)","242625","html-keyboard-response","120","178136","0.0-5.0-2.38","","6006","","<div class='trialBorder'><div class='vertical-center'><img style='vertical-align:center; align:center' src=img/fixation3.jpg></div><div class='cl'><div class='vertical-center'>$14<br>for<br>sure</div></div><div class='cr'><div class='vertical-center'>$22<br>with a<br>50% chance</div></div><div class='respDivL'><div class='vertical-center'>(E)</div></div><div class='respDivR'><div class='vertical-center'>(I)</div></div></div>","E","$14","$22","0","14","22","SURE"
"","","","offerFB","63d43dc4b4b7a0e426a381cd","bdp_rd","Sun Mar 26 2023 17:29:32 GMT-0700 (Pacific Daylight Time)","242625","html-keyboard-response","121","178390","0.0-5.0-3.38","","null","","<div class='trialBorder'><div class='vertical-center'><img style='vertical-align:center; align:center' src=img/fixation3.jpg></div><div class='cl'><div class='vertical-center'><font style='color:orange'>$14<br>for<br>sure</font></div></div><div class='cr'><div class='vertical-center'>$22<br>with a<br>50% chance</div></div><div class='respDivL'><div class='vertical-center'><font style='color:orange'>(E)</font></div></div><div class='respDivR'><div class='vertical-center'>(I)</div></div></div>","null","$14","$22","0","14","22",""
"","","","FIX","63d43dc4b4b7a0e426a381cd","bdp_rd","Sun Mar 26 2023 17:29:32 GMT-0700 (Pacific Daylight Time)","242625","html-keyboard-response","122","178892","0.0-5.0-1.39","","null","","<div class='trialBorder'><div class='vertical-center'><img style='vertical-align:center; align:center' src=img/fixation3.jpg></div></div>","null","","","","","",""
"","","","offer","63d43dc4b4b7a0e426a381cd","bdp_rd","Sun Mar 26 2023 17:29:32 GMT-0700 (Pacific Daylight Time)","242625","html-keyboard-response","123","183086","0.0-5.0-2.39","","4194","","<div class='trialBorder'><div class='vertical-center'><img style='vertical-align:center; align:center' src=img/fixation3.jpg></div><div class='cl'><div class='vertical-center'>$45<br>for<br>sure</div></div><div class='cr'><div class='vertical-center'>$86<br>with a<br>50% chance</div></div><div class='respDivL'><div class='vertical-center'>(E)</div></div><div class='respDivR'><div class='vertical-center'>(I)</div></div></div>","E","$45","$86","0","45","86","SURE"
"","","","offerFB","63d43dc4b4b7a0e426a381cd","bdp_rd","Sun Mar 26 2023 17:29:32 GMT-0700 (Pacific Daylight Time)","242625","html-keyboard-response","124","183338","0.0-5.0-3.39","","null","","<div class='trialBorder'><div class='vertical-center'><img style='vertical-align:center; align:center' src=img/fixation3.jpg></div><div class='cl'><div class='vertical-center'><font style='color:orange'>$45<br>for<br>sure</font></div></div><div class='cr'><div class='vertical-center'>$86<br>with a<br>50% chance</div></div><div class='respDivL'><div class='vertical-center'><font style='color:orange'>(E)</font></div></div><div class='respDivR'><div class='vertical-center'>(I)</div></div></div>","null","$45","$86","0","45","86",""
"","","","FIX","63d43dc4b4b7a0e426a381cd","bdp_rd","Sun Mar 26 2023 17:29:32 GMT-0700 (Pacific Daylight Time)","242625","html-keyboard-response","125","183839","0.0-5.0-1.40","","null","","<div class='trialBorder'><div class='vertical-center'><img style='vertical-align:center; align:center' src=img/fixation3.jpg></div></div>","null","","","","","",""
"","","","offer","63d43dc4b4b7a0e426a381cd","bdp_rd","Sun Mar 26 2023 17:29:32 GMT-0700 (Pacific Daylight Time)","242625","html-keyboard-response","126","185364","0.0-5.0-2.40","","1524","","<div class='trialBorder'><div class='vertical-center'><img style='vertical-align:center; align:center' src=img/fixation3.jpg></div><div class='cl'><div class='vertical-center'>$1<br>for<br>sure</div></div><div class='cr'><div class='vertical-center'>$30<br>with a<br>50% chance</div></div><div class='respDivL'><div class='vertical-center'>(E)</div></div><div class='respDivR'><div class='vertical-center'>(I)</div></div></div>","I","$1","$30","0","1","30","RISKY"
"","","","offerFB","63d43dc4b4b7a0e426a381cd","bdp_rd","Sun Mar 26 2023 17:29:32 GMT-0700 (Pacific Daylight Time)","242625","html-keyboard-response","127","185618","0.0-5.0-3.40","","null","","<div class='trialBorder'><div class='vertical-center'><img style='vertical-align:center; align:center' src=img/fixation3.jpg></div><div class='cl'><div class='vertical-center'>$1<br>for<br>sure</div></div><div class='cr'><div class='vertical-center'><font style='color:orange'>$30<br>with a<br>50% chance</font></div></div><div class='respDivL'><div class='vertical-center'>(E)</div></div><div class='respDivR'><div class='vertical-center'><font style='color:orange'>(I)</font></div></div></div>","null","$1","$30","0","1","30",""
"","","","FIX","63d43dc4b4b7a0e426a381cd","bdp_rd","Sun Mar 26 2023 17:29:32 GMT-0700 (Pacific Daylight Time)","242625","html-keyboard-response","128","186121","0.0-5.0-1.41","","null","","<div class='trialBorder'><div class='vertical-center'><img style='vertical-align:center; align:center' src=img/fixation3.jpg></div></div>","null","","","","","",""
"","","","offer","63d43dc4b4b7a0e426a381cd","bdp_rd","Sun Mar 26 2023 17:29:32 GMT-0700 (Pacific Daylight Time)","242625","html-keyboard-response","129","189463","0.0-5.0-2.41","","3341","","<div class='trialBorder'><div class='vertical-center'><img style='vertical-align:center; align:center' src=img/fixation3.jpg></div><div class='cl'><div class='vertical-center'>$31<br>for<br>sure</div></div><div class='cr'><div class='vertical-center'>$78<br>with a<br>50% chance</div></div><div class='respDivL'><div class='vertical-center'>(E)</div></div><div class='respDivR'><div class='vertical-center'>(I)</div></div></div>","I","$31","$78","0","31","78","RISKY"
"","","","offerFB","63d43dc4b4b7a0e426a381cd","bdp_rd","Sun Mar 26 2023 17:29:32 GMT-0700 (Pacific Daylight Time)","242625","html-keyboard-response","130","189715","0.0-5.0-3.41","","null","","<div class='trialBorder'><div class='vertical-center'><img style='vertical-align:center; align:center' src=img/fixation3.jpg></div><div class='cl'><div class='vertical-center'>$31<br>for<br>sure</div></div><div class='cr'><div class='vertical-center'><font style='color:orange'>$78<br>with a<br>50% chance</font></div></div><div class='respDivL'><div class='vertical-center'>(E)</div></div><div class='respDivR'><div class='vertical-center'><font style='color:orange'>(I)</font></div></div></div>","null","$31","$78","0","31","78",""
"","","","FIX","63d43dc4b4b7a0e426a381cd","bdp_rd","Sun Mar 26 2023 17:29:32 GMT-0700 (Pacific Daylight Time)","242625","html-keyboard-response","131","190218","0.0-5.0-1.42","","null","","<div class='trialBorder'><div class='vertical-center'><img style='vertical-align:center; align:center' src=img/fixation3.jpg></div></div>","null","","","","","",""
"","","","offer","63d43dc4b4b7a0e426a381cd","bdp_rd","Sun Mar 26 2023 17:29:32 GMT-0700 (Pacific Daylight Time)","242625","html-keyboard-response","132","191886","0.0-5.0-2.42","","1666","","<div class='trialBorder'><div class='vertical-center'><img style='vertical-align:center; align:center' src=img/fixation3.jpg></div><div class='cl'><div class='vertical-center'>$4<br>for<br>sure</div></div><div class='cr'><div class='vertical-center'>$14<br>with a<br>50% chance</div></div><div class='respDivL'><div class='vertical-center'>(E)</div></div><div class='respDivR'><div class='vertical-center'>(I)</div></div></div>","I","$4","$14","0","4","14","RISKY"
"","","","offerFB","63d43dc4b4b7a0e426a381cd","bdp_rd","Sun Mar 26 2023 17:29:32 GMT-0700 (Pacific Daylight Time)","242625","html-keyboard-response","133","192139","0.0-5.0-3.42","","null","","<div class='trialBorder'><div class='vertical-center'><img style='vertical-align:center; align:center' src=img/fixation3.jpg></div><div class='cl'><div class='vertical-center'>$4<br>for<br>sure</div></div><div class='cr'><div class='vertical-center'><font style='color:orange'>$14<br>with a<br>50% chance</font></div></div><div class='respDivL'><div class='vertical-center'>(E)</div></div><div class='respDivR'><div class='vertical-center'><font style='color:orange'>(I)</font></div></div></div>","null","$4","$14","0","4","14",""
"","","","FIX","63d43dc4b4b7a0e426a381cd","bdp_rd","Sun Mar 26 2023 17:29:32 GMT-0700 (Pacific Daylight Time)","242625","html-keyboard-response","134","192641","0.0-5.0-1.43","","null","","<div class='trialBorder'><div class='vertical-center'><img style='vertical-align:center; align:center' src=img/fixation3.jpg></div></div>","null","","","","","",""
"","","","offer","63d43dc4b4b7a0e426a381cd","bdp_rd","Sun Mar 26 2023 17:29:32 GMT-0700 (Pacific Daylight Time)","242625","html-keyboard-response","135","193812","0.0-5.0-2.43","","1171","","<div class='trialBorder'><div class='vertical-center'><img style='vertical-align:center; align:center' src=img/fixation3.jpg></div><div class='cl'><div class='vertical-center'>$10<br>for<br>sure</div></div><div class='cr'><div class='vertical-center'>$40<br>with a<br>50% chance</div></div><div class='respDivL'><div class='vertical-center'>(E)</div></div><div class='respDivR'><div class='vertical-center'>(I)</div></div></div>","I","$10","$40","0","10","40","RISKY"
"","","","offerFB","63d43dc4b4b7a0e426a381cd","bdp_rd","Sun Mar 26 2023 17:29:32 GMT-0700 (Pacific Daylight Time)","242625","html-keyboard-response","136","194066","0.0-5.0-3.43","","null","","<div class='trialBorder'><div class='vertical-center'><img style='vertical-align:center; align:center' src=img/fixation3.jpg></div><div class='cl'><div class='vertical-center'>$10<br>for<br>sure</div></div><div class='cr'><div class='vertical-center'><font style='color:orange'>$40<br>with a<br>50% chance</font></div></div><div class='respDivL'><div class='vertical-center'>(E)</div></div><div class='respDivR'><div class='vertical-center'><font style='color:orange'>(I)</font></div></div></div>","null","$10","$40","0","10","40",""
"","","","FIX","63d43dc4b4b7a0e426a381cd","bdp_rd","Sun Mar 26 2023 17:29:32 GMT-0700 (Pacific Daylight Time)","242625","html-keyboard-response","137","194566","0.0-5.0-1.44","","null","","<div class='trialBorder'><div class='vertical-center'><img style='vertical-align:center; align:center' src=img/fixation3.jpg></div></div>","null","","","","","",""
"","","","offer","63d43dc4b4b7a0e426a381cd","bdp_rd","Sun Mar 26 2023 17:29:32 GMT-0700 (Pacific Daylight Time)","242625","html-keyboard-response","138","196616","0.0-5.0-2.44","","2048","","<div class='trialBorder'><div class='vertical-center'><img style='vertical-align:center; align:center' src=img/fixation3.jpg></div><div class='cl'><div class='vertical-center'>$13<br>with a<br>50% chance</div></div><div class='cr'><div class='vertical-center'>$6<br>for<br>sure</div></div><div class='respDivL'><div class='vertical-center'>(E)</div></div><div class='respDivR'><div class='vertical-center'>(I)</div></div></div>","E","$6","$13","1","6","13","RISKY"
"","","","offerFB","63d43dc4b4b7a0e426a381cd","bdp_rd","Sun Mar 26 2023 17:29:32 GMT-0700 (Pacific Daylight Time)","242625","html-keyboard-response","139","196869","0.0-5.0-3.44","","null","","<div class='trialBorder'><div class='vertical-center'><img style='vertical-align:center; align:center' src=img/fixation3.jpg></div><div class='cl'><div class='vertical-center'><font style='color:orange'>$13<br>with a<br>50% chance</font></div></div><div class='cr'><div class='vertical-center'>$6<br>for<br>sure</div></div><div class='respDivL'><div class='vertical-center'><font style='color:orange'>(E)</font></div></div><div class='respDivR'><div class='vertical-center'>(I)</div></div></div>","null","$6","$13","1","6","13",""
"","","","FIX","63d43dc4b4b7a0e426a381cd","bdp_rd","Sun Mar 26 2023 17:29:32 GMT-0700 (Pacific Daylight Time)","242625","html-keyboard-response","140","197370","0.0-5.0-1.45","","null","","<div class='trialBorder'><div class='vertical-center'><img style='vertical-align:center; align:center' src=img/fixation3.jpg></div></div>","null","","","","","",""
"","","","offer","63d43dc4b4b7a0e426a381cd","bdp_rd","Sun Mar 26 2023 17:29:32 GMT-0700 (Pacific Daylight Time)","242625","html-keyboard-response","141","203028","0.0-5.0-2.45","","5656","","<div class='trialBorder'><div class='vertical-center'><img style='vertical-align:center; align:center' src=img/fixation3.jpg></div><div class='cl'><div class='vertical-center'>$17<br>for<br>sure</div></div><div class='cr'><div class='vertical-center'>$43<br>with a<br>50% chance</div></div><div class='respDivL'><div class='vertical-center'>(E)</div></div><div class='respDivR'><div class='vertical-center'>(I)</div></div></div>","I","$17","$43","0","17","43","RISKY"
"","","","offerFB","63d43dc4b4b7a0e426a381cd","bdp_rd","Sun Mar 26 2023 17:29:32 GMT-0700 (Pacific Daylight Time)","242625","html-keyboard-response","142","203281","0.0-5.0-3.45","","null","","<div class='trialBorder'><div class='vertical-center'><img style='vertical-align:center; align:center' src=img/fixation3.jpg></div><div class='cl'><div class='vertical-center'>$17<br>for<br>sure</div></div><div class='cr'><div class='vertical-center'><font style='color:orange'>$43<br>with a<br>50% chance</font></div></div><div class='respDivL'><div class='vertical-center'>(E)</div></div><div class='respDivR'><div class='vertical-center'><font style='color:orange'>(I)</font></div></div></div>","null","$17","$43","0","17","43",""
"","","","FIX","63d43dc4b4b7a0e426a381cd","bdp_rd","Sun Mar 26 2023 17:29:32 GMT-0700 (Pacific Daylight Time)","242625","html-keyboard-response","143","203784","0.0-5.0-1.46","","null","","<div class='trialBorder'><div class='vertical-center'><img style='vertical-align:center; align:center' src=img/fixation3.jpg></div></div>","null","","","","","",""
"","","","offer","63d43dc4b4b7a0e426a381cd","bdp_rd","Sun Mar 26 2023 17:29:32 GMT-0700 (Pacific Daylight Time)","242625","html-keyboard-response","144","206872","0.0-5.0-2.46","","3086","","<div class='trialBorder'><div class='vertical-center'><img style='vertical-align:center; align:center' src=img/fixation3.jpg></div><div class='cl'><div class='vertical-center'>$9<br>for<br>sure</div></div><div class='cr'><div class='vertical-center'>$18<br>with a<br>50% chance</div></div><div class='respDivL'><div class='vertical-center'>(E)</div></div><div class='respDivR'><div class='vertical-center'>(I)</div></div></div>","E","$9","$18","0","9","18","SURE"
"","","","offerFB","63d43dc4b4b7a0e426a381cd","bdp_rd","Sun Mar 26 2023 17:29:32 GMT-0700 (Pacific Daylight Time)","242625","html-keyboard-response","145","207126","0.0-5.0-3.46","","null","","<div class='trialBorder'><div class='vertical-center'><img style='vertical-align:center; align:center' src=img/fixation3.jpg></div><div class='cl'><div class='vertical-center'><font style='color:orange'>$9<br>for<br>sure</font></div></div><div class='cr'><div class='vertical-center'>$18<br>with a<br>50% chance</div></div><div class='respDivL'><div class='vertical-center'><font style='color:orange'>(E)</font></div></div><div class='respDivR'><div class='vertical-center'>(I)</div></div></div>","null","$9","$18","0","9","18",""
"","","","FIX","63d43dc4b4b7a0e426a381cd","bdp_rd","Sun Mar 26 2023 17:29:32 GMT-0700 (Pacific Daylight Time)","242625","html-keyboard-response","146","207629","0.0-5.0-1.47","","null","","<div class='trialBorder'><div class='vertical-center'><img style='vertical-align:center; align:center' src=img/fixation3.jpg></div></div>","null","","","","","",""
"","","","offer","63d43dc4b4b7a0e426a381cd","bdp_rd","Sun Mar 26 2023 17:29:32 GMT-0700 (Pacific Daylight Time)","242625","html-keyboard-response","147","209846","0.0-5.0-2.47","","2216","","<div class='trialBorder'><div class='vertical-center'><img style='vertical-align:center; align:center' src=img/fixation3.jpg></div><div class='cl'><div class='vertical-center'>$54<br>with a<br>50% chance</div></div><div class='cr'><div class='vertical-center'>$25<br>for<br>sure</div></div><div class='respDivL'><div class='vertical-center'>(E)</div></div><div class='respDivR'><div class='vertical-center'>(I)</div></div></div>","E","$25","$54","1","25","54","RISKY"
"","","","offerFB","63d43dc4b4b7a0e426a381cd","bdp_rd","Sun Mar 26 2023 17:29:32 GMT-0700 (Pacific Daylight Time)","242625","html-keyboard-response","148","210098","0.0-5.0-3.47","","null","","<div class='trialBorder'><div class='vertical-center'><img style='vertical-align:center; align:center' src=img/fixation3.jpg></div><div class='cl'><div class='vertical-center'><font style='color:orange'>$54<br>with a<br>50% chance</font></div></div><div class='cr'><div class='vertical-center'>$25<br>for<br>sure</div></div><div class='respDivL'><div class='vertical-center'><font style='color:orange'>(E)</font></div></div><div class='respDivR'><div class='vertical-center'>(I)</div></div></div>","null","$25","$54","1","25","54",""
"","","","FIX","63d43dc4b4b7a0e426a381cd","bdp_rd","Sun Mar 26 2023 17:29:32 GMT-0700 (Pacific Daylight Time)","242625","html-keyboard-response","149","210600","0.0-5.0-1.48","","null","","<div class='trialBorder'><div class='vertical-center'><img style='vertical-align:center; align:center' src=img/fixation3.jpg></div></div>","null","","","","","",""
"","","","offer","63d43dc4b4b7a0e426a381cd","bdp_rd","Sun Mar 26 2023 17:29:32 GMT-0700 (Pacific Daylight Time)","242625","html-keyboard-response","150","213680","0.0-5.0-2.48","","3079","","<div class='trialBorder'><div class='vertical-center'><img style='vertical-align:center; align:center' src=img/fixation3.jpg></div><div class='cl'><div class='vertical-center'>$28<br>with a<br>50% chance</div></div><div class='cr'><div class='vertical-center'>$16<br>for<br>sure</div></div><div class='respDivL'><div class='vertical-center'>(E)</div></div><div class='respDivR'><div class='vertical-center'>(I)</div></div></div>","I","$16","$28","1","16","28","SURE"
"","","","offerFB","63d43dc4b4b7a0e426a381cd","bdp_rd","Sun Mar 26 2023 17:29:32 GMT-0700 (Pacific Daylight Time)","242625","html-keyboard-response","151","213931","0.0-5.0-3.48","","null","","<div class='trialBorder'><div class='vertical-center'><img style='vertical-align:center; align:center' src=img/fixation3.jpg></div><div class='cl'><div class='vertical-center'>$28<br>with a<br>50% chance</div></div><div class='cr'><div class='vertical-center'><font style='color:orange'>$16<br>for<br>sure</font></div></div><div class='respDivL'><div class='vertical-center'>(E)</div></div><div class='respDivR'><div class='vertical-center'><font style='color:orange'>(I)</font></div></div></div>","null","$16","$28","1","16","28",""
"","","","FIX","63d43dc4b4b7a0e426a381cd","bdp_rd","Sun Mar 26 2023 17:29:32 GMT-0700 (Pacific Daylight Time)","242625","html-keyboard-response","152","214433","0.0-5.0-1.49","","null","","<div class='trialBorder'><div class='vertical-center'><img style='vertical-align:center; align:center' src=img/fixation3.jpg></div></div>","null","","","","","",""
"","","","offer","63d43dc4b4b7a0e426a381cd","bdp_rd","Sun Mar 26 2023 17:29:32 GMT-0700 (Pacific Daylight Time)","242625","html-keyboard-response","153","216247","0.0-5.0-2.49","","1813","","<div class='trialBorder'><div class='vertical-center'><img style='vertical-align:center; align:center' src=img/fixation3.jpg></div><div class='cl'><div class='vertical-center'>$62<br>with a<br>50% chance</div></div><div class='cr'><div class='vertical-center'>$11<br>for<br>sure</div></div><div class='respDivL'><div class='vertical-center'>(E)</div></div><div class='respDivR'><div class='vertical-center'>(I)</div></div></div>","E","$11","$62","1","11","62","RISKY"
"","","","offerFB","63d43dc4b4b7a0e426a381cd","bdp_rd","Sun Mar 26 2023 17:29:32 GMT-0700 (Pacific Daylight Time)","242625","html-keyboard-response","154","216500","0.0-5.0-3.49","","null","","<div class='trialBorder'><div class='vertical-center'><img style='vertical-align:center; align:center' src=img/fixation3.jpg></div><div class='cl'><div class='vertical-center'><font style='color:orange'>$62<br>with a<br>50% chance</font></div></div><div class='cr'><div class='vertical-center'>$11<br>for<br>sure</div></div><div class='respDivL'><div class='vertical-center'><font style='color:orange'>(E)</font></div></div><div class='respDivR'><div class='vertical-center'>(I)</div></div></div>","null","$11","$62","1","11","62",""
"","","","FIX","63d43dc4b4b7a0e426a381cd","bdp_rd","Sun Mar 26 2023 17:29:32 GMT-0700 (Pacific Daylight Time)","242625","html-keyboard-response","155","217001","0.0-5.0-1.50","","null","","<div class='trialBorder'><div class='vertical-center'><img style='vertical-align:center; align:center' src=img/fixation3.jpg></div></div>","null","","","","","",""
"","","","offer","63d43dc4b4b7a0e426a381cd","bdp_rd","Sun Mar 26 2023 17:29:32 GMT-0700 (Pacific Daylight Time)","242625","html-keyboard-response","156","218595","0.0-5.0-2.50","","1592","","<div class='trialBorder'><div class='vertical-center'><img style='vertical-align:center; align:center' src=img/fixation3.jpg></div><div class='cl'><div class='vertical-center'>$92<br>with a<br>50% chance</div></div><div class='cr'><div class='vertical-center'>$26<br>for<br>sure</div></div><div class='respDivL'><div class='vertical-center'>(E)</div></div><div class='respDivR'><div class='vertical-center'>(I)</div></div></div>","E","$26","$92","1","26","92","RISKY"
"","","","offerFB","63d43dc4b4b7a0e426a381cd","bdp_rd","Sun Mar 26 2023 17:29:32 GMT-0700 (Pacific Daylight Time)","242625","html-keyboard-response","157","218848","0.0-5.0-3.50","","null","","<div class='trialBorder'><div class='vertical-center'><img style='vertical-align:center; align:center' src=img/fixation3.jpg></div><div class='cl'><div class='vertical-center'><font style='color:orange'>$92<br>with a<br>50% chance</font></div></div><div class='cr'><div class='vertical-center'>$26<br>for<br>sure</div></div><div class='respDivL'><div class='vertical-center'><font style='color:orange'>(E)</font></div></div><div class='respDivR'><div class='vertical-center'>(I)</div></div></div>","null","$26","$92","1","26","92",""
"","","","FIX","63d43dc4b4b7a0e426a381cd","bdp_rd","Sun Mar 26 2023 17:29:32 GMT-0700 (Pacific Daylight Time)","242625","html-keyboard-response","158","219349","0.0-5.0-1.51","","null","","<div class='trialBorder'><div class='vertical-center'><img style='vertical-align:center; align:center' src=img/fixation3.jpg></div></div>","null","","","","","",""
"","","","offer","63d43dc4b4b7a0e426a381cd","bdp_rd","Sun Mar 26 2023 17:29:32 GMT-0700 (Pacific Daylight Time)","242625","html-keyboard-response","159","221406","0.0-5.0-2.51","","2055","","<div class='trialBorder'><div class='vertical-center'><img style='vertical-align:center; align:center' src=img/fixation3.jpg></div><div class='cl'><div class='vertical-center'>$24<br>with a<br>50% chance</div></div><div class='cr'><div class='vertical-center'>$13<br>for<br>sure</div></div><div class='respDivL'><div class='vertical-center'>(E)</div></div><div class='respDivR'><div class='vertical-center'>(I)</div></div></div>","I","$13","$24","1","13","24","SURE"
"","","","offerFB","63d43dc4b4b7a0e426a381cd","bdp_rd","Sun Mar 26 2023 17:29:32 GMT-0700 (Pacific Daylight Time)","242625","html-keyboard-response","160","221659","0.0-5.0-3.51","","null","","<div class='trialBorder'><div class='vertical-center'><img style='vertical-align:center; align:center' src=img/fixation3.jpg></div><div class='cl'><div class='vertical-center'>$24<br>with a<br>50% chance</div></div><div class='cr'><div class='vertical-center'><font style='color:orange'>$13<br>for<br>sure</font></div></div><div class='respDivL'><div class='vertical-center'>(E)</div></div><div class='respDivR'><div class='vertical-center'><font style='color:orange'>(I)</font></div></div></div>","null","$13","$24","1","13","24",""
"","","","FIX","63d43dc4b4b7a0e426a381cd","bdp_rd","Sun Mar 26 2023 17:29:32 GMT-0700 (Pacific Daylight Time)","242625","html-keyboard-response","161","222160","0.0-5.0-1.52","","null","","<div class='trialBorder'><div class='vertical-center'><img style='vertical-align:center; align:center' src=img/fixation3.jpg></div></div>","null","","","","","",""
"","","","offer","63d43dc4b4b7a0e426a381cd","bdp_rd","Sun Mar 26 2023 17:29:32 GMT-0700 (Pacific Daylight Time)","242625","html-keyboard-response","162","225027","0.0-5.0-2.52","","2865","","<div class='trialBorder'><div class='vertical-center'><img style='vertical-align:center; align:center' src=img/fixation3.jpg></div><div class='cl'><div class='vertical-center'>$53<br>for<br>sure</div></div><div class='cr'><div class='vertical-center'>$98<br>with a<br>50% chance</div></div><div class='respDivL'><div class='vertical-center'>(E)</div></div><div class='respDivR'><div class='vertical-center'>(I)</div></div></div>","E","$53","$98","0","53","98","SURE"
"","","","offerFB","63d43dc4b4b7a0e426a381cd","bdp_rd","Sun Mar 26 2023 17:29:32 GMT-0700 (Pacific Daylight Time)","242625","html-keyboard-response","163","225280","0.0-5.0-3.52","","null","","<div class='trialBorder'><div class='vertical-center'><img style='vertical-align:center; align:center' src=img/fixation3.jpg></div><div class='cl'><div class='vertical-center'><font style='color:orange'>$53<br>for<br>sure</font></div></div><div class='cr'><div class='vertical-center'>$98<br>with a<br>50% chance</div></div><div class='respDivL'><div class='vertical-center'><font style='color:orange'>(E)</font></div></div><div class='respDivR'><div class='vertical-center'>(I)</div></div></div>","null","$53","$98","0","53","98",""
"","","","FIX","63d43dc4b4b7a0e426a381cd","bdp_rd","Sun Mar 26 2023 17:29:32 GMT-0700 (Pacific Daylight Time)","242625","html-keyboard-response","164","225783","0.0-5.0-1.53","","null","","<div class='trialBorder'><div class='vertical-center'><img style='vertical-align:center; align:center' src=img/fixation3.jpg></div></div>","null","","","","","",""
"","","","offer","63d43dc4b4b7a0e426a381cd","bdp_rd","Sun Mar 26 2023 17:29:32 GMT-0700 (Pacific Daylight Time)","242625","html-keyboard-response","165","227256","0.0-5.0-2.53","","1472","","<div class='trialBorder'><div class='vertical-center'><img style='vertical-align:center; align:center' src=img/fixation3.jpg></div><div class='cl'><div class='vertical-center'>$7<br>for<br>sure</div></div><div class='cr'><div class='vertical-center'>$71<br>with a<br>50% chance</div></div><div class='respDivL'><div class='vertical-center'>(E)</div></div><div class='respDivR'><div class='vertical-center'>(I)</div></div></div>","I","$7","$71","0","7","71","RISKY"
"","","","offerFB","63d43dc4b4b7a0e426a381cd","bdp_rd","Sun Mar 26 2023 17:29:32 GMT-0700 (Pacific Daylight Time)","242625","html-keyboard-response","166","227509","0.0-5.0-3.53","","null","","<div class='trialBorder'><div class='vertical-center'><img style='vertical-align:center; align:center' src=img/fixation3.jpg></div><div class='cl'><div class='vertical-center'>$7<br>for<br>sure</div></div><div class='cr'><div class='vertical-center'><font style='color:orange'>$71<br>with a<br>50% chance</font></div></div><div class='respDivL'><div class='vertical-center'>(E)</div></div><div class='respDivR'><div class='vertical-center'><font style='color:orange'>(I)</font></div></div></div>","null","$7","$71","0","7","71",""
"","","","FIX","63d43dc4b4b7a0e426a381cd","bdp_rd","Sun Mar 26 2023 17:29:32 GMT-0700 (Pacific Daylight Time)","242625","html-keyboard-response","167","228010","0.0-5.0-1.54","","null","","<div class='trialBorder'><div class='vertical-center'><img style='vertical-align:center; align:center' src=img/fixation3.jpg></div></div>","null","","","","","",""
"","","","offer","63d43dc4b4b7a0e426a381cd","bdp_rd","Sun Mar 26 2023 17:29:32 GMT-0700 (Pacific Daylight Time)","242625","html-keyboard-response","168","230707","0.0-5.0-2.54","","2695","","<div class='trialBorder'><div class='vertical-center'><img style='vertical-align:center; align:center' src=img/fixation3.jpg></div><div class='cl'><div class='vertical-center'>$95<br>with a<br>50% chance</div></div><div class='cr'><div class='vertical-center'>$40<br>for<br>sure</div></div><div class='respDivL'><div class='vertical-center'>(E)</div></div><div class='respDivR'><div class='vertical-center'>(I)</div></div></div>","E","$40","$95","1","40","95","RISKY"
"","","","offerFB","63d43dc4b4b7a0e426a381cd","bdp_rd","Sun Mar 26 2023 17:29:32 GMT-0700 (Pacific Daylight Time)","242625","html-keyboard-response","169","230959","0.0-5.0-3.54","","null","","<div class='trialBorder'><div class='vertical-center'><img style='vertical-align:center; align:center' src=img/fixation3.jpg></div><div class='cl'><div class='vertical-center'><font style='color:orange'>$95<br>with a<br>50% chance</font></div></div><div class='cr'><div class='vertical-center'>$40<br>for<br>sure</div></div><div class='respDivL'><div class='vertical-center'><font style='color:orange'>(E)</font></div></div><div class='respDivR'><div class='vertical-center'>(I)</div></div></div>","null","$40","$95","1","40","95",""
"","","","FIX","63d43dc4b4b7a0e426a381cd","bdp_rd","Sun Mar 26 2023 17:29:32 GMT-0700 (Pacific Daylight Time)","242625","html-keyboard-response","170","231462","0.0-5.0-1.55","","null","","<div class='trialBorder'><div class='vertical-center'><img style='vertical-align:center; align:center' src=img/fixation3.jpg></div></div>","null","","","","","",""
"","","","offer","63d43dc4b4b7a0e426a381cd","bdp_rd","Sun Mar 26 2023 17:29:32 GMT-0700 (Pacific Daylight Time)","242625","html-keyboard-response","171","233153","0.0-5.0-2.55","","1689","","<div class='trialBorder'><div class='vertical-center'><img style='vertical-align:center; align:center' src=img/fixation3.jpg></div><div class='cl'><div class='vertical-center'>$22<br>for<br>sure</div></div><div class='cr'><div class='vertical-center'>$59<br>with a<br>50% chance</div></div><div class='respDivL'><div class='vertical-center'>(E)</div></div><div class='respDivR'><div class='vertical-center'>(I)</div></div></div>","I","$22","$59","0","22","59","RISKY"
"","","","offerFB","63d43dc4b4b7a0e426a381cd","bdp_rd","Sun Mar 26 2023 17:29:32 GMT-0700 (Pacific Daylight Time)","242625","html-keyboard-response","172","233405","0.0-5.0-3.55","","null","","<div class='trialBorder'><div class='vertical-center'><img style='vertical-align:center; align:center' src=img/fixation3.jpg></div><div class='cl'><div class='vertical-center'>$22<br>for<br>sure</div></div><div class='cr'><div class='vertical-center'><font style='color:orange'>$59<br>with a<br>50% chance</font></div></div><div class='respDivL'><div class='vertical-center'>(E)</div></div><div class='respDivR'><div class='vertical-center'><font style='color:orange'>(I)</font></div></div></div>","null","$22","$59","0","22","59",""
"","","","FIX","63d43dc4b4b7a0e426a381cd","bdp_rd","Sun Mar 26 2023 17:29:32 GMT-0700 (Pacific Daylight Time)","242625","html-keyboard-response","173","233907","0.0-5.0-1.56","","null","","<div class='trialBorder'><div class='vertical-center'><img style='vertical-align:center; align:center' src=img/fixation3.jpg></div></div>","null","","","","","",""
"","","","offer","63d43dc4b4b7a0e426a381cd","bdp_rd","Sun Mar 26 2023 17:29:32 GMT-0700 (Pacific Daylight Time)","242625","html-keyboard-response","174","234903","0.0-5.0-2.56","","996","","<div class='trialBorder'><div class='vertical-center'><img style='vertical-align:center; align:center' src=img/fixation3.jpg></div><div class='cl'><div class='vertical-center'>$9<br>for<br>sure</div></div><div class='cr'><div class='vertical-center'>$32<br>with a<br>50% chance</div></div><div class='respDivL'><div class='vertical-center'>(E)</div></div><div class='respDivR'><div class='vertical-center'>(I)</div></div></div>","I","$9","$32","0","9","32","RISKY"
